"success","trial_type","trial_index","time_elapsed","internal_node_id","interactions","blur_events","focus_events","fullscreenenter_events","fullscreenexit_events","rt","stimulus","key_press","subject_id","participant_id","age","gender","prompt","response","choice_outcomes","context_n","context_img_id","trial_n","probe_img_id","pR_red","pR_white","pR_black","outcome","is_valid","image_to_show","probed_trial","probed_context","correct","probe","probed_trial_n","probed_context_n","context_im"
"true","fullscreen","0","7377","0.0-0.0","""event"",""trial"",""time""
""fullscreenenter"",""0"",""6389""
","
","
","""event"",""trial"",""time""
""fullscreenenter"",""0"",""6389""
","
","","","","","","","","","","","","","","","","","","","","","","","","","","",""
"","pavlovia","1","7379","0.0-1.0","""event"",""trial"",""time""
""fullscreenenter"",""0"",""6389""
","
","
","""event"",""trial"",""time""
""fullscreenenter"",""0"",""6389""
","
","","","","","","","","","","","","","","","","","","","","","","","","","","",""
"","welc_back","2","17158","0.0-2.0","""event"",""trial"",""time""
""fullscreenenter"",""0"",""6389""
","
","
","""event"",""trial"",""time""
""fullscreenenter"",""0"",""6389""
","
","null","run_exp/static/audio/clip_29_welcome_back.m4a","null","635","560","15","Male","<div class='center'><p>Welcome to day 2!</p><p> Yesterday, you were the head captain of a pirate ship. You asked your fellow pirates to rob other ships of their gold across six different islands.</p></div>","","","","","","","","","","","","","","","","","","",""
"","html-keyboard-response","3","17665","0.0-3.0","""event"",""trial"",""time""
""fullscreenenter"",""0"",""6389""
","
","
","""event"",""trial"",""time""
""fullscreenenter"",""0"",""6389""
","
","506.2999999523163","<div class='center'><p>Welcome to day 2!</p><p> Yesterday, you were the head captain of a pirate ship. You asked your fellow pirates to rob other ships of their gold across six different islands.</p><p><b>[Press the space bar to continue]</b></p></div>","32","","","","","","","","","","","","","","","","","","","","","","","",""
"","day_1_summary_goal","4","34858","0.0-4.0","""event"",""trial"",""time""
""fullscreenenter"",""0"",""6389""
","
","
","""event"",""trial"",""time""
""fullscreenenter"",""0"",""6389""
","
","null","run_exp/static/audio/clip_30_goal_of_game.m4a","null","","","","","<div class='center'><p>Today, like yesterday, you get to pick which pirate you want to rob the next ship.</p><p>If the pirate is successful in robbing a ship, you get gold coins that look like this: </p><p><img src='run_exp/static/images/tutorial/reward.png' height='150'></p><p> If they were not successful in robbing the ship, then you will get no gold coins and you'll see a big red x like this: </p><p><img src='run_exp/static/images/tutorial/reward_no.png' height='150'></p></div>","","","","","","","","","","","","","","","","","","",""
"","html-keyboard-response","5","35286","0.0-5.0","""event"",""trial"",""time""
""fullscreenenter"",""0"",""6389""
","
","
","""event"",""trial"",""time""
""fullscreenenter"",""0"",""6389""
","
","427.09999990463257","<div class='center'><p>Today, like yesterday, you get to pick which pirate you want to rob the next ship.</p><p>If the pirate is successful in robbing a ship, you get gold coins that look like this: </p><p><img src='run_exp/static/images/tutorial/reward.png' height='150'></p><p> If they were not successful in robbing the ship, then you will get no gold coins and you'll see a big red x like this: </p><p><img src='run_exp/static/images/tutorial/reward_no.png' height='150'></p><p><b>[Press the space bar to continue]</b></p></div>","32","","","","","","","","","","","","","","","","","","","","","","","",""
"","day_1_summary_pick","6","49978","0.0-6.0","""event"",""trial"",""time""
""fullscreenenter"",""0"",""6389""
","
","
","""event"",""trial"",""time""
""fullscreenenter"",""0"",""6389""
","
","null","run_exp/static/audio/clip_31_how_to_pick_a_pirate.m4a","null","","","","","<div class='center'><p>Also, just like yesterday, you will use the 1,2,3 keys on your keyboard to pick a pirate. Press '1' to choose red beard, '2' to choose white beard, and '3' to choose black beard . You only have 3 seconds to pick a pirate, so please make a choice quickly!</p></div>","","","","","","","","","","","","","","","","","","",""
"","html-keyboard-response","7","50240","0.0-7.0","""event"",""trial"",""time""
""fullscreenenter"",""0"",""6389""
","
","
","""event"",""trial"",""time""
""fullscreenenter"",""0"",""6389""
","
","261.59999990463257","<div class='center'><p>Also, just like yesterday, you will use the 1,2,3 keys on your keyboard to pick a pirate. Press '1' to choose red beard, '2' to choose white beard, and '3' to choose black beard . You only have 3 seconds to pick a pirate, so please make a choice quickly!</p><p><b>[Press the space bar to continue]</b></p></div>","32","","","","","","","","","","","","","","","","","","","","","","","",""
"","test_phase_begin","8","80618","0.0-8.0","""event"",""trial"",""time""
""fullscreenenter"",""0"",""6389""
","
","
","""event"",""trial"",""time""
""fullscreenenter"",""0"",""6389""
","
","null","run_exp/static/audio/clip_32_final_place.m4a","null","","","","","<div class='center'><p>You’ve arrived at the final island of your journey! Unfortunately, it’s very foggy out, so you won’t be able to see it in the distance like the other islands you've visited.</p><p>You’ll still be deciding which pirate you want to rob a ship like before. However, because of the fog, you also won’t be able to see the ship.</p><p>This means you do not have to remember the ships you rob on this island.</p><p>Unlike yesterday, you won't be visiting multiple islands today. You will stay on this island for the entire game. This game will last ~30 minutes.</p></div>","","","","","","","","","","","","","","","","","","",""
"","html-keyboard-response","9","81350","0.0-9.0","""event"",""trial"",""time""
""fullscreenenter"",""0"",""6389""
","
","
","""event"",""trial"",""time""
""fullscreenenter"",""0"",""6389""
","
","731.6000001430511","<div class='center'><p>You’ve arrived at the final island of your journey! Unfortunately, it’s very foggy out, so you won’t be able to see it in the distance like the other islands you've visited.</p><p>You’ll still be deciding which pirate you want to rob a ship like before. However, because of the fog, you also won’t be able to see the ship.</p><p>This means you do not have to remember the ships you rob on this island.</p><p>Unlike yesterday, you won't be visiting multiple islands today. You will stay on this island for the entire game. This game will last ~30 minutes.</p><p><b>[Press the space bar to continue]</b></p></div>","32","","","","","","","","","","","","","","","","","","","","","","","",""
"","explain_probe_1","10","89058","0.0-10.0","""event"",""trial"",""time""
""fullscreenenter"",""0"",""6389""
","
","
","""event"",""trial"",""time""
""fullscreenenter"",""0"",""6389""
","
","null","run_exp/static/audio/clip_33_recognition_1.m4a","null","","","","","<div class='center'><p> Sometimes you’ll be shown a ship, and you will be asked if you saw this ship on a past island.</p><p> Here is an example of what you will see.</p><p><img src='run_exp/static/images/tutorial/example_recog_trial.png' height='500'></p></div>","","","","","","","","","","","","","","","","","","",""
"","html-keyboard-response","11","89726","0.0-11.0","""event"",""trial"",""time""
""fullscreenenter"",""0"",""6389""
","
","
","""event"",""trial"",""time""
""fullscreenenter"",""0"",""6389""
","
","668.2000000476837","<div class='center'><p> Sometimes you’ll be shown a ship, and you will be asked if you saw this ship on a past island.</p><p> Here is an example of what you will see.</p><p><img src='run_exp/static/images/tutorial/example_recog_trial.png' height='500'></p><p><b>[Press the space bar to continue]</b></p></div>","32","","","","","","","","","","","","","","","","","","","","","","","",""
"","explain_probe_2","12","111438","0.0-12.0","""event"",""trial"",""time""
""fullscreenenter"",""0"",""6389""
","
","
","""event"",""trial"",""time""
""fullscreenenter"",""0"",""6389""
","
","null","run_exp/static/audio/clip_34_recognition_2.m4a","null","","","","","<div class='center'><p> You will press the 5, 6, 7, 8 keys on your keyboard to respond.</p><p>If you are sure you saw the ship, press <b>5</b> on your keyboard.</p><p> If you think you saw it before but aren't sure, then press <b>6</b>.</p><p> If you think you have <b>not</b> seen it before but aren't sure, then press <b>7</b>.</p><p> If you are sure you did <b>not</b> see the ship before, then press <b>8</b>.</p><p><img src='run_exp/static/images/tutorial/example_recog_trial.png' height='500'></p></div>","","","","","","","","","","","","","","","","","","",""
"","html-keyboard-response","13","111727","0.0-13.0","""event"",""trial"",""time""
""fullscreenenter"",""0"",""6389""
","
","
","""event"",""trial"",""time""
""fullscreenenter"",""0"",""6389""
","
","288.60000014305115","<div class='center'><p> You will press the 5, 6, 7, 8 keys on your keyboard to respond.</p><p>If you are sure you saw the ship, press <b>5</b> on your keyboard.</p><p> If you think you saw it before but aren't sure, then press <b>6</b>.</p><p> If you think you have <b>not</b> seen it before but aren't sure, then press <b>7</b>.</p><p> If you are sure you did <b>not</b> see the ship before, then press <b>8</b>.</p><p><img src='run_exp/static/images/tutorial/example_recog_trial.png' height='500'></p><p><b>[Press the space bar to continue]</b></p></div>","32","","","","","","","","","","","","","","","","","","","","","","","",""
"","explain_outcome","14","128918","0.0-14.0","""event"",""trial"",""time""
""fullscreenenter"",""0"",""6389""
","
","
","""event"",""trial"",""time""
""fullscreenenter"",""0"",""6389""
","
","null","run_exp/static/audio/clip_35_recognition_3.m4a","null","","","","","<div class='center'><p> If you remember correctly, then you’ll get a gold coin like this: </p><p><img src='run_exp/static/images/tutorial/reward_small.png' height='200'></p><p>If you do not remember correctly, then you'll see a red x like this: </p><p><img src='run_exp/static/images/tutorial/reward_no.png' height='200'></p><p>Importantly, when you are shown a ship, take the time to remind yourself which island you saw it on. This will help you in the next part of the study.</p></div>","","","","","","","","","","","","","","","","","","",""
"","html-keyboard-response","15","129298","0.0-15.0","""event"",""trial"",""time""
""fullscreenenter"",""0"",""6389""
","
","
","""event"",""trial"",""time""
""fullscreenenter"",""0"",""6389""
","
","379.39999985694885","<div class='center'><p> If you remember correctly, then you’ll get a gold coin like this: </p><p><img src='run_exp/static/images/tutorial/reward_small.png' height='200'></p><p>If you do not remember correctly, then you'll see a red x like this: </p><p><img src='run_exp/static/images/tutorial/reward_no.png' height='200'></p><p>Importantly, when you are shown a ship, take the time to remind yourself which island you saw it on. This will help you in the next part of the study.</p><p><b>[Press the space bar to continue]</b></p></div>","32","","","","","","","","","","","","","","","","","","","","","","","",""
"","begin_test_phase","16","145097","0.0-16.0","""event"",""trial"",""time""
""fullscreenenter"",""0"",""6389""
","
","
","""event"",""trial"",""time""
""fullscreenenter"",""0"",""6389""
","
","null","run_exp/static/audio/clip_36_begin_final.m4a","null","","","","","<div class='center'><p>Let's go over the important points again. Your job is to: </p><p>1. Pick the pirate who is best at robbing ships and will bring you back gold coins. </p><p>2. Correctly remember whether or not you saw a ship before. If you did see the ship before, remind yourself on which island you saw it. </p></div>","","","","","","","","","","","","","","","","","","",""
"","html-keyboard-response","17","145475","0.0-17.0","""event"",""trial"",""time""
""fullscreenenter"",""0"",""6389""
","
","
","""event"",""trial"",""time""
""fullscreenenter"",""0"",""6389""
","
","352.89999985694885","<div class='center'><p>Let's go over the important points again. Your job is to: </p><p>1. Pick the pirate who is best at robbing ships and will bring you back gold coins. </p><p>2. Correctly remember whether or not you saw a ship before. If you did see the ship before, remind yourself on which island you saw it. </p><p><b>[Press the space bar to continue]</b></p></div>","32","","","","","","","","","","","","","","","","","","","","","","","",""
"","do_welcome","18","149490","0.0-18.0","""event"",""trial"",""time""
""fullscreenenter"",""0"",""6389""
","
","
","""event"",""trial"",""time""
""fullscreenenter"",""0"",""6389""
","
","null","","","","","","","","null","","","","","","","","","","","","","","","","","",""
"","do_trial","19","154100","0.0-19.0-0.0","""event"",""trial"",""time""
""fullscreenenter"",""0"",""6389""
","
","
","""event"",""trial"",""time""
""fullscreenenter"",""0"",""6389""
","
","2060.2999999523163","","","","","","","","50","0,1,0","6","blank","230","null","0.1682367004509143","0.623412475181688","0.19666699071148436","1","","","","","","","","",""
"","html-keyboard-response","20","155111","0.0-19.0-1.0","""event"",""trial"",""time""
""fullscreenenter"",""0"",""6389""
","
","
","""event"",""trial"",""time""
""fullscreenenter"",""0"",""6389""
","
","null","<p></p>","null","","","","","","","","","","","","","","","","","","","","","","","",""
"","do_trial","21","158533","0.0-20.0-0.0","""event"",""trial"",""time""
""fullscreenenter"",""0"",""6389""
","
","
","""event"",""trial"",""time""
""fullscreenenter"",""0"",""6389""
","
","884.3999998569489","","","","","","","","50","0,0,0","6","blank","231","null","0.22880172792605752","0.6424625024247499","0.16111407096770003","0","","","","","","","","",""
"","html-keyboard-response","22","159547","0.0-20.0-1.0","""event"",""trial"",""time""
""fullscreenenter"",""0"",""6389""
","
","
","""event"",""trial"",""time""
""fullscreenenter"",""0"",""6389""
","
","null","<p></p>","null","","","","","","","","","","","","","","","","","","","","","","","",""
"","do_trial","23","162305","0.0-21.0-0.0","""event"",""trial"",""time""
""fullscreenenter"",""0"",""6389""
","
","
","""event"",""trial"",""time""
""fullscreenenter"",""0"",""6389""
","
","212.29999995231628","","","","","","","","50","0,0,0","6","blank","232","null","0.2877749341860961","0.776720064252939","0.1480458011144645","0","","","","","","","","",""
"","html-keyboard-response","24","163319","0.0-21.0-1.0","""event"",""trial"",""time""
""fullscreenenter"",""0"",""6389""
","
","
","""event"",""trial"",""time""
""fullscreenenter"",""0"",""6389""
","
","null","<p></p>","null","","","","","","","","","","","","","","","","","","","","","","","",""
"","do_trial","25","166037","0.0-22.0-0.0","""event"",""trial"",""time""
""fullscreenenter"",""0"",""6389""
","
","
","""event"",""trial"",""time""
""fullscreenenter"",""0"",""6389""
","
","181.59999990463257","","","","","","","","49","0,1,0","6","blank","233","null","0.26487870338500796","0.697877172596749","0.0838176684876019","0","","","","","","","","",""
"","html-keyboard-response","26","167041","0.0-22.0-1.0","""event"",""trial"",""time""
""fullscreenenter"",""0"",""6389""
","
","
","""event"",""trial"",""time""
""fullscreenenter"",""0"",""6389""
","
","null","<p></p>","null","","","","","","","","","","","","","","","","","","","","","","","",""
"","do_trial","27","169724","0.0-23.0-0.0","""event"",""trial"",""time""
""fullscreenenter"",""0"",""6389""
","
","
","""event"",""trial"",""time""
""fullscreenenter"",""0"",""6389""
","
","137.10000014305115","","","","","","","","49","0,0,0","6","blank","234","null","0.3014774239995223","0.5138673015266946","0.06583659910683012","0","","","","","","","","",""
"","html-keyboard-response","28","170732","0.0-23.0-1.0","""event"",""trial"",""time""
""fullscreenenter"",""0"",""6389""
","
","
","""event"",""trial"",""time""
""fullscreenenter"",""0"",""6389""
","
","null","<p></p>","null","","","","","","","","","","","","","","","","","","","","","","","",""
"","do_trial","29","173273","0.0-24.0-0.0","""event"",""trial"",""time""
""fullscreenenter"",""0"",""6389""
","
","
","""event"",""trial"",""time""
""fullscreenenter"",""0"",""6389""
","
","0","","","","","","","","49","0,0,0","6","blank","235","null","0.17917992062051688","0.6522651023641395","0.07618094001247587","0","","","","","","","","",""
"","html-keyboard-response","30","174285","0.0-24.0-1.0","""event"",""trial"",""time""
""fullscreenenter"",""0"",""6389""
","
","
","""event"",""trial"",""time""
""fullscreenenter"",""0"",""6389""
","
","null","<p></p>","null","","","","","","","","","","","","","","","","","","","","","","","",""
"","do_trial","31","177028","0.0-25.0-0.0","""event"",""trial"",""time""
""fullscreenenter"",""0"",""6389""
","
","
","""event"",""trial"",""time""
""fullscreenenter"",""0"",""6389""
","
","193","","","","","","","","51","0,1,0","6","blank","236","null","0.2193237769159183","0.7678242342620089","0.14470609662698244","0","","","","","","","","",""
"","html-keyboard-response","32","178035","0.0-25.0-1.0","""event"",""trial"",""time""
""fullscreenenter"",""0"",""6389""
","
","
","""event"",""trial"",""time""
""fullscreenenter"",""0"",""6389""
","
","null","<p></p>","null","","","","","","","","","","","","","","","","","","","","","","","",""
"","do_trial","33","180781","0.0-26.0-0.0","""event"",""trial"",""time""
""fullscreenenter"",""0"",""6389""
","
","
","""event"",""trial"",""time""
""fullscreenenter"",""0"",""6389""
","
","205.29999995231628","","","","","","","","51","0,1,0","6","blank","237","null","0.18292955298130223","0.7611219884277468","0.23235069852979137","0","","","","","","","","",""
"","html-keyboard-response","34","181791","0.0-26.0-1.0","""event"",""trial"",""time""
""fullscreenenter"",""0"",""6389""
","
","
","""event"",""trial"",""time""
""fullscreenenter"",""0"",""6389""
","
","null","<p></p>","null","","","","","","","","","","","","","","","","","","","","","","","",""
"","do_trial","35","184553","0.0-27.0-0.0","""event"",""trial"",""time""
""fullscreenenter"",""0"",""6389""
","
","
","""event"",""trial"",""time""
""fullscreenenter"",""0"",""6389""
","
","217","","","","","","","","51","1,1,0","6","blank","238","null","0.20357953759768532","0.9153573748849715","0.22902333693072932","0","","","","","","","","",""
"","html-keyboard-response","36","185563","0.0-27.0-1.0","""event"",""trial"",""time""
""fullscreenenter"",""0"",""6389""
","
","
","""event"",""trial"",""time""
""fullscreenenter"",""0"",""6389""
","
","null","<p></p>","null","","","","","","","","","","","","","","","","","","","","","","","",""
"","do_trial","37","188171","0.0-28.0-0.0","""event"",""trial"",""time""
""fullscreenenter"",""0"",""6389""
","
","
","""event"",""trial"",""time""
""fullscreenenter"",""0"",""6389""
","
","69","","","","","","","","50","0,1,0","6","blank","239","null","0.3803918694281565","0.6757804512508773","0.12940302624592329","1","","","","","","","","",""
"","html-keyboard-response","38","189181","0.0-28.0-1.0","""event"",""trial"",""time""
""fullscreenenter"",""0"",""6389""
","
","
","""event"",""trial"",""time""
""fullscreenenter"",""0"",""6389""
","
","null","<p></p>","null","","","","","","","","","","","","","","","","","","","","","","","",""
"","do_trial","39","191791","0.0-29.0-0.0","""event"",""trial"",""time""
""fullscreenenter"",""0"",""6389""
","
","
","""event"",""trial"",""time""
""fullscreenenter"",""0"",""6389""
","
","60.59999990463257","","","","","","","","50","0,1,0","6","blank","240","null","0.2527758554541211","0.4978212241251501","0.20686429758077626","1","","","","","","","","",""
"","html-keyboard-response","40","192799","0.0-29.0-1.0","""event"",""trial"",""time""
""fullscreenenter"",""0"",""6389""
","
","
","""event"",""trial"",""time""
""fullscreenenter"",""0"",""6389""
","
","null","<p></p>","null","","","","","","","","","","","","","","","","","","","","","","","",""
"","do_trial","41","195355","0.0-30.0-0.0","""event"",""trial"",""time""
""fullscreenenter"",""0"",""6389""
","
","
","""event"",""trial"",""time""
""fullscreenenter"",""0"",""6389""
","
","16.700000047683716","","","","","","","","50","0,0,0","6","blank","241","null","0.359281279910555","0.5620688456854321","0.06162930683418303","0","","","","","","","","",""
"","html-keyboard-response","42","196361","0.0-30.0-1.0","""event"",""trial"",""time""
""fullscreenenter"",""0"",""6389""
","
","
","""event"",""trial"",""time""
""fullscreenenter"",""0"",""6389""
","
","null","<p></p>","null","","","","","","","","","","","","","","","","","","","","","","","",""
"","do_trial","43","199032","0.0-31.0-0.0","""event"",""trial"",""time""
""fullscreenenter"",""0"",""6389""
","
","
","""event"",""trial"",""time""
""fullscreenenter"",""0"",""6389""
","
","125.20000004768372","","","","","","","","50","0,0,0","6","blank","242","null","0.5429488380505033","0.41412166445606297","0.1770226698493172","0","","","","","","","","",""
"","html-keyboard-response","44","200040","0.0-31.0-1.0","""event"",""trial"",""time""
""fullscreenenter"",""0"",""6389""
","
","
","""event"",""trial"",""time""
""fullscreenenter"",""0"",""6389""
","
","null","<p></p>","null","","","","","","","","","","","","","","","","","","","","","","","",""
"","do_recog","45","206066","0.0-32.0-0.0","""event"",""trial"",""time""
""fullscreenenter"",""0"",""6389""
","
","
","""event"",""trial"",""time""
""fullscreenenter"",""0"",""6389""
","
","null","","","","","","","","null","","","","243","probe-214","","","","","1","[object Object]","157","3","0","","","",""
"","html-keyboard-response","46","207076","0.0-32.0-1.0","""event"",""trial"",""time""
""fullscreenenter"",""0"",""6389""
","
","
","""event"",""trial"",""time""
""fullscreenenter"",""0"",""6389""
","
","null","<p></p>","null","","","","","","","","","","","","","","","","","","","","","","","",""
"","do_trial","47","210415","0.0-33.0-0.0","""event"",""trial"",""time""
""fullscreenenter"",""0"",""6389""
","
","
","""event"",""trial"",""time""
""fullscreenenter"",""0"",""6389""
","
","790.7999999523163","","","","","","","","50","1,0,0","6","blank","244","null","0.5245812227701144","0.3107961061427219","0.1780305849184672","0","","","","","","","","",""
"","html-keyboard-response","48","211430","0.0-33.0-1.0","""event"",""trial"",""time""
""fullscreenenter"",""0"",""6389""
","
","
","""event"",""trial"",""time""
""fullscreenenter"",""0"",""6389""
","
","null","<p></p>","null","","","","","","","","","","","","","","","","","","","","","","","",""
"","do_trial","49","214183","0.0-34.0-0.0","""event"",""trial"",""time""
""fullscreenenter"",""0"",""6389""
","
","
","""event"",""trial"",""time""
""fullscreenenter"",""0"",""6389""
","
","217.90000009536743","","","","","","","","50","1,0,0","6","blank","245","null","0.5717053806223779","0.22269125835168452","0.05909256963940564","0","","","","","","","","",""
"","html-keyboard-response","50","215198","0.0-34.0-1.0","""event"",""trial"",""time""
""fullscreenenter"",""0"",""6389""
","
","
","""event"",""trial"",""time""
""fullscreenenter"",""0"",""6389""
","
","null","<p></p>","null","","","","","","","","","","","","","","","","","","","","","","","",""
"","do_recog","51","218560","0.0-35.0-0.0","""event"",""trial"",""time""
""fullscreenenter"",""0"",""6389""
","
","
","""event"",""trial"",""time""
""fullscreenenter"",""0"",""6389""
","
","1847.2999999523163","","","","","","","","55","","","","246","probe-98","","","","","1","[object Object]","192","4","0","","","",""
"","html-keyboard-response","52","219576","0.0-35.0-1.0","""event"",""trial"",""time""
""fullscreenenter"",""0"",""6389""
","
","
","""event"",""trial"",""time""
""fullscreenenter"",""0"",""6389""
","
","null","<p></p>","null","","","","","","","","","","","","","","","","","","","","","","","",""
"","do_trial","53","222628","0.0-36.0-0.0","""event"",""trial"",""time""
""fullscreenenter"",""0"",""6389""
","
","
","""event"",""trial"",""time""
""fullscreenenter"",""0"",""6389""
","
","509.10000014305115","","","","","","","","50","1,0,0","6","blank","247","null","0.601528922044112","0.1698169092237785","0.16339803727351204","0","","","","","","","","",""
"","html-keyboard-response","54","223629","0.0-36.0-1.0","""event"",""trial"",""time""
""fullscreenenter"",""0"",""6389""
","
","
","""event"",""trial"",""time""
""fullscreenenter"",""0"",""6389""
","
","null","<p></p>","null","","","","","","","","","","","","","","","","","","","","","","","",""
"","do_trial","55","226386","0.0-37.0-0.0","""event"",""trial"",""time""
""fullscreenenter"",""0"",""6389""
","
","
","""event"",""trial"",""time""
""fullscreenenter"",""0"",""6389""
","
","208","","","","","","","","49","1,1,0","6","blank","248","null","0.6643066369066437","0.14358896567283286","0.16902468695500747","1","","","","","","","","",""
"","html-keyboard-response","56","227398","0.0-37.0-1.0","""event"",""trial"",""time""
""fullscreenenter"",""0"",""6389""
","
","
","""event"",""trial"",""time""
""fullscreenenter"",""0"",""6389""
","
","null","<p></p>","null","","","","","","","","","","","","","","","","","","","","","","","",""
"","do_trial","57","230556","0.0-38.0-0.0","""event"",""trial"",""time""
""fullscreenenter"",""0"",""6389""
","
","
","""event"",""trial"",""time""
""fullscreenenter"",""0"",""6389""
","
","617.2999999523163","","","","","","","","49","0,0,0","6","blank","249","null","0.541858167773644","0.1611658489501062","0.231042183575939","0","","","","","","","","",""
"","html-keyboard-response","58","231561","0.0-38.0-1.0","""event"",""trial"",""time""
""fullscreenenter"",""0"",""6389""
","
","
","""event"",""trial"",""time""
""fullscreenenter"",""0"",""6389""
","
","null","<p></p>","null","","","","","","","","","","","","","","","","","","","","","","","",""
"","do_trial","59","234342","0.0-39.0-0.0","""event"",""trial"",""time""
""fullscreenenter"",""0"",""6389""
","
","
","""event"",""trial"",""time""
""fullscreenenter"",""0"",""6389""
","
","238.5","","","","","","","","49","1,0,1","6","blank","250","null","0.5244404563842799","0.21751996734627072","0.4135692285366146","1","","","","","","","","",""
"","html-keyboard-response","60","235350","0.0-39.0-1.0","""event"",""trial"",""time""
""fullscreenenter"",""0"",""6389""
","
","
","""event"",""trial"",""time""
""fullscreenenter"",""0"",""6389""
","
","null","<p></p>","null","","","","","","","","","","","","","","","","","","","","","","","",""
"","do_trial","61","238186","0.0-40.0-0.0","""event"",""trial"",""time""
""fullscreenenter"",""0"",""6389""
","
","
","""event"",""trial"",""time""
""fullscreenenter"",""0"",""6389""
","
","286.7000000476837","","","","","","","","49","1,0,0","6","blank","251","null","0.6810708551106873","0.26804827514426605","0.28130692601431656","1","","","","","","","","",""
"","html-keyboard-response","62","239202","0.0-40.0-1.0","""event"",""trial"",""time""
""fullscreenenter"",""0"",""6389""
","
","
","""event"",""trial"",""time""
""fullscreenenter"",""0"",""6389""
","
","null","<p></p>","null","","","","","","","","","","","","","","","","","","","","","","","",""
"","do_recog","63","242237","0.0-41.0-0.0","""event"",""trial"",""time""
""fullscreenenter"",""0"",""6389""
","
","
","""event"",""trial"",""time""
""fullscreenenter"",""0"",""6389""
","
","1531.3999998569489","","","","","","","","55","","","","252","probe-215","","","","","1","[object Object]","150","3","0","","","",""
"","html-keyboard-response","64","243239","0.0-41.0-1.0","""event"",""trial"",""time""
""fullscreenenter"",""0"",""6389""
","
","
","""event"",""trial"",""time""
""fullscreenenter"",""0"",""6389""
","
","null","<p></p>","null","","","","","","","","","","","","","","","","","","","","","","","",""
"","do_trial","65","246481","0.0-42.0-0.0","""event"",""trial"",""time""
""fullscreenenter"",""0"",""6389""
","
","
","""event"",""trial"",""time""
""fullscreenenter"",""0"",""6389""
","
","700.6999998092651","","","","","","","","50","1,0,0","6","blank","253","null","0.6421094550468227","0.14859549789839888","0.26309342024414617","0","","","","","","","","",""
"","html-keyboard-response","66","247489","0.0-42.0-1.0","""event"",""trial"",""time""
""fullscreenenter"",""0"",""6389""
","
","
","""event"",""trial"",""time""
""fullscreenenter"",""0"",""6389""
","
","null","<p></p>","null","","","","","","","","","","","","","","","","","","","","","","","",""
"","do_recog","67","250827","0.0-43.0-0.0","""event"",""trial"",""time""
""fullscreenenter"",""0"",""6389""
","
","
","""event"",""trial"",""time""
""fullscreenenter"",""0"",""6389""
","
","1819.4000000953674","","","","","","","","54","","","","254","probe-08","","","","","1","[object Object]","190","4","1","","","",""
"","html-keyboard-response","68","251835","0.0-43.0-1.0","""event"",""trial"",""time""
""fullscreenenter"",""0"",""6389""
","
","
","""event"",""trial"",""time""
""fullscreenenter"",""0"",""6389""
","
","null","<p></p>","null","","","","","","","","","","","","","","","","","","","","","","","",""
"","do_trial","69","254733","0.0-44.0-0.0","""event"",""trial"",""time""
""fullscreenenter"",""0"",""6389""
","
","
","""event"",""trial"",""time""
""fullscreenenter"",""0"",""6389""
","
","359.7000000476837","","","","","","","","49","0,0,0","6","blank","255","null","0.610258541254528","0.19998339360691017","0.18835223184458358","0","","","","","","","","",""
"","html-keyboard-response","70","255735","0.0-44.0-1.0","""event"",""trial"",""time""
""fullscreenenter"",""0"",""6389""
","
","
","""event"",""trial"",""time""
""fullscreenenter"",""0"",""6389""
","
","null","<p></p>","null","","","","","","","","","","","","","","","","","","","","","","","",""
"","do_trial","71","258665","0.0-45.0-0.0","""event"",""trial"",""time""
""fullscreenenter"",""0"",""6389""
","
","
","""event"",""trial"",""time""
""fullscreenenter"",""0"",""6389""
","
","389.40000009536743","","","","","","","","49","0,0,0","6","blank","256","null","0.6359062449794672","0.27856857436232213","0.33206660078681693","0","","","","","","","","",""
"","html-keyboard-response","72","259677","0.0-45.0-1.0","""event"",""trial"",""time""
""fullscreenenter"",""0"",""6389""
","
","
","""event"",""trial"",""time""
""fullscreenenter"",""0"",""6389""
","
","null","<p></p>","null","","","","","","","","","","","","","","","","","","","","","","","",""
"","do_recog","73","262591","0.0-46.0-0.0","""event"",""trial"",""time""
""fullscreenenter"",""0"",""6389""
","
","
","""event"",""trial"",""time""
""fullscreenenter"",""0"",""6389""
","
","1397","","","","","","","","55","","","","257","probe-218","","","","","1","[object Object]","79","1","0","","","",""
"","html-keyboard-response","74","263604","0.0-46.0-1.0","""event"",""trial"",""time""
""fullscreenenter"",""0"",""6389""
","
","
","""event"",""trial"",""time""
""fullscreenenter"",""0"",""6389""
","
","null","<p></p>","null","","","","","","","","","","","","","","","","","","","","","","","",""
"","do_trial","75","266649","0.0-47.0-0.0","""event"",""trial"",""time""
""fullscreenenter"",""0"",""6389""
","
","
","""event"",""trial"",""time""
""fullscreenenter"",""0"",""6389""
","
","499.90000009536743","","","","","","","","49","1,1,1","6","blank","258","null","0.6694059291984016","0.3370459133831786","0.21452663106466374","1","","","","","","","","",""
"","html-keyboard-response","76","267652","0.0-47.0-1.0","""event"",""trial"",""time""
""fullscreenenter"",""0"",""6389""
","
","
","""event"",""trial"",""time""
""fullscreenenter"",""0"",""6389""
","
","null","<p></p>","null","","","","","","","","","","","","","","","","","","","","","","","",""
"","do_recog","77","270733","0.0-48.0-0.0","""event"",""trial"",""time""
""fullscreenenter"",""0"",""6389""
","
","
","""event"",""trial"",""time""
""fullscreenenter"",""0"",""6389""
","
","1572.5999999046326","","","","","","","","54","","","","259","probe-92","","","","","1","[object Object]","77","1","1","","","",""
"","html-keyboard-response","78","271734","0.0-48.0-1.0","""event"",""trial"",""time""
""fullscreenenter"",""0"",""6389""
","
","
","""event"",""trial"",""time""
""fullscreenenter"",""0"",""6389""
","
","null","<p></p>","null","","","","","","","","","","","","","","","","","","","","","","","",""
"","do_trial","79","274662","0.0-49.0-0.0","""event"",""trial"",""time""
""fullscreenenter"",""0"",""6389""
","
","
","""event"",""trial"",""time""
""fullscreenenter"",""0"",""6389""
","
","378.80000019073486","","","","","","","","49","0,0,1","6","blank","260","null","0.6758133382093976","0.23890205060485198","0.4094348437699665","0","","","","","","","","",""
"","html-keyboard-response","80","275676","0.0-49.0-1.0","""event"",""trial"",""time""
""fullscreenenter"",""0"",""6389""
","
","
","""event"",""trial"",""time""
""fullscreenenter"",""0"",""6389""
","
","null","<p></p>","null","","","","","","","","","","","","","","","","","","","","","","","",""
"","do_recog","81","278463","0.0-50.0-0.0","""event"",""trial"",""time""
""fullscreenenter"",""0"",""6389""
","
","
","""event"",""trial"",""time""
""fullscreenenter"",""0"",""6389""
","
","1268.2000000476837","","","","","","","","54","","","","261","probe-162","","","","","1","[object Object]","115","2","1","","","",""
"","html-keyboard-response","82","279477","0.0-50.0-1.0","""event"",""trial"",""time""
""fullscreenenter"",""0"",""6389""
","
","
","""event"",""trial"",""time""
""fullscreenenter"",""0"",""6389""
","
","null","<p></p>","null","","","","","","","","","","","","","","","","","","","","","","","",""
"","do_trial","83","282242","0.0-51.0-0.0","""event"",""trial"",""time""
""fullscreenenter"",""0"",""6389""
","
","
","""event"",""trial"",""time""
""fullscreenenter"",""0"",""6389""
","
","227.70000004768372","","","","","","","","49","1,0,1","6","blank","262","null","0.6149476577019494","0.1774139121517786","0.48549278504505206","1","","","","","","","","",""
"","html-keyboard-response","84","283245","0.0-51.0-1.0","""event"",""trial"",""time""
""fullscreenenter"",""0"",""6389""
","
","
","""event"",""trial"",""time""
""fullscreenenter"",""0"",""6389""
","
","null","<p></p>","null","","","","","","","","","","","","","","","","","","","","","","","",""
"","do_trial","85","286117","0.0-52.0-0.0","""event"",""trial"",""time""
""fullscreenenter"",""0"",""6389""
","
","
","""event"",""trial"",""time""
""fullscreenenter"",""0"",""6389""
","
","328.5","","","","","","","","50","1,0,0","6","blank","263","null","0.6354401157559934","0.22594234436488655","0.45625325454243204","0","","","","","","","","",""
"","html-keyboard-response","86","287123","0.0-52.0-1.0","""event"",""trial"",""time""
""fullscreenenter"",""0"",""6389""
","
","
","""event"",""trial"",""time""
""fullscreenenter"",""0"",""6389""
","
","null","<p></p>","null","","","","","","","","","","","","","","","","","","","","","","","",""
"","do_trial","87","289844","0.0-53.0-0.0","""event"",""trial"",""time""
""fullscreenenter"",""0"",""6389""
","
","
","""event"",""trial"",""time""
""fullscreenenter"",""0"",""6389""
","
","184.60000014305115","","","","","","","","49","1,0,0","6","blank","264","null","0.7248443326609975","0.11418114952222039","0.2770151892470134","1","","","","","","","","",""
"","html-keyboard-response","88","290856","0.0-53.0-1.0","""event"",""trial"",""time""
""fullscreenenter"",""0"",""6389""
","
","
","""event"",""trial"",""time""
""fullscreenenter"",""0"",""6389""
","
","null","<p></p>","null","","","","","","","","","","","","","","","","","","","","","","","",""
"","do_trial","89","293822","0.0-54.0-0.0","""event"",""trial"",""time""
""fullscreenenter"",""0"",""6389""
","
","
","""event"",""trial"",""time""
""fullscreenenter"",""0"",""6389""
","
","430.2999999523163","","","","","","","","49","1,0,0","6","blank","265","null","0.6946722081536335","0.06567162820793905","0.277542329036459","1","","","","","","","","",""
"","html-keyboard-response","90","294829","0.0-54.0-1.0","""event"",""trial"",""time""
""fullscreenenter"",""0"",""6389""
","
","
","""event"",""trial"",""time""
""fullscreenenter"",""0"",""6389""
","
","null","<p></p>","null","","","","","","","","","","","","","","","","","","","","","","","",""
"","do_recog","91","297540","0.0-55.0-0.0","""event"",""trial"",""time""
""fullscreenenter"",""0"",""6389""
","
","
","""event"",""trial"",""time""
""fullscreenenter"",""0"",""6389""
","
","1202.6000001430511","","","","","","","","55","","","","266","probe-121","","","","","1","[object Object]","151","3","0","","","",""
"","html-keyboard-response","92","298546","0.0-55.0-1.0","""event"",""trial"",""time""
""fullscreenenter"",""0"",""6389""
","
","
","""event"",""trial"",""time""
""fullscreenenter"",""0"",""6389""
","
","null","<p></p>","null","","","","","","","","","","","","","","","","","","","","","","","",""
"","do_trial","93","301524","0.0-56.0-0.0","""event"",""trial"",""time""
""fullscreenenter"",""0"",""6389""
","
","
","""event"",""trial"",""time""
""fullscreenenter"",""0"",""6389""
","
","428.60000014305115","","","","","","","","49","1,0,0","6","blank","267","null","0.67948215018532","0.06494830993837354","0.36792222467899083","1","","","","","","","","",""
"","html-keyboard-response","94","302527","0.0-56.0-1.0","""event"",""trial"",""time""
""fullscreenenter"",""0"",""6389""
","
","
","""event"",""trial"",""time""
""fullscreenenter"",""0"",""6389""
","
","null","<p></p>","null","","","","","","","","","","","","","","","","","","","","","","","",""
"","do_trial","95","305324","0.0-57.0-0.0","""event"",""trial"",""time""
""fullscreenenter"",""0"",""6389""
","
","
","""event"",""trial"",""time""
""fullscreenenter"",""0"",""6389""
","
","259.09999990463257","","","","","","","","49","0,0,0","6","blank","268","null","0.71460944154499","0.09519300392317305","0.45520882379828886","0","","","","","","","","",""
"","html-keyboard-response","96","306339","0.0-57.0-1.0","""event"",""trial"",""time""
""fullscreenenter"",""0"",""6389""
","
","
","""event"",""trial"",""time""
""fullscreenenter"",""0"",""6389""
","
","null","<p></p>","null","","","","","","","","","","","","","","","","","","","","","","","",""
"","break","97","308825","0.0-58.0-0.0","""event"",""trial"",""time""
""fullscreenenter"",""0"",""6389""
","
","
","""event"",""trial"",""time""
""fullscreenenter"",""0"",""6389""
","
","2484.9000000953674","<div class='center'><p>Time to take a quick break! You have 2 minutes to rest, but you can move on sooner if you'd like.</p><p> Press the <b>space bar</b> to continue.</p></div>","32","","","","","","","","","","","","","","","","","","","","","","","",""
"","do_trial","98","311758","0.0-58.0-1.0","""event"",""trial"",""time""
""fullscreenenter"",""0"",""6389""
","
","
","""event"",""trial"",""time""
""fullscreenenter"",""0"",""6389""
","
","383.7999999523163","","","","","","","","49","0,0,1","6","blank","269","null","0.5688148070038933","0.10762826335054715","0.40192881241845285","0","","","","","","","","",""
"","html-keyboard-response","99","312768","0.0-58.0-2.0","""event"",""trial"",""time""
""fullscreenenter"",""0"",""6389""
","
","
","""event"",""trial"",""time""
""fullscreenenter"",""0"",""6389""
","
","null","<p></p>","null","","","","","","","","","","","","","","","","","","","","","","","",""
"","do_trial","100","315559","0.0-59.0-0.0","""event"",""trial"",""time""
""fullscreenenter"",""0"",""6389""
","
","
","""event"",""trial"",""time""
""fullscreenenter"",""0"",""6389""
","
","244.29999995231628","","","","","","","","49","0,0,1","6","blank","270","null","0.649873333018525","0.13868265671143634","0.5262985628109174","0","","","","","","","","",""
"","html-keyboard-response","101","316569","0.0-59.0-1.0","""event"",""trial"",""time""
""fullscreenenter"",""0"",""6389""
","
","
","""event"",""trial"",""time""
""fullscreenenter"",""0"",""6389""
","
","null","<p></p>","null","","","","","","","","","","","","","","","","","","","","","","","",""
"","do_trial","102","319300","0.0-60.0-0.0","""event"",""trial"",""time""
""fullscreenenter"",""0"",""6389""
","
","
","""event"",""trial"",""time""
""fullscreenenter"",""0"",""6389""
","
","191.79999995231628","","","","","","","","49","1,0,0","6","blank","271","null","0.5796976360415167","0.14508878189969981","0.33591285926924264","1","","","","","","","","",""
"","html-keyboard-response","103","320307","0.0-60.0-1.0","""event"",""trial"",""time""
""fullscreenenter"",""0"",""6389""
","
","
","""event"",""trial"",""time""
""fullscreenenter"",""0"",""6389""
","
","null","<p></p>","null","","","","","","","","","","","","","","","","","","","","","","","",""
"","do_trial","104","323096","0.0-61.0-0.0","""event"",""trial"",""time""
""fullscreenenter"",""0"",""6389""
","
","
","""event"",""trial"",""time""
""fullscreenenter"",""0"",""6389""
","
","242.79999995231628","","","","","","","","49","1,0,0","6","blank","272","null","0.6531249905776346","0.15716861110000677","0.33098886034852015","1","","","","","","","","",""
"","html-keyboard-response","105","324108","0.0-61.0-1.0","""event"",""trial"",""time""
""fullscreenenter"",""0"",""6389""
","
","
","""event"",""trial"",""time""
""fullscreenenter"",""0"",""6389""
","
","null","<p></p>","null","","","","","","","","","","","","","","","","","","","","","","","",""
"","do_recog","106","327180","0.0-62.0-0.0","""event"",""trial"",""time""
""fullscreenenter"",""0"",""6389""
","
","
","""event"",""trial"",""time""
""fullscreenenter"",""0"",""6389""
","
","1558.2999999523163","","","","","","","","54","","","","273","probe-217","","","","","1","[object Object]","117","2","1","","","",""
"","html-keyboard-response","107","328196","0.0-62.0-1.0","""event"",""trial"",""time""
""fullscreenenter"",""0"",""6389""
","
","
","""event"",""trial"",""time""
""fullscreenenter"",""0"",""6389""
","
","null","<p></p>","null","","","","","","","","","","","","","","","","","","","","","","","",""
"","do_trial","108","331091","0.0-63.0-0.0","""event"",""trial"",""time""
""fullscreenenter"",""0"",""6389""
","
","
","""event"",""trial"",""time""
""fullscreenenter"",""0"",""6389""
","
","341.2000000476837","","","","","","","","49","1,0,0","6","blank","274","null","0.6414146904958866","0.21584765593779967","0.32892591602530247","1","","","","","","","","",""
"","html-keyboard-response","109","332097","0.0-63.0-1.0","""event"",""trial"",""time""
""fullscreenenter"",""0"",""6389""
","
","
","""event"",""trial"",""time""
""fullscreenenter"",""0"",""6389""
","
","null","<p></p>","null","","","","","","","","","","","","","","","","","","","","","","","",""
"","do_trial","110","334880","0.0-64.0-0.0","""event"",""trial"",""time""
""fullscreenenter"",""0"",""6389""
","
","
","""event"",""trial"",""time""
""fullscreenenter"",""0"",""6389""
","
","238.59999990463257","","","","","","","","49","1,0,0","6","blank","275","null","0.7581420524958224","0.2559243067484254","0.37772612836962516","1","","","","","","","","",""
"","html-keyboard-response","111","335885","0.0-64.0-1.0","""event"",""trial"",""time""
""fullscreenenter"",""0"",""6389""
","
","
","""event"",""trial"",""time""
""fullscreenenter"",""0"",""6389""
","
","null","<p></p>","null","","","","","","","","","","","","","","","","","","","","","","","",""
"","do_trial","112","338755","0.0-65.0-0.0","""event"",""trial"",""time""
""fullscreenenter"",""0"",""6389""
","
","
","""event"",""trial"",""time""
""fullscreenenter"",""0"",""6389""
","
","334.59999990463257","","","","","","","","49","1,0,0","6","blank","276","null","0.6426025157818823","0.33265938043775095","0.3575743719661075","1","","","","","","","","",""
"","html-keyboard-response","113","339761","0.0-65.0-1.0","""event"",""trial"",""time""
""fullscreenenter"",""0"",""6389""
","
","
","""event"",""trial"",""time""
""fullscreenenter"",""0"",""6389""
","
","null","<p></p>","null","","","","","","","","","","","","","","","","","","","","","","","",""
"","do_trial","114","342659","0.0-66.0-0.0","""event"",""trial"",""time""
""fullscreenenter"",""0"",""6389""
","
","
","""event"",""trial"",""time""
""fullscreenenter"",""0"",""6389""
","
","353.2000000476837","","","","","","","","49","1,0,1","6","blank","277","null","0.7512893672723882","0.2609116535780825","0.3514483456896337","1","","","","","","","","",""
"","html-keyboard-response","115","343664","0.0-66.0-1.0","""event"",""trial"",""time""
""fullscreenenter"",""0"",""6389""
","
","
","""event"",""trial"",""time""
""fullscreenenter"",""0"",""6389""
","
","null","<p></p>","null","","","","","","","","","","","","","","","","","","","","","","","",""
"","do_trial","116","346558","0.0-67.0-0.0","""event"",""trial"",""time""
""fullscreenenter"",""0"",""6389""
","
","
","""event"",""trial"",""time""
""fullscreenenter"",""0"",""6389""
","
","348.7999999523163","","","","","","","","49","1,1,1","6","blank","278","null","0.7958276611675634","0.1700408090918351","0.46133042903226296","1","","","","","","","","",""
"","html-keyboard-response","117","347568","0.0-67.0-1.0","""event"",""trial"",""time""
""fullscreenenter"",""0"",""6389""
","
","
","""event"",""trial"",""time""
""fullscreenenter"",""0"",""6389""
","
","null","<p></p>","null","","","","","","","","","","","","","","","","","","","","","","","",""
"","do_recog","118","350533","0.0-68.0-0.0","""event"",""trial"",""time""
""fullscreenenter"",""0"",""6389""
","
","
","""event"",""trial"",""time""
""fullscreenenter"",""0"",""6389""
","
","1454.9000000953674","","","","","","","","53","","","","279","probe-115","","","","","1","[object Object]","78","1","1","","","",""
"","html-keyboard-response","119","351539","0.0-68.0-1.0","""event"",""trial"",""time""
""fullscreenenter"",""0"",""6389""
","
","
","""event"",""trial"",""time""
""fullscreenenter"",""0"",""6389""
","
","null","<p></p>","null","","","","","","","","","","","","","","","","","","","","","","","",""
"","do_trial","120","354328","0.0-69.0-0.0","""event"",""trial"",""time""
""fullscreenenter"",""0"",""6389""
","
","
","""event"",""trial"",""time""
""fullscreenenter"",""0"",""6389""
","
","244.10000014305115","","","","","","","","49","1,0,0","6","blank","280","null","0.6150907526315298","0.1842593227091664","0.451710265667872","1","","","","","","","","",""
"","html-keyboard-response","121","355337","0.0-69.0-1.0","""event"",""trial"",""time""
""fullscreenenter"",""0"",""6389""
","
","
","""event"",""trial"",""time""
""fullscreenenter"",""0"",""6389""
","
","null","<p></p>","null","","","","","","","","","","","","","","","","","","","","","","","",""
"","do_trial","122","358088","0.0-70.0-0.0","""event"",""trial"",""time""
""fullscreenenter"",""0"",""6389""
","
","
","""event"",""trial"",""time""
""fullscreenenter"",""0"",""6389""
","
","209.89999985694885","","","","","","","","49","1,0,0","6","blank","281","null","0.7102665562863273","0.28241510550611787","0.2806090462118135","1","","","","","","","","",""
"","html-keyboard-response","123","359103","0.0-70.0-1.0","""event"",""trial"",""time""
""fullscreenenter"",""0"",""6389""
","
","
","""event"",""trial"",""time""
""fullscreenenter"",""0"",""6389""
","
","null","<p></p>","null","","","","","","","","","","","","","","","","","","","","","","","",""
"","do_trial","124","361949","0.0-71.0-0.0","""event"",""trial"",""time""
""fullscreenenter"",""0"",""6389""
","
","
","""event"",""trial"",""time""
""fullscreenenter"",""0"",""6389""
","
","304.7000000476837","","","","","","","","49","1,0,1","6","blank","282","null","0.7217334726469542","0.19967747417130347","0.25921863860407407","1","","","","","","","","",""
"","html-keyboard-response","125","362956","0.0-71.0-1.0","""event"",""trial"",""time""
""fullscreenenter"",""0"",""6389""
","
","
","""event"",""trial"",""time""
""fullscreenenter"",""0"",""6389""
","
","null","<p></p>","null","","","","","","","","","","","","","","","","","","","","","","","",""
"","do_recog","126","366127","0.0-72.0-0.0","""event"",""trial"",""time""
""fullscreenenter"",""0"",""6389""
","
","
","""event"",""trial"",""time""
""fullscreenenter"",""0"",""6389""
","
","1661","","","","","","","","55","","","","283","probe-221","","","","","1","[object Object]","195","4","0","","","",""
"","html-keyboard-response","127","367136","0.0-72.0-1.0","""event"",""trial"",""time""
""fullscreenenter"",""0"",""6389""
","
","
","""event"",""trial"",""time""
""fullscreenenter"",""0"",""6389""
","
","null","<p></p>","null","","","","","","","","","","","","","","","","","","","","","","","",""
"","do_trial","128","369919","0.0-73.0-0.0","""event"",""trial"",""time""
""fullscreenenter"",""0"",""6389""
","
","
","""event"",""trial"",""time""
""fullscreenenter"",""0"",""6389""
","
","241","","","","","","","","49","1,1,1","6","blank","284","null","0.45583870282285305","0.33411863863630076","0.22485992906128002","1","","","","","","","","",""
"","html-keyboard-response","129","370931","0.0-73.0-1.0","""event"",""trial"",""time""
""fullscreenenter"",""0"",""6389""
","
","
","""event"",""trial"",""time""
""fullscreenenter"",""0"",""6389""
","
","null","<p></p>","null","","","","","","","","","","","","","","","","","","","","","","","",""
"","do_recog","130","373805","0.0-74.0-0.0","""event"",""trial"",""time""
""fullscreenenter"",""0"",""6389""
","
","
","""event"",""trial"",""time""
""fullscreenenter"",""0"",""6389""
","
","1355.4000000953674","","","","","","","","53","","","","285","probe-236","","","","","0","[object Object]","null","null","0","","","",""
"","html-keyboard-response","131","374808","0.0-74.0-1.0","""event"",""trial"",""time""
""fullscreenenter"",""0"",""6389""
","
","
","""event"",""trial"",""time""
""fullscreenenter"",""0"",""6389""
","
","null","<p></p>","null","","","","","","","","","","","","","","","","","","","","","","","",""
"","do_trial","132","377637","0.0-75.0-0.0","""event"",""trial"",""time""
""fullscreenenter"",""0"",""6389""
","
","
","""event"",""trial"",""time""
""fullscreenenter"",""0"",""6389""
","
","277.90000009536743","","","","","","","","49","0,0,0","6","blank","286","null","0.6710553471626625","0.2878016308042399","0.19176298610738346","0","","","","","","","","",""
"","html-keyboard-response","133","378650","0.0-75.0-1.0","""event"",""trial"",""time""
""fullscreenenter"",""0"",""6389""
","
","
","""event"",""trial"",""time""
""fullscreenenter"",""0"",""6389""
","
","null","<p></p>","null","","","","","","","","","","","","","","","","","","","","","","","",""
"","do_trial","134","381377","0.0-76.0-0.0","""event"",""trial"",""time""
""fullscreenenter"",""0"",""6389""
","
","
","""event"",""trial"",""time""
""fullscreenenter"",""0"",""6389""
","
","178","","","","","","","","49","1,0,0","6","blank","287","null","0.6286214492568507","0.26792406899035415","0.28993079213585854","1","","","","","","","","",""
"","html-keyboard-response","135","382385","0.0-76.0-1.0","""event"",""trial"",""time""
""fullscreenenter"",""0"",""6389""
","
","
","""event"",""trial"",""time""
""fullscreenenter"",""0"",""6389""
","
","null","<p></p>","null","","","","","","","","","","","","","","","","","","","","","","","",""
"","do_trial","136","385201","0.0-77.0-0.0","""event"",""trial"",""time""
""fullscreenenter"",""0"",""6389""
","
","
","""event"",""trial"",""time""
""fullscreenenter"",""0"",""6389""
","
","274.2000000476837","","","","","","","","49","0,0,0","6","blank","288","null","0.5019504890445782","0.07121387497163821","0.24110826317273593","0","","","","","","","","",""
"","html-keyboard-response","137","386208","0.0-77.0-1.0","""event"",""trial"",""time""
""fullscreenenter"",""0"",""6389""
","
","
","""event"",""trial"",""time""
""fullscreenenter"",""0"",""6389""
","
","null","<p></p>","null","","","","","","","","","","","","","","","","","","","","","","","",""
"","do_trial","138","388980","0.0-78.0-0.0","""event"",""trial"",""time""
""fullscreenenter"",""0"",""6389""
","
","
","""event"",""trial"",""time""
""fullscreenenter"",""0"",""6389""
","
","228.29999995231628","","","","","","","","49","0,0,1","6","blank","289","null","0.47636666150759","0.16451732465573238","0.22830400342034504","0","","","","","","","","",""
"","html-keyboard-response","139","389992","0.0-78.0-1.0","""event"",""trial"",""time""
""fullscreenenter"",""0"",""6389""
","
","
","""event"",""trial"",""time""
""fullscreenenter"",""0"",""6389""
","
","null","<p></p>","null","","","","","","","","","","","","","","","","","","","","","","","",""
"","do_trial","140","392767","0.0-79.0-0.0","""event"",""trial"",""time""
""fullscreenenter"",""0"",""6389""
","
","
","""event"",""trial"",""time""
""fullscreenenter"",""0"",""6389""
","
","230.5","","","","","","","","49","1,1,1","6","blank","290","null","0.5942769205008966","0.09870643828574208","0.14658926432164418","1","","","","","","","","",""
"","html-keyboard-response","141","393781","0.0-79.0-1.0","""event"",""trial"",""time""
""fullscreenenter"",""0"",""6389""
","
","
","""event"",""trial"",""time""
""fullscreenenter"",""0"",""6389""
","
","null","<p></p>","null","","","","","","","","","","","","","","","","","","","","","","","",""
"","do_trial","142","396640","0.0-80.0-0.0","""event"",""trial"",""time""
""fullscreenenter"",""0"",""6389""
","
","
","""event"",""trial"",""time""
""fullscreenenter"",""0"",""6389""
","
","314.2999999523163","","","","","","","","49","1,1,1","6","blank","291","null","0.5971957381654039","0.20502997941095788","0.20380865134843487","1","","","","","","","","",""
"","html-keyboard-response","143","397648","0.0-80.0-1.0","""event"",""trial"",""time""
""fullscreenenter"",""0"",""6389""
","
","
","""event"",""trial"",""time""
""fullscreenenter"",""0"",""6389""
","
","null","<p></p>","null","","","","","","","","","","","","","","","","","","","","","","","",""
"","do_recog","144","400758","0.0-81.0-0.0","""event"",""trial"",""time""
""fullscreenenter"",""0"",""6389""
","
","
","""event"",""trial"",""time""
""fullscreenenter"",""0"",""6389""
","
","1605.0999999046326","","","","","","","","55","","","","292","probe-183","","","","","1","[object Object]","119","2","0","","","",""
"","html-keyboard-response","145","401764","0.0-81.0-1.0","""event"",""trial"",""time""
""fullscreenenter"",""0"",""6389""
","
","
","""event"",""trial"",""time""
""fullscreenenter"",""0"",""6389""
","
","null","<p></p>","null","","","","","","","","","","","","","","","","","","","","","","","",""
"","do_trial","146","404544","0.0-82.0-0.0","""event"",""trial"",""time""
""fullscreenenter"",""0"",""6389""
","
","
","""event"",""trial"",""time""
""fullscreenenter"",""0"",""6389""
","
","244.5","","","","","","","","49","1,0,0","6","blank","293","null","0.6619426742175034","0.28292689134965815","0.07948845012544871","1","","","","","","","","",""
"","html-keyboard-response","147","405548","0.0-82.0-1.0","""event"",""trial"",""time""
""fullscreenenter"",""0"",""6389""
","
","
","""event"",""trial"",""time""
""fullscreenenter"",""0"",""6389""
","
","null","<p></p>","null","","","","","","","","","","","","","","","","","","","","","","","",""
"","do_trial","148","408332","0.0-83.0-0.0","""event"",""trial"",""time""
""fullscreenenter"",""0"",""6389""
","
","
","""event"",""trial"",""time""
""fullscreenenter"",""0"",""6389""
","
","239.70000004768372","","","","","","","","49","1,0,0","6","blank","294","null","0.6431063386604099","0.32787982898908224","0.12927659061611146","1","","","","","","","","",""
"","html-keyboard-response","149","409338","0.0-83.0-1.0","""event"",""trial"",""time""
""fullscreenenter"",""0"",""6389""
","
","
","""event"",""trial"",""time""
""fullscreenenter"",""0"",""6389""
","
","null","<p></p>","null","","","","","","","","","","","","","","","","","","","","","","","",""
"","do_trial","150","412148","0.0-84.0-0.0","""event"",""trial"",""time""
""fullscreenenter"",""0"",""6389""
","
","
","""event"",""trial"",""time""
""fullscreenenter"",""0"",""6389""
","
","263","","","","","","","","49","0,1,0","6","blank","295","null","0.3243463653526635","0.4387715266127692","0.20123440752085192","0","","","","","","","","",""
"","html-keyboard-response","151","413152","0.0-84.0-1.0","""event"",""trial"",""time""
""fullscreenenter"",""0"",""6389""
","
","
","""event"",""trial"",""time""
""fullscreenenter"",""0"",""6389""
","
","null","<p></p>","null","","","","","","","","","","","","","","","","","","","","","","","",""
"","do_trial","152","415910","0.0-85.0-0.0","""event"",""trial"",""time""
""fullscreenenter"",""0"",""6389""
","
","
","""event"",""trial"",""time""
""fullscreenenter"",""0"",""6389""
","
","221.09999990463257","","","","","","","","49","0,1,0","6","blank","296","null","0.214723244720654","0.5423455998058281","0.26025494420071577","0","","","","","","","","",""
"","html-keyboard-response","153","416914","0.0-85.0-1.0","""event"",""trial"",""time""
""fullscreenenter"",""0"",""6389""
","
","
","""event"",""trial"",""time""
""fullscreenenter"",""0"",""6389""
","
","null","<p></p>","null","","","","","","","","","","","","","","","","","","","","","","","",""
"","do_recog","154","419969","0.0-86.0-0.0","""event"",""trial"",""time""
""fullscreenenter"",""0"",""6389""
","
","
","""event"",""trial"",""time""
""fullscreenenter"",""0"",""6389""
","
","1542.0999999046326","","","","","","","","56","","","","297","probe-243","","","","","0","[object Object]","null","null","1","","","",""
"","html-keyboard-response","155","420974","0.0-86.0-1.0","""event"",""trial"",""time""
""fullscreenenter"",""0"",""6389""
","
","
","""event"",""trial"",""time""
""fullscreenenter"",""0"",""6389""
","
","null","<p></p>","null","","","","","","","","","","","","","","","","","","","","","","","",""
"","do_trial","156","423812","0.0-87.0-0.0","""event"",""trial"",""time""
""fullscreenenter"",""0"",""6389""
","
","
","""event"",""trial"",""time""
""fullscreenenter"",""0"",""6389""
","
","298.09999990463257","","","","","","","","49","0,1,1","6","blank","298","null","0.09721465860209604","0.5910220082347655","0.15505606566482258","0","","","","","","","","",""
"","html-keyboard-response","157","424820","0.0-87.0-1.0","""event"",""trial"",""time""
""fullscreenenter"",""0"",""6389""
","
","
","""event"",""trial"",""time""
""fullscreenenter"",""0"",""6389""
","
","null","<p></p>","null","","","","","","","","","","","","","","","","","","","","","","","",""
"","do_trial","158","427509","0.0-88.0-0.0","""event"",""trial"",""time""
""fullscreenenter"",""0"",""6389""
","
","
","""event"",""trial"",""time""
""fullscreenenter"",""0"",""6389""
","
","150","","","","","","","","49","0,1,0","6","blank","299","null","0.06985407519829069","0.5452810235425634","0.06854686208104442","0","","","","","","","","",""
"","html-keyboard-response","159","428514","0.0-88.0-1.0","""event"",""trial"",""time""
""fullscreenenter"",""0"",""6389""
","
","
","""event"",""trial"",""time""
""fullscreenenter"",""0"",""6389""
","
","null","<p></p>","null","","","","","","","","","","","","","","","","","","","","","","","",""
"","do_trial","160","431096","0.0-89.0-0.0","""event"",""trial"",""time""
""fullscreenenter"",""0"",""6389""
""blur"",""161"",""431943""
""focus"",""161"",""432028""
","""event"",""trial"",""time""
""blur"",""161"",""431943""
","""event"",""trial"",""time""
""focus"",""161"",""432028""
","""event"",""trial"",""time""
""fullscreenenter"",""0"",""6389""
","
","47.60000014305115","","","","","","","","49","0,0,0","6","blank","300","null","0.131944412918564","0.6361964964777872","0.221141782225782","0","","","","","","","","",""
"","html-keyboard-response","161","432105","0.0-89.0-1.0","""event"",""trial"",""time""
""fullscreenenter"",""0"",""6389""
""blur"",""161"",""431943""
""focus"",""161"",""432028""
","""event"",""trial"",""time""
""blur"",""161"",""431943""
","""event"",""trial"",""time""
""focus"",""161"",""432028""
","""event"",""trial"",""time""
""fullscreenenter"",""0"",""6389""
","
","null","<p></p>","null","","","","","","","","","","","","","","","","","","","","","","","",""
"","do_trial","162","435268","0.0-90.0-0.0","""event"",""trial"",""time""
""fullscreenenter"",""0"",""6389""
""blur"",""161"",""431943""
""focus"",""161"",""432028""
","""event"",""trial"",""time""
""blur"",""161"",""431943""
","""event"",""trial"",""time""
""focus"",""161"",""432028""
","""event"",""trial"",""time""
""fullscreenenter"",""0"",""6389""
","
","618.8999998569489","","","","","","","","50","0,1,0","6","blank","301","null","0.111487105971267","0.6270210447924589","0.2525292023630498","1","","","","","","","","",""
"","html-keyboard-response","163","436277","0.0-90.0-1.0","""event"",""trial"",""time""
""fullscreenenter"",""0"",""6389""
""blur"",""161"",""431943""
""focus"",""161"",""432028""
","""event"",""trial"",""time""
""blur"",""161"",""431943""
","""event"",""trial"",""time""
""focus"",""161"",""432028""
","""event"",""trial"",""time""
""fullscreenenter"",""0"",""6389""
","
","null","<p></p>","null","","","","","","","","","","","","","","","","","","","","","","","",""
"","do_trial","164","439059","0.0-91.0-0.0","""event"",""trial"",""time""
""fullscreenenter"",""0"",""6389""
""blur"",""161"",""431943""
""focus"",""161"",""432028""
","""event"",""trial"",""time""
""blur"",""161"",""431943""
","""event"",""trial"",""time""
""focus"",""161"",""432028""
","""event"",""trial"",""time""
""fullscreenenter"",""0"",""6389""
","
","233.40000009536743","","","","","","","","50","0,0,1","6","blank","302","null","0.06788860067205117","0.5175106960665703","0.2795115879971587","0","","","","","","","","",""
"","html-keyboard-response","165","440068","0.0-91.0-1.0","""event"",""trial"",""time""
""fullscreenenter"",""0"",""6389""
""blur"",""161"",""431943""
""focus"",""161"",""432028""
","""event"",""trial"",""time""
""blur"",""161"",""431943""
","""event"",""trial"",""time""
""focus"",""161"",""432028""
","""event"",""trial"",""time""
""fullscreenenter"",""0"",""6389""
","
","null","<p></p>","null","","","","","","","","","","","","","","","","","","","","","","","",""
"","do_trial","166","442876","0.0-92.0-0.0","""event"",""trial"",""time""
""fullscreenenter"",""0"",""6389""
""blur"",""161"",""431943""
""focus"",""161"",""432028""
","""event"",""trial"",""time""
""blur"",""161"",""431943""
","""event"",""trial"",""time""
""focus"",""161"",""432028""
","""event"",""trial"",""time""
""fullscreenenter"",""0"",""6389""
","
","260.7000000476837","","","","","","","","50","0,0,0","6","blank","303","null","0.11532164448384893","0.5271995131652227","0.1227091303270717","0","","","","","","","","",""
"","html-keyboard-response","167","443881","0.0-92.0-1.0","""event"",""trial"",""time""
""fullscreenenter"",""0"",""6389""
""blur"",""161"",""431943""
""focus"",""161"",""432028""
","""event"",""trial"",""time""
""blur"",""161"",""431943""
","""event"",""trial"",""time""
""focus"",""161"",""432028""
","""event"",""trial"",""time""
""fullscreenenter"",""0"",""6389""
","
","null","<p></p>","null","","","","","","","","","","","","","","","","","","","","","","","",""
"","do_recog","168","446923","0.0-93.0-0.0","""event"",""trial"",""time""
""fullscreenenter"",""0"",""6389""
""blur"",""161"",""431943""
""focus"",""161"",""432028""
","""event"",""trial"",""time""
""blur"",""161"",""431943""
","""event"",""trial"",""time""
""focus"",""161"",""432028""
","""event"",""trial"",""time""
""fullscreenenter"",""0"",""6389""
","
","1532.2999999523163","","","","","","","","53","","","","304","probe-151","","","","","1","[object Object]","112","2","1","","","",""
"","html-keyboard-response","169","447932","0.0-93.0-1.0","""event"",""trial"",""time""
""fullscreenenter"",""0"",""6389""
""blur"",""161"",""431943""
""focus"",""161"",""432028""
","""event"",""trial"",""time""
""blur"",""161"",""431943""
","""event"",""trial"",""time""
""focus"",""161"",""432028""
","""event"",""trial"",""time""
""fullscreenenter"",""0"",""6389""
","
","null","<p></p>","null","","","","","","","","","","","","","","","","","","","","","","","",""
"","do_trial","170","450790","0.0-94.0-0.0","""event"",""trial"",""time""
""fullscreenenter"",""0"",""6389""
""blur"",""161"",""431943""
""focus"",""161"",""432028""
","""event"",""trial"",""time""
""blur"",""161"",""431943""
","""event"",""trial"",""time""
""focus"",""161"",""432028""
","""event"",""trial"",""time""
""fullscreenenter"",""0"",""6389""
","
","318.2000000476837","","","","","","","","49","0,1,1","6","blank","305","null","0.12432420847819733","0.5702373444491231","0.08483219448719678","0","","","","","","","","",""
"","html-keyboard-response","171","451796","0.0-94.0-1.0","""event"",""trial"",""time""
""fullscreenenter"",""0"",""6389""
""blur"",""161"",""431943""
""focus"",""161"",""432028""
","""event"",""trial"",""time""
""blur"",""161"",""431943""
","""event"",""trial"",""time""
""focus"",""161"",""432028""
","""event"",""trial"",""time""
""fullscreenenter"",""0"",""6389""
","
","null","<p></p>","null","","","","","","","","","","","","","","","","","","","","","","","",""
"","do_trial","172","454604","0.0-95.0-0.0","""event"",""trial"",""time""
""fullscreenenter"",""0"",""6389""
""blur"",""161"",""431943""
""focus"",""161"",""432028""
","""event"",""trial"",""time""
""blur"",""161"",""431943""
","""event"",""trial"",""time""
""focus"",""161"",""432028""
","""event"",""trial"",""time""
""fullscreenenter"",""0"",""6389""
","
","259.40000009536743","","","","","","","","49","0,0,0","6","blank","306","null","0.08850850264331199","0.5412823404219256","0.2893372452255888","0","","","","","","","","",""
"","html-keyboard-response","173","455617","0.0-95.0-1.0","""event"",""trial"",""time""
""fullscreenenter"",""0"",""6389""
""blur"",""161"",""431943""
""focus"",""161"",""432028""
","""event"",""trial"",""time""
""blur"",""161"",""431943""
","""event"",""trial"",""time""
""focus"",""161"",""432028""
","""event"",""trial"",""time""
""fullscreenenter"",""0"",""6389""
","
","null","<p></p>","null","","","","","","","","","","","","","","","","","","","","","","","",""
"","do_trial","174","458368","0.0-96.0-0.0","""event"",""trial"",""time""
""fullscreenenter"",""0"",""6389""
""blur"",""161"",""431943""
""focus"",""161"",""432028""
","""event"",""trial"",""time""
""blur"",""161"",""431943""
","""event"",""trial"",""time""
""focus"",""161"",""432028""
","""event"",""trial"",""time""
""fullscreenenter"",""0"",""6389""
","
","207.79999995231628","","","","","","","","49","1,1,0","6","blank","307","null","0.15866725786691613","0.5150663861528223","0.11713403300364444","1","","","","","","","","",""
"","html-keyboard-response","175","459372","0.0-96.0-1.0","""event"",""trial"",""time""
""fullscreenenter"",""0"",""6389""
""blur"",""161"",""431943""
""focus"",""161"",""432028""
","""event"",""trial"",""time""
""blur"",""161"",""431943""
","""event"",""trial"",""time""
""focus"",""161"",""432028""
","""event"",""trial"",""time""
""fullscreenenter"",""0"",""6389""
","
","null","<p></p>","null","","","","","","","","","","","","","","","","","","","","","","","",""
"","do_recog","176","462941","0.0-97.0-0.0","""event"",""trial"",""time""
""fullscreenenter"",""0"",""6389""
""blur"",""161"",""431943""
""focus"",""161"",""432028""
","""event"",""trial"",""time""
""blur"",""161"",""431943""
","""event"",""trial"",""time""
""focus"",""161"",""432028""
","""event"",""trial"",""time""
""fullscreenenter"",""0"",""6389""
","
","2050.4000000953674","","","","","","","","54","","","","308","probe-68","","","","","1","[object Object]","196","4","1","","","",""
"","html-keyboard-response","177","463953","0.0-97.0-1.0","""event"",""trial"",""time""
""fullscreenenter"",""0"",""6389""
""blur"",""161"",""431943""
""focus"",""161"",""432028""
","""event"",""trial"",""time""
""blur"",""161"",""431943""
","""event"",""trial"",""time""
""focus"",""161"",""432028""
","""event"",""trial"",""time""
""fullscreenenter"",""0"",""6389""
","
","null","<p></p>","null","","","","","","","","","","","","","","","","","","","","","","","",""
"","break","178","464942","0.0-98.0-0.0","""event"",""trial"",""time""
""fullscreenenter"",""0"",""6389""
""blur"",""161"",""431943""
""focus"",""161"",""432028""
","""event"",""trial"",""time""
""blur"",""161"",""431943""
","""event"",""trial"",""time""
""focus"",""161"",""432028""
","""event"",""trial"",""time""
""fullscreenenter"",""0"",""6389""
","
","988.3999998569489","<div class='center'><p>Time to take a quick break! You have 2 minutes to rest, but you can move on sooner if you'd like.</p><p> Press the <b>space bar</b> to continue.</p></div>","32","","","","","","","","","","","","","","","","","","","","","","","",""
"","do_trial","179","468077","0.0-98.0-1.0","""event"",""trial"",""time""
""fullscreenenter"",""0"",""6389""
""blur"",""161"",""431943""
""focus"",""161"",""432028""
","""event"",""trial"",""time""
""blur"",""161"",""431943""
","""event"",""trial"",""time""
""focus"",""161"",""432028""
","""event"",""trial"",""time""
""fullscreenenter"",""0"",""6389""
","
","587.5999999046326","","","","","","","","49","0,1,1","6","blank","309","null","0.07786638592747297","0.6196950201653418","0.17499612123511743","0","","","","","","","","",""
"","html-keyboard-response","180","469083","0.0-98.0-2.0","""event"",""trial"",""time""
""fullscreenenter"",""0"",""6389""
""blur"",""161"",""431943""
""focus"",""161"",""432028""
","""event"",""trial"",""time""
""blur"",""161"",""431943""
","""event"",""trial"",""time""
""focus"",""161"",""432028""
","""event"",""trial"",""time""
""fullscreenenter"",""0"",""6389""
","
","null","<p></p>","null","","","","","","","","","","","","","","","","","","","","","","","",""
"","do_recog","181","471973","0.0-99.0-0.0","""event"",""trial"",""time""
""fullscreenenter"",""0"",""6389""
""blur"",""161"",""431943""
""focus"",""161"",""432028""
","""event"",""trial"",""time""
""blur"",""161"",""431943""
","""event"",""trial"",""time""
""focus"",""161"",""432028""
","""event"",""trial"",""time""
""fullscreenenter"",""0"",""6389""
","
","1377.7999999523163","","","","","","","","55","","","","310","probe-153","","","","","1","[object Object]","75","1","0","","","",""
"","html-keyboard-response","182","472974","0.0-99.0-1.0","""event"",""trial"",""time""
""fullscreenenter"",""0"",""6389""
""blur"",""161"",""431943""
""focus"",""161"",""432028""
","""event"",""trial"",""time""
""blur"",""161"",""431943""
","""event"",""trial"",""time""
""focus"",""161"",""432028""
","""event"",""trial"",""time""
""fullscreenenter"",""0"",""6389""
","
","null","<p></p>","null","","","","","","","","","","","","","","","","","","","","","","","",""
"","do_trial","183","475790","0.0-100.0-0.0","""event"",""trial"",""time""
""fullscreenenter"",""0"",""6389""
""blur"",""161"",""431943""
""focus"",""161"",""432028""
","""event"",""trial"",""time""
""blur"",""161"",""431943""
","""event"",""trial"",""time""
""focus"",""161"",""432028""
","""event"",""trial"",""time""
""fullscreenenter"",""0"",""6389""
","
","274.59999990463257","","","","","","","","49","0,1,0","6","blank","311","null","0.08574557492579711","0.6035455917629047","0.2935728839942324","0","","","","","","","","",""
"","html-keyboard-response","184","476792","0.0-100.0-1.0","""event"",""trial"",""time""
""fullscreenenter"",""0"",""6389""
""blur"",""161"",""431943""
""focus"",""161"",""432028""
","""event"",""trial"",""time""
""blur"",""161"",""431943""
","""event"",""trial"",""time""
""focus"",""161"",""432028""
","""event"",""trial"",""time""
""fullscreenenter"",""0"",""6389""
","
","null","<p></p>","null","","","","","","","","","","","","","","","","","","","","","","","",""
"","do_recog","185","479536","0.0-101.0-0.0","""event"",""trial"",""time""
""fullscreenenter"",""0"",""6389""
""blur"",""161"",""431943""
""focus"",""161"",""432028""
","""event"",""trial"",""time""
""blur"",""161"",""431943""
","""event"",""trial"",""time""
""focus"",""161"",""432028""
","""event"",""trial"",""time""
""fullscreenenter"",""0"",""6389""
","
","1228.7000000476837","","","","","","","","53","","","","312","probe-61","","","","","1","[object Object]","113","2","1","","","",""
"","html-keyboard-response","186","480544","0.0-101.0-1.0","""event"",""trial"",""time""
""fullscreenenter"",""0"",""6389""
""blur"",""161"",""431943""
""focus"",""161"",""432028""
","""event"",""trial"",""time""
""blur"",""161"",""431943""
","""event"",""trial"",""time""
""focus"",""161"",""432028""
","""event"",""trial"",""time""
""fullscreenenter"",""0"",""6389""
","
","null","<p></p>","null","","","","","","","","","","","","","","","","","","","","","","","",""
"","do_trial","187","483416","0.0-102.0-0.0","""event"",""trial"",""time""
""fullscreenenter"",""0"",""6389""
""blur"",""161"",""431943""
""focus"",""161"",""432028""
","""event"",""trial"",""time""
""blur"",""161"",""431943""
","""event"",""trial"",""time""
""focus"",""161"",""432028""
","""event"",""trial"",""time""
""fullscreenenter"",""0"",""6389""
","
","336.7999999523163","","","","","","","","49","0,1,0","6","blank","313","null","0.07806290870564109","0.6735543270921172","0.2558401084090215","0","","","","","","","","",""
"","html-keyboard-response","188","484422","0.0-102.0-1.0","""event"",""trial"",""time""
""fullscreenenter"",""0"",""6389""
""blur"",""161"",""431943""
""focus"",""161"",""432028""
","""event"",""trial"",""time""
""blur"",""161"",""431943""
","""event"",""trial"",""time""
""focus"",""161"",""432028""
","""event"",""trial"",""time""
""fullscreenenter"",""0"",""6389""
","
","null","<p></p>","null","","","","","","","","","","","","","","","","","","","","","","","",""
"","do_trial","189","487299","0.0-103.0-0.0","""event"",""trial"",""time""
""fullscreenenter"",""0"",""6389""
""blur"",""161"",""431943""
""focus"",""161"",""432028""
","""event"",""trial"",""time""
""blur"",""161"",""431943""
","""event"",""trial"",""time""
""focus"",""161"",""432028""
","""event"",""trial"",""time""
""fullscreenenter"",""0"",""6389""
","
","330.09999990463257","","","","","","","","51","0,1,0","6","blank","314","null","0.07566041485367624","0.7215805923130416","0.251923422337493","0","","","","","","","","",""
"","html-keyboard-response","190","488304","0.0-103.0-1.0","""event"",""trial"",""time""
""fullscreenenter"",""0"",""6389""
""blur"",""161"",""431943""
""focus"",""161"",""432028""
","""event"",""trial"",""time""
""blur"",""161"",""431943""
","""event"",""trial"",""time""
""focus"",""161"",""432028""
","""event"",""trial"",""time""
""fullscreenenter"",""0"",""6389""
","
","null","<p></p>","null","","","","","","","","","","","","","","","","","","","","","","","",""
"","do_trial","191","491042","0.0-104.0-0.0","""event"",""trial"",""time""
""fullscreenenter"",""0"",""6389""
""blur"",""161"",""431943""
""focus"",""161"",""432028""
","""event"",""trial"",""time""
""blur"",""161"",""431943""
","""event"",""trial"",""time""
""focus"",""161"",""432028""
","""event"",""trial"",""time""
""fullscreenenter"",""0"",""6389""
","
","196.39999985694885","","","","","","","","51","0,1,0","6","blank","315","null","0.0941352629514211","0.8287005666910837","0.20716569988853806","0","","","","","","","","",""
"","html-keyboard-response","192","492043","0.0-104.0-1.0","""event"",""trial"",""time""
""fullscreenenter"",""0"",""6389""
""blur"",""161"",""431943""
""focus"",""161"",""432028""
","""event"",""trial"",""time""
""blur"",""161"",""431943""
","""event"",""trial"",""time""
""focus"",""161"",""432028""
","""event"",""trial"",""time""
""fullscreenenter"",""0"",""6389""
","
","null","<p></p>","null","","","","","","","","","","","","","","","","","","","","","","","",""
"","do_trial","193","494820","0.0-105.0-0.0","""event"",""trial"",""time""
""fullscreenenter"",""0"",""6389""
""blur"",""161"",""431943""
""focus"",""161"",""432028""
","""event"",""trial"",""time""
""blur"",""161"",""431943""
","""event"",""trial"",""time""
""focus"",""161"",""432028""
","""event"",""trial"",""time""
""fullscreenenter"",""0"",""6389""
","
","233.79999995231628","","","","","","","","50","0,1,0","6","blank","316","null","0.0817331097173246","0.5672710272790981","0.1664935381462693","1","","","","","","","","",""
"","html-keyboard-response","194","495837","0.0-105.0-1.0","""event"",""trial"",""time""
""fullscreenenter"",""0"",""6389""
""blur"",""161"",""431943""
""focus"",""161"",""432028""
","""event"",""trial"",""time""
""blur"",""161"",""431943""
","""event"",""trial"",""time""
""focus"",""161"",""432028""
","""event"",""trial"",""time""
""fullscreenenter"",""0"",""6389""
","
","null","<p></p>","null","","","","","","","","","","","","","","","","","","","","","","","",""
"","do_trial","195","498807","0.0-106.0-0.0","""event"",""trial"",""time""
""fullscreenenter"",""0"",""6389""
""blur"",""161"",""431943""
""focus"",""161"",""432028""
","""event"",""trial"",""time""
""blur"",""161"",""431943""
","""event"",""trial"",""time""
""focus"",""161"",""432028""
","""event"",""trial"",""time""
""fullscreenenter"",""0"",""6389""
","
","420.90000009536743","","","","","","","","50","0,1,0","6","blank","317","null","0.10655846495581324","0.6698383319238762","0.07029857109116222","1","","","","","","","","",""
"","html-keyboard-response","196","499819","0.0-106.0-1.0","""event"",""trial"",""time""
""fullscreenenter"",""0"",""6389""
""blur"",""161"",""431943""
""focus"",""161"",""432028""
","""event"",""trial"",""time""
""blur"",""161"",""431943""
","""event"",""trial"",""time""
""focus"",""161"",""432028""
","""event"",""trial"",""time""
""fullscreenenter"",""0"",""6389""
","
","null","<p></p>","null","","","","","","","","","","","","","","","","","","","","","","","",""
"","do_recog","197","502589","0.0-107.0-0.0","""event"",""trial"",""time""
""fullscreenenter"",""0"",""6389""
""blur"",""161"",""431943""
""focus"",""161"",""432028""
","""event"",""trial"",""time""
""blur"",""161"",""431943""
","""event"",""trial"",""time""
""focus"",""161"",""432028""
","""event"",""trial"",""time""
""fullscreenenter"",""0"",""6389""
","
","1252.7999999523163","","","","","","","","53","","","","318","probe-64","","","","","1","[object Object]","158","3","1","","","",""
"","html-keyboard-response","198","503595","0.0-107.0-1.0","""event"",""trial"",""time""
""fullscreenenter"",""0"",""6389""
""blur"",""161"",""431943""
""focus"",""161"",""432028""
","""event"",""trial"",""time""
""blur"",""161"",""431943""
","""event"",""trial"",""time""
""focus"",""161"",""432028""
","""event"",""trial"",""time""
""fullscreenenter"",""0"",""6389""
","
","null","<p></p>","null","","","","","","","","","","","","","","","","","","","","","","","",""
"","do_trial","199","506386","0.0-108.0-0.0","""event"",""trial"",""time""
""fullscreenenter"",""0"",""6389""
""blur"",""161"",""431943""
""focus"",""161"",""432028""
","""event"",""trial"",""time""
""blur"",""161"",""431943""
","""event"",""trial"",""time""
""focus"",""161"",""432028""
","""event"",""trial"",""time""
""fullscreenenter"",""0"",""6389""
","
","254.70000004768372","","","","","","","","50","0,0,0","6","blank","319","null","0.07353501291988376","0.6506155146502738","0.16841860802190148","0","","","","","","","","",""
"","html-keyboard-response","200","507396","0.0-108.0-1.0","""event"",""trial"",""time""
""fullscreenenter"",""0"",""6389""
""blur"",""161"",""431943""
""focus"",""161"",""432028""
","""event"",""trial"",""time""
""blur"",""161"",""431943""
","""event"",""trial"",""time""
""focus"",""161"",""432028""
","""event"",""trial"",""time""
""fullscreenenter"",""0"",""6389""
","
","null","<p></p>","null","","","","","","","","","","","","","","","","","","","","","","","",""
"","do_recog","201","510300","0.0-109.0-0.0","""event"",""trial"",""time""
""fullscreenenter"",""0"",""6389""
""blur"",""161"",""431943""
""focus"",""161"",""432028""
","""event"",""trial"",""time""
""blur"",""161"",""431943""
","""event"",""trial"",""time""
""focus"",""161"",""432028""
","""event"",""trial"",""time""
""fullscreenenter"",""0"",""6389""
","
","1399.7000000476837","","","","","","","","53","","","","320","probe-200","","","","","1","[object Object]","159","3","1","","","",""
"","html-keyboard-response","202","511307","0.0-109.0-1.0","""event"",""trial"",""time""
""fullscreenenter"",""0"",""6389""
""blur"",""161"",""431943""
""focus"",""161"",""432028""
","""event"",""trial"",""time""
""blur"",""161"",""431943""
","""event"",""trial"",""time""
""focus"",""161"",""432028""
","""event"",""trial"",""time""
""fullscreenenter"",""0"",""6389""
","
","null","<p></p>","null","","","","","","","","","","","","","","","","","","","","","","","",""
"","do_trial","203","514631","0.0-110.0-0.0","""event"",""trial"",""time""
""fullscreenenter"",""0"",""6389""
""blur"",""161"",""431943""
""focus"",""161"",""432028""
","""event"",""trial"",""time""
""blur"",""161"",""431943""
","""event"",""trial"",""time""
""focus"",""161"",""432028""
","""event"",""trial"",""time""
""fullscreenenter"",""0"",""6389""
","
","775.7999999523163","","","","","","","","50","0,0,1","6","blank","321","null","0.1406270237950961","0.6245478885779261","0.22228391922698762","0","","","","","","","","",""
"","html-keyboard-response","204","515637","0.0-110.0-1.0","""event"",""trial"",""time""
""fullscreenenter"",""0"",""6389""
""blur"",""161"",""431943""
""focus"",""161"",""432028""
","""event"",""trial"",""time""
""blur"",""161"",""431943""
","""event"",""trial"",""time""
""focus"",""161"",""432028""
","""event"",""trial"",""time""
""fullscreenenter"",""0"",""6389""
","
","null","<p></p>","null","","","","","","","","","","","","","","","","","","","","","","","",""
"","do_trial","205","518344","0.0-111.0-0.0","""event"",""trial"",""time""
""fullscreenenter"",""0"",""6389""
""blur"",""161"",""431943""
""focus"",""161"",""432028""
","""event"",""trial"",""time""
""blur"",""161"",""431943""
","""event"",""trial"",""time""
""focus"",""161"",""432028""
","""event"",""trial"",""time""
""fullscreenenter"",""0"",""6389""
","
","161.29999995231628","","","","","","","","50","1,1,0","6","blank","322","null","0.0735284694798041","0.8634539121329207","0.21354250908800873","1","","","","","","","","",""
"","html-keyboard-response","206","519351","0.0-111.0-1.0","""event"",""trial"",""time""
""fullscreenenter"",""0"",""6389""
""blur"",""161"",""431943""
""focus"",""161"",""432028""
","""event"",""trial"",""time""
""blur"",""161"",""431943""
","""event"",""trial"",""time""
""focus"",""161"",""432028""
","""event"",""trial"",""time""
""fullscreenenter"",""0"",""6389""
","
","null","<p></p>","null","","","","","","","","","","","","","","","","","","","","","","","",""
"","do_trial","207","522224","0.0-112.0-0.0","""event"",""trial"",""time""
""fullscreenenter"",""0"",""6389""
""blur"",""161"",""431943""
""focus"",""161"",""432028""
","""event"",""trial"",""time""
""blur"",""161"",""431943""
","""event"",""trial"",""time""
""focus"",""161"",""432028""
","""event"",""trial"",""time""
""fullscreenenter"",""0"",""6389""
","
","323.60000014305115","","","","","","","","50","0,1,0","6","blank","323","null","0.11430386364362147","0.742519526940485","0.25080061047169894","1","","","","","","","","",""
"","html-keyboard-response","208","523240","0.0-112.0-1.0","""event"",""trial"",""time""
""fullscreenenter"",""0"",""6389""
""blur"",""161"",""431943""
""focus"",""161"",""432028""
","""event"",""trial"",""time""
""blur"",""161"",""431943""
","""event"",""trial"",""time""
""focus"",""161"",""432028""
","""event"",""trial"",""time""
""fullscreenenter"",""0"",""6389""
","
","null","<p></p>","null","","","","","","","","","","","","","","","","","","","","","","","",""
"","do_recog","209","526535","0.0-113.0-0.0","""event"",""trial"",""time""
""fullscreenenter"",""0"",""6389""
""blur"",""161"",""431943""
""focus"",""161"",""432028""
","""event"",""trial"",""time""
""blur"",""161"",""431943""
","""event"",""trial"",""time""
""focus"",""161"",""432028""
","""event"",""trial"",""time""
""fullscreenenter"",""0"",""6389""
","
","1785.2000000476837","","","","","","","","55","","","","324","probe-245","","","","","0","[object Object]","null","null","1","","","",""
"","html-keyboard-response","210","527538","0.0-113.0-1.0","""event"",""trial"",""time""
""fullscreenenter"",""0"",""6389""
""blur"",""161"",""431943""
""focus"",""161"",""432028""
","""event"",""trial"",""time""
""blur"",""161"",""431943""
","""event"",""trial"",""time""
""focus"",""161"",""432028""
","""event"",""trial"",""time""
""fullscreenenter"",""0"",""6389""
","
","null","<p></p>","null","","","","","","","","","","","","","","","","","","","","","","","",""
"","do_trial","211","530354","0.0-114.0-0.0","""event"",""trial"",""time""
""fullscreenenter"",""0"",""6389""
""blur"",""161"",""431943""
""focus"",""161"",""432028""
","""event"",""trial"",""time""
""blur"",""161"",""431943""
","""event"",""trial"",""time""
""focus"",""161"",""432028""
","""event"",""trial"",""time""
""fullscreenenter"",""0"",""6389""
","
","275.90000009536743","","","","","","","","50","0,1,0","6","blank","325","null","0.13716992082377144","0.6659612910210417","0.32861833394134254","1","","","","","","","","",""
"","html-keyboard-response","212","531364","0.0-114.0-1.0","""event"",""trial"",""time""
""fullscreenenter"",""0"",""6389""
""blur"",""161"",""431943""
""focus"",""161"",""432028""
","""event"",""trial"",""time""
""blur"",""161"",""431943""
","""event"",""trial"",""time""
""focus"",""161"",""432028""
","""event"",""trial"",""time""
""fullscreenenter"",""0"",""6389""
","
","null","<p></p>","null","","","","","","","","","","","","","","","","","","","","","","","",""
"","do_trial","213","533927","0.0-115.0-0.0","""event"",""trial"",""time""
""fullscreenenter"",""0"",""6389""
""blur"",""161"",""431943""
""focus"",""161"",""432028""
","""event"",""trial"",""time""
""blur"",""161"",""431943""
","""event"",""trial"",""time""
""focus"",""161"",""432028""
","""event"",""trial"",""time""
""fullscreenenter"",""0"",""6389""
","
","24.200000047683716","","","","","","","","50","0,1,0","6","blank","326","null","0.10140179109023978","0.7189891890871095","0.21509442504336374","1","","","","","","","","",""
"","html-keyboard-response","214","534930","0.0-115.0-1.0","""event"",""trial"",""time""
""fullscreenenter"",""0"",""6389""
""blur"",""161"",""431943""
""focus"",""161"",""432028""
","""event"",""trial"",""time""
""blur"",""161"",""431943""
","""event"",""trial"",""time""
""focus"",""161"",""432028""
","""event"",""trial"",""time""
""fullscreenenter"",""0"",""6389""
","
","null","<p></p>","null","","","","","","","","","","","","","","","","","","","","","","","",""
"","do_trial","215","537714","0.0-116.0-0.0","""event"",""trial"",""time""
""fullscreenenter"",""0"",""6389""
""blur"",""161"",""431943""
""focus"",""161"",""432028""
","""event"",""trial"",""time""
""blur"",""161"",""431943""
","""event"",""trial"",""time""
""focus"",""161"",""432028""
","""event"",""trial"",""time""
""fullscreenenter"",""0"",""6389""
","
","241.09999990463257","","","","","","","","50","0,1,0","6","blank","327","null","0.055364134714506415","0.5472290193127034","0.2541889981326724","1","","","","","","","","",""
"","html-keyboard-response","216","538721","0.0-116.0-1.0","""event"",""trial"",""time""
""fullscreenenter"",""0"",""6389""
""blur"",""161"",""431943""
""focus"",""161"",""432028""
","""event"",""trial"",""time""
""blur"",""161"",""431943""
","""event"",""trial"",""time""
""focus"",""161"",""432028""
","""event"",""trial"",""time""
""fullscreenenter"",""0"",""6389""
","
","null","<p></p>","null","","","","","","","","","","","","","","","","","","","","","","","",""
"","do_trial","217","541473","0.0-117.0-0.0","""event"",""trial"",""time""
""fullscreenenter"",""0"",""6389""
""blur"",""161"",""431943""
""focus"",""161"",""432028""
","""event"",""trial"",""time""
""blur"",""161"",""431943""
","""event"",""trial"",""time""
""focus"",""161"",""432028""
","""event"",""trial"",""time""
""fullscreenenter"",""0"",""6389""
","
","202.89999985694885","","","","","","","","50","1,1,0","6","blank","328","null","0.0837489368206264","0.6642971807389519","0.33779827614308866","1","","","","","","","","",""
"","html-keyboard-response","218","542480","0.0-117.0-1.0","""event"",""trial"",""time""
""fullscreenenter"",""0"",""6389""
""blur"",""161"",""431943""
""focus"",""161"",""432028""
","""event"",""trial"",""time""
""blur"",""161"",""431943""
","""event"",""trial"",""time""
""focus"",""161"",""432028""
","""event"",""trial"",""time""
""fullscreenenter"",""0"",""6389""
","
","null","<p></p>","null","","","","","","","","","","","","","","","","","","","","","","","",""
"","do_trial","219","545398","0.0-118.0-0.0","""event"",""trial"",""time""
""fullscreenenter"",""0"",""6389""
""blur"",""161"",""431943""
""focus"",""161"",""432028""
","""event"",""trial"",""time""
""blur"",""161"",""431943""
","""event"",""trial"",""time""
""focus"",""161"",""432028""
","""event"",""trial"",""time""
""fullscreenenter"",""0"",""6389""
","
","370.89999985694885","","","","","","","","50","0,0,0","6","blank","329","null","0.11448381242364447","0.7166218734978572","0.3202038234627237","0","","","","","","","","",""
"","html-keyboard-response","220","546413","0.0-118.0-1.0","""event"",""trial"",""time""
""fullscreenenter"",""0"",""6389""
""blur"",""161"",""431943""
""focus"",""161"",""432028""
","""event"",""trial"",""time""
""blur"",""161"",""431943""
","""event"",""trial"",""time""
""focus"",""161"",""432028""
","""event"",""trial"",""time""
""fullscreenenter"",""0"",""6389""
","
","null","<p></p>","null","","","","","","","","","","","","","","","","","","","","","","","",""
"","do_recog","221","549131","0.0-119.0-0.0","""event"",""trial"",""time""
""fullscreenenter"",""0"",""6389""
""blur"",""161"",""431943""
""focus"",""161"",""432028""
","""event"",""trial"",""time""
""blur"",""161"",""431943""
","""event"",""trial"",""time""
""focus"",""161"",""432028""
","""event"",""trial"",""time""
""fullscreenenter"",""0"",""6389""
","
","1200.8999998569489","","","","","","","","53","","","","330","probe-60","","","","","1","[object Object]","156","3","1","","","",""
"","html-keyboard-response","222","550136","0.0-119.0-1.0","""event"",""trial"",""time""
""fullscreenenter"",""0"",""6389""
""blur"",""161"",""431943""
""focus"",""161"",""432028""
","""event"",""trial"",""time""
""blur"",""161"",""431943""
","""event"",""trial"",""time""
""focus"",""161"",""432028""
","""event"",""trial"",""time""
""fullscreenenter"",""0"",""6389""
","
","null","<p></p>","null","","","","","","","","","","","","","","","","","","","","","","","",""
"","do_trial","223","553608","0.0-120.0-0.0","""event"",""trial"",""time""
""fullscreenenter"",""0"",""6389""
""blur"",""161"",""431943""
""focus"",""161"",""432028""
","""event"",""trial"",""time""
""blur"",""161"",""431943""
","""event"",""trial"",""time""
""focus"",""161"",""432028""
","""event"",""trial"",""time""
""fullscreenenter"",""0"",""6389""
","
","935.1000001430511","","","","","","","","50","0,1,0","6","blank","331","null","0.14467923152251003","0.621697345321155","0.3814534167467772","1","","","","","","","","",""
"","html-keyboard-response","224","554620","0.0-120.0-1.0","""event"",""trial"",""time""
""fullscreenenter"",""0"",""6389""
""blur"",""161"",""431943""
""focus"",""161"",""432028""
","""event"",""trial"",""time""
""blur"",""161"",""431943""
","""event"",""trial"",""time""
""focus"",""161"",""432028""
","""event"",""trial"",""time""
""fullscreenenter"",""0"",""6389""
","
","null","<p></p>","null","","","","","","","","","","","","","","","","","","","","","","","",""
"","do_trial","225","557404","0.0-121.0-0.0","""event"",""trial"",""time""
""fullscreenenter"",""0"",""6389""
""blur"",""161"",""431943""
""focus"",""161"",""432028""
","""event"",""trial"",""time""
""blur"",""161"",""431943""
","""event"",""trial"",""time""
""focus"",""161"",""432028""
","""event"",""trial"",""time""
""fullscreenenter"",""0"",""6389""
","
","232.20000004768372","","","","","","","","50","0,1,0","6","blank","332","null","0.08699831212687965","0.5557519280256569","0.4107467248550691","1","","","","","","","","",""
"","html-keyboard-response","226","558405","0.0-121.0-1.0","""event"",""trial"",""time""
""fullscreenenter"",""0"",""6389""
""blur"",""161"",""431943""
""focus"",""161"",""432028""
","""event"",""trial"",""time""
""blur"",""161"",""431943""
","""event"",""trial"",""time""
""focus"",""161"",""432028""
","""event"",""trial"",""time""
""fullscreenenter"",""0"",""6389""
","
","null","<p></p>","null","","","","","","","","","","","","","","","","","","","","","","","",""
"","do_trial","227","561169","0.0-122.0-0.0","""event"",""trial"",""time""
""fullscreenenter"",""0"",""6389""
""blur"",""161"",""431943""
""focus"",""161"",""432028""
","""event"",""trial"",""time""
""blur"",""161"",""431943""
","""event"",""trial"",""time""
""focus"",""161"",""432028""
","""event"",""trial"",""time""
""fullscreenenter"",""0"",""6389""
","
","216.59999990463257","","","","","","","","50","0,1,0","6","blank","333","null","0.07083565002734893","0.6695359813318525","0.31063289575626163","1","","","","","","","","",""
"","html-keyboard-response","228","562179","0.0-122.0-1.0","""event"",""trial"",""time""
""fullscreenenter"",""0"",""6389""
""blur"",""161"",""431943""
""focus"",""161"",""432028""
","""event"",""trial"",""time""
""blur"",""161"",""431943""
","""event"",""trial"",""time""
""focus"",""161"",""432028""
","""event"",""trial"",""time""
""fullscreenenter"",""0"",""6389""
","
","null","<p></p>","null","","","","","","","","","","","","","","","","","","","","","","","",""
"","do_trial","229","564954","0.0-123.0-0.0","""event"",""trial"",""time""
""fullscreenenter"",""0"",""6389""
""blur"",""161"",""431943""
""focus"",""161"",""432028""
","""event"",""trial"",""time""
""blur"",""161"",""431943""
","""event"",""trial"",""time""
""focus"",""161"",""432028""
","""event"",""trial"",""time""
""fullscreenenter"",""0"",""6389""
","
","226.90000009536743","","","","","","","","50","0,0,0","6","blank","334","null","0.0822696909477172","0.6902374450258875","0.3123982255554986","0","","","","","","","","",""
"","html-keyboard-response","230","565968","0.0-123.0-1.0","""event"",""trial"",""time""
""fullscreenenter"",""0"",""6389""
""blur"",""161"",""431943""
""focus"",""161"",""432028""
","""event"",""trial"",""time""
""blur"",""161"",""431943""
","""event"",""trial"",""time""
""focus"",""161"",""432028""
","""event"",""trial"",""time""
""fullscreenenter"",""0"",""6389""
","
","null","<p></p>","null","","","","","","","","","","","","","","","","","","","","","","","",""
"","do_trial","231","568755","0.0-124.0-0.0","""event"",""trial"",""time""
""fullscreenenter"",""0"",""6389""
""blur"",""161"",""431943""
""focus"",""161"",""432028""
","""event"",""trial"",""time""
""blur"",""161"",""431943""
","""event"",""trial"",""time""
""focus"",""161"",""432028""
","""event"",""trial"",""time""
""fullscreenenter"",""0"",""6389""
","
","234","","","","","","","","50","0,1,1","6","blank","335","null","0.23236587701667716","0.7162544918156248","0.3344573155483303","1","","","","","","","","",""
"","html-keyboard-response","232","569768","0.0-124.0-1.0","""event"",""trial"",""time""
""fullscreenenter"",""0"",""6389""
""blur"",""161"",""431943""
""focus"",""161"",""432028""
","""event"",""trial"",""time""
""blur"",""161"",""431943""
","""event"",""trial"",""time""
""focus"",""161"",""432028""
","""event"",""trial"",""time""
""fullscreenenter"",""0"",""6389""
","
","null","<p></p>","null","","","","","","","","","","","","","","","","","","","","","","","",""
"","do_trial","233","572523","0.0-125.0-0.0","""event"",""trial"",""time""
""fullscreenenter"",""0"",""6389""
""blur"",""161"",""431943""
""focus"",""161"",""432028""
","""event"",""trial"",""time""
""blur"",""161"",""431943""
","""event"",""trial"",""time""
""focus"",""161"",""432028""
","""event"",""trial"",""time""
""fullscreenenter"",""0"",""6389""
","
","212","","","","","","","","50","1,1,0","6","blank","336","null","0.23674641850775924","0.6791457233877901","0.3555404889283102","1","","","","","","","","",""
"","html-keyboard-response","234","573531","0.0-125.0-1.0","""event"",""trial"",""time""
""fullscreenenter"",""0"",""6389""
""blur"",""161"",""431943""
""focus"",""161"",""432028""
","""event"",""trial"",""time""
""blur"",""161"",""431943""
","""event"",""trial"",""time""
""focus"",""161"",""432028""
","""event"",""trial"",""time""
""fullscreenenter"",""0"",""6389""
","
","null","<p></p>","null","","","","","","","","","","","","","","","","","","","","","","","",""
"","do_recog","235","576892","0.0-126.0-0.0","""event"",""trial"",""time""
""fullscreenenter"",""0"",""6389""
""blur"",""161"",""431943""
""focus"",""161"",""432028""
","""event"",""trial"",""time""
""blur"",""161"",""431943""
","""event"",""trial"",""time""
""focus"",""161"",""432028""
","""event"",""trial"",""time""
""fullscreenenter"",""0"",""6389""
","
","1854.5","","","","","","","","54","","","","337","probe-101","","","","","1","[object Object]","118","2","1","","","",""
"","html-keyboard-response","236","577902","0.0-126.0-1.0","""event"",""trial"",""time""
""fullscreenenter"",""0"",""6389""
""blur"",""161"",""431943""
""focus"",""161"",""432028""
","""event"",""trial"",""time""
""blur"",""161"",""431943""
","""event"",""trial"",""time""
""focus"",""161"",""432028""
","""event"",""trial"",""time""
""fullscreenenter"",""0"",""6389""
","
","null","<p></p>","null","","","","","","","","","","","","","","","","","","","","","","","",""
"","do_trial","237","580993","0.0-127.0-0.0","""event"",""trial"",""time""
""fullscreenenter"",""0"",""6389""
""blur"",""161"",""431943""
""focus"",""161"",""432028""
","""event"",""trial"",""time""
""blur"",""161"",""431943""
