"success","trial_type","trial_index","time_elapsed","internal_node_id","interactions","blur_events","focus_events","fullscreenenter_events","fullscreenexit_events","rt","stimulus","key_press","subject_id","participant_id","age","gender","prompt","response","choice_outcomes","context_n","context_img_id","trial_n","probe_img_id","pR_red","pR_white","pR_black","outcome","is_valid","image_to_show","probed_trial","probed_context","correct","probe","probed_trial_n","probed_context_n","context_im"
"true","fullscreen","0","4794","0.0-0.0","""event"",""trial"",""time""
""fullscreenenter"",""0"",""3800""
","
","
","""event"",""trial"",""time""
""fullscreenenter"",""0"",""3800""
","
","","","","","","","","","","","","","","","","","","","","","","","","","","",""
"","pavlovia","1","4807","0.0-1.0","""event"",""trial"",""time""
""fullscreenenter"",""0"",""3800""
","
","
","""event"",""trial"",""time""
""fullscreenenter"",""0"",""3800""
","
","","","","","","","","","","","","","","","","","","","","","","","","","","",""
"","welc_back","2","14601","0.0-2.0","""event"",""trial"",""time""
""fullscreenenter"",""0"",""3800""
","
","
","""event"",""trial"",""time""
""fullscreenenter"",""0"",""3800""
","
","null","run_exp/static/audio/clip_29_welcome_back.m4a","null","1203","202","8","Male","<div class='center'><p>Welcome to day 2!</p><p> Yesterday, you were the head captain of a pirate ship. You asked your fellow pirates to rob other ships of their gold across six different islands.</p></div>","","","","","","","","","","","","","","","","","","",""
"","html-keyboard-response","3","22135","0.0-3.0","""event"",""trial"",""time""
""fullscreenenter"",""0"",""3800""
","
","
","""event"",""trial"",""time""
""fullscreenenter"",""0"",""3800""
","
","7532.800000011921","<div class='center'><p>Welcome to day 2!</p><p> Yesterday, you were the head captain of a pirate ship. You asked your fellow pirates to rob other ships of their gold across six different islands.</p><p><b>[Press the space bar to continue]</b></p></div>","32","","","","","","","","","","","","","","","","","","","","","","","",""
"","day_1_summary_goal","4","39321","0.0-4.0","""event"",""trial"",""time""
""fullscreenenter"",""0"",""3800""
","
","
","""event"",""trial"",""time""
""fullscreenenter"",""0"",""3800""
","
","null","run_exp/static/audio/clip_30_goal_of_game.m4a","null","","","","","<div class='center'><p>Today, like yesterday, you get to pick which pirate you want to rob the next ship.</p><p>If the pirate is successful in robbing a ship, you get gold coins that look like this: </p><p><img src='run_exp/static/images/tutorial/reward.png' height='150'></p><p> If they were not successful in robbing the ship, then you will get no gold coins and you'll see a big red x like this: </p><p><img src='run_exp/static/images/tutorial/reward_no.png' height='150'></p></div>","","","","","","","","","","","","","","","","","","",""
"","html-keyboard-response","5","43903","0.0-5.0","""event"",""trial"",""time""
""fullscreenenter"",""0"",""3800""
","
","
","""event"",""trial"",""time""
""fullscreenenter"",""0"",""3800""
","
","4581.399999976158","<div class='center'><p>Today, like yesterday, you get to pick which pirate you want to rob the next ship.</p><p>If the pirate is successful in robbing a ship, you get gold coins that look like this: </p><p><img src='run_exp/static/images/tutorial/reward.png' height='150'></p><p> If they were not successful in robbing the ship, then you will get no gold coins and you'll see a big red x like this: </p><p><img src='run_exp/static/images/tutorial/reward_no.png' height='150'></p><p><b>[Press the space bar to continue]</b></p></div>","32","","","","","","","","","","","","","","","","","","","","","","","",""
"","day_1_summary_pick","6","58581","0.0-6.0","""event"",""trial"",""time""
""fullscreenenter"",""0"",""3800""
","
","
","""event"",""trial"",""time""
""fullscreenenter"",""0"",""3800""
","
","null","run_exp/static/audio/clip_31_how_to_pick_a_pirate.m4a","null","","","","","<div class='center'><p>Also, just like yesterday, you will use the 1,2,3 keys on your keyboard to pick a pirate. Press '1' to choose red beard, '2' to choose white beard, and '3' to choose black beard . You only have 3 seconds to pick a pirate, so please make a choice quickly!</p></div>","","","","","","","","","","","","","","","","","","",""
"","html-keyboard-response","7","60415","0.0-7.0","""event"",""trial"",""time""
""fullscreenenter"",""0"",""3800""
","
","
","""event"",""trial"",""time""
""fullscreenenter"",""0"",""3800""
","
","1834","<div class='center'><p>Also, just like yesterday, you will use the 1,2,3 keys on your keyboard to pick a pirate. Press '1' to choose red beard, '2' to choose white beard, and '3' to choose black beard . You only have 3 seconds to pick a pirate, so please make a choice quickly!</p><p><b>[Press the space bar to continue]</b></p></div>","32","","","","","","","","","","","","","","","","","","","","","","","",""
"","test_phase_begin","8","90800","0.0-8.0","""event"",""trial"",""time""
""fullscreenenter"",""0"",""3800""
","
","
","""event"",""trial"",""time""
""fullscreenenter"",""0"",""3800""
","
","null","run_exp/static/audio/clip_32_final_place.m4a","null","","","","","<div class='center'><p>You’ve arrived at the final island of your journey! Unfortunately, it’s very foggy out, so you won’t be able to see it in the distance like the other islands you've visited.</p><p>You’ll still be deciding which pirate you want to rob a ship like before. However, because of the fog, you also won’t be able to see the ship.</p><p>This means you do not have to remember the ships you rob on this island.</p><p>Unlike yesterday, you won't be visiting multiple islands today. You will stay on this island for the entire game. This game will last ~30 minutes.</p></div>","","","","","","","","","","","","","","","","","","",""
"","html-keyboard-response","9","91495","0.0-9.0","""event"",""trial"",""time""
""fullscreenenter"",""0"",""3800""
","
","
","""event"",""trial"",""time""
""fullscreenenter"",""0"",""3800""
","
","693.8000000119209","<div class='center'><p>You’ve arrived at the final island of your journey! Unfortunately, it’s very foggy out, so you won’t be able to see it in the distance like the other islands you've visited.</p><p>You’ll still be deciding which pirate you want to rob a ship like before. However, because of the fog, you also won’t be able to see the ship.</p><p>This means you do not have to remember the ships you rob on this island.</p><p>Unlike yesterday, you won't be visiting multiple islands today. You will stay on this island for the entire game. This game will last ~30 minutes.</p><p><b>[Press the space bar to continue]</b></p></div>","32","","","","","","","","","","","","","","","","","","","","","","","",""
"","explain_probe_1","10","99200","0.0-10.0","""event"",""trial"",""time""
""fullscreenenter"",""0"",""3800""
","
","
","""event"",""trial"",""time""
""fullscreenenter"",""0"",""3800""
","
","null","run_exp/static/audio/clip_33_recognition_1.m4a","null","","","","","<div class='center'><p> Sometimes you’ll be shown a ship, and you will be asked if you saw this ship on a past island.</p><p> Here is an example of what you will see.</p><p><img src='run_exp/static/images/tutorial/example_recog_trial.png' height='500'></p></div>","","","","","","","","","","","","","","","","","","",""
"","html-keyboard-response","11","100239","0.0-11.0","""event"",""trial"",""time""
""fullscreenenter"",""0"",""3800""
","
","
","""event"",""trial"",""time""
""fullscreenenter"",""0"",""3800""
","
","1037.8999999761581","<div class='center'><p> Sometimes you’ll be shown a ship, and you will be asked if you saw this ship on a past island.</p><p> Here is an example of what you will see.</p><p><img src='run_exp/static/images/tutorial/example_recog_trial.png' height='500'></p><p><b>[Press the space bar to continue]</b></p></div>","32","","","","","","","","","","","","","","","","","","","","","","","",""
"","explain_probe_2","12","121941","0.0-12.0","""event"",""trial"",""time""
""fullscreenenter"",""0"",""3800""
","
","
","""event"",""trial"",""time""
""fullscreenenter"",""0"",""3800""
","
","null","run_exp/static/audio/clip_34_recognition_2.m4a","null","","","","","<div class='center'><p> You will press the 5, 6, 7, 8 keys on your keyboard to respond.</p><p>If you are sure you saw the ship, press <b>5</b> on your keyboard.</p><p> If you think you saw it before but aren't sure, then press <b>6</b>.</p><p> If you think you have <b>not</b> seen it before but aren't sure, then press <b>7</b>.</p><p> If you are sure you did <b>not</b> see the ship before, then press <b>8</b>.</p><p><img src='run_exp/static/images/tutorial/example_recog_trial.png' height='500'></p></div>","","","","","","","","","","","","","","","","","","",""
"","html-keyboard-response","13","123311","0.0-13.0","""event"",""trial"",""time""
""fullscreenenter"",""0"",""3800""
","
","
","""event"",""trial"",""time""
""fullscreenenter"",""0"",""3800""
","
","1369.800000011921","<div class='center'><p> You will press the 5, 6, 7, 8 keys on your keyboard to respond.</p><p>If you are sure you saw the ship, press <b>5</b> on your keyboard.</p><p> If you think you saw it before but aren't sure, then press <b>6</b>.</p><p> If you think you have <b>not</b> seen it before but aren't sure, then press <b>7</b>.</p><p> If you are sure you did <b>not</b> see the ship before, then press <b>8</b>.</p><p><img src='run_exp/static/images/tutorial/example_recog_trial.png' height='500'></p><p><b>[Press the space bar to continue]</b></p></div>","32","","","","","","","","","","","","","","","","","","","","","","","",""
"","explain_outcome","14","140480","0.0-14.0","""event"",""trial"",""time""
""fullscreenenter"",""0"",""3800""
","
","
","""event"",""trial"",""time""
""fullscreenenter"",""0"",""3800""
","
","null","run_exp/static/audio/clip_35_recognition_3.m4a","null","","","","","<div class='center'><p> If you remember correctly, then you’ll get a gold coin like this: </p><p><img src='run_exp/static/images/tutorial/reward_small.png' height='200'></p><p>If you do not remember correctly, then you'll see a red x like this: </p><p><img src='run_exp/static/images/tutorial/reward_no.png' height='200'></p><p>Importantly, when you are shown a ship, take the time to remind yourself which island you saw it on. This will help you in the next part of the study.</p></div>","","","","","","","","","","","","","","","","","","",""
"","html-keyboard-response","15","140879","0.0-15.0","""event"",""trial"",""time""
""fullscreenenter"",""0"",""3800""
","
","
","""event"",""trial"",""time""
""fullscreenenter"",""0"",""3800""
","
","398.2999999523163","<div class='center'><p> If you remember correctly, then you’ll get a gold coin like this: </p><p><img src='run_exp/static/images/tutorial/reward_small.png' height='200'></p><p>If you do not remember correctly, then you'll see a red x like this: </p><p><img src='run_exp/static/images/tutorial/reward_no.png' height='200'></p><p>Importantly, when you are shown a ship, take the time to remind yourself which island you saw it on. This will help you in the next part of the study.</p><p><b>[Press the space bar to continue]</b></p></div>","32","","","","","","","","","","","","","","","","","","","","","","","",""
"","begin_test_phase","16","156681","0.0-16.0","""event"",""trial"",""time""
""fullscreenenter"",""0"",""3800""
","
","
","""event"",""trial"",""time""
""fullscreenenter"",""0"",""3800""
","
","null","run_exp/static/audio/clip_36_begin_final.m4a","null","","","","","<div class='center'><p>Let's go over the important points again. Your job is to: </p><p>1. Pick the pirate who is best at robbing ships and will bring you back gold coins. </p><p>2. Correctly remember whether or not you saw a ship before. If you did see the ship before, remind yourself on which island you saw it. </p></div>","","","","","","","","","","","","","","","","","","",""
"","html-keyboard-response","17","157776","0.0-17.0","""event"",""trial"",""time""
""fullscreenenter"",""0"",""3800""
","
","
","""event"",""trial"",""time""
""fullscreenenter"",""0"",""3800""
","
","1063.3999999761581","<div class='center'><p>Let's go over the important points again. Your job is to: </p><p>1. Pick the pirate who is best at robbing ships and will bring you back gold coins. </p><p>2. Correctly remember whether or not you saw a ship before. If you did see the ship before, remind yourself on which island you saw it. </p><p><b>[Press the space bar to continue]</b></p></div>","32","","","","","","","","","","","","","","","","","","","","","","","",""
"","do_welcome","18","161784","0.0-18.0","""event"",""trial"",""time""
""fullscreenenter"",""0"",""3800""
","
","
","""event"",""trial"",""time""
""fullscreenenter"",""0"",""3800""
","
","null","","","","","","","","null","","","","","","","","","","","","","","","","","",""
"","do_trial","19","166008","0.0-19.0-0.0","""event"",""trial"",""time""
""fullscreenenter"",""0"",""3800""
","
","
","""event"",""trial"",""time""
""fullscreenenter"",""0"",""3800""
","
","1678.199999988079","","","","","","","","49","0,1,0","6","blank","230","null","0.27758313771512005","0.19383845371867012","0.6859770384492301","0","","","","","","","","",""
"","html-keyboard-response","20","167018","0.0-19.0-1.0","""event"",""trial"",""time""
""fullscreenenter"",""0"",""3800""
","
","
","""event"",""trial"",""time""
""fullscreenenter"",""0"",""3800""
","
","null","<p></p>","null","","","","","","","","","","","","","","","","","","","","","","","",""
"","do_trial","21","169744","0.0-20.0-0.0","""event"",""trial"",""time""
""fullscreenenter"",""0"",""3800""
","
","
","""event"",""trial"",""time""
""fullscreenenter"",""0"",""3800""
","
","174.30000001192093","","","","","","","","51","1,0,1","6","blank","231","null","0.5038530714101442","0.15861323428221594","0.6770459901314727","1","","","","","","","","",""
"","html-keyboard-response","22","170759","0.0-20.0-1.0","""event"",""trial"",""time""
""fullscreenenter"",""0"",""3800""
","
","
","""event"",""trial"",""time""
""fullscreenenter"",""0"",""3800""
","
","null","<p></p>","null","","","","","","","","","","","","","","","","","","","","","","","",""
"","do_trial","23","173297","0.0-21.0-0.0","""event"",""trial"",""time""
""fullscreenenter"",""0"",""3800""
","
","
","""event"",""trial"",""time""
""fullscreenenter"",""0"",""3800""
","
","0","","","","","","","","50","0,0,1","6","blank","232","null","0.3512614058508868","0.11720758705679506","0.5965079947792955","0","","","","","","","","",""
"","html-keyboard-response","24","174304","0.0-21.0-1.0","""event"",""trial"",""time""
""fullscreenenter"",""0"",""3800""
","
","
","""event"",""trial"",""time""
""fullscreenenter"",""0"",""3800""
","
","null","<p></p>","null","","","","","","","","","","","","","","","","","","","","","","","",""
"","do_trial","25","177135","0.0-22.0-0.0","""event"",""trial"",""time""
""fullscreenenter"",""0"",""3800""
","
","
","""event"",""trial"",""time""
""fullscreenenter"",""0"",""3800""
","
","291.30000001192093","","","","","","","","51","1,0,0","6","blank","233","null","0.3811235437914449","0.1516531739202393","0.6356118845506922","0","","","","","","","","",""
"","html-keyboard-response","26","178149","0.0-22.0-1.0","""event"",""trial"",""time""
""fullscreenenter"",""0"",""3800""
","
","
","""event"",""trial"",""time""
""fullscreenenter"",""0"",""3800""
","
","null","<p></p>","null","","","","","","","","","","","","","","","","","","","","","","","",""
"","do_trial","27","180720","0.0-23.0-0.0","""event"",""trial"",""time""
""fullscreenenter"",""0"",""3800""
","
","
","""event"",""trial"",""time""
""fullscreenenter"",""0"",""3800""
","
","31.899999976158142","","","","","","","","49","1,0,0","6","blank","234","null","0.31976563169036787","0.08054124668228836","0.6495601444022693","1","","","","","","","","",""
"","html-keyboard-response","28","181735","0.0-23.0-1.0","""event"",""trial"",""time""
""fullscreenenter"",""0"",""3800""
","
","
","""event"",""trial"",""time""
""fullscreenenter"",""0"",""3800""
","
","null","<p></p>","null","","","","","","","","","","","","","","","","","","","","","","","",""
"","do_trial","29","184365","0.0-24.0-0.0","""event"",""trial"",""time""
""fullscreenenter"",""0"",""3800""
","
","
","""event"",""trial"",""time""
""fullscreenenter"",""0"",""3800""
","
","89.30000001192093","","","","","","","","51","1,1,0","6","blank","235","null","0.2783645879965129","0.23843760350629079","0.6820953417529302","0","","","","","","","","",""
"","html-keyboard-response","30","185379","0.0-24.0-1.0","""event"",""trial"",""time""
""fullscreenenter"",""0"",""3800""
","
","
","""event"",""trial"",""time""
""fullscreenenter"",""0"",""3800""
","
","null","<p></p>","null","","","","","","","","","","","","","","","","","","","","","","","",""
"","do_trial","31","188047","0.0-25.0-0.0","""event"",""trial"",""time""
""fullscreenenter"",""0"",""3800""
","
","
","""event"",""trial"",""time""
""fullscreenenter"",""0"",""3800""
","
","120.69999998807907","","","","","","","","50","0,1,0","6","blank","236","null","0.23473269961051427","0.15851901207702676","0.6694111102060164","1","","","","","","","","",""
"","html-keyboard-response","32","189049","0.0-25.0-1.0","""event"",""trial"",""time""
""fullscreenenter"",""0"",""3800""
","
","
","""event"",""trial"",""time""
""fullscreenenter"",""0"",""3800""
","
","null","<p></p>","null","","","","","","","","","","","","","","","","","","","","","","","",""
"","do_trial","33","191980","0.0-26.0-0.0","""event"",""trial"",""time""
""fullscreenenter"",""0"",""3800""
","
","
","""event"",""trial"",""time""
""fullscreenenter"",""0"",""3800""
","
","395.19999998807907","","","","","","","","49","0,0,0","6","blank","237","null","0.1895559984831503","0.21920426073524354","0.7142276152721084","0","","","","","","","","",""
"","html-keyboard-response","34","192992","0.0-26.0-1.0","""event"",""trial"",""time""
""fullscreenenter"",""0"",""3800""
","
","
","""event"",""trial"",""time""
""fullscreenenter"",""0"",""3800""
","
","null","<p></p>","null","","","","","","","","","","","","","","","","","","","","","","","",""
"","do_trial","35","195610","0.0-27.0-0.0","""event"",""trial"",""time""
""fullscreenenter"",""0"",""3800""
","
","
","""event"",""trial"",""time""
""fullscreenenter"",""0"",""3800""
","
","70","","","","","","","","51","0,0,1","6","blank","238","null","0.2546255607673379","0.22024300950497555","0.7342031450269159","1","","","","","","","","",""
"","html-keyboard-response","36","196623","0.0-27.0-1.0","""event"",""trial"",""time""
""fullscreenenter"",""0"",""3800""
","
","
","""event"",""trial"",""time""
""fullscreenenter"",""0"",""3800""
","
","null","<p></p>","null","","","","","","","","","","","","","","","","","","","","","","","",""
"","do_trial","37","199553","0.0-28.0-0.0","""event"",""trial"",""time""
""fullscreenenter"",""0"",""3800""
","
","
","""event"",""trial"",""time""
""fullscreenenter"",""0"",""3800""
","
","373.0999999642372","","","","","","","","50","1,1,1","6","blank","239","null","0.2744866020026469","0.18754019462239221","0.6752308898451647","1","","","","","","","","",""
"","html-keyboard-response","38","200569","0.0-28.0-1.0","""event"",""trial"",""time""
""fullscreenenter"",""0"",""3800""
","
","
","""event"",""trial"",""time""
""fullscreenenter"",""0"",""3800""
","
","null","<p></p>","null","","","","","","","","","","","","","","","","","","","","","","","",""
"","do_trial","39","203610","0.0-29.0-0.0","""event"",""trial"",""time""
""fullscreenenter"",""0"",""3800""
","
","
","""event"",""trial"",""time""
""fullscreenenter"",""0"",""3800""
","
","488.30000001192093","","","","","","","","51","1,0,0","6","blank","240","null","0.32197690826688624","0.17697224998120029","0.598034434615055","0","","","","","","","","",""
"","html-keyboard-response","40","204625","0.0-29.0-1.0","""event"",""trial"",""time""
""fullscreenenter"",""0"",""3800""
","
","
","""event"",""trial"",""time""
""fullscreenenter"",""0"",""3800""
","
","null","<p></p>","null","","","","","","","","","","","","","","","","","","","","","","","",""
"","do_recog","41","210658","0.0-30.0-0.0","""event"",""trial"",""time""
""fullscreenenter"",""0"",""3800""
","
","
","""event"",""trial"",""time""
""fullscreenenter"",""0"",""3800""
","
","null","","","","","","","","null","","","","241","probe-57","","","","","1","[object Object]","114","2","0","","","",""
"","html-keyboard-response","42","211669","0.0-30.0-1.0","""event"",""trial"",""time""
""fullscreenenter"",""0"",""3800""
""blur"",""43"",""213081""
","""event"",""trial"",""time""
""blur"",""43"",""213081""
","
","""event"",""trial"",""time""
""fullscreenenter"",""0"",""3800""
","
","null","<p></p>","null","","","","","","","","","","","","","","","","","","","","","","","",""
"","do_trial","43","217720","0.0-31.0-0.0","""event"",""trial"",""time""
""fullscreenenter"",""0"",""3800""
""blur"",""43"",""213081""
""focus"",""44"",""217845""
","""event"",""trial"",""time""
""blur"",""43"",""213081""
","""event"",""trial"",""time""
""focus"",""44"",""217845""
","""event"",""trial"",""time""
""fullscreenenter"",""0"",""3800""
","
","null","","","","","","","","null","0,1,1","6","blank","242","null","0.33349426485599504","0.2234401342077333","0.7102079071304048","","","","","","","","","",""
"","html-keyboard-response","44","218722","0.0-31.0-1.0","""event"",""trial"",""time""
""fullscreenenter"",""0"",""3800""
""blur"",""43"",""213081""
""focus"",""44"",""217845""
","""event"",""trial"",""time""
""blur"",""43"",""213081""
","""event"",""trial"",""time""
""focus"",""44"",""217845""
","""event"",""trial"",""time""
""fullscreenenter"",""0"",""3800""
","
","null","<p></p>","null","","","","","","","","","","","","","","","","","","","","","","","",""
"","do_recog","45","222772","0.0-32.0-0.0","""event"",""trial"",""time""
""fullscreenenter"",""0"",""3800""
""blur"",""43"",""213081""
""focus"",""44"",""217845""
","""event"",""trial"",""time""
""blur"",""43"",""213081""
","""event"",""trial"",""time""
""focus"",""44"",""217845""
","""event"",""trial"",""time""
""fullscreenenter"",""0"",""3800""
","
","2546.2999999523163","","","","","","","","53","","","","243","probe-37","","","","","1","[object Object]","73","1","1","","","",""
"","html-keyboard-response","46","223789","0.0-32.0-1.0","""event"",""trial"",""time""
""fullscreenenter"",""0"",""3800""
""blur"",""43"",""213081""
""focus"",""44"",""217845""
","""event"",""trial"",""time""
""blur"",""43"",""213081""
","""event"",""trial"",""time""
""focus"",""44"",""217845""
","""event"",""trial"",""time""
""fullscreenenter"",""0"",""3800""
","
","null","<p></p>","null","","","","","","","","","","","","","","","","","","","","","","","",""
"","do_trial","47","227843","0.0-33.0-0.0","""event"",""trial"",""time""
""fullscreenenter"",""0"",""3800""
""blur"",""43"",""213081""
""focus"",""44"",""217845""
","""event"",""trial"",""time""
""blur"",""43"",""213081""
","""event"",""trial"",""time""
""focus"",""44"",""217845""
","""event"",""trial"",""time""
""fullscreenenter"",""0"",""3800""
","
","1511.5999999642372","","","","","","","","51","1,1,0","6","blank","244","null","0.44267258129051035","0.16439815125650573","0.6204152253835931","0","","","","","","","","",""
"","html-keyboard-response","48","228852","0.0-33.0-1.0","""event"",""trial"",""time""
""fullscreenenter"",""0"",""3800""
""blur"",""43"",""213081""
""focus"",""44"",""217845""
","""event"",""trial"",""time""
""blur"",""43"",""213081""
","""event"",""trial"",""time""
""focus"",""44"",""217845""
","""event"",""trial"",""time""
""fullscreenenter"",""0"",""3800""
","
","null","<p></p>","null","","","","","","","","","","","","","","","","","","","","","","","",""
"","do_recog","49","232925","0.0-34.0-0.0","""event"",""trial"",""time""
""fullscreenenter"",""0"",""3800""
""blur"",""43"",""213081""
""focus"",""44"",""217845""
","""event"",""trial"",""time""
""blur"",""43"",""213081""
","""event"",""trial"",""time""
""focus"",""44"",""217845""
","""event"",""trial"",""time""
""fullscreenenter"",""0"",""3800""
","
","2559.199999988079","","","","","","","","55","","","","245","probe-62","","","","","1","[object Object]","195","4","0","","","",""
"","html-keyboard-response","50","233939","0.0-34.0-1.0","""event"",""trial"",""time""
""fullscreenenter"",""0"",""3800""
""blur"",""43"",""213081""
""focus"",""44"",""217845""
","""event"",""trial"",""time""
""blur"",""43"",""213081""
","""event"",""trial"",""time""
""focus"",""44"",""217845""
","""event"",""trial"",""time""
""fullscreenenter"",""0"",""3800""
","
","null","<p></p>","null","","","","","","","","","","","","","","","","","","","","","","","",""
"","do_trial","51","238042","0.0-35.0-0.0","""event"",""trial"",""time""
""fullscreenenter"",""0"",""3800""
""blur"",""43"",""213081""
""focus"",""44"",""217845""
","""event"",""trial"",""time""
""blur"",""43"",""213081""
","""event"",""trial"",""time""
""focus"",""44"",""217845""
","""event"",""trial"",""time""
""fullscreenenter"",""0"",""3800""
","
","1554.5","","","","","","","","51","1,1,1","6","blank","246","null","0.5342924675050893","0.22026160860489788","0.6076910812827702","1","","","","","","","","",""
"","html-keyboard-response","52","239056","0.0-35.0-1.0","""event"",""trial"",""time""
""fullscreenenter"",""0"",""3800""
""blur"",""43"",""213081""
""focus"",""44"",""217845""
","""event"",""trial"",""time""
""blur"",""43"",""213081""
","""event"",""trial"",""time""
""focus"",""44"",""217845""
","""event"",""trial"",""time""
""fullscreenenter"",""0"",""3800""
","
","null","<p></p>","null","","","","","","","","","","","","","","","","","","","","","","","",""
"","do_recog","53","242672","0.0-36.0-0.0","""event"",""trial"",""time""
""fullscreenenter"",""0"",""3800""
""blur"",""43"",""213081""
""focus"",""44"",""217845""
","""event"",""trial"",""time""
""blur"",""43"",""213081""
","""event"",""trial"",""time""
""focus"",""44"",""217845""
","""event"",""trial"",""time""
""fullscreenenter"",""0"",""3800""
","
","2107.2000000476837","","","","","","","","53","","","","247","probe-140","","","","","1","[object Object]","36","0","1","","","",""
"","html-keyboard-response","54","243688","0.0-36.0-1.0","""event"",""trial"",""time""
""fullscreenenter"",""0"",""3800""
""blur"",""43"",""213081""
""focus"",""44"",""217845""
","""event"",""trial"",""time""
""blur"",""43"",""213081""
","""event"",""trial"",""time""
""focus"",""44"",""217845""
","""event"",""trial"",""time""
""fullscreenenter"",""0"",""3800""
","
","null","<p></p>","null","","","","","","","","","","","","","","","","","","","","","","","",""
"","do_trial","55","246762","0.0-37.0-0.0","""event"",""trial"",""time""
""fullscreenenter"",""0"",""3800""
""blur"",""43"",""213081""
""focus"",""44"",""217845""
","""event"",""trial"",""time""
""blur"",""43"",""213081""
","""event"",""trial"",""time""
""focus"",""44"",""217845""
","""event"",""trial"",""time""
""fullscreenenter"",""0"",""3800""
","
","532.2999999523163","","","","","","","","49","0,0,1","6","blank","248","null","0.4006351454775973","0.29166461600794646","0.5066220714125984","0","","","","","","","","",""
"","html-keyboard-response","56","247776","0.0-37.0-1.0","""event"",""trial"",""time""
""fullscreenenter"",""0"",""3800""
""blur"",""43"",""213081""
""focus"",""44"",""217845""
","""event"",""trial"",""time""
""blur"",""43"",""213081""
","""event"",""trial"",""time""
""focus"",""44"",""217845""
","""event"",""trial"",""time""
""fullscreenenter"",""0"",""3800""
","
","null","<p></p>","null","","","","","","","","","","","","","","","","","","","","","","","",""
"","do_trial","57","250666","0.0-38.0-0.0","""event"",""trial"",""time""
""fullscreenenter"",""0"",""3800""
""blur"",""43"",""213081""
""focus"",""44"",""217845""
","""event"",""trial"",""time""
""blur"",""43"",""213081""
","""event"",""trial"",""time""
""focus"",""44"",""217845""
","""event"",""trial"",""time""
""fullscreenenter"",""0"",""3800""
","
","341.69999998807907","","","","","","","","50","0,0,1","6","blank","249","null","0.454013631661637","0.11911560385693891","0.37165879346696157","0","","","","","","","","",""
"","html-keyboard-response","58","251682","0.0-38.0-1.0","""event"",""trial"",""time""
""fullscreenenter"",""0"",""3800""
""blur"",""43"",""213081""
""focus"",""44"",""217845""
","""event"",""trial"",""time""
""blur"",""43"",""213081""
","""event"",""trial"",""time""
""focus"",""44"",""217845""
","""event"",""trial"",""time""
""fullscreenenter"",""0"",""3800""
","
","null","<p></p>","null","","","","","","","","","","","","","","","","","","","","","","","",""
"","do_trial","59","254505","0.0-39.0-0.0","""event"",""trial"",""time""
""fullscreenenter"",""0"",""3800""
""blur"",""43"",""213081""
""focus"",""44"",""217845""
","""event"",""trial"",""time""
""blur"",""43"",""213081""
","""event"",""trial"",""time""
""focus"",""44"",""217845""
","""event"",""trial"",""time""
""fullscreenenter"",""0"",""3800""
","
","279.69999998807907","","","","","","","","49","1,0,1","6","blank","250","null","0.5213455282989141","0.08215191927358015","0.4077733269626722","1","","","","","","","","",""
"","html-keyboard-response","60","255521","0.0-39.0-1.0","""event"",""trial"",""time""
""fullscreenenter"",""0"",""3800""
""blur"",""43"",""213081""
""focus"",""44"",""217845""
","""event"",""trial"",""time""
""blur"",""43"",""213081""
","""event"",""trial"",""time""
""focus"",""44"",""217845""
","""event"",""trial"",""time""
""fullscreenenter"",""0"",""3800""
","
","null","<p></p>","null","","","","","","","","","","","","","","","","","","","","","","","",""
"","do_trial","61","258124","0.0-40.0-0.0","""event"",""trial"",""time""
""fullscreenenter"",""0"",""3800""
""blur"",""43"",""213081""
""focus"",""44"",""217845""
","""event"",""trial"",""time""
""blur"",""43"",""213081""
","""event"",""trial"",""time""
""focus"",""44"",""217845""
","""event"",""trial"",""time""
""fullscreenenter"",""0"",""3800""
","
","52.10000002384186","","","","","","","","50","1,0,1","6","blank","251","null","0.5805014053417602","0.06099937302671961","0.5105473407980002","0","","","","","","","","",""
"","html-keyboard-response","62","259137","0.0-40.0-1.0","""event"",""trial"",""time""
""fullscreenenter"",""0"",""3800""
""blur"",""43"",""213081""
""focus"",""44"",""217845""
","""event"",""trial"",""time""
""blur"",""43"",""213081""
","""event"",""trial"",""time""
""focus"",""44"",""217845""
","""event"",""trial"",""time""
""fullscreenenter"",""0"",""3800""
","
","null","<p></p>","null","","","","","","","","","","","","","","","","","","","","","","","",""
"","do_trial","63","261850","0.0-41.0-0.0","""event"",""trial"",""time""
""fullscreenenter"",""0"",""3800""
""blur"",""43"",""213081""
""focus"",""44"",""217845""
","""event"",""trial"",""time""
""blur"",""43"",""213081""
","""event"",""trial"",""time""
""focus"",""44"",""217845""
","""event"",""trial"",""time""
""fullscreenenter"",""0"",""3800""
","
","163.69999998807907","","","","","","","","50","0,0,0","6","blank","252","null","0.6260859672786283","0.052245401853681366","0.40539472979935154","0","","","","","","","","",""
"","html-keyboard-response","64","262862","0.0-41.0-1.0","""event"",""trial"",""time""
""fullscreenenter"",""0"",""3800""
""blur"",""43"",""213081""
""focus"",""44"",""217845""
","""event"",""trial"",""time""
""blur"",""43"",""213081""
","""event"",""trial"",""time""
""focus"",""44"",""217845""
","""event"",""trial"",""time""
""fullscreenenter"",""0"",""3800""
","
","null","<p></p>","null","","","","","","","","","","","","","","","","","","","","","","","",""
"","do_recog","65","266149","0.0-42.0-0.0","""event"",""trial"",""time""
""fullscreenenter"",""0"",""3800""
""blur"",""43"",""213081""
""focus"",""44"",""217845""
","""event"",""trial"",""time""
""blur"",""43"",""213081""
","""event"",""trial"",""time""
""focus"",""44"",""217845""
","""event"",""trial"",""time""
""fullscreenenter"",""0"",""3800""
","
","1781.5999999642372","","","","","","","","54","","","","253","probe-223","","","","","1","[object Object]","79","1","1","","","",""
"","html-keyboard-response","66","267163","0.0-42.0-1.0","""event"",""trial"",""time""
""fullscreenenter"",""0"",""3800""
""blur"",""43"",""213081""
""focus"",""44"",""217845""
","""event"",""trial"",""time""
""blur"",""43"",""213081""
","""event"",""trial"",""time""
""focus"",""44"",""217845""
","""event"",""trial"",""time""
""fullscreenenter"",""0"",""3800""
","
","null","<p></p>","null","","","","","","","","","","","","","","","","","","","","","","","",""
"","do_trial","67","270314","0.0-43.0-0.0","""event"",""trial"",""time""
""fullscreenenter"",""0"",""3800""
""blur"",""43"",""213081""
""focus"",""44"",""217845""
","""event"",""trial"",""time""
""blur"",""43"",""213081""
","""event"",""trial"",""time""
""focus"",""44"",""217845""
","""event"",""trial"",""time""
""fullscreenenter"",""0"",""3800""
","
","597.2999999523163","","","","","","","","51","1,0,1","6","blank","254","null","0.6730799060150787","0.10683274717770246","0.32287273479639544","1","","","","","","","","",""
"","html-keyboard-response","68","271328","0.0-43.0-1.0","""event"",""trial"",""time""
""fullscreenenter"",""0"",""3800""
""blur"",""43"",""213081""
""focus"",""44"",""217845""
","""event"",""trial"",""time""
""blur"",""43"",""213081""
","""event"",""trial"",""time""
""focus"",""44"",""217845""
","""event"",""trial"",""time""
""fullscreenenter"",""0"",""3800""
","
","null","<p></p>","null","","","","","","","","","","","","","","","","","","","","","","","",""
"","do_trial","69","274041","0.0-44.0-0.0","""event"",""trial"",""time""
""fullscreenenter"",""0"",""3800""
""blur"",""43"",""213081""
""focus"",""44"",""217845""
","""event"",""trial"",""time""
""blur"",""43"",""213081""
","""event"",""trial"",""time""
""focus"",""44"",""217845""
","""event"",""trial"",""time""
""fullscreenenter"",""0"",""3800""
","
","163.79999995231628","","","","","","","","50","1,0,0","6","blank","255","null","0.62155409727386","0.08026081928393689","0.3908997674414422","0","","","","","","","","",""
"","html-keyboard-response","70","275051","0.0-44.0-1.0","""event"",""trial"",""time""
""fullscreenenter"",""0"",""3800""
""blur"",""43"",""213081""
""focus"",""44"",""217845""
","""event"",""trial"",""time""
""blur"",""43"",""213081""
","""event"",""trial"",""time""
""focus"",""44"",""217845""
","""event"",""trial"",""time""
""fullscreenenter"",""0"",""3800""
","
","null","<p></p>","null","","","","","","","","","","","","","","","","","","","","","","","",""
"","do_trial","71","278136","0.0-45.0-0.0","""event"",""trial"",""time""
""fullscreenenter"",""0"",""3800""
""blur"",""43"",""213081""
""focus"",""44"",""217845""
","""event"",""trial"",""time""
""blur"",""43"",""213081""
","""event"",""trial"",""time""
""focus"",""44"",""217845""
","""event"",""trial"",""time""
""fullscreenenter"",""0"",""3800""
","
","540.3000000119209","","","","","","","","49","0,0,0","6","blank","256","null","0.5889710536590284","0.10897170926621273","0.29998053841568373","0","","","","","","","","",""
"","html-keyboard-response","72","279150","0.0-45.0-1.0","""event"",""trial"",""time""
""fullscreenenter"",""0"",""3800""
""blur"",""43"",""213081""
""focus"",""44"",""217845""
","""event"",""trial"",""time""
""blur"",""43"",""213081""
","""event"",""trial"",""time""
""focus"",""44"",""217845""
","""event"",""trial"",""time""
""fullscreenenter"",""0"",""3800""
","
","null","<p></p>","null","","","","","","","","","","","","","","","","","","","","","","","",""
"","do_recog","73","282006","0.0-46.0-0.0","""event"",""trial"",""time""
""fullscreenenter"",""0"",""3800""
""blur"",""43"",""213081""
""focus"",""44"",""217845""
","""event"",""trial"",""time""
""blur"",""43"",""213081""
","""event"",""trial"",""time""
""focus"",""44"",""217845""
","""event"",""trial"",""time""
""fullscreenenter"",""0"",""3800""
","
","1349.800000011921","","","","","","","","54","","","","257","probe-38","","","","","1","[object Object]","34","0","1","","","",""
"","html-keyboard-response","74","283019","0.0-46.0-1.0","""event"",""trial"",""time""
""fullscreenenter"",""0"",""3800""
""blur"",""43"",""213081""
""focus"",""44"",""217845""
","""event"",""trial"",""time""
""blur"",""43"",""213081""
","""event"",""trial"",""time""
""focus"",""44"",""217845""
","""event"",""trial"",""time""
""fullscreenenter"",""0"",""3800""
","
","null","<p></p>","null","","","","","","","","","","","","","","","","","","","","","","","",""
"","do_trial","75","286154","0.0-47.0-0.0","""event"",""trial"",""time""
""fullscreenenter"",""0"",""3800""
""blur"",""43"",""213081""
""focus"",""44"",""217845""
","""event"",""trial"",""time""
""blur"",""43"",""213081""
","""event"",""trial"",""time""
""focus"",""44"",""217845""
","""event"",""trial"",""time""
""fullscreenenter"",""0"",""3800""
","
","586.2999999523163","","","","","","","","50","0,0,0","6","blank","258","null","0.6140489644208065","0.21626381778653475","0.2062864686243124","0","","","","","","","","",""
"","html-keyboard-response","76","287167","0.0-47.0-1.0","""event"",""trial"",""time""
""fullscreenenter"",""0"",""3800""
""blur"",""43"",""213081""
""focus"",""44"",""217845""
","""event"",""trial"",""time""
""blur"",""43"",""213081""
","""event"",""trial"",""time""
""focus"",""44"",""217845""
","""event"",""trial"",""time""
""fullscreenenter"",""0"",""3800""
","
","null","<p></p>","null","","","","","","","","","","","","","","","","","","","","","","","",""
"","do_trial","77","290195","0.0-48.0-0.0","""event"",""trial"",""time""
""fullscreenenter"",""0"",""3800""
""blur"",""43"",""213081""
""focus"",""44"",""217845""
","""event"",""trial"",""time""
""blur"",""43"",""213081""
","""event"",""trial"",""time""
""focus"",""44"",""217845""
","""event"",""trial"",""time""
""fullscreenenter"",""0"",""3800""
","
","485.5","","","","","","","","51","1,0,0","6","blank","259","null","0.5703436192795007","0.1983194495098587","0.23695152635714362","0","","","","","","","","",""
"","html-keyboard-response","78","291208","0.0-48.0-1.0","""event"",""trial"",""time""
""fullscreenenter"",""0"",""3800""
""blur"",""43"",""213081""
""focus"",""44"",""217845""
","""event"",""trial"",""time""
""blur"",""43"",""213081""
","""event"",""trial"",""time""
""focus"",""44"",""217845""
","""event"",""trial"",""time""
""fullscreenenter"",""0"",""3800""
","
","null","<p></p>","null","","","","","","","","","","","","","","","","","","","","","","","",""
"","do_recog","79","294221","0.0-49.0-0.0","""event"",""trial"",""time""
""fullscreenenter"",""0"",""3800""
""blur"",""43"",""213081""
""focus"",""44"",""217845""
","""event"",""trial"",""time""
""blur"",""43"",""213081""
","""event"",""trial"",""time""
""focus"",""44"",""217845""
","""event"",""trial"",""time""
""fullscreenenter"",""0"",""3800""
","
","1508.800000011921","","","","","","","","54","","","","260","probe-103","","","","","1","[object Object]","118","2","1","","","",""
"","html-keyboard-response","80","295235","0.0-49.0-1.0","""event"",""trial"",""time""
""fullscreenenter"",""0"",""3800""
""blur"",""43"",""213081""
""focus"",""44"",""217845""
","""event"",""trial"",""time""
""blur"",""43"",""213081""
","""event"",""trial"",""time""
""focus"",""44"",""217845""
","""event"",""trial"",""time""
""fullscreenenter"",""0"",""3800""
","
","null","<p></p>","null","","","","","","","","","","","","","","","","","","","","","","","",""
"","do_trial","81","298261","0.0-50.0-0.0","""event"",""trial"",""time""
""fullscreenenter"",""0"",""3800""
""blur"",""43"",""213081""
""focus"",""44"",""217845""
","""event"",""trial"",""time""
""blur"",""43"",""213081""
","""event"",""trial"",""time""
""focus"",""44"",""217845""
","""event"",""trial"",""time""
""fullscreenenter"",""0"",""3800""
","
","487.5999999642372","","","","","","","","51","1,0,0","6","blank","261","null","0.5586828719496165","0.14283096663459952","0.29391046106962565","0","","","","","","","","",""
"","html-keyboard-response","82","299275","0.0-50.0-1.0","""event"",""trial"",""time""
""fullscreenenter"",""0"",""3800""
""blur"",""43"",""213081""
""focus"",""44"",""217845""
","""event"",""trial"",""time""
""blur"",""43"",""213081""
","""event"",""trial"",""time""
""focus"",""44"",""217845""
","""event"",""trial"",""time""
""fullscreenenter"",""0"",""3800""
","
","null","<p></p>","null","","","","","","","","","","","","","","","","","","","","","","","",""
"","do_trial","83","302318","0.0-51.0-0.0","""event"",""trial"",""time""
""fullscreenenter"",""0"",""3800""
""blur"",""43"",""213081""
""focus"",""44"",""217845""
","""event"",""trial"",""time""
""blur"",""43"",""213081""
","""event"",""trial"",""time""
""focus"",""44"",""217845""
","""event"",""trial"",""time""
""fullscreenenter"",""0"",""3800""
","
","497.19999998807907","","","","","","","","49","0,0,0","6","blank","262","null","0.6870530533568643","0.16436913874709747","0.18617255725718507","0","","","","","","","","",""
"","html-keyboard-response","84","303331","0.0-51.0-1.0","""event"",""trial"",""time""
""fullscreenenter"",""0"",""3800""
""blur"",""43"",""213081""
""focus"",""44"",""217845""
","""event"",""trial"",""time""
""blur"",""43"",""213081""
","""event"",""trial"",""time""
""focus"",""44"",""217845""
","""event"",""trial"",""time""
""fullscreenenter"",""0"",""3800""
","
","null","<p></p>","null","","","","","","","","","","","","","","","","","","","","","","","",""
"","do_trial","85","305904","0.0-52.0-0.0","""event"",""trial"",""time""
""fullscreenenter"",""0"",""3800""
""blur"",""43"",""213081""
""focus"",""44"",""217845""
","""event"",""trial"",""time""
""blur"",""43"",""213081""
","""event"",""trial"",""time""
""focus"",""44"",""217845""
","""event"",""trial"",""time""
""fullscreenenter"",""0"",""3800""
","
","33.10000002384186","","","","","","","","50","1,0,1","6","blank","263","null","0.722380517564545","0.2939267748495941","0.18801938283967817","0","","","","","","","","",""
"","html-keyboard-response","86","306917","0.0-52.0-1.0","""event"",""trial"",""time""
""fullscreenenter"",""0"",""3800""
""blur"",""43"",""213081""
""focus"",""44"",""217845""
","""event"",""trial"",""time""
""blur"",""43"",""213081""
","""event"",""trial"",""time""
""focus"",""44"",""217845""
","""event"",""trial"",""time""
""fullscreenenter"",""0"",""3800""
","
","null","<p></p>","null","","","","","","","","","","","","","","","","","","","","","","","",""
"","do_recog","87","310381","0.0-53.0-0.0","""event"",""trial"",""time""
""fullscreenenter"",""0"",""3800""
""blur"",""43"",""213081""
""focus"",""44"",""217845""
","""event"",""trial"",""time""
""blur"",""43"",""213081""
","""event"",""trial"",""time""
""focus"",""44"",""217845""
","""event"",""trial"",""time""
""fullscreenenter"",""0"",""3800""
","
","1951.5999999642372","","","","","","","","55","","","","264","probe-102","","","","","1","[object Object]","115","2","0","","","",""
"","html-keyboard-response","88","311395","0.0-53.0-1.0","""event"",""trial"",""time""
""fullscreenenter"",""0"",""3800""
""blur"",""43"",""213081""
""focus"",""44"",""217845""
","""event"",""trial"",""time""
""blur"",""43"",""213081""
","""event"",""trial"",""time""
""focus"",""44"",""217845""
","""event"",""trial"",""time""
""fullscreenenter"",""0"",""3800""
","
","null","<p></p>","null","","","","","","","","","","","","","","","","","","","","","","","",""
"","do_trial","89","314703","0.0-54.0-0.0","""event"",""trial"",""time""
""fullscreenenter"",""0"",""3800""
""blur"",""43"",""213081""
""focus"",""44"",""217845""
","""event"",""trial"",""time""
""blur"",""43"",""213081""
","""event"",""trial"",""time""
""focus"",""44"",""217845""
","""event"",""trial"",""time""
""fullscreenenter"",""0"",""3800""
","
","761.1999999880791","","","","","","","","51","0,1,0","6","blank","265","null","0.8374170681565157","0.21322469032048194","0.3434842124165818","0","","","","","","","","",""
"","html-keyboard-response","90","315718","0.0-54.0-1.0","""event"",""trial"",""time""
""fullscreenenter"",""0"",""3800""
""blur"",""43"",""213081""
""focus"",""44"",""217845""
","""event"",""trial"",""time""
""blur"",""43"",""213081""
","""event"",""trial"",""time""
""focus"",""44"",""217845""
","""event"",""trial"",""time""
""fullscreenenter"",""0"",""3800""
","
","null","<p></p>","null","","","","","","","","","","","","","","","","","","","","","","","",""
"","do_recog","91","318653","0.0-55.0-0.0","""event"",""trial"",""time""
""fullscreenenter"",""0"",""3800""
""blur"",""43"",""213081""
""focus"",""44"",""217845""
","""event"",""trial"",""time""
""blur"",""43"",""213081""
","""event"",""trial"",""time""
""focus"",""44"",""217845""
","""event"",""trial"",""time""
""fullscreenenter"",""0"",""3800""
","
","1423.5","","","","","","","","55","","","","266","probe-125","","","","","1","[object Object]","72","1","0","","","",""
"","html-keyboard-response","92","319668","0.0-55.0-1.0","""event"",""trial"",""time""
""fullscreenenter"",""0"",""3800""
""blur"",""43"",""213081""
""focus"",""44"",""217845""
","""event"",""trial"",""time""
""blur"",""43"",""213081""
","""event"",""trial"",""time""
""focus"",""44"",""217845""
","""event"",""trial"",""time""
""fullscreenenter"",""0"",""3800""
","
","null","<p></p>","null","","","","","","","","","","","","","","","","","","","","","","","",""
"","do_trial","93","322722","0.0-56.0-0.0","""event"",""trial"",""time""
""fullscreenenter"",""0"",""3800""
""blur"",""43"",""213081""
""focus"",""44"",""217845""
","""event"",""trial"",""time""
""blur"",""43"",""213081""
","""event"",""trial"",""time""
""focus"",""44"",""217845""
","""event"",""trial"",""time""
""fullscreenenter"",""0"",""3800""
","
","505","","","","","","","","51","1,0,0","6","blank","267","null","0.8288801950038293","0.10812763517331193","0.3182109798277601","0","","","","","","","","",""
"","html-keyboard-response","94","323735","0.0-56.0-1.0","""event"",""trial"",""time""
""fullscreenenter"",""0"",""3800""
""blur"",""43"",""213081""
""focus"",""44"",""217845""
","""event"",""trial"",""time""
""blur"",""43"",""213081""
","""event"",""trial"",""time""
""focus"",""44"",""217845""
","""event"",""trial"",""time""
""fullscreenenter"",""0"",""3800""
","
","null","<p></p>","null","","","","","","","","","","","","","","","","","","","","","","","",""
"","do_trial","95","326277","0.0-57.0-0.0","""event"",""trial"",""time""
""fullscreenenter"",""0"",""3800""
""blur"",""43"",""213081""
""focus"",""44"",""217845""
","""event"",""trial"",""time""
""blur"",""43"",""213081""
","""event"",""trial"",""time""
""focus"",""44"",""217845""
","""event"",""trial"",""time""
""fullscreenenter"",""0"",""3800""
","
","0.19999998807907104","","","","","","","","51","0,0,1","6","blank","268","null","0.774713991207189","0.18241040855253512","0.34759650076035187","1","","","","","","","","",""
"","html-keyboard-response","96","327291","0.0-57.0-1.0","""event"",""trial"",""time""
""fullscreenenter"",""0"",""3800""
""blur"",""43"",""213081""
""focus"",""44"",""217845""
","""event"",""trial"",""time""
""blur"",""43"",""213081""
","""event"",""trial"",""time""
""focus"",""44"",""217845""
","""event"",""trial"",""time""
""fullscreenenter"",""0"",""3800""
","
","null","<p></p>","null","","","","","","","","","","","","","","","","","","","","","","","",""
"","break","97","328840","0.0-58.0-0.0","""event"",""trial"",""time""
""fullscreenenter"",""0"",""3800""
""blur"",""43"",""213081""
""focus"",""44"",""217845""
","""event"",""trial"",""time""
""blur"",""43"",""213081""
","""event"",""trial"",""time""
""focus"",""44"",""217845""
","""event"",""trial"",""time""
""fullscreenenter"",""0"",""3800""
","
","1547.6000000238419","<div class='center'><p>Time to take a quick break! You have 2 minutes to rest, but you can move on sooner if you'd like.</p><p> Press the <b>space bar</b> to continue.</p></div>","32","","","","","","","","","","","","","","","","","","","","","","","",""
"","do_trial","98","332224","0.0-58.0-1.0","""event"",""trial"",""time""
""fullscreenenter"",""0"",""3800""
""blur"",""43"",""213081""
""focus"",""44"",""217845""
","""event"",""trial"",""time""
""blur"",""43"",""213081""
","""event"",""trial"",""time""
""focus"",""44"",""217845""
","""event"",""trial"",""time""
""fullscreenenter"",""0"",""3800""
","
","845.5999999642372","","","","","","","","51","1,0,0","6","blank","269","null","0.7473974173931426","0.2950820605591864","0.2965911021832956","0","","","","","","","","",""
"","html-keyboard-response","99","333237","0.0-58.0-2.0","""event"",""trial"",""time""
""fullscreenenter"",""0"",""3800""
""blur"",""43"",""213081""
""focus"",""44"",""217845""
","""event"",""trial"",""time""
""blur"",""43"",""213081""
","""event"",""trial"",""time""
""focus"",""44"",""217845""
","""event"",""trial"",""time""
""fullscreenenter"",""0"",""3800""
","
","null","<p></p>","null","","","","","","","","","","","","","","","","","","","","","","","",""
"","do_trial","100","335890","0.0-59.0-0.0","""event"",""trial"",""time""
""fullscreenenter"",""0"",""3800""
""blur"",""43"",""213081""
""focus"",""44"",""217845""
","""event"",""trial"",""time""
""blur"",""43"",""213081""
","""event"",""trial"",""time""
""focus"",""44"",""217845""
","""event"",""trial"",""time""
""fullscreenenter"",""0"",""3800""
","
","100","","","","","","","","49","1,1,0","6","blank","270","null","0.7049365692129486","0.23629735999508622","0.29122416671699897","1","","","","","","","","",""
"","html-keyboard-response","101","336905","0.0-59.0-1.0","""event"",""trial"",""time""
""fullscreenenter"",""0"",""3800""
""blur"",""43"",""213081""
""focus"",""44"",""217845""
","""event"",""trial"",""time""
""blur"",""43"",""213081""
","""event"",""trial"",""time""
""focus"",""44"",""217845""
","""event"",""trial"",""time""
""fullscreenenter"",""0"",""3800""
","
","null","<p></p>","null","","","","","","","","","","","","","","","","","","","","","","","",""
"","do_trial","102","339774","0.0-60.0-0.0","""event"",""trial"",""time""
""fullscreenenter"",""0"",""3800""
""blur"",""43"",""213081""
""focus"",""44"",""217845""
","""event"",""trial"",""time""
""blur"",""43"",""213081""
","""event"",""trial"",""time""
""focus"",""44"",""217845""
","""event"",""trial"",""time""
""fullscreenenter"",""0"",""3800""
","
","331.80000001192093","","","","","","","","51","1,0,0","6","blank","271","null","0.7621532148469184","0.26606236586410037","0.40684300745664204","0","","","","","","","","",""
"","html-keyboard-response","103","340785","0.0-60.0-1.0","""event"",""trial"",""time""
""fullscreenenter"",""0"",""3800""
""blur"",""43"",""213081""
""focus"",""44"",""217845""
","""event"",""trial"",""time""
""blur"",""43"",""213081""
","""event"",""trial"",""time""
""focus"",""44"",""217845""
","""event"",""trial"",""time""
""fullscreenenter"",""0"",""3800""
","
","null","<p></p>","null","","","","","","","","","","","","","","","","","","","","","","","",""
"","do_recog","104","344406","0.0-61.0-0.0","""event"",""trial"",""time""
""fullscreenenter"",""0"",""3800""
""blur"",""43"",""213081""
""focus"",""44"",""217845""
","""event"",""trial"",""time""
""blur"",""43"",""213081""
","""event"",""trial"",""time""
""focus"",""44"",""217845""
","""event"",""trial"",""time""
""fullscreenenter"",""0"",""3800""
","
","2108","","","","","","","","54","","","","272","probe-21","","","","","1","[object Object]","113","2","1","","","",""
"","html-keyboard-response","105","345416","0.0-61.0-1.0","""event"",""trial"",""time""
""fullscreenenter"",""0"",""3800""
""blur"",""43"",""213081""
""focus"",""44"",""217845""
","""event"",""trial"",""time""
""blur"",""43"",""213081""
","""event"",""trial"",""time""
""focus"",""44"",""217845""
","""event"",""trial"",""time""
""fullscreenenter"",""0"",""3800""
","
","null","<p></p>","null","","","","","","","","","","","","","","","","","","","","","","","",""
"","do_trial","106","349892","0.0-62.0-0.0","""event"",""trial"",""time""
""fullscreenenter"",""0"",""3800""
""blur"",""43"",""213081""
""focus"",""44"",""217845""
","""event"",""trial"",""time""
""blur"",""43"",""213081""
","""event"",""trial"",""time""
""focus"",""44"",""217845""
","""event"",""trial"",""time""
""fullscreenenter"",""0"",""3800""
","
","1933.300000011921","","","","","","","","51","0,1,0","6","blank","273","null","0.5514509773406662","0.15074377682622953","0.536542680873722","0","","","","","","","","",""
"","html-keyboard-response","107","350908","0.0-62.0-1.0","""event"",""trial"",""time""
""fullscreenenter"",""0"",""3800""
""blur"",""43"",""213081""
""focus"",""44"",""217845""
","""event"",""trial"",""time""
""blur"",""43"",""213081""
","""event"",""trial"",""time""
""focus"",""44"",""217845""
","""event"",""trial"",""time""
""fullscreenenter"",""0"",""3800""
","
","null","<p></p>","null","","","","","","","","","","","","","","","","","","","","","","","",""
"","do_trial","108","353638","0.0-63.0-0.0","""event"",""trial"",""time""
""fullscreenenter"",""0"",""3800""
""blur"",""43"",""213081""
""focus"",""44"",""217845""
","""event"",""trial"",""time""
""blur"",""43"",""213081""
","""event"",""trial"",""time""
""focus"",""44"",""217845""
","""event"",""trial"",""time""
""fullscreenenter"",""0"",""3800""
","
","193.0999999642372","","","","","","","","49","1,0,1","6","blank","274","null","0.5428551644395067","0.1400815563234424","0.5132338778555436","1","","","","","","","","",""
"","html-keyboard-response","109","354653","0.0-63.0-1.0","""event"",""trial"",""time""
""fullscreenenter"",""0"",""3800""
""blur"",""43"",""213081""
""focus"",""44"",""217845""
","""event"",""trial"",""time""
""blur"",""43"",""213081""
","""event"",""trial"",""time""
""focus"",""44"",""217845""
","""event"",""trial"",""time""
""fullscreenenter"",""0"",""3800""
","
","null","<p></p>","null","","","","","","","","","","","","","","","","","","","","","","","",""
"","do_trial","110","357191","0.0-64.0-0.0","""event"",""trial"",""time""
""fullscreenenter"",""0"",""3800""
""blur"",""43"",""213081""
""focus"",""44"",""217845""
","""event"",""trial"",""time""
""blur"",""43"",""213081""
","""event"",""trial"",""time""
""focus"",""44"",""217845""
","""event"",""trial"",""time""
""fullscreenenter"",""0"",""3800""
","
","0.699999988079071","","","","","","","","51","0,0,0","6","blank","275","null","0.45178237931157","0.20536898465335818","0.5866611158980929","0","","","","","","","","",""
"","html-keyboard-response","111","358193","0.0-64.0-1.0","""event"",""trial"",""time""
""fullscreenenter"",""0"",""3800""
""blur"",""43"",""213081""
""focus"",""44"",""217845""
","""event"",""trial"",""time""
""blur"",""43"",""213081""
","""event"",""trial"",""time""
""focus"",""44"",""217845""
","""event"",""trial"",""time""
""fullscreenenter"",""0"",""3800""
","
","null","<p></p>","null","","","","","","","","","","","","","","","","","","","","","","","",""
"","do_recog","112","361343","0.0-65.0-0.0","""event"",""trial"",""time""
""fullscreenenter"",""0"",""3800""
""blur"",""43"",""213081""
""focus"",""44"",""217845""
","""event"",""trial"",""time""
""blur"",""43"",""213081""
","""event"",""trial"",""time""
""focus"",""44"",""217845""
","""event"",""trial"",""time""
""fullscreenenter"",""0"",""3800""
","
","1634.699999988079","","","","","","","","55","","","","276","probe-124","","","","","1","[object Object]","199","4","0","","","",""
"","html-keyboard-response","113","362356","0.0-65.0-1.0","""event"",""trial"",""time""
""fullscreenenter"",""0"",""3800""
""blur"",""43"",""213081""
""focus"",""44"",""217845""
","""event"",""trial"",""time""
""blur"",""43"",""213081""
","""event"",""trial"",""time""
""focus"",""44"",""217845""
","""event"",""trial"",""time""
""fullscreenenter"",""0"",""3800""
","
","null","<p></p>","null","","","","","","","","","","","","","","","","","","","","","","","",""
"","do_trial","114","365894","0.0-66.0-0.0","""event"",""trial"",""time""
""fullscreenenter"",""0"",""3800""
""blur"",""43"",""213081""
""focus"",""44"",""217845""
","""event"",""trial"",""time""
""blur"",""43"",""213081""
","""event"",""trial"",""time""
""focus"",""44"",""217845""
","""event"",""trial"",""time""
""fullscreenenter"",""0"",""3800""
","
","999.6999999880791","","","","","","","","50","1,0,0","6","blank","277","null","0.4469716051998197","0.1700370855819473","0.48602608564288025","0","","","","","","","","",""
"","html-keyboard-response","115","366910","0.0-66.0-1.0","""event"",""trial"",""time""
""fullscreenenter"",""0"",""3800""
""blur"",""43"",""213081""
""focus"",""44"",""217845""
","""event"",""trial"",""time""
""blur"",""43"",""213081""
","""event"",""trial"",""time""
""focus"",""44"",""217845""
","""event"",""trial"",""time""
""fullscreenenter"",""0"",""3800""
","
","null","<p></p>","null","","","","","","","","","","","","","","","","","","","","","","","",""
"","do_trial","116","369623","0.0-67.0-0.0","""event"",""trial"",""time""
""fullscreenenter"",""0"",""3800""
""blur"",""43"",""213081""
""focus"",""44"",""217845""
","""event"",""trial"",""time""
""blur"",""43"",""213081""
","""event"",""trial"",""time""
""focus"",""44"",""217845""
","""event"",""trial"",""time""
""fullscreenenter"",""0"",""3800""
","
","163","","","","","","","","49","1,0,0","6","blank","278","null","0.6621602683443638","0.12724717455598009","0.41741738439986964","1","","","","","","","","",""
"","html-keyboard-response","117","370635","0.0-67.0-1.0","""event"",""trial"",""time""
""fullscreenenter"",""0"",""3800""
""blur"",""43"",""213081""
""focus"",""44"",""217845""
","""event"",""trial"",""time""
""blur"",""43"",""213081""
","""event"",""trial"",""time""
""focus"",""44"",""217845""
","""event"",""trial"",""time""
""fullscreenenter"",""0"",""3800""
","
","null","<p></p>","null","","","","","","","","","","","","","","","","","","","","","","","",""
"","do_trial","118","373773","0.0-68.0-0.0","""event"",""trial"",""time""
""fullscreenenter"",""0"",""3800""
""blur"",""43"",""213081""
""focus"",""44"",""217845""
","""event"",""trial"",""time""
""blur"",""43"",""213081""
","""event"",""trial"",""time""
""focus"",""44"",""217845""
","""event"",""trial"",""time""
""fullscreenenter"",""0"",""3800""
","
","601.8999999761581","","","","","","","","51","1,0,0","6","blank","279","null","0.5740653333831724","0.06979660584108169","0.4632070105712136","0","","","","","","","","",""
"","html-keyboard-response","119","374786","0.0-68.0-1.0","""event"",""trial"",""time""
""fullscreenenter"",""0"",""3800""
""blur"",""43"",""213081""
""focus"",""44"",""217845""
","""event"",""trial"",""time""
""blur"",""43"",""213081""
","""event"",""trial"",""time""
""focus"",""44"",""217845""
","""event"",""trial"",""time""
""fullscreenenter"",""0"",""3800""
","
","null","<p></p>","null","","","","","","","","","","","","","","","","","","","","","","","",""
"","do_trial","120","377874","0.0-69.0-0.0","""event"",""trial"",""time""
""fullscreenenter"",""0"",""3800""
""blur"",""43"",""213081""
""focus"",""44"",""217845""
","""event"",""trial"",""time""
""blur"",""43"",""213081""
","""event"",""trial"",""time""
""focus"",""44"",""217845""
","""event"",""trial"",""time""
""fullscreenenter"",""0"",""3800""
","
","546.7000000476837","","","","","","","","49","0,0,1","6","blank","280","null","0.569032734366141","0.14198610617827265","0.5146079949549867","0","","","","","","","","",""
"","html-keyboard-response","121","378888","0.0-69.0-1.0","""event"",""trial"",""time""
""fullscreenenter"",""0"",""3800""
""blur"",""43"",""213081""
""focus"",""44"",""217845""
","""event"",""trial"",""time""
""blur"",""43"",""213081""
","""event"",""trial"",""time""
""focus"",""44"",""217845""
","""event"",""trial"",""time""
""fullscreenenter"",""0"",""3800""
","
","null","<p></p>","null","","","","","","","","","","","","","","","","","","","","","","","",""
"","do_trial","122","381497","0.0-70.0-0.0","""event"",""trial"",""time""
""fullscreenenter"",""0"",""3800""
""blur"",""43"",""213081""
""focus"",""44"",""217845""
","""event"",""trial"",""time""
""blur"",""43"",""213081""
","""event"",""trial"",""time""
""focus"",""44"",""217845""
","""event"",""trial"",""time""
""fullscreenenter"",""0"",""3800""
","
","64.60000002384186","","","","","","","","51","0,0,1","6","blank","281","null","0.6465269616408519","0.16284620073644263","0.42920724493411","1","","","","","","","","",""
"","html-keyboard-response","123","382510","0.0-70.0-1.0","""event"",""trial"",""time""
""fullscreenenter"",""0"",""3800""
""blur"",""43"",""213081""
""focus"",""44"",""217845""
","""event"",""trial"",""time""
""blur"",""43"",""213081""
","""event"",""trial"",""time""
""focus"",""44"",""217845""
","""event"",""trial"",""time""
""fullscreenenter"",""0"",""3800""
","
","null","<p></p>","null","","","","","","","","","","","","","","","","","","","","","","","",""
"","do_recog","124","388533","0.0-71.0-0.0","""event"",""trial"",""time""
""fullscreenenter"",""0"",""3800""
""blur"",""43"",""213081""
""focus"",""44"",""217845""
","""event"",""trial"",""time""
""blur"",""43"",""213081""
","""event"",""trial"",""time""
""focus"",""44"",""217845""
","""event"",""trial"",""time""
""fullscreenenter"",""0"",""3800""
","
","null","","","","","","","","null","","","","282","probe-141","","","","","1","[object Object]","33","0","0","","","",""
"","html-keyboard-response","125","389548","0.0-71.0-1.0","""event"",""trial"",""time""
""fullscreenenter"",""0"",""3800""
""blur"",""43"",""213081""
""focus"",""44"",""217845""
","""event"",""trial"",""time""
""blur"",""43"",""213081""
","""event"",""trial"",""time""
""focus"",""44"",""217845""
","""event"",""trial"",""time""
""fullscreenenter"",""0"",""3800""
","
","null","<p></p>","null","","","","","","","","","","","","","","","","","","","","","","","",""
"","do_trial","126","394225","0.0-72.0-0.0","""event"",""trial"",""time""
""fullscreenenter"",""0"",""3800""
""blur"",""43"",""213081""
""focus"",""44"",""217845""
","""event"",""trial"",""time""
""blur"",""43"",""213081""
","""event"",""trial"",""time""
""focus"",""44"",""217845""
","""event"",""trial"",""time""
""fullscreenenter"",""0"",""3800""
","
","2136.300000011921","","","","","","","","51","1,0,1","6","blank","283","null","0.6606112450989667","0.11153224113700416","0.5121312946298983","1","","","","","","","","",""
"","html-keyboard-response","127","395237","0.0-72.0-1.0","""event"",""trial"",""time""
""fullscreenenter"",""0"",""3800""
""blur"",""43"",""213081""
""focus"",""44"",""217845""
","""event"",""trial"",""time""
""blur"",""43"",""213081""
","""event"",""trial"",""time""
""focus"",""44"",""217845""
","""event"",""trial"",""time""
""fullscreenenter"",""0"",""3800""
","
","null","<p></p>","null","","","","","","","","","","","","","","","","","","","","","","","",""
"","do_trial","128","397843","0.0-73.0-0.0","""event"",""trial"",""time""
""fullscreenenter"",""0"",""3800""
""blur"",""43"",""213081""
""focus"",""44"",""217845""
","""event"",""trial"",""time""
""blur"",""43"",""213081""
","""event"",""trial"",""time""
""focus"",""44"",""217845""
","""event"",""trial"",""time""
""fullscreenenter"",""0"",""3800""
","
","55.19999998807907","","","","","","","","50","1,0,0","6","blank","284","null","0.6250090150699057","0.07741934779202779","0.3037906154361535","0","","","","","","","","",""
"","html-keyboard-response","129","398856","0.0-73.0-1.0","""event"",""trial"",""time""
""fullscreenenter"",""0"",""3800""
""blur"",""43"",""213081""
""focus"",""44"",""217845""
","""event"",""trial"",""time""
""blur"",""43"",""213081""
","""event"",""trial"",""time""
""focus"",""44"",""217845""
","""event"",""trial"",""time""
""fullscreenenter"",""0"",""3800""
","
","null","<p></p>","null","","","","","","","","","","","","","","","","","","","","","","","",""
"","do_trial","130","401476","0.0-74.0-0.0","""event"",""trial"",""time""
""fullscreenenter"",""0"",""3800""
""blur"",""43"",""213081""
""focus"",""44"",""217845""
","""event"",""trial"",""time""
""blur"",""43"",""213081""
","""event"",""trial"",""time""
""focus"",""44"",""217845""
","""event"",""trial"",""time""
""fullscreenenter"",""0"",""3800""
","
","74.5","","","","","","","","49","1,0,1","6","blank","285","null","0.6458264998805293","0.12415927083476477","0.24432266758661214","1","","","","","","","","",""
"","html-keyboard-response","131","402488","0.0-74.0-1.0","""event"",""trial"",""time""
""fullscreenenter"",""0"",""3800""
""blur"",""43"",""213081""
""focus"",""44"",""217845""
","""event"",""trial"",""time""
""blur"",""43"",""213081""
","""event"",""trial"",""time""
""focus"",""44"",""217845""
","""event"",""trial"",""time""
""fullscreenenter"",""0"",""3800""
","
","null","<p></p>","null","","","","","","","","","","","","","","","","","","","","","","","",""
"","do_recog","132","405654","0.0-75.0-0.0","""event"",""trial"",""time""
""fullscreenenter"",""0"",""3800""
""blur"",""43"",""213081""
""focus"",""44"",""217845""
","""event"",""trial"",""time""
""blur"",""43"",""213081""
","""event"",""trial"",""time""
""focus"",""44"",""217845""
","""event"",""trial"",""time""
""fullscreenenter"",""0"",""3800""
","
","1652.199999988079","","","","","","","","54","","","","286","probe-51","","","","","1","[object Object]","192","4","1","","","",""
"","html-keyboard-response","133","406668","0.0-75.0-1.0","""event"",""trial"",""time""
""fullscreenenter"",""0"",""3800""
""blur"",""43"",""213081""
""focus"",""44"",""217845""
","""event"",""trial"",""time""
""blur"",""43"",""213081""
","""event"",""trial"",""time""
""focus"",""44"",""217845""
","""event"",""trial"",""time""
""fullscreenenter"",""0"",""3800""
","
","null","<p></p>","null","","","","","","","","","","","","","","","","","","","","","","","",""
"","do_trial","134","409955","0.0-76.0-0.0","""event"",""trial"",""time""
""fullscreenenter"",""0"",""3800""
""blur"",""43"",""213081""
""focus"",""44"",""217845""
","""event"",""trial"",""time""
""blur"",""43"",""213081""
","""event"",""trial"",""time""
""focus"",""44"",""217845""
","""event"",""trial"",""time""
""fullscreenenter"",""0"",""3800""
","
","736.5","","","","","","","","51","1,0,0","6","blank","287","null","0.6789241136364498","0.1407900719717549","0.16821598734307514","0","","","","","","","","",""
"","html-keyboard-response","135","410968","0.0-76.0-1.0","""event"",""trial"",""time""
""fullscreenenter"",""0"",""3800""
""blur"",""43"",""213081""
""focus"",""44"",""217845""
","""event"",""trial"",""time""
""blur"",""43"",""213081""
","""event"",""trial"",""time""
""focus"",""44"",""217845""
","""event"",""trial"",""time""
""fullscreenenter"",""0"",""3800""
","
","null","<p></p>","null","","","","","","","","","","","","","","","","","","","","","","","",""
"","do_recog","136","414120","0.0-77.0-0.0","""event"",""trial"",""time""
""fullscreenenter"",""0"",""3800""
""blur"",""43"",""213081""
""focus"",""44"",""217845""
","""event"",""trial"",""time""
""blur"",""43"",""213081""
","""event"",""trial"",""time""
""focus"",""44"",""217845""
","""event"",""trial"",""time""
""fullscreenenter"",""0"",""3800""
","
","1636","","","","","","","","54","","","","288","probe-255","","","","","0","[object Object]","null","null","0","","","",""
"","html-keyboard-response","137","415134","0.0-77.0-1.0","""event"",""trial"",""time""
""fullscreenenter"",""0"",""3800""
""blur"",""43"",""213081""
""focus"",""44"",""217845""
","""event"",""trial"",""time""
""blur"",""43"",""213081""
","""event"",""trial"",""time""
""focus"",""44"",""217845""
","""event"",""trial"",""time""
""fullscreenenter"",""0"",""3800""
","
","null","<p></p>","null","","","","","","","","","","","","","","","","","","","","","","","",""
"","do_trial","138","417972","0.0-78.0-0.0","""event"",""trial"",""time""
""fullscreenenter"",""0"",""3800""
""blur"",""43"",""213081""
""focus"",""44"",""217845""
","""event"",""trial"",""time""
""blur"",""43"",""213081""
","""event"",""trial"",""time""
""focus"",""44"",""217845""
","""event"",""trial"",""time""
""fullscreenenter"",""0"",""3800""
","
","288.10000002384186","","","","","","","","51","0,0,0","6","blank","289","null","0.6907089885006061","0.06975058685611207","0.2551674788676063","0","","","","","","","","",""
"","html-keyboard-response","139","418987","0.0-78.0-1.0","""event"",""trial"",""time""
""fullscreenenter"",""0"",""3800""
""blur"",""43"",""213081""
""focus"",""44"",""217845""
","""event"",""trial"",""time""
""blur"",""43"",""213081""
","""event"",""trial"",""time""
""focus"",""44"",""217845""
","""event"",""trial"",""time""
""fullscreenenter"",""0"",""3800""
","
","null","<p></p>","null","","","","","","","","","","","","","","","","","","","","","","","",""
"","do_recog","140","421938","0.0-79.0-0.0","""event"",""trial"",""time""
""fullscreenenter"",""0"",""3800""
""blur"",""43"",""213081""
""focus"",""44"",""217845""
","""event"",""trial"",""time""
""blur"",""43"",""213081""
","""event"",""trial"",""time""
""focus"",""44"",""217845""
","""event"",""trial"",""time""
""fullscreenenter"",""0"",""3800""
","
","1442.2000000476837","","","","","","","","54","","","","290","probe-81","","","","","1","[object Object]","156","3","1","","","",""
"","html-keyboard-response","141","422952","0.0-79.0-1.0","""event"",""trial"",""time""
""fullscreenenter"",""0"",""3800""
""blur"",""43"",""213081""
""focus"",""44"",""217845""
","""event"",""trial"",""time""
""blur"",""43"",""213081""
","""event"",""trial"",""time""
""focus"",""44"",""217845""
","""event"",""trial"",""time""
""fullscreenenter"",""0"",""3800""
","
","null","<p></p>","null","","","","","","","","","","","","","","","","","","","","","","","",""
"","do_trial","142","425635","0.0-80.0-0.0","""event"",""trial"",""time""
""fullscreenenter"",""0"",""3800""
""blur"",""43"",""213081""
""focus"",""44"",""217845""
","""event"",""trial"",""time""
""blur"",""43"",""213081""
","""event"",""trial"",""time""
""focus"",""44"",""217845""
","""event"",""trial"",""time""
""fullscreenenter"",""0"",""3800""
","
","132.60000002384186","","","","","","","","49","0,0,1","6","blank","291","null","0.7175405710408266","0.11334489473472908","0.2561035856441939","0","","","","","","","","",""
"","html-keyboard-response","143","426650","0.0-80.0-1.0","""event"",""trial"",""time""
""fullscreenenter"",""0"",""3800""
""blur"",""43"",""213081""
""focus"",""44"",""217845""
","""event"",""trial"",""time""
""blur"",""43"",""213081""
","""event"",""trial"",""time""
""focus"",""44"",""217845""
","""event"",""trial"",""time""
""fullscreenenter"",""0"",""3800""
","
","null","<p></p>","null","","","","","","","","","","","","","","","","","","","","","","","",""
"","do_recog","144","429598","0.0-81.0-0.0","""event"",""trial"",""time""
""fullscreenenter"",""0"",""3800""
""blur"",""43"",""213081""
""focus"",""44"",""217845""
","""event"",""trial"",""time""
""blur"",""43"",""213081""
","""event"",""trial"",""time""
""focus"",""44"",""217845""
","""event"",""trial"",""time""
""fullscreenenter"",""0"",""3800""
","
","1442.699999988079","","","","","","","","54","","","","292","probe-39","","","","","1","[object Object]","119","2","1","","","",""
"","html-keyboard-response","145","430612","0.0-81.0-1.0","""event"",""trial"",""time""
""fullscreenenter"",""0"",""3800""
""blur"",""43"",""213081""
""focus"",""44"",""217845""
","""event"",""trial"",""time""
""blur"",""43"",""213081""
","""event"",""trial"",""time""
""focus"",""44"",""217845""
","""event"",""trial"",""time""
""fullscreenenter"",""0"",""3800""
","
","null","<p></p>","null","","","","","","","","","","","","","","","","","","","","","","","",""
"","do_trial","146","433337","0.0-82.0-0.0","""event"",""trial"",""time""
""fullscreenenter"",""0"",""3800""
""blur"",""43"",""213081""
""focus"",""44"",""217845""
","""event"",""trial"",""time""
""blur"",""43"",""213081""
","""event"",""trial"",""time""
""focus"",""44"",""217845""
","""event"",""trial"",""time""
""fullscreenenter"",""0"",""3800""
","
","182.30000001192093","","","","","","","","51","1,0,0","6","blank","293","null","0.6880636974407687","0.06700809369368062","0.15462084780961888","0","","","","","","","","",""
"","html-keyboard-response","147","434352","0.0-82.0-1.0","""event"",""trial"",""time""
""fullscreenenter"",""0"",""3800""
""blur"",""43"",""213081""
""focus"",""44"",""217845""
","""event"",""trial"",""time""
""blur"",""43"",""213081""
","""event"",""trial"",""time""
""focus"",""44"",""217845""
","""event"",""trial"",""time""
""fullscreenenter"",""0"",""3800""
","
","null","<p></p>","null","","","","","","","","","","","","","","","","","","","","","","","",""
"","do_trial","148","437232","0.0-83.0-0.0","""event"",""trial"",""time""
""fullscreenenter"",""0"",""3800""
""blur"",""43"",""213081""
""focus"",""44"",""217845""
","""event"",""trial"",""time""
""blur"",""43"",""213081""
","""event"",""trial"",""time""
""focus"",""44"",""217845""
","""event"",""trial"",""time""
""fullscreenenter"",""0"",""3800""
","
","331.80000001192093","","","","","","","","49","0,1,1","6","blank","294","null","0.6403397961621723","0.19958374644250057","0.25484672653288853","0","","","","","","","","",""
"","html-keyboard-response","149","438247","0.0-83.0-1.0","""event"",""trial"",""time""
""fullscreenenter"",""0"",""3800""
""blur"",""43"",""213081""
""focus"",""44"",""217845""
","""event"",""trial"",""time""
""blur"",""43"",""213081""
","""event"",""trial"",""time""
""focus"",""44"",""217845""
","""event"",""trial"",""time""
""fullscreenenter"",""0"",""3800""
","
","null","<p></p>","null","","","","","","","","","","","","","","","","","","","","","","","",""
"","do_trial","150","440864","0.0-84.0-0.0","""event"",""trial"",""time""
""fullscreenenter"",""0"",""3800""
""blur"",""43"",""213081""
""focus"",""44"",""217845""
","""event"",""trial"",""time""
""blur"",""43"",""213081""
","""event"",""trial"",""time""
""focus"",""44"",""217845""
","""event"",""trial"",""time""
""fullscreenenter"",""0"",""3800""
","
","78.59999996423721","","","","","","","","50","1,0,0","6","blank","295","null","0.6607448378362493","0.13833527044102165","0.21585994238387862","0","","","","","","","","",""
"","html-keyboard-response","151","441877","0.0-84.0-1.0","""event"",""trial"",""time""
""fullscreenenter"",""0"",""3800""
""blur"",""43"",""213081""
""focus"",""44"",""217845""
","""event"",""trial"",""time""
""blur"",""43"",""213081""
","""event"",""trial"",""time""
""focus"",""44"",""217845""
","""event"",""trial"",""time""
""fullscreenenter"",""0"",""3800""
","
","null","<p></p>","null","","","","","","","","","","","","","","","","","","","","","","","",""
"","do_trial","152","444512","0.0-85.0-0.0","""event"",""trial"",""time""
""fullscreenenter"",""0"",""3800""
""blur"",""43"",""213081""
""focus"",""44"",""217845""
","""event"",""trial"",""time""
""blur"",""43"",""213081""
","""event"",""trial"",""time""
""focus"",""44"",""217845""
","""event"",""trial"",""time""
""fullscreenenter"",""0"",""3800""
","
","84.80000001192093","","","","","","","","51","1,0,0","6","blank","296","null","0.5848451483600936","0.2767306367294304","0.11616649182802374","0","","","","","","","","",""
"","html-keyboard-response","153","445525","0.0-85.0-1.0","""event"",""trial"",""time""
""fullscreenenter"",""0"",""3800""
""blur"",""43"",""213081""
""focus"",""44"",""217845""
","""event"",""trial"",""time""
""blur"",""43"",""213081""
","""event"",""trial"",""time""
""focus"",""44"",""217845""
","""event"",""trial"",""time""
""fullscreenenter"",""0"",""3800""
","
","null","<p></p>","null","","","","","","","","","","","","","","","","","","","","","","","",""
"","do_trial","154","448127","0.0-86.0-0.0","""event"",""trial"",""time""
""fullscreenenter"",""0"",""3800""
""blur"",""43"",""213081""
""focus"",""44"",""217845""
","""event"",""trial"",""time""
""blur"",""43"",""213081""
","""event"",""trial"",""time""
""focus"",""44"",""217845""
","""event"",""trial"",""time""
""fullscreenenter"",""0"",""3800""
","
","51.60000002384186","","","","","","","","49","1,1,0","6","blank","297","null","0.6473542479807144","0.2854295681333381","0.07226927936519553","1","","","","","","","","",""
"","html-keyboard-response","155","449141","0.0-86.0-1.0","""event"",""trial"",""time""
""fullscreenenter"",""0"",""3800""
""blur"",""43"",""213081""
""focus"",""44"",""217845""
","""event"",""trial"",""time""
""blur"",""43"",""213081""
","""event"",""trial"",""time""
""focus"",""44"",""217845""
","""event"",""trial"",""time""
""fullscreenenter"",""0"",""3800""
","
","null","<p></p>","null","","","","","","","","","","","","","","","","","","","","","","","",""
"","do_recog","156","452976","0.0-87.0-0.0","""event"",""trial"",""time""
""fullscreenenter"",""0"",""3800""
""blur"",""43"",""213081""
""focus"",""44"",""217845""
","""event"",""trial"",""time""
""blur"",""43"",""213081""
","""event"",""trial"",""time""
""focus"",""44"",""217845""
","""event"",""trial"",""time""
""fullscreenenter"",""0"",""3800""
","
","2328.5","","","","","","","","56","","","","298","probe-243","","","","","0","[object Object]","null","null","1","","","",""
"","html-keyboard-response","157","453990","0.0-87.0-1.0","""event"",""trial"",""time""
""fullscreenenter"",""0"",""3800""
""blur"",""43"",""213081""
""focus"",""44"",""217845""
","""event"",""trial"",""time""
""blur"",""43"",""213081""
","""event"",""trial"",""time""
""focus"",""44"",""217845""
","""event"",""trial"",""time""
""fullscreenenter"",""0"",""3800""
","
","null","<p></p>","null","","","","","","","","","","","","","","","","","","","","","","","",""
"","do_trial","158","456642","0.0-88.0-0.0","""event"",""trial"",""time""
""fullscreenenter"",""0"",""3800""
""blur"",""43"",""213081""
""focus"",""44"",""217845""
","""event"",""trial"",""time""
""blur"",""43"",""213081""
","""event"",""trial"",""time""
""focus"",""44"",""217845""
","""event"",""trial"",""time""
""fullscreenenter"",""0"",""3800""
","
","98.69999998807907","","","","","","","","51","0,1,0","6","blank","299","null","0.476429809432835","0.41691691198567987","0.06527736203237726","0","","","","","","","","",""
"","html-keyboard-response","159","457656","0.0-88.0-1.0","""event"",""trial"",""time""
""fullscreenenter"",""0"",""3800""
""blur"",""43"",""213081""
""focus"",""44"",""217845""
","""event"",""trial"",""time""
""blur"",""43"",""213081""
","""event"",""trial"",""time""
""focus"",""44"",""217845""
","""event"",""trial"",""time""
""fullscreenenter"",""0"",""3800""
","
","null","<p></p>","null","","","","","","","","","","","","","","","","","","","","","","","",""
"","do_trial","160","460353","0.0-89.0-0.0","""event"",""trial"",""time""
""fullscreenenter"",""0"",""3800""
""blur"",""43"",""213081""
""focus"",""44"",""217845""
","""event"",""trial"",""time""
""blur"",""43"",""213081""
","""event"",""trial"",""time""
""focus"",""44"",""217845""
","""event"",""trial"",""time""
""fullscreenenter"",""0"",""3800""
","
","157.39999997615814","","","","","","","","50","1,1,0","6","blank","300","null","0.1589007525359155","0.5062278746659895","0.12986302963803786","1","","","","","","","","",""
"","html-keyboard-response","161","461363","0.0-89.0-1.0","""event"",""trial"",""time""
""fullscreenenter"",""0"",""3800""
""blur"",""43"",""213081""
""focus"",""44"",""217845""
","""event"",""trial"",""time""
""blur"",""43"",""213081""
","""event"",""trial"",""time""
""focus"",""44"",""217845""
","""event"",""trial"",""time""
""fullscreenenter"",""0"",""3800""
","
","null","<p></p>","null","","","","","","","","","","","","","","","","","","","","","","","",""
"","do_trial","162","464903","0.0-90.0-0.0","""event"",""trial"",""time""
""fullscreenenter"",""0"",""3800""
""blur"",""43"",""213081""
""focus"",""44"",""217845""
","""event"",""trial"",""time""
""blur"",""43"",""213081""
","""event"",""trial"",""time""
""focus"",""44"",""217845""
","""event"",""trial"",""time""
""fullscreenenter"",""0"",""3800""
","
","993.5","","","","","","","","49","1,0,0","6","blank","301","null","0.13525380453249491","0.45643598291995574","0.12407718362034623","1","","","","","","","","",""
"","html-keyboard-response","163","465918","0.0-90.0-1.0","""event"",""trial"",""time""
""fullscreenenter"",""0"",""3800""
""blur"",""43"",""213081""
""focus"",""44"",""217845""
","""event"",""trial"",""time""
""blur"",""43"",""213081""
","""event"",""trial"",""time""
""focus"",""44"",""217845""
","""event"",""trial"",""time""
""fullscreenenter"",""0"",""3800""
","
","null","<p></p>","null","","","","","","","","","","","","","","","","","","","","","","","",""
"","do_trial","164","468633","0.0-91.0-0.0","""event"",""trial"",""time""
""fullscreenenter"",""0"",""3800""
""blur"",""43"",""213081""
""focus"",""44"",""217845""
","""event"",""trial"",""time""
""blur"",""43"",""213081""
","""event"",""trial"",""time""
""focus"",""44"",""217845""
","""event"",""trial"",""time""
""fullscreenenter"",""0"",""3800""
","
","162.29999995231628","","","","","","","","51","0,1,0","6","blank","302","null","0.0538886077746008","0.6237796501732935","0.23536643522561393","0","","","","","","","","",""
"","html-keyboard-response","165","469648","0.0-91.0-1.0","""event"",""trial"",""time""
""fullscreenenter"",""0"",""3800""
""blur"",""43"",""213081""
""focus"",""44"",""217845""
","""event"",""trial"",""time""
""blur"",""43"",""213081""
","""event"",""trial"",""time""
""focus"",""44"",""217845""
","""event"",""trial"",""time""
""fullscreenenter"",""0"",""3800""
","
","null","<p></p>","null","","","","","","","","","","","","","","","","","","","","","","","",""
"","do_trial","166","472265","0.0-92.0-0.0","""event"",""trial"",""time""
""fullscreenenter"",""0"",""3800""
""blur"",""43"",""213081""
""focus"",""44"",""217845""
","""event"",""trial"",""time""
""blur"",""43"",""213081""
","""event"",""trial"",""time""
""focus"",""44"",""217845""
","""event"",""trial"",""time""
""fullscreenenter"",""0"",""3800""
","
","76.40000003576279","","","","","","","","49","0,1,0","6","blank","303","null","0.2488481718587053","0.531719321013706","0.251297741408118","0","","","","","","","","",""
"","html-keyboard-response","167","473277","0.0-92.0-1.0","""event"",""trial"",""time""
""fullscreenenter"",""0"",""3800""
""blur"",""43"",""213081""
""focus"",""44"",""217845""
","""event"",""trial"",""time""
""blur"",""43"",""213081""
","""event"",""trial"",""time""
""focus"",""44"",""217845""
","""event"",""trial"",""time""
""fullscreenenter"",""0"",""3800""
","
","null","<p></p>","null","","","","","","","","","","","","","","","","","","","","","","","",""
"","do_recog","168","477523","0.0-93.0-0.0","""event"",""trial"",""time""
""fullscreenenter"",""0"",""3800""
""blur"",""43"",""213081""
""focus"",""44"",""217845""
","""event"",""trial"",""time""
""blur"",""43"",""213081""
","""event"",""trial"",""time""
""focus"",""44"",""217845""
","""event"",""trial"",""time""
""fullscreenenter"",""0"",""3800""
","
","2728.300000011921","","","","","","","","55","","","","304","probe-160","","","","","1","[object Object]","116","2","0","","","",""
"","html-keyboard-response","169","478538","0.0-93.0-1.0","""event"",""trial"",""time""
""fullscreenenter"",""0"",""3800""
""blur"",""43"",""213081""
""focus"",""44"",""217845""
","""event"",""trial"",""time""
""blur"",""43"",""213081""
","""event"",""trial"",""time""
""focus"",""44"",""217845""
","""event"",""trial"",""time""
""fullscreenenter"",""0"",""3800""
","
","null","<p></p>","null","","","","","","","","","","","","","","","","","","","","","","","",""
"","do_trial","170","482296","0.0-94.0-0.0","""event"",""trial"",""time""
""fullscreenenter"",""0"",""3800""
""blur"",""43"",""213081""
""focus"",""44"",""217845""
","""event"",""trial"",""time""
""blur"",""43"",""213081""
","""event"",""trial"",""time""
""focus"",""44"",""217845""
","""event"",""trial"",""time""
""fullscreenenter"",""0"",""3800""
","
","1209.8999999761581","","","","","","","","51","0,1,1","6","blank","305","null","0.15058876262379425","0.4738783005217489","0.1193977441176471","1","","","","","","","","",""
"","html-keyboard-response","171","483312","0.0-94.0-1.0","""event"",""trial"",""time""
""fullscreenenter"",""0"",""3800""
""blur"",""43"",""213081""
""focus"",""44"",""217845""
","""event"",""trial"",""time""
""blur"",""43"",""213081""
","""event"",""trial"",""time""
""focus"",""44"",""217845""
","""event"",""trial"",""time""
""fullscreenenter"",""0"",""3800""
","
","null","<p></p>","null","","","","","","","","","","","","","","","","","","","","","","","",""
"","do_trial","172","485871","0.0-95.0-0.0","""event"",""trial"",""time""
""fullscreenenter"",""0"",""3800""
""blur"",""43"",""213081""
""focus"",""44"",""217845""
","""event"",""trial"",""time""
""blur"",""43"",""213081""
","""event"",""trial"",""time""
""focus"",""44"",""217845""
","""event"",""trial"",""time""
""fullscreenenter"",""0"",""3800""
","
","21.30000001192093","","","","","","","","49","0,1,0","6","blank","306","null","0.20418248638542746","0.6136516687843051","0.1043641899346413","0","","","","","","","","",""
"","html-keyboard-response","173","486887","0.0-95.0-1.0","""event"",""trial"",""time""
""fullscreenenter"",""0"",""3800""
""blur"",""43"",""213081""
""focus"",""44"",""217845""
","""event"",""trial"",""time""
""blur"",""43"",""213081""
","""event"",""trial"",""time""
""focus"",""44"",""217845""
","""event"",""trial"",""time""
""fullscreenenter"",""0"",""3800""
","
","null","<p></p>","null","","","","","","","","","","","","","","","","","","","","","","","",""
"","do_trial","174","489475","0.0-96.0-0.0","""event"",""trial"",""time""
""fullscreenenter"",""0"",""3800""
""blur"",""43"",""213081""
""focus"",""44"",""217845""
","""event"",""trial"",""time""
""blur"",""43"",""213081""
","""event"",""trial"",""time""
""focus"",""44"",""217845""
","""event"",""trial"",""time""
""fullscreenenter"",""0"",""3800""
","
","37.90000003576279","","","","","","","","51","1,1,0","6","blank","307","null","0.2823841206720407","0.684065895333099","0.11551857403683798","0","","","","","","","","",""
"","html-keyboard-response","175","490486","0.0-96.0-1.0","""event"",""trial"",""time""
""fullscreenenter"",""0"",""3800""
""blur"",""43"",""213081""
""focus"",""44"",""217845""
","""event"",""trial"",""time""
""blur"",""43"",""213081""
","""event"",""trial"",""time""
""focus"",""44"",""217845""
","""event"",""trial"",""time""
""fullscreenenter"",""0"",""3800""
","
","null","<p></p>","null","","","","","","","","","","","","","","","","","","","","","","","",""
"","do_trial","176","493045","0.0-97.0-0.0","""event"",""trial"",""time""
""fullscreenenter"",""0"",""3800""
""blur"",""43"",""213081""
""focus"",""44"",""217845""
","""event"",""trial"",""time""
""blur"",""43"",""213081""
","""event"",""trial"",""time""
""focus"",""44"",""217845""
","""event"",""trial"",""time""
""fullscreenenter"",""0"",""3800""
","
","10.100000023841858","","","","","","","","50","0,1,0","6","blank","308","null","0.32481770966188206","0.6279863486928087","0.06626210710370838","1","","","","","","","","",""
"","html-keyboard-response","177","494058","0.0-97.0-1.0","""event"",""trial"",""time""
""fullscreenenter"",""0"",""3800""
""blur"",""43"",""213081""
""focus"",""44"",""217845""
","""event"",""trial"",""time""
""blur"",""43"",""213081""
","""event"",""trial"",""time""
""focus"",""44"",""217845""
","""event"",""trial"",""time""
""fullscreenenter"",""0"",""3800""
","
","null","<p></p>","null","","","","","","","","","","","","","","","","","","","","","","","",""
"","break","178","495008","0.0-98.0-0.0","""event"",""trial"",""time""
""fullscreenenter"",""0"",""3800""
""blur"",""43"",""213081""
""focus"",""44"",""217845""
","""event"",""trial"",""time""
""blur"",""43"",""213081""
","""event"",""trial"",""time""
""focus"",""44"",""217845""
","""event"",""trial"",""time""
""fullscreenenter"",""0"",""3800""
","
","949.1999999880791","<div class='center'><p>Time to take a quick break! You have 2 minutes to rest, but you can move on sooner if you'd like.</p><p> Press the <b>space bar</b> to continue.</p></div>","32","","","","","","","","","","","","","","","","","","","","","","","",""
"","do_trial","179","498410","0.0-98.0-1.0","""event"",""trial"",""time""
""fullscreenenter"",""0"",""3800""
""blur"",""43"",""213081""
""focus"",""44"",""217845""
","""event"",""trial"",""time""
""blur"",""43"",""213081""
","""event"",""trial"",""time""
""focus"",""44"",""217845""
","""event"",""trial"",""time""
""fullscreenenter"",""0"",""3800""
","
","861.9000000357628","","","","","","","","49","0,0,0","6","blank","309","null","0.2963418863716812","0.5655692945512482","0.09291546054515668","0","","","","","","","","",""
"","html-keyboard-response","180","499423","0.0-98.0-2.0","""event"",""trial"",""time""
""fullscreenenter"",""0"",""3800""
""blur"",""43"",""213081""
""focus"",""44"",""217845""
","""event"",""trial"",""time""
""blur"",""43"",""213081""
","""event"",""trial"",""time""
""focus"",""44"",""217845""
","""event"",""trial"",""time""
""fullscreenenter"",""0"",""3800""
","
","null","<p></p>","null","","","","","","","","","","","","","","","","","","","","","","","",""
"","do_trial","181","502180","0.0-99.0-0.0","""event"",""trial"",""time""
""fullscreenenter"",""0"",""3800""
""blur"",""43"",""213081""
""focus"",""44"",""217845""
","""event"",""trial"",""time""
""blur"",""43"",""213081""
","""event"",""trial"",""time""
""focus"",""44"",""217845""
","""event"",""trial"",""time""
""fullscreenenter"",""0"",""3800""
","
","202.80000001192093","","","","","","","","51","0,0,0","6","blank","310","null","0.29884853171412407","0.6618012394390186","0.14598401136652941","0","","","","","","","","",""
"","html-keyboard-response","182","503192","0.0-99.0-1.0","""event"",""trial"",""time""
""fullscreenenter"",""0"",""3800""
""blur"",""43"",""213081""
""focus"",""44"",""217845""
","""event"",""trial"",""time""
""blur"",""43"",""213081""
","""event"",""trial"",""time""
""focus"",""44"",""217845""
","""event"",""trial"",""time""
""fullscreenenter"",""0"",""3800""
","
","null","<p></p>","null","","","","","","","","","","","","","","","","","","","","","","","",""
"","do_recog","183","506528","0.0-100.0-0.0","""event"",""trial"",""time""
""fullscreenenter"",""0"",""3800""
""blur"",""43"",""213081""
""focus"",""44"",""217845""
","""event"",""trial"",""time""
""blur"",""43"",""213081""
","""event"",""trial"",""time""
""focus"",""44"",""217845""
","""event"",""trial"",""time""
""fullscreenenter"",""0"",""3800""
","
","1821.7999999523163","","","","","","","","54","","","","311","probe-245","","","","","0","[object Object]","null","null","0","","","",""
"","html-keyboard-response","184","507541","0.0-100.0-1.0","""event"",""trial"",""time""
""fullscreenenter"",""0"",""3800""
""blur"",""43"",""213081""
""focus"",""44"",""217845""
","""event"",""trial"",""time""
""blur"",""43"",""213081""
","""event"",""trial"",""time""
""focus"",""44"",""217845""
","""event"",""trial"",""time""
""fullscreenenter"",""0"",""3800""
","
","null","<p></p>","null","","","","","","","","","","","","","","","","","","","","","","","",""
"","do_trial","185","510926","0.0-101.0-0.0","""event"",""trial"",""time""
""fullscreenenter"",""0"",""3800""
""blur"",""43"",""213081""
""focus"",""44"",""217845""
","""event"",""trial"",""time""
""blur"",""43"",""213081""
","""event"",""trial"",""time""
""focus"",""44"",""217845""
","""event"",""trial"",""time""
""fullscreenenter"",""0"",""3800""
","
","845.4000000357628","","","","","","","","50","1,0,0","6","blank","312","null","0.37218406454865777","0.6847579984708523","0.07918775550139306","0","","","","","","","","",""
"","html-keyboard-response","186","511938","0.0-101.0-1.0","""event"",""trial"",""time""
""fullscreenenter"",""0"",""3800""
""blur"",""43"",""213081""
""focus"",""44"",""217845""
","""event"",""trial"",""time""
""blur"",""43"",""213081""
","""event"",""trial"",""time""
""focus"",""44"",""217845""
","""event"",""trial"",""time""
""fullscreenenter"",""0"",""3800""
","
","null","<p></p>","null","","","","","","","","","","","","","","","","","","","","","","","",""
"","do_trial","187","514568","0.0-102.0-0.0","""event"",""trial"",""time""
""fullscreenenter"",""0"",""3800""
""blur"",""43"",""213081""
""focus"",""44"",""217845""
","""event"",""trial"",""time""
""blur"",""43"",""213081""
","""event"",""trial"",""time""
""focus"",""44"",""217845""
","""event"",""trial"",""time""
""fullscreenenter"",""0"",""3800""
","
","89.90000003576279","","","","","","","","49","0,1,0","6","blank","313","null","0.3999673417340398","0.6469062366752099","0.08442851334636421","0","","","","","","","","",""
"","html-keyboard-response","188","515580","0.0-102.0-1.0","""event"",""trial"",""time""
""fullscreenenter"",""0"",""3800""
""blur"",""43"",""213081""
""focus"",""44"",""217845""
","""event"",""trial"",""time""
""blur"",""43"",""213081""
","""event"",""trial"",""time""
""focus"",""44"",""217845""
","""event"",""trial"",""time""
""fullscreenenter"",""0"",""3800""
","
","null","<p></p>","null","","","","","","","","","","","","","","","","","","","","","","","",""
"","do_trial","189","519008","0.0-103.0-0.0","""event"",""trial"",""time""
""fullscreenenter"",""0"",""3800""
""blur"",""43"",""213081""
""focus"",""44"",""217845""
","""event"",""trial"",""time""
""blur"",""43"",""213081""
","""event"",""trial"",""time""
""focus"",""44"",""217845""
","""event"",""trial"",""time""
""fullscreenenter"",""0"",""3800""
","
","888.8000000119209","","","","","","","","51","1,0,1","6","blank","314","null","0.3877338769911524","0.6182797648006606","0.1051150309237778","1","","","","","","","","",""
"","html-keyboard-response","190","520016","0.0-103.0-1.0","""event"",""trial"",""time""
""fullscreenenter"",""0"",""3800""
""blur"",""43"",""213081""
""focus"",""44"",""217845""
","""event"",""trial"",""time""
""blur"",""43"",""213081""
","""event"",""trial"",""time""
""focus"",""44"",""217845""
","""event"",""trial"",""time""
""fullscreenenter"",""0"",""3800""
","
","null","<p></p>","null","","","","","","","","","","","","","","","","","","","","","","","",""
"","do_recog","191","523292","0.0-104.0-0.0","""event"",""trial"",""time""
""fullscreenenter"",""0"",""3800""
""blur"",""43"",""213081""
""focus"",""44"",""217845""
","""event"",""trial"",""time""
""blur"",""43"",""213081""
","""event"",""trial"",""time""
""focus"",""44"",""217845""
","""event"",""trial"",""time""
""fullscreenenter"",""0"",""3800""
","
","1755.9000000357628","","","","","","","","54","","","","315","probe-138","","","","","1","[object Object]","110","2","1","","","",""
"","html-keyboard-response","192","524306","0.0-104.0-1.0","""event"",""trial"",""time""
""fullscreenenter"",""0"",""3800""
""blur"",""43"",""213081""
""focus"",""44"",""217845""
","""event"",""trial"",""time""
""blur"",""43"",""213081""
","""event"",""trial"",""time""
""focus"",""44"",""217845""
","""event"",""trial"",""time""
""fullscreenenter"",""0"",""3800""
","
","null","<p></p>","null","","","","","","","","","","","","","","","","","","","","","","","",""
"","do_trial","193","527506","0.0-105.0-0.0","""event"",""trial"",""time""
""fullscreenenter"",""0"",""3800""
""blur"",""43"",""213081""
""focus"",""44"",""217845""
","""event"",""trial"",""time""
""blur"",""43"",""213081""
","""event"",""trial"",""time""
""focus"",""44"",""217845""
","""event"",""trial"",""time""
""fullscreenenter"",""0"",""3800""
","
","646","","","","","","","","51","1,0,0","6","blank","316","null","0.3213080346585081","0.7541704612662544","0.14755235634971925","0","","","","","","","","",""
"","html-keyboard-response","194","528518","0.0-105.0-1.0","""event"",""trial"",""time""
""fullscreenenter"",""0"",""3800""
""blur"",""43"",""213081""
""focus"",""44"",""217845""
","""event"",""trial"",""time""
""blur"",""43"",""213081""
","""event"",""trial"",""time""
""focus"",""44"",""217845""
","""event"",""trial"",""time""
""fullscreenenter"",""0"",""3800""
","
","null","<p></p>","null","","","","","","","","","","","","","","","","","","","","","","","",""
"","do_trial","195","531112","0.0-106.0-0.0","""event"",""trial"",""time""
""fullscreenenter"",""0"",""3800""
""blur"",""43"",""213081""
""focus"",""44"",""217845""
","""event"",""trial"",""time""
""blur"",""43"",""213081""
","""event"",""trial"",""time""
""focus"",""44"",""217845""
","""event"",""trial"",""time""
""fullscreenenter"",""0"",""3800""
","
","53.700000047683716","","","","","","","","50","0,1,0","6","blank","317","null","0.3447378207191581","0.680026873711728","0.14178973663598898","1","","","","","","","","",""
"","html-keyboard-response","196","532115","0.0-106.0-1.0","""event"",""trial"",""time""
""fullscreenenter"",""0"",""3800""
""blur"",""43"",""213081""
""focus"",""44"",""217845""
","""event"",""trial"",""time""
""blur"",""43"",""213081""
","""event"",""trial"",""time""
""focus"",""44"",""217845""
","""event"",""trial"",""time""
""fullscreenenter"",""0"",""3800""
","
","null","<p></p>","null","","","","","","","","","","","","","","","","","","","","","","","",""
"","do_trial","197","534797","0.0-107.0-0.0","""event"",""trial"",""time""
""fullscreenenter"",""0"",""3800""
""blur"",""43"",""213081""
""focus"",""44"",""217845""
","""event"",""trial"",""time""
""blur"",""43"",""213081""
","""event"",""trial"",""time""
""focus"",""44"",""217845""
","""event"",""trial"",""time""
""fullscreenenter"",""0"",""3800""
","
","138","","","","","","","","49","0,1,0","6","blank","318","null","0.2827565949382573","0.695775191514362","0.09102788268534337","0","","","","","","","","",""
"","html-keyboard-response","198","535808","0.0-107.0-1.0","""event"",""trial"",""time""
""fullscreenenter"",""0"",""3800""
""blur"",""43"",""213081""
""focus"",""44"",""217845""
","""event"",""trial"",""time""
""blur"",""43"",""213081""
","""event"",""trial"",""time""
""focus"",""44"",""217845""
","""event"",""trial"",""time""
""fullscreenenter"",""0"",""3800""
","
