"success","trial_type","trial_index","time_elapsed","internal_node_id","interactions","blur_events","focus_events","fullscreenenter_events","fullscreenexit_events","rt","stimulus","key_press","subject_id","participant_id","age","gender","prompt","response","choice_outcomes","context_n","context_img_id","trial_n","probe_img_id","pR_red","pR_white","pR_black","outcome","is_valid","image_to_show","probed_trial","probed_context","correct","probe","probed_trial_n","probed_context_n","context_im"
"true","fullscreen","0","5613","0.0-0.0","""event"",""trial"",""time""
""fullscreenenter"",""0"",""4627""
","
","
","""event"",""trial"",""time""
""fullscreenenter"",""0"",""4627""
","
","","","","","","","","","","","","","","","","","","","","","","","","","","",""
"","pavlovia","1","5617","0.0-1.0","""event"",""trial"",""time""
""fullscreenenter"",""0"",""4627""
","
","
","""event"",""trial"",""time""
""fullscreenenter"",""0"",""4627""
","
","","","","","","","","","","","","","","","","","","","","","","","","","","",""
"","welc_back","2","15487","0.0-2.0","""event"",""trial"",""time""
""fullscreenenter"",""0"",""4627""
","
","
","""event"",""trial"",""time""
""fullscreenenter"",""0"",""4627""
","
","null","run_exp/static/audio/clip_29_welcome_back.m4a","null","459","71","17","Female","<div class='center'><p>Welcome to day 2!</p><p> Yesterday, you were the head captain of a pirate ship. You asked your fellow pirates to rob other ships of their gold across six different islands.</p></div>","","","","","","","","","","","","","","","","","","",""
"","html-keyboard-response","3","16742","0.0-3.0","""event"",""trial"",""time""
""fullscreenenter"",""0"",""4627""
","
","
","""event"",""trial"",""time""
""fullscreenenter"",""0"",""4627""
","
","1252.5999999977648","<div class='center'><p>Welcome to day 2!</p><p> Yesterday, you were the head captain of a pirate ship. You asked your fellow pirates to rob other ships of their gold across six different islands.</p><p><b>[Press the space bar to continue]</b></p></div>","32","","","","","","","","","","","","","","","","","","","","","","","",""
"","day_1_summary_goal","4","34154","0.0-4.0","""event"",""trial"",""time""
""fullscreenenter"",""0"",""4627""
","
","
","""event"",""trial"",""time""
""fullscreenenter"",""0"",""4627""
","
","null","run_exp/static/audio/clip_30_goal_of_game.m4a","null","","","","","<div class='center'><p>Today, like yesterday, you get to pick which pirate you want to rob the next ship.</p><p>If the pirate is successful in robbing a ship, you get gold coins that look like this: </p><p><img src='run_exp/static/images/tutorial/reward.png' height='150'></p><p> If they were not successful in robbing the ship, then you will get no gold coins and you'll see a big red x like this: </p><p><img src='run_exp/static/images/tutorial/reward_no.png' height='150'></p></div>","","","","","","","","","","","","","","","","","","",""
"","html-keyboard-response","5","34594","0.0-5.0","""event"",""trial"",""time""
""fullscreenenter"",""0"",""4627""
","
","
","""event"",""trial"",""time""
""fullscreenenter"",""0"",""4627""
","
","436.19999999925494","<div class='center'><p>Today, like yesterday, you get to pick which pirate you want to rob the next ship.</p><p>If the pirate is successful in robbing a ship, you get gold coins that look like this: </p><p><img src='run_exp/static/images/tutorial/reward.png' height='150'></p><p> If they were not successful in robbing the ship, then you will get no gold coins and you'll see a big red x like this: </p><p><img src='run_exp/static/images/tutorial/reward_no.png' height='150'></p><p><b>[Press the space bar to continue]</b></p></div>","32","","","","","","","","","","","","","","","","","","","","","","","",""
"","day_1_summary_pick","6","49480","0.0-6.0","""event"",""trial"",""time""
""fullscreenenter"",""0"",""4627""
","
","
","""event"",""trial"",""time""
""fullscreenenter"",""0"",""4627""
","
","null","run_exp/static/audio/clip_31_how_to_pick_a_pirate.m4a","null","","","","","<div class='center'><p>Also, just like yesterday, you will use the 1,2,3 keys on your keyboard to pick a pirate. Press '1' to choose red beard, '2' to choose white beard, and '3' to choose black beard . You only have 3 seconds to pick a pirate, so please make a choice quickly!</p></div>","","","","","","","","","","","","","","","","","","",""
"","html-keyboard-response","7","49797","0.0-7.0","""event"",""trial"",""time""
""fullscreenenter"",""0"",""4627""
","
","
","""event"",""trial"",""time""
""fullscreenenter"",""0"",""4627""
","
","315.4000000022352","<div class='center'><p>Also, just like yesterday, you will use the 1,2,3 keys on your keyboard to pick a pirate. Press '1' to choose red beard, '2' to choose white beard, and '3' to choose black beard . You only have 3 seconds to pick a pirate, so please make a choice quickly!</p><p><b>[Press the space bar to continue]</b></p></div>","32","","","","","","","","","","","","","","","","","","","","","","","",""
"","test_phase_begin","8","80409","0.0-8.0","""event"",""trial"",""time""
""fullscreenenter"",""0"",""4627""
","
","
","""event"",""trial"",""time""
""fullscreenenter"",""0"",""4627""
","
","null","run_exp/static/audio/clip_32_final_place.m4a","null","","","","","<div class='center'><p>You’ve arrived at the final island of your journey! Unfortunately, it’s very foggy out, so you won’t be able to see it in the distance like the other islands you've visited.</p><p>You’ll still be deciding which pirate you want to rob a ship like before. However, because of the fog, you also won’t be able to see the ship.</p><p>This means you do not have to remember the ships you rob on this island.</p><p>Unlike yesterday, you won't be visiting multiple islands today. You will stay on this island for the entire game. This game will last ~30 minutes.</p></div>","","","","","","","","","","","","","","","","","","",""
"","html-keyboard-response","9","80891","0.0-9.0","""event"",""trial"",""time""
""fullscreenenter"",""0"",""4627""
","
","
","""event"",""trial"",""time""
""fullscreenenter"",""0"",""4627""
","
","481","<div class='center'><p>You’ve arrived at the final island of your journey! Unfortunately, it’s very foggy out, so you won’t be able to see it in the distance like the other islands you've visited.</p><p>You’ll still be deciding which pirate you want to rob a ship like before. However, because of the fog, you also won’t be able to see the ship.</p><p>This means you do not have to remember the ships you rob on this island.</p><p>Unlike yesterday, you won't be visiting multiple islands today. You will stay on this island for the entire game. This game will last ~30 minutes.</p><p><b>[Press the space bar to continue]</b></p></div>","32","","","","","","","","","","","","","","","","","","","","","","","",""
"","explain_probe_1","10","88861","0.0-10.0","""event"",""trial"",""time""
""fullscreenenter"",""0"",""4627""
","
","
","""event"",""trial"",""time""
""fullscreenenter"",""0"",""4627""
","
","null","run_exp/static/audio/clip_33_recognition_1.m4a","null","","","","","<div class='center'><p> Sometimes you’ll be shown a ship, and you will be asked if you saw this ship on a past island.</p><p> Here is an example of what you will see.</p><p><img src='run_exp/static/images/tutorial/example_recog_trial.png' height='500'></p></div>","","","","","","","","","","","","","","","","","","",""
"","html-keyboard-response","11","90269","0.0-11.0","""event"",""trial"",""time""
""fullscreenenter"",""0"",""4627""
","
","
","""event"",""trial"",""time""
""fullscreenenter"",""0"",""4627""
","
","1406.7000000029802","<div class='center'><p> Sometimes you’ll be shown a ship, and you will be asked if you saw this ship on a past island.</p><p> Here is an example of what you will see.</p><p><img src='run_exp/static/images/tutorial/example_recog_trial.png' height='500'></p><p><b>[Press the space bar to continue]</b></p></div>","32","","","","","","","","","","","","","","","","","","","","","","","",""
"","explain_probe_2","12","112173","0.0-12.0","""event"",""trial"",""time""
""fullscreenenter"",""0"",""4627""
","
","
","""event"",""trial"",""time""
""fullscreenenter"",""0"",""4627""
","
","null","run_exp/static/audio/clip_34_recognition_2.m4a","null","","","","","<div class='center'><p> You will press the 5, 6, 7, 8 keys on your keyboard to respond.</p><p>If you are sure you saw the ship, press <b>5</b> on your keyboard.</p><p> If you think you saw it before but aren't sure, then press <b>6</b>.</p><p> If you think you have <b>not</b> seen it before but aren't sure, then press <b>7</b>.</p><p> If you are sure you did <b>not</b> see the ship before, then press <b>8</b>.</p><p><img src='run_exp/static/images/tutorial/example_recog_trial.png' height='500'></p></div>","","","","","","","","","","","","","","","","","","",""
"","html-keyboard-response","13","113326","0.0-13.0","""event"",""trial"",""time""
""fullscreenenter"",""0"",""4627""
","
","
","""event"",""trial"",""time""
""fullscreenenter"",""0"",""4627""
","
","1151.3999999985099","<div class='center'><p> You will press the 5, 6, 7, 8 keys on your keyboard to respond.</p><p>If you are sure you saw the ship, press <b>5</b> on your keyboard.</p><p> If you think you saw it before but aren't sure, then press <b>6</b>.</p><p> If you think you have <b>not</b> seen it before but aren't sure, then press <b>7</b>.</p><p> If you are sure you did <b>not</b> see the ship before, then press <b>8</b>.</p><p><img src='run_exp/static/images/tutorial/example_recog_trial.png' height='500'></p><p><b>[Press the space bar to continue]</b></p></div>","32","","","","","","","","","","","","","","","","","","","","","","","",""
"","explain_outcome","14","130756","0.0-14.0","""event"",""trial"",""time""
""fullscreenenter"",""0"",""4627""
","
","
","""event"",""trial"",""time""
""fullscreenenter"",""0"",""4627""
","
","null","run_exp/static/audio/clip_35_recognition_3.m4a","null","","","","","<div class='center'><p> If you remember correctly, then you’ll get a gold coin like this: </p><p><img src='run_exp/static/images/tutorial/reward_small.png' height='200'></p><p>If you do not remember correctly, then you'll see a red x like this: </p><p><img src='run_exp/static/images/tutorial/reward_no.png' height='200'></p><p>Importantly, when you are shown a ship, take the time to remind yourself which island you saw it on. This will help you in the next part of the study.</p></div>","","","","","","","","","","","","","","","","","","",""
"","html-keyboard-response","15","131645","0.0-15.0","""event"",""trial"",""time""
""fullscreenenter"",""0"",""4627""
","
","
","""event"",""trial"",""time""
""fullscreenenter"",""0"",""4627""
","
","887.3000000007451","<div class='center'><p> If you remember correctly, then you’ll get a gold coin like this: </p><p><img src='run_exp/static/images/tutorial/reward_small.png' height='200'></p><p>If you do not remember correctly, then you'll see a red x like this: </p><p><img src='run_exp/static/images/tutorial/reward_no.png' height='200'></p><p>Importantly, when you are shown a ship, take the time to remind yourself which island you saw it on. This will help you in the next part of the study.</p><p><b>[Press the space bar to continue]</b></p></div>","32","","","","","","","","","","","","","","","","","","","","","","","",""
"","begin_test_phase","16","147653","0.0-16.0","""event"",""trial"",""time""
""fullscreenenter"",""0"",""4627""
","
","
","""event"",""trial"",""time""
""fullscreenenter"",""0"",""4627""
","
","null","run_exp/static/audio/clip_36_begin_final.m4a","null","","","","","<div class='center'><p>Let's go over the important points again. Your job is to: </p><p>1. Pick the pirate who is best at robbing ships and will bring you back gold coins. </p><p>2. Correctly remember whether or not you saw a ship before. If you did see the ship before, remind yourself on which island you saw it. </p></div>","","","","","","","","","","","","","","","","","","",""
"","html-keyboard-response","17","148030","0.0-17.0","""event"",""trial"",""time""
""fullscreenenter"",""0"",""4627""
","
","
","""event"",""trial"",""time""
""fullscreenenter"",""0"",""4627""
","
","321.5999999977648","<div class='center'><p>Let's go over the important points again. Your job is to: </p><p>1. Pick the pirate who is best at robbing ships and will bring you back gold coins. </p><p>2. Correctly remember whether or not you saw a ship before. If you did see the ship before, remind yourself on which island you saw it. </p><p><b>[Press the space bar to continue]</b></p></div>","32","","","","","","","","","","","","","","","","","","","","","","","",""
"","do_welcome","18","152038","0.0-18.0","""event"",""trial"",""time""
""fullscreenenter"",""0"",""4627""
","
","
","""event"",""trial"",""time""
""fullscreenenter"",""0"",""4627""
","
","null","","","","","","","","null","","","","","","","","","","","","","","","","","",""
"","do_trial","19","155831","0.0-19.0-0.0","""event"",""trial"",""time""
""fullscreenenter"",""0"",""4627""
","
","
","""event"",""trial"",""time""
""fullscreenenter"",""0"",""4627""
","
","1231.199999999255","","","","","","","","49","1,1,0","6","blank","230","null","0.41726711581062353","0.7062841895398494","0.19930353853128555","1","","","","","","","","",""
"","html-keyboard-response","20","156834","0.0-19.0-1.0","""event"",""trial"",""time""
""fullscreenenter"",""0"",""4627""
","
","
","""event"",""trial"",""time""
""fullscreenenter"",""0"",""4627""
","
","null","<p></p>","null","","","","","","","","","","","","","","","","","","","","","","","",""
"","do_trial","21","159713","0.0-20.0-0.0","""event"",""trial"",""time""
""fullscreenenter"",""0"",""4627""
","
","
","""event"",""trial"",""time""
""fullscreenenter"",""0"",""4627""
","
","321.5","","","","","","","","49","0,1,0","6","blank","231","null","0.39851190099032585","0.6779092829888497","0.18050582537588442","0","","","","","","","","",""
"","html-keyboard-response","22","160714","0.0-20.0-1.0","""event"",""trial"",""time""
""fullscreenenter"",""0"",""4627""
","
","
","""event"",""trial"",""time""
""fullscreenenter"",""0"",""4627""
","
","null","<p></p>","null","","","","","","","","","","","","","","","","","","","","","","","",""
"","do_trial","23","163391","0.0-21.0-0.0","""event"",""trial"",""time""
""fullscreenenter"",""0"",""4627""
","
","
","""event"",""trial"",""time""
""fullscreenenter"",""0"",""4627""
","
","121.39999999850988","","","","","","","","49","0,1,0","6","blank","232","null","0.2738558008925059","0.7432193628179159","0.2890619184936229","0","","","","","","","","",""
"","html-keyboard-response","24","164393","0.0-21.0-1.0","""event"",""trial"",""time""
""fullscreenenter"",""0"",""4627""
","
","
","""event"",""trial"",""time""
""fullscreenenter"",""0"",""4627""
","
","null","<p></p>","null","","","","","","","","","","","","","","","","","","","","","","","",""
"","do_trial","25","167167","0.0-22.0-0.0","""event"",""trial"",""time""
""fullscreenenter"",""0"",""4627""
","
","
","""event"",""trial"",""time""
""fullscreenenter"",""0"",""4627""
","
","218.60000000149012","","","","","","","","50","0,0,0","6","blank","233","null","0.2561557083037655","0.8267357782621098","0.23909794516966162","0","","","","","","","","",""
"","html-keyboard-response","26","168169","0.0-22.0-1.0","""event"",""trial"",""time""
""fullscreenenter"",""0"",""4627""
","
","
","""event"",""trial"",""time""
""fullscreenenter"",""0"",""4627""
","
","null","<p></p>","null","","","","","","","","","","","","","","","","","","","","","","","",""
"","do_trial","27","170953","0.0-23.0-0.0","""event"",""trial"",""time""
""fullscreenenter"",""0"",""4627""
","
","
","""event"",""trial"",""time""
""fullscreenenter"",""0"",""4627""
","
","229.39999999850988","","","","","","","","51","1,0,0","6","blank","234","null","0.171947825615984","0.638185161991417","0.2009233422292694","0","","","","","","","","",""
"","html-keyboard-response","28","171955","0.0-23.0-1.0","""event"",""trial"",""time""
""fullscreenenter"",""0"",""4627""
","
","
","""event"",""trial"",""time""
""fullscreenenter"",""0"",""4627""
","
","null","<p></p>","null","","","","","","","","","","","","","","","","","","","","","","","",""
"","do_trial","29","174842","0.0-24.0-0.0","""event"",""trial"",""time""
""fullscreenenter"",""0"",""4627""
","
","
","""event"",""trial"",""time""
""fullscreenenter"",""0"",""4627""
","
","332.5999999977648","","","","","","","","50","0,1,0","6","blank","235","null","0.4336745663036383","0.6351022765240092","0.19182625750311993","1","","","","","","","","",""
"","html-keyboard-response","30","175844","0.0-24.0-1.0","""event"",""trial"",""time""
""fullscreenenter"",""0"",""4627""
","
","
","""event"",""trial"",""time""
""fullscreenenter"",""0"",""4627""
","
","null","<p></p>","null","","","","","","","","","","","","","","","","","","","","","","","",""
"","do_trial","31","178628","0.0-25.0-0.0","""event"",""trial"",""time""
""fullscreenenter"",""0"",""4627""
","
","
","""event"",""trial"",""time""
""fullscreenenter"",""0"",""4627""
","
","229.10000000149012","","","","","","","","50","0,0,0","6","blank","236","null","0.36415164233699493","0.5895596054624198","0.24622054305534213","0","","","","","","","","",""
"","html-keyboard-response","32","179630","0.0-25.0-1.0","""event"",""trial"",""time""
""fullscreenenter"",""0"",""4627""
","
","
","""event"",""trial"",""time""
""fullscreenenter"",""0"",""4627""
","
","null","<p></p>","null","","","","","","","","","","","","","","","","","","","","","","","",""
"","do_trial","33","182420","0.0-26.0-0.0","""event"",""trial"",""time""
""fullscreenenter"",""0"",""4627""
","
","
","""event"",""trial"",""time""
""fullscreenenter"",""0"",""4627""
","
","235.89999999850988","","","","","","","","50","0,1,0","6","blank","237","null","0.2209447884757304","0.6528792263903972","0.16023042615921462","1","","","","","","","","",""
"","html-keyboard-response","34","183422","0.0-26.0-1.0","""event"",""trial"",""time""
""fullscreenenter"",""0"",""4627""
","
","
","""event"",""trial"",""time""
""fullscreenenter"",""0"",""4627""
","
","null","<p></p>","null","","","","","","","","","","","","","","","","","","","","","","","",""
"","do_trial","35","186249","0.0-27.0-0.0","""event"",""trial"",""time""
""fullscreenenter"",""0"",""4627""
","
","
","""event"",""trial"",""time""
""fullscreenenter"",""0"",""4627""
","
","273.3999999985099","","","","","","","","51","0,1,0","6","blank","238","null","0.1341854383770153","0.7041640980939569","0.051714465336469465","0","","","","","","","","",""
"","html-keyboard-response","36","187251","0.0-27.0-1.0","""event"",""trial"",""time""
""fullscreenenter"",""0"",""4627""
","
","
","""event"",""trial"",""time""
""fullscreenenter"",""0"",""4627""
","
","null","<p></p>","null","","","","","","","","","","","","","","","","","","","","","","","",""
"","do_trial","37","190061","0.0-28.0-0.0","""event"",""trial"",""time""
""fullscreenenter"",""0"",""4627""
","
","
","""event"",""trial"",""time""
""fullscreenenter"",""0"",""4627""
","
","248.10000000149012","","","","","","","","49","1,1,1","6","blank","239","null","0.23639632657476242","0.6297771755593636","0.1973310929805249","1","","","","","","","","",""
"","html-keyboard-response","38","191063","0.0-28.0-1.0","""event"",""trial"",""time""
""fullscreenenter"",""0"",""4627""
","
","
","""event"",""trial"",""time""
""fullscreenenter"",""0"",""4627""
","
","null","<p></p>","null","","","","","","","","","","","","","","","","","","","","","","","",""
"","do_trial","39","193897","0.0-29.0-0.0","""event"",""trial"",""time""
""fullscreenenter"",""0"",""4627""
","
","
","""event"",""trial"",""time""
""fullscreenenter"",""0"",""4627""
","
","279.80000000074506","","","","","","","","49","1,0,0","6","blank","240","null","0.22302879654308233","0.45006227431576706","0.20700646986953605","1","","","","","","","","",""
"","html-keyboard-response","40","194899","0.0-29.0-1.0","""event"",""trial"",""time""
""fullscreenenter"",""0"",""4627""
","
","
","""event"",""trial"",""time""
""fullscreenenter"",""0"",""4627""
","
","null","<p></p>","null","","","","","","","","","","","","","","","","","","","","","","","",""
"","do_recog","41","200906","0.0-30.0-0.0","""event"",""trial"",""time""
""fullscreenenter"",""0"",""4627""
","
","
","""event"",""trial"",""time""
""fullscreenenter"",""0"",""4627""
","
","null","","","","","","","","null","","","","241","probe-57","","","","","1","[object Object]","199","4","0","","","",""
"","html-keyboard-response","42","201908","0.0-30.0-1.0","""event"",""trial"",""time""
""fullscreenenter"",""0"",""4627""
","
","
","""event"",""trial"",""time""
""fullscreenenter"",""0"",""4627""
","
","null","<p></p>","null","","","","","","","","","","","","","","","","","","","","","","","",""
"","do_trial","43","204944","0.0-31.0-0.0","""event"",""trial"",""time""
""fullscreenenter"",""0"",""4627""
","
","
","""event"",""trial"",""time""
""fullscreenenter"",""0"",""4627""
","
","480.69999999925494","","","","","","","","49","0,0,0","6","blank","242","null","0.22076711017287792","0.2435046348858152","0.30391232235567406","0","","","","","","","","",""
"","html-keyboard-response","44","205946","0.0-31.0-1.0","""event"",""trial"",""time""
""fullscreenenter"",""0"",""4627""
","
","
","""event"",""trial"",""time""
""fullscreenenter"",""0"",""4627""
","
","null","<p></p>","null","","","","","","","","","","","","","","","","","","","","","","","",""
"","do_trial","45","208941","0.0-32.0-0.0","""event"",""trial"",""time""
""fullscreenenter"",""0"",""4627""
","
","
","""event"",""trial"",""time""
""fullscreenenter"",""0"",""4627""
","
","439.1000000014901","","","","","","","","49","0,0,0","6","blank","243","null","0.20920425031903386","0.28979033850069513","0.48495667235622736","0","","","","","","","","",""
"","html-keyboard-response","46","209943","0.0-32.0-1.0","""event"",""trial"",""time""
""fullscreenenter"",""0"",""4627""
","
","
","""event"",""trial"",""time""
""fullscreenenter"",""0"",""4627""
","
","null","<p></p>","null","","","","","","","","","","","","","","","","","","","","","","","",""
"","do_trial","47","213143","0.0-33.0-0.0","""event"",""trial"",""time""
""fullscreenenter"",""0"",""4627""
","
","
","""event"",""trial"",""time""
""fullscreenenter"",""0"",""4627""
","
","645","","","","","","","","50","0,0,0","6","blank","244","null","0.23435218061454877","0.23541255319164164","0.6555798249872307","0","","","","","","","","",""
"","html-keyboard-response","48","214145","0.0-33.0-1.0","""event"",""trial"",""time""
""fullscreenenter"",""0"",""4627""
","
","
","""event"",""trial"",""time""
""fullscreenenter"",""0"",""4627""
","
","null","<p></p>","null","","","","","","","","","","","","","","","","","","","","","","","",""
"","do_trial","49","217100","0.0-34.0-0.0","""event"",""trial"",""time""
""fullscreenenter"",""0"",""4627""
","
","
","""event"",""trial"",""time""
""fullscreenenter"",""0"",""4627""
","
","400.0999999977648","","","","","","","","51","0,0,1","6","blank","245","null","0.33998447129349196","0.25007190618221076","0.5902164312926287","1","","","","","","","","",""
"","html-keyboard-response","50","218102","0.0-34.0-1.0","""event"",""trial"",""time""
""fullscreenenter"",""0"",""4627""
","
","
","""event"",""trial"",""time""
""fullscreenenter"",""0"",""4627""
","
","null","<p></p>","null","","","","","","","","","","","","","","","","","","","","","","","",""
"","do_trial","51","221140","0.0-35.0-0.0","""event"",""trial"",""time""
""fullscreenenter"",""0"",""4627""
","
","
","""event"",""trial"",""time""
""fullscreenenter"",""0"",""4627""
","
","483.30000000074506","","","","","","","","50","1,0,1","6","blank","246","null","0.4772915013961414","0.10599805237999337","0.5504004990530433","0","","","","","","","","",""
"","html-keyboard-response","52","222141","0.0-35.0-1.0","""event"",""trial"",""time""
""fullscreenenter"",""0"",""4627""
","
","
","""event"",""trial"",""time""
""fullscreenenter"",""0"",""4627""
","
","null","<p></p>","null","","","","","","","","","","","","","","","","","","","","","","","",""
"","do_recog","53","225008","0.0-36.0-0.0","""event"",""trial"",""time""
""fullscreenenter"",""0"",""4627""
","
","
","""event"",""trial"",""time""
""fullscreenenter"",""0"",""4627""
","
","1360.0999999977648","","","","","","","","56","","","","247","probe-41","","","","","1","[object Object]","36","0","0","","","",""
"","html-keyboard-response","54","226010","0.0-36.0-1.0","""event"",""trial"",""time""
""fullscreenenter"",""0"",""4627""
","
","
","""event"",""trial"",""time""
""fullscreenenter"",""0"",""4627""
","
","null","<p></p>","null","","","","","","","","","","","","","","","","","","","","","","","",""
"","do_trial","55","229148","0.0-37.0-0.0","""event"",""trial"",""time""
""fullscreenenter"",""0"",""4627""
","
","
","""event"",""trial"",""time""
""fullscreenenter"",""0"",""4627""
","
","581.7999999970198","","","","","","","","49","0,0,1","6","blank","248","null","0.5059792300214356","0.11465796571283249","0.6356432575701879","0","","","","","","","","",""
"","html-keyboard-response","56","230150","0.0-37.0-1.0","""event"",""trial"",""time""
""fullscreenenter"",""0"",""4627""
","
","
","""event"",""trial"",""time""
""fullscreenenter"",""0"",""4627""
","
","null","<p></p>","null","","","","","","","","","","","","","","","","","","","","","","","",""
"","do_trial","57","232956","0.0-38.0-0.0","""event"",""trial"",""time""
""fullscreenenter"",""0"",""4627""
","
","
","""event"",""trial"",""time""
""fullscreenenter"",""0"",""4627""
","
","252","","","","","","","","50","1,1,0","6","blank","249","null","0.42365408179436104","0.201169353913892","0.6273066099246892","1","","","","","","","","",""
"","html-keyboard-response","58","233958","0.0-38.0-1.0","""event"",""trial"",""time""
""fullscreenenter"",""0"",""4627""
","
","
","""event"",""trial"",""time""
""fullscreenenter"",""0"",""4627""
","
","null","<p></p>","null","","","","","","","","","","","","","","","","","","","","","","","",""
"","do_trial","59","236838","0.0-39.0-0.0","""event"",""trial"",""time""
""fullscreenenter"",""0"",""4627""
","
","
","""event"",""trial"",""time""
""fullscreenenter"",""0"",""4627""
","
","324","","","","","","","","50","1,0,1","6","blank","250","null","0.4207077624019969","0.08291582189271988","0.6109627044643126","0","","","","","","","","",""
"","html-keyboard-response","60","237839","0.0-39.0-1.0","""event"",""trial"",""time""
""fullscreenenter"",""0"",""4627""
","
","
","""event"",""trial"",""time""
""fullscreenenter"",""0"",""4627""
","
","null","<p></p>","null","","","","","","","","","","","","","","","","","","","","","","","",""
"","do_trial","61","240395","0.0-40.0-0.0","""event"",""trial"",""time""
""fullscreenenter"",""0"",""4627""
","
","
","""event"",""trial"",""time""
""fullscreenenter"",""0"",""4627""
","
","0.20000000298023224","","","","","","","","49","1,0,1","6","blank","251","null","0.3207095973437349","0.06511553595290832","0.6000685702896932","1","","","","","","","","",""
"","html-keyboard-response","62","241397","0.0-40.0-1.0","""event"",""trial"",""time""
""fullscreenenter"",""0"",""4627""
","
","
","""event"",""trial"",""time""
""fullscreenenter"",""0"",""4627""
","
","null","<p></p>","null","","","","","","","","","","","","","","","","","","","","","","","",""
"","do_recog","63","244258","0.0-41.0-0.0","""event"",""trial"",""time""
""fullscreenenter"",""0"",""4627""
","
","
","""event"",""trial"",""time""
""fullscreenenter"",""0"",""4627""
","
","1353.300000000745","","","","","","","","56","","","","252","probe-201","","","","","1","[object Object]","32","0","0","","","",""
"","html-keyboard-response","64","245260","0.0-41.0-1.0","""event"",""trial"",""time""
""fullscreenenter"",""0"",""4627""
","
","
","""event"",""trial"",""time""
""fullscreenenter"",""0"",""4627""
","
","null","<p></p>","null","","","","","","","","","","","","","","","","","","","","","","","",""
"","do_trial","65","248421","0.0-42.0-0.0","""event"",""trial"",""time""
""fullscreenenter"",""0"",""4627""
","
","
","""event"",""trial"",""time""
""fullscreenenter"",""0"",""4627""
","
","604.3000000007451","","","","","","","","49","1,0,1","6","blank","253","null","0.25887821758347523","0.14837606865689298","0.651757259106342","1","","","","","","","","",""
"","html-keyboard-response","66","249423","0.0-42.0-1.0","""event"",""trial"",""time""
""fullscreenenter"",""0"",""4627""
","
","
","""event"",""trial"",""time""
""fullscreenenter"",""0"",""4627""
","
","null","<p></p>","null","","","","","","","","","","","","","","","","","","","","","","","",""
"","do_trial","67","252747","0.0-43.0-0.0","""event"",""trial"",""time""
""fullscreenenter"",""0"",""4627""
","
","
","""event"",""trial"",""time""
""fullscreenenter"",""0"",""4627""
","
","767.8000000007451","","","","","","","","50","0,0,1","6","blank","254","null","0.24592450364805427","0.2072453612640235","0.5274590180416692","0","","","","","","","","",""
"","html-keyboard-response","68","253749","0.0-43.0-1.0","""event"",""trial"",""time""
""fullscreenenter"",""0"",""4627""
","
","
","""event"",""trial"",""time""
""fullscreenenter"",""0"",""4627""
","
","null","<p></p>","null","","","","","","","","","","","","","","","","","","","","","","","",""
"","do_trial","69","257053","0.0-44.0-0.0","""event"",""trial"",""time""
""fullscreenenter"",""0"",""4627""
","
","
","""event"",""trial"",""time""
""fullscreenenter"",""0"",""4627""
","
","747","","","","","","","","50","1,0,0","6","blank","255","null","0.28414252690861824","0.20599133527974534","0.476881683582226","0","","","","","","","","",""
"","html-keyboard-response","70","258055","0.0-44.0-1.0","""event"",""trial"",""time""
""fullscreenenter"",""0"",""4627""
","
","
","""event"",""trial"",""time""
""fullscreenenter"",""0"",""4627""
","
","null","<p></p>","null","","","","","","","","","","","","","","","","","","","","","","","",""
"","do_trial","71","261004","0.0-45.0-0.0","""event"",""trial"",""time""
""fullscreenenter"",""0"",""4627""
","
","
","""event"",""trial"",""time""
""fullscreenenter"",""0"",""4627""
","
","394.19999999925494","","","","","","","","51","0,0,0","6","blank","256","null","0.40196575282269204","0.1119793516201492","0.5974476275972063","0","","","","","","","","",""
"","html-keyboard-response","72","262006","0.0-45.0-1.0","""event"",""trial"",""time""
""fullscreenenter"",""0"",""4627""
","
","
","""event"",""trial"",""time""
""fullscreenenter"",""0"",""4627""
","
","null","<p></p>","null","","","","","","","","","","","","","","","","","","","","","","","",""
"","do_trial","73","264767","0.0-46.0-0.0","""event"",""trial"",""time""
""fullscreenenter"",""0"",""4627""
","
","
","""event"",""trial"",""time""
""fullscreenenter"",""0"",""4627""
","
","198.60000000149012","","","","","","","","49","1,0,0","6","blank","257","null","0.4240350341718035","0.10746002779984962","0.6021868764963815","1","","","","","","","","",""
"","html-keyboard-response","74","265769","0.0-46.0-1.0","""event"",""trial"",""time""
""fullscreenenter"",""0"",""4627""
","
","
","""event"",""trial"",""time""
""fullscreenenter"",""0"",""4627""
","
","null","<p></p>","null","","","","","","","","","","","","","","","","","","","","","","","",""
"","do_recog","75","268603","0.0-47.0-0.0","""event"",""trial"",""time""
""fullscreenenter"",""0"",""4627""
","
","
","""event"",""trial"",""time""
""fullscreenenter"",""0"",""4627""
","
","1328.300000000745","","","","","","","","56","","","","258","probe-187","","","","","1","[object Object]","197","4","0","","","",""
"","html-keyboard-response","76","269605","0.0-47.0-1.0","""event"",""trial"",""time""
""fullscreenenter"",""0"",""4627""
","
","
","""event"",""trial"",""time""
""fullscreenenter"",""0"",""4627""
","
","null","<p></p>","null","","","","","","","","","","","","","","","","","","","","","","","",""
"","do_trial","77","272887","0.0-48.0-0.0","""event"",""trial"",""time""
""fullscreenenter"",""0"",""4627""
","
","
","""event"",""trial"",""time""
""fullscreenenter"",""0"",""4627""
","
","726.3999999985099","","","","","","","","50","1,0,1","6","blank","259","null","0.196650038519738","0.13316426827697492","0.6934640781111258","0","","","","","","","","",""
"","html-keyboard-response","78","273889","0.0-48.0-1.0","""event"",""trial"",""time""
""fullscreenenter"",""0"",""4627""
","
","
","""event"",""trial"",""time""
""fullscreenenter"",""0"",""4627""
","
","null","<p></p>","null","","","","","","","","","","","","","","","","","","","","","","","",""
"","do_recog","79","276639","0.0-49.0-0.0","""event"",""trial"",""time""
""fullscreenenter"",""0"",""4627""
","
","
","""event"",""trial"",""time""
""fullscreenenter"",""0"",""4627""
","
","1243.9000000022352","","","","","","","","53","","","","260","probe-35","","","","","1","[object Object]","70","1","1","","","",""
"","html-keyboard-response","80","277641","0.0-49.0-1.0","""event"",""trial"",""time""
""fullscreenenter"",""0"",""4627""
","
","
","""event"",""trial"",""time""
""fullscreenenter"",""0"",""4627""
","
","null","<p></p>","null","","","","","","","","","","","","","","","","","","","","","","","",""
"","do_trial","81","280705","0.0-50.0-0.0","""event"",""trial"",""time""
""fullscreenenter"",""0"",""4627""
","
","
","""event"",""trial"",""time""
""fullscreenenter"",""0"",""4627""
","
","509","","","","","","","","49","1,0,0","6","blank","261","null","0.2745896215395435","0.12609631966443963","0.7015184782310092","1","","","","","","","","",""
"","html-keyboard-response","82","281707","0.0-50.0-1.0","""event"",""trial"",""time""
""fullscreenenter"",""0"",""4627""
","
","
","""event"",""trial"",""time""
""fullscreenenter"",""0"",""4627""
","
","null","<p></p>","null","","","","","","","","","","","","","","","","","","","","","","","",""
"","do_trial","83","284499","0.0-51.0-0.0","""event"",""trial"",""time""
""fullscreenenter"",""0"",""4627""
","
","
","""event"",""trial"",""time""
""fullscreenenter"",""0"",""4627""
","
","236.29999999701977","","","","","","","","49","0,0,0","6","blank","262","null","0.2044320504750781","0.14407830033925523","0.7394223087547798","0","","","","","","","","",""
"","html-keyboard-response","84","285500","0.0-51.0-1.0","""event"",""trial"",""time""
""fullscreenenter"",""0"",""4627""
","
","
","""event"",""trial"",""time""
""fullscreenenter"",""0"",""4627""
","
","null","<p></p>","null","","","","","","","","","","","","","","","","","","","","","","","",""
"","do_recog","85","288422","0.0-52.0-0.0","""event"",""trial"",""time""
""fullscreenenter"",""0"",""4627""
","
","
","""event"",""trial"",""time""
""fullscreenenter"",""0"",""4627""
","
","1414.8999999985099","","","","","","","","53","","","","263","probe-157","","","","","1","[object Object]","112","2","1","","","",""
"","html-keyboard-response","86","289424","0.0-52.0-1.0","""event"",""trial"",""time""
""fullscreenenter"",""0"",""4627""
","
","
","""event"",""trial"",""time""
""fullscreenenter"",""0"",""4627""
","
","null","<p></p>","null","","","","","","","","","","","","","","","","","","","","","","","",""
"","do_trial","87","292530","0.0-53.0-0.0","""event"",""trial"",""time""
""fullscreenenter"",""0"",""4627""
","
","
","""event"",""trial"",""time""
""fullscreenenter"",""0"",""4627""
","
","550.6000000014901","","","","","","","","49","1,1,1","6","blank","264","null","0.19663528749904075","0.26749061434967997","0.6104493719496868","1","","","","","","","","",""
"","html-keyboard-response","88","293532","0.0-53.0-1.0","""event"",""trial"",""time""
""fullscreenenter"",""0"",""4627""
","
","
","""event"",""trial"",""time""
""fullscreenenter"",""0"",""4627""
","
","null","<p></p>","null","","","","","","","","","","","","","","","","","","","","","","","",""
"","do_recog","89","296340","0.0-54.0-0.0","""event"",""trial"",""time""
""fullscreenenter"",""0"",""4627""
","
","
","""event"",""trial"",""time""
""fullscreenenter"",""0"",""4627""
","
","1302","","","","","","","","53","","","","265","probe-07","","","","","1","[object Object]","115","2","1","","","",""
"","html-keyboard-response","90","297342","0.0-54.0-1.0","""event"",""trial"",""time""
""fullscreenenter"",""0"",""4627""
","
","
","""event"",""trial"",""time""
""fullscreenenter"",""0"",""4627""
","
","null","<p></p>","null","","","","","","","","","","","","","","","","","","","","","","","",""
"","do_trial","91","300289","0.0-55.0-0.0","""event"",""trial"",""time""
""fullscreenenter"",""0"",""4627""
","
","
","""event"",""trial"",""time""
""fullscreenenter"",""0"",""4627""
","
","390.6000000014901","","","","","","","","51","0,0,1","6","blank","266","null","0.26399395615902377","0.18400347437428555","0.6464431326695954","1","","","","","","","","",""
"","html-keyboard-response","92","301291","0.0-55.0-1.0","""event"",""trial"",""time""
""fullscreenenter"",""0"",""4627""
","
","
","""event"",""trial"",""time""
""fullscreenenter"",""0"",""4627""
","
","null","<p></p>","null","","","","","","","","","","","","","","","","","","","","","","","",""
"","do_trial","93","304666","0.0-56.0-0.0","""event"",""trial"",""time""
""fullscreenenter"",""0"",""4627""
","
","
","""event"",""trial"",""time""
""fullscreenenter"",""0"",""4627""
","
","819","","","","","","","","51","1,0,0","6","blank","267","null","0.3438118272672521","0.13804016946170106","0.5557755112655108","0","","","","","","","","",""
"","html-keyboard-response","94","305668","0.0-56.0-1.0","""event"",""trial"",""time""
""fullscreenenter"",""0"",""4627""
","
","
","""event"",""trial"",""time""
""fullscreenenter"",""0"",""4627""
","
","null","<p></p>","null","","","","","","","","","","","","","","","","","","","","","","","",""
"","do_trial","95","308604","0.0-57.0-0.0","""event"",""trial"",""time""
""fullscreenenter"",""0"",""4627""
","
","
","""event"",""trial"",""time""
""fullscreenenter"",""0"",""4627""
","
","378.79999999701977","","","","","","","","49","1,0,0","6","blank","268","null","0.28135411794648674","0.13909752933553196","0.6102677728465343","1","","","","","","","","",""
"","html-keyboard-response","96","309606","0.0-57.0-1.0","""event"",""trial"",""time""
""fullscreenenter"",""0"",""4627""
","
","
","""event"",""trial"",""time""
""fullscreenenter"",""0"",""4627""
","
","null","<p></p>","null","","","","","","","","","","","","","","","","","","","","","","","",""
"","break","97","323936","0.0-58.0-0.0","""event"",""trial"",""time""
""fullscreenenter"",""0"",""4627""
","
","
","""event"",""trial"",""time""
""fullscreenenter"",""0"",""4627""
","
","14328.5","<div class='center'><p>Time to take a quick break! You have 2 minutes to rest, but you can move on sooner if you'd like.</p><p> Press the <b>space bar</b> to continue.</p></div>","32","","","","","","","","","","","","","","","","","","","","","","","",""
"","do_recog","98","328139","0.0-58.0-1.0","""event"",""trial"",""time""
""fullscreenenter"",""0"",""4627""
","
","
","""event"",""trial"",""time""
""fullscreenenter"",""0"",""4627""
","
","2697.800000000745","","","","","","","","54","","","","269","probe-48","","","","","1","[object Object]","116","2","1","","","",""
"","html-keyboard-response","99","329141","0.0-58.0-2.0","""event"",""trial"",""time""
""fullscreenenter"",""0"",""4627""
","
","
","""event"",""trial"",""time""
""fullscreenenter"",""0"",""4627""
","
","null","<p></p>","null","","","","","","","","","","","","","","","","","","","","","","","",""
"","do_trial","100","332480","0.0-59.0-0.0","""event"",""trial"",""time""
""fullscreenenter"",""0"",""4627""
","
","
","""event"",""trial"",""time""
""fullscreenenter"",""0"",""4627""
","
","783.4000000022352","","","","","","","","49","0,0,1","6","blank","270","null","0.292756591010252","0.09401758002644595","0.6278501254086014","0","","","","","","","","",""
"","html-keyboard-response","101","333483","0.0-59.0-1.0","""event"",""trial"",""time""
""fullscreenenter"",""0"",""4627""
","
","
","""event"",""trial"",""time""
""fullscreenenter"",""0"",""4627""
","
","null","<p></p>","null","","","","","","","","","","","","","","","","","","","","","","","",""
"","do_recog","102","336387","0.0-60.0-0.0","""event"",""trial"",""time""
""fullscreenenter"",""0"",""4627""
","
","
","""event"",""trial"",""time""
""fullscreenenter"",""0"",""4627""
","
","1398.0999999977648","","","","","","","","56","","","","271","probe-104","","","","","1","[object Object]","192","4","0","","","",""
"","html-keyboard-response","103","337389","0.0-60.0-1.0","""event"",""trial"",""time""
""fullscreenenter"",""0"",""4627""
","
","
","""event"",""trial"",""time""
""fullscreenenter"",""0"",""4627""
","
","null","<p></p>","null","","","","","","","","","","","","","","","","","","","","","","","",""
"","do_trial","104","340553","0.0-61.0-0.0","""event"",""trial"",""time""
""fullscreenenter"",""0"",""4627""
","
","
","""event"",""trial"",""time""
""fullscreenenter"",""0"",""4627""
","
","607.6000000014901","","","","","","","","50","1,0,1","6","blank","272","null","0.30280282468286573","0.05401351434075705","0.6261940473869968","0","","","","","","","","",""
"","html-keyboard-response","105","341555","0.0-61.0-1.0","""event"",""trial"",""time""
""fullscreenenter"",""0"",""4627""
","
","
","""event"",""trial"",""time""
""fullscreenenter"",""0"",""4627""
","
","null","<p></p>","null","","","","","","","","","","","","","","","","","","","","","","","",""
"","do_recog","106","344286","0.0-62.0-0.0","""event"",""trial"",""time""
""fullscreenenter"",""0"",""4627""
","
","
","""event"",""trial"",""time""
""fullscreenenter"",""0"",""4627""
","
","1225.300000000745","","","","","","","","53","","","","273","probe-105","","","","","1","[object Object]","71","1","1","","","",""
"","html-keyboard-response","107","345288","0.0-62.0-1.0","""event"",""trial"",""time""
""fullscreenenter"",""0"",""4627""
","
","
","""event"",""trial"",""time""
""fullscreenenter"",""0"",""4627""
","
","null","<p></p>","null","","","","","","","","","","","","","","","","","","","","","","","",""
"","do_trial","108","348200","0.0-63.0-0.0","""event"",""trial"",""time""
""fullscreenenter"",""0"",""4627""
","
","
","""event"",""trial"",""time""
""fullscreenenter"",""0"",""4627""
","
","356.29999999701977","","","","","","","","51","1,0,0","6","blank","274","null","0.3464478543347993","0.0647103773545472","0.5125829075637492","0","","","","","","","","",""
"","html-keyboard-response","109","349201","0.0-63.0-1.0","""event"",""trial"",""time""
""fullscreenenter"",""0"",""4627""
","
","
","""event"",""trial"",""time""
""fullscreenenter"",""0"",""4627""
","
","null","<p></p>","null","","","","","","","","","","","","","","","","","","","","","","","",""
"","do_trial","110","352032","0.0-64.0-0.0","""event"",""trial"",""time""
""fullscreenenter"",""0"",""4627""
","
","
","""event"",""trial"",""time""
""fullscreenenter"",""0"",""4627""
","
","274.19999999925494","","","","","","","","49","1,0,0","6","blank","275","null","0.26475145761116164","0.055444001296919794","0.7385693176228456","1","","","","","","","","",""
"","html-keyboard-response","111","353034","0.0-64.0-1.0","""event"",""trial"",""time""
""fullscreenenter"",""0"",""4627""
","
","
","""event"",""trial"",""time""
""fullscreenenter"",""0"",""4627""
","
","null","<p></p>","null","","","","","","","","","","","","","","","","","","","","","","","",""
"","do_trial","112","355873","0.0-65.0-0.0","""event"",""trial"",""time""
""fullscreenenter"",""0"",""4627""
","
","
","""event"",""trial"",""time""
""fullscreenenter"",""0"",""4627""
","
","283.1000000014901","","","","","","","","49","0,0,1","6","blank","276","null","0.42835565553142374","0.09263064729593871","0.699226425357994","0","","","","","","","","",""
"","html-keyboard-response","113","356874","0.0-65.0-1.0","""event"",""trial"",""time""
""fullscreenenter"",""0"",""4627""
","
","
","""event"",""trial"",""time""
""fullscreenenter"",""0"",""4627""
","
","null","<p></p>","null","","","","","","","","","","","","","","","","","","","","","","","",""
"","do_recog","114","359613","0.0-66.0-0.0","""event"",""trial"",""time""
""fullscreenenter"",""0"",""4627""
","
","
","""event"",""trial"",""time""
""fullscreenenter"",""0"",""4627""
","
","1231.2999999970198","","","","","","","","53","","","","277","probe-231","","","","","0","[object Object]","null","null","0","","","",""
"","html-keyboard-response","115","360615","0.0-66.0-1.0","""event"",""trial"",""time""
""fullscreenenter"",""0"",""4627""
","
","
","""event"",""trial"",""time""
""fullscreenenter"",""0"",""4627""
","
","null","<p></p>","null","","","","","","","","","","","","","","","","","","","","","","","",""
"","do_trial","116","363523","0.0-67.0-0.0","""event"",""trial"",""time""
""fullscreenenter"",""0"",""4627""
","
","
","""event"",""trial"",""time""
""fullscreenenter"",""0"",""4627""
","
","352.4000000022352","","","","","","","","49","0,1,0","6","blank","278","null","0.1605287812001334","0.16507288619472907","0.7145058894464853","0","","","","","","","","",""
"","html-keyboard-response","117","364525","0.0-67.0-1.0","""event"",""trial"",""time""
""fullscreenenter"",""0"",""4627""
","
","
","""event"",""trial"",""time""
""fullscreenenter"",""0"",""4627""
","
","null","<p></p>","null","","","","","","","","","","","","","","","","","","","","","","","",""
"","do_trial","118","367083","0.0-68.0-0.0","""event"",""trial"",""time""
""fullscreenenter"",""0"",""4627""
","
","
","""event"",""trial"",""time""
""fullscreenenter"",""0"",""4627""
","
","0.19999999925494194","","","","","","","","51","0,0,0","6","blank","279","null","0.15307356689809087","0.05766944136022737","0.6749630952488798","0","","","","","","","","",""
"","html-keyboard-response","119","368085","0.0-68.0-1.0","""event"",""trial"",""time""
""fullscreenenter"",""0"",""4627""
","
","
","""event"",""trial"",""time""
""fullscreenenter"",""0"",""4627""
","
","null","<p></p>","null","","","","","","","","","","","","","","","","","","","","","","","",""
"","do_trial","120","370695","0.0-69.0-0.0","""event"",""trial"",""time""
""fullscreenenter"",""0"",""4627""
","
","
","""event"",""trial"",""time""
""fullscreenenter"",""0"",""4627""
","
","54.5","","","","","","","","50","1,0,1","6","blank","280","null","0.2516283935639464","0.1666654117648057","0.6197358219462877","0","","","","","","","","",""
"","html-keyboard-response","121","371697","0.0-69.0-1.0","""event"",""trial"",""time""
""fullscreenenter"",""0"",""4627""
","
","
","""event"",""trial"",""time""
""fullscreenenter"",""0"",""4627""
","
","null","<p></p>","null","","","","","","","","","","","","","","","","","","","","","","","",""
"","do_trial","122","374331","0.0-70.0-0.0","""event"",""trial"",""time""
""fullscreenenter"",""0"",""4627""
","
","
","""event"",""trial"",""time""
""fullscreenenter"",""0"",""4627""
","
","77.5","","","","","","","","50","0,0,1","6","blank","281","null","0.3228247828496157","0.1642039688411668","0.6009482645087039","0","","","","","","","","",""
"","html-keyboard-response","123","375332","0.0-70.0-1.0","""event"",""trial"",""time""
""fullscreenenter"",""0"",""4627""
","
","
","""event"",""trial"",""time""
""fullscreenenter"",""0"",""4627""
","
","null","<p></p>","null","","","","","","","","","","","","","","","","","","","","","","","",""
"","do_recog","124","378212","0.0-71.0-0.0","""event"",""trial"",""time""
""fullscreenenter"",""0"",""4627""
","
","
","""event"",""trial"",""time""
""fullscreenenter"",""0"",""4627""
","
","1373.3999999985099","","","","","","","","56","","","","282","probe-97","","","","","1","[object Object]","194","4","0","","","",""
"","html-keyboard-response","125","379214","0.0-71.0-1.0","""event"",""trial"",""time""
""fullscreenenter"",""0"",""4627""
","
","
","""event"",""trial"",""time""
""fullscreenenter"",""0"",""4627""
","
","null","<p></p>","null","","","","","","","","","","","","","","","","","","","","","","","",""
"","do_trial","126","382102","0.0-72.0-0.0","""event"",""trial"",""time""
""fullscreenenter"",""0"",""4627""
","
","
","""event"",""trial"",""time""
""fullscreenenter"",""0"",""4627""
","
","332.5","","","","","","","","49","0,0,0","6","blank","283","null","0.34393102816034854","0.2130981990305395","0.6484437902766852","0","","","","","","","","",""
"","html-keyboard-response","127","383105","0.0-72.0-1.0","""event"",""trial"",""time""
""fullscreenenter"",""0"",""4627""
","
","
","""event"",""trial"",""time""
""fullscreenenter"",""0"",""4627""
","
","null","<p></p>","null","","","","","","","","","","","","","","","","","","","","","","","",""
"","do_trial","128","386049","0.0-73.0-0.0","""event"",""trial"",""time""
""fullscreenenter"",""0"",""4627""
","
","
","""event"",""trial"",""time""
""fullscreenenter"",""0"",""4627""
","
","387.5","","","","","","","","49","1,1,1","6","blank","284","null","0.27092342660773705","0.13448131700265362","0.6425588658547181","1","","","","","","","","",""
"","html-keyboard-response","129","387050","0.0-73.0-1.0","""event"",""trial"",""time""
""fullscreenenter"",""0"",""4627""
","
","
","""event"",""trial"",""time""
""fullscreenenter"",""0"",""4627""
","
","null","<p></p>","null","","","","","","","","","","","","","","","","","","","","","","","",""
"","do_recog","130","389754","0.0-74.0-0.0","""event"",""trial"",""time""
""fullscreenenter"",""0"",""4627""
","
","
","""event"",""trial"",""time""
""fullscreenenter"",""0"",""4627""
","
","1197.2999999970198","","","","","","","","53","","","","285","probe-242","","","","","0","[object Object]","null","null","0","","","",""
"","html-keyboard-response","131","390755","0.0-74.0-1.0","""event"",""trial"",""time""
""fullscreenenter"",""0"",""4627""
","
","
","""event"",""trial"",""time""
""fullscreenenter"",""0"",""4627""
","
","null","<p></p>","null","","","","","","","","","","","","","","","","","","","","","","","",""
"","do_trial","132","393683","0.0-75.0-0.0","""event"",""trial"",""time""
""fullscreenenter"",""0"",""4627""
","
","
","""event"",""trial"",""time""
""fullscreenenter"",""0"",""4627""
","
","370.19999999925494","","","","","","","","49","0,0,0","6","blank","286","null","0.29969235743407185","0.11221226608356588","0.5759148836664371","0","","","","","","","","",""
"","html-keyboard-response","133","394684","0.0-75.0-1.0","""event"",""trial"",""time""
""fullscreenenter"",""0"",""4627""
","
","
","""event"",""trial"",""time""
""fullscreenenter"",""0"",""4627""
","
","null","<p></p>","null","","","","","","","","","","","","","","","","","","","","","","","",""
"","do_recog","134","397839","0.0-76.0-0.0","""event"",""trial"",""time""
""fullscreenenter"",""0"",""4627""
","
","
","""event"",""trial"",""time""
""fullscreenenter"",""0"",""4627""
","
","1648.300000000745","","","","","","","","55","","","","287","probe-196","","","","","1","[object Object]","74","1","0","","","",""
"","html-keyboard-response","135","398841","0.0-76.0-1.0","""event"",""trial"",""time""
""fullscreenenter"",""0"",""4627""
","
","
","""event"",""trial"",""time""
""fullscreenenter"",""0"",""4627""
","
","null","<p></p>","null","","","","","","","","","","","","","","","","","","","","","","","",""
"","do_trial","136","401908","0.0-77.0-0.0","""event"",""trial"",""time""
""fullscreenenter"",""0"",""4627""
","
","
","""event"",""trial"",""time""
""fullscreenenter"",""0"",""4627""
","
","510.8999999985099","","","","","","","","51","1,0,1","6","blank","288","null","0.30646933552694705","0.08661550823133089","0.6942325890396073","1","","","","","","","","",""
"","html-keyboard-response","137","402910","0.0-77.0-1.0","""event"",""trial"",""time""
""fullscreenenter"",""0"",""4627""
","
","
","""event"",""trial"",""time""
""fullscreenenter"",""0"",""4627""
","
","null","<p></p>","null","","","","","","","","","","","","","","","","","","","","","","","",""
"","do_recog","138","405607","0.0-78.0-0.0","""event"",""trial"",""time""
""fullscreenenter"",""0"",""4627""
","
","
","""event"",""trial"",""time""
""fullscreenenter"",""0"",""4627""
","
","1191.199999999255","","","","","","","","56","","","","289","probe-146","","","","","1","[object Object]","73","1","0","","","",""
"","html-keyboard-response","139","406609","0.0-78.0-1.0","""event"",""trial"",""time""
""fullscreenenter"",""0"",""4627""
","
","
","""event"",""trial"",""time""
""fullscreenenter"",""0"",""4627""
","
","null","<p></p>","null","","","","","","","","","","","","","","","","","","","","","","","",""
"","do_trial","140","409474","0.0-79.0-0.0","""event"",""trial"",""time""
""fullscreenenter"",""0"",""4627""
","
","
","""event"",""trial"",""time""
""fullscreenenter"",""0"",""4627""
","
","308.19999999925494","","","","","","","","50","0,0,0","6","blank","290","null","0.20073311871665125","0.07703142609519205","0.5915388152436419","0","","","","","","","","",""
"","html-keyboard-response","141","410476","0.0-79.0-1.0","""event"",""trial"",""time""
""fullscreenenter"",""0"",""4627""
","
","
","""event"",""trial"",""time""
""fullscreenenter"",""0"",""4627""
","
","null","<p></p>","null","","","","","","","","","","","","","","","","","","","","","","","",""
"","do_recog","142","413132","0.0-80.0-0.0","""event"",""trial"",""time""
""fullscreenenter"",""0"",""4627""
","
","
","""event"",""trial"",""time""
""fullscreenenter"",""0"",""4627""
","
","1149.800000000745","","","","","","","","56","","","","291","probe-55","","","","","1","[object Object]","39","0","0","","","",""
"","html-keyboard-response","143","414133","0.0-80.0-1.0","""event"",""trial"",""time""
""fullscreenenter"",""0"",""4627""
","
","
","""event"",""trial"",""time""
""fullscreenenter"",""0"",""4627""
","
","null","<p></p>","null","","","","","","","","","","","","","","","","","","","","","","","",""
"","do_trial","144","417029","0.0-81.0-0.0","""event"",""trial"",""time""
""fullscreenenter"",""0"",""4627""
","
","
","""event"",""trial"",""time""
""fullscreenenter"",""0"",""4627""
","
","339.0999999977648","","","","","","","","49","1,0,1","6","blank","292","null","0.21710404163936772","0.10378254350735226","0.6821138593364292","1","","","","","","","","",""
"","html-keyboard-response","145","418030","0.0-81.0-1.0","""event"",""trial"",""time""
""fullscreenenter"",""0"",""4627""
","
","
","""event"",""trial"",""time""
""fullscreenenter"",""0"",""4627""
","
","null","<p></p>","null","","","","","","","","","","","","","","","","","","","","","","","",""
"","do_recog","146","420674","0.0-82.0-0.0","""event"",""trial"",""time""
""fullscreenenter"",""0"",""4627""
","
","
","""event"",""trial"",""time""
""fullscreenenter"",""0"",""4627""
","
","1136.8999999985099","","","","","","","","53","","","","293","probe-183","","","","","1","[object Object]","35","0","1","","","",""
"","html-keyboard-response","147","421675","0.0-82.0-1.0","""event"",""trial"",""time""
""fullscreenenter"",""0"",""4627""
","
","
","""event"",""trial"",""time""
""fullscreenenter"",""0"",""4627""
","
","null","<p></p>","null","","","","","","","","","","","","","","","","","","","","","","","",""
"","do_trial","148","424512","0.0-83.0-0.0","""event"",""trial"",""time""
""fullscreenenter"",""0"",""4627""
","
","
","""event"",""trial"",""time""
""fullscreenenter"",""0"",""4627""
","
","280.1000000014901","","","","","","","","49","0,0,1","6","blank","294","null","0.20381859975835018","0.09355792516029465","0.7451245141958756","0","","","","","","","","",""
"","html-keyboard-response","149","425513","0.0-83.0-1.0","""event"",""trial"",""time""
""fullscreenenter"",""0"",""4627""
","
","
","""event"",""trial"",""time""
""fullscreenenter"",""0"",""4627""
","
","null","<p></p>","null","","","","","","","","","","","","","","","","","","","","","","","",""
"","do_recog","150","428082","0.0-84.0-0.0","""event"",""trial"",""time""
""fullscreenenter"",""0"",""4627""
","
","
","""event"",""trial"",""time""
""fullscreenenter"",""0"",""4627""
","
","1062.9000000022352","","","","","","","","53","","","","295","probe-81","","","","","1","[object Object]","157","3","1","","","",""
"","html-keyboard-response","151","429084","0.0-84.0-1.0","""event"",""trial"",""time""
""fullscreenenter"",""0"",""4627""
","
","
","""event"",""trial"",""time""
""fullscreenenter"",""0"",""4627""
","
","null","<p></p>","null","","","","","","","","","","","","","","","","","","","","","","","",""
"","do_trial","152","432112","0.0-85.0-0.0","""event"",""trial"",""time""
""fullscreenenter"",""0"",""4627""
","
","
","""event"",""trial"",""time""
""fullscreenenter"",""0"",""4627""
","
","472.5","","","","","","","","49","1,0,1","6","blank","296","null","0.4790026051927825","0.09534897404972012","0.7509246175372095","1","","","","","","","","",""
"","html-keyboard-response","153","433114","0.0-85.0-1.0","""event"",""trial"",""time""
""fullscreenenter"",""0"",""4627""
","
","
","""event"",""trial"",""time""
""fullscreenenter"",""0"",""4627""
","
","null","<p></p>","null","","","","","","","","","","","","","","","","","","","","","","","",""
"","do_trial","154","436250","0.0-86.0-0.0","""event"",""trial"",""time""
""fullscreenenter"",""0"",""4627""
","
","
","""event"",""trial"",""time""
""fullscreenenter"",""0"",""4627""
","
","579.6999999992549","","","","","","","","50","0,0,1","6","blank","297","null","0.5500325845284262","0.20251494185632182","0.5366731882327928","0","","","","","","","","",""
"","html-keyboard-response","155","437251","0.0-86.0-1.0","""event"",""trial"",""time""
""fullscreenenter"",""0"",""4627""
","
","
","""event"",""trial"",""time""
""fullscreenenter"",""0"",""4627""
","
","null","<p></p>","null","","","","","","","","","","","","","","","","","","","","","","","",""
"","do_trial","156","440149","0.0-87.0-0.0","""event"",""trial"",""time""
""fullscreenenter"",""0"",""4627""
","
","
","""event"",""trial"",""time""
""fullscreenenter"",""0"",""4627""
","
","341.19999999925494","","","","","","","","51","1,1,1","6","blank","298","null","0.5249646733442714","0.2645449206240755","0.5170329960986355","1","","","","","","","","",""
"","html-keyboard-response","157","441151","0.0-87.0-1.0","""event"",""trial"",""time""
""fullscreenenter"",""0"",""4627""
","
","
","""event"",""trial"",""time""
""fullscreenenter"",""0"",""4627""
","
","null","<p></p>","null","","","","","","","","","","","","","","","","","","","","","","","",""
"","do_trial","158","443932","0.0-88.0-0.0","""event"",""trial"",""time""
""fullscreenenter"",""0"",""4627""
","
","
","""event"",""trial"",""time""
""fullscreenenter"",""0"",""4627""
","
","224.60000000149012","","","","","","","","51","0,0,0","6","blank","299","null","0.5308499287246156","0.16992982503983647","0.3495623395531092","0","","","","","","","","",""
"","html-keyboard-response","159","444934","0.0-88.0-1.0","""event"",""trial"",""time""
""fullscreenenter"",""0"",""4627""
","
","
","""event"",""trial"",""time""
""fullscreenenter"",""0"",""4627""
","
","null","<p></p>","null","","","","","","","","","","","","","","","","","","","","","","","",""
"","do_trial","160","447733","0.0-89.0-0.0","""event"",""trial"",""time""
""fullscreenenter"",""0"",""4627""
","
","
","""event"",""trial"",""time""
""fullscreenenter"",""0"",""4627""
","
","243.09999999776483","","","","","","","","51","1,0,0","6","blank","300","null","0.5922338198336378","0.2761139307522253","0.3083943899129918","0","","","","","","","","",""
"","html-keyboard-response","161","448735","0.0-89.0-1.0","""event"",""trial"",""time""
""fullscreenenter"",""0"",""4627""
","
","
","""event"",""trial"",""time""
""fullscreenenter"",""0"",""4627""
","
","null","<p></p>","null","","","","","","","","","","","","","","","","","","","","","","","",""
"","do_recog","162","451243","0.0-90.0-0.0","""event"",""trial"",""time""
""fullscreenenter"",""0"",""4627""
","
","
","""event"",""trial"",""time""
""fullscreenenter"",""0"",""4627""
","
","1002.7000000029802","","","","","","","","53","","","","301","probe-63","","","","","1","[object Object]","38","0","1","","","",""
"","html-keyboard-response","163","452245","0.0-90.0-1.0","""event"",""trial"",""time""
""fullscreenenter"",""0"",""4627""
","
","
","""event"",""trial"",""time""
""fullscreenenter"",""0"",""4627""
","
","null","<p></p>","null","","","","","","","","","","","","","","","","","","","","","","","",""
"","do_trial","164","455303","0.0-91.0-0.0","""event"",""trial"",""time""
""fullscreenenter"",""0"",""4627""
","
","
","""event"",""trial"",""time""
""fullscreenenter"",""0"",""4627""
","
","503.8999999985099","","","","","","","","49","0,0,0","6","blank","302","null","0.531699294473092","0.06777586431317353","0.12619300404541794","0","","","","","","","","",""
"","html-keyboard-response","165","456304","0.0-91.0-1.0","""event"",""trial"",""time""
""fullscreenenter"",""0"",""4627""
","
","
","""event"",""trial"",""time""
""fullscreenenter"",""0"",""4627""
","
","null","<p></p>","null","","","","","","","","","","","","","","","","","","","","","","","",""
"","do_trial","166","459388","0.0-92.0-0.0","""event"",""trial"",""time""
""fullscreenenter"",""0"",""4627""
","
","
","""event"",""trial"",""time""
""fullscreenenter"",""0"",""4627""
","
","526.6999999992549","","","","","","","","49","0,1,0","6","blank","303","null","0.48374479166256606","0.25439073985677674","0.11790525057804077","0","","","","","","","","",""
"","html-keyboard-response","167","460390","0.0-92.0-1.0","""event"",""trial"",""time""
""fullscreenenter"",""0"",""4627""
","
","
","""event"",""trial"",""time""
""fullscreenenter"",""0"",""4627""
","
","null","<p></p>","null","","","","","","","","","","","","","","","","","","","","","","","",""
"","do_trial","168","463336","0.0-93.0-0.0","""event"",""trial"",""time""
""fullscreenenter"",""0"",""4627""
","
","
","""event"",""trial"",""time""
""fullscreenenter"",""0"",""4627""
","
","390.5999999977648","","","","","","","","49","1,0,0","6","blank","304","null","0.5108950018226739","0.28236321209301124","0.18931151568590032","1","","","","","","","","",""
"","html-keyboard-response","169","464338","0.0-93.0-1.0","""event"",""trial"",""time""
""fullscreenenter"",""0"",""4627""
","
","
","""event"",""trial"",""time""
""fullscreenenter"",""0"",""4627""
","
","null","<p></p>","null","","","","","","","","","","","","","","","","","","","","","","","",""
"","do_trial","170","467358","0.0-94.0-0.0","""event"",""trial"",""time""
""fullscreenenter"",""0"",""4627""
","
","
","""event"",""trial"",""time""
""fullscreenenter"",""0"",""4627""
","
","464.69999999925494","","","","","","","","51","1,0,0","6","blank","305","null","0.6139621380626946","0.17867460859462497","0.1838704996618715","0","","","","","","","","",""
"","html-keyboard-response","171","468360","0.0-94.0-1.0","""event"",""trial"",""time""
""fullscreenenter"",""0"",""4627""
","
","
","""event"",""trial"",""time""
""fullscreenenter"",""0"",""4627""
","
","null","<p></p>","null","","","","","","","","","","","","","","","","","","","","","","","",""
"","do_recog","172","470817","0.0-95.0-0.0","""event"",""trial"",""time""
""fullscreenenter"",""0"",""4627""
","
","
","""event"",""trial"",""time""
""fullscreenenter"",""0"",""4627""
","
","950.8999999985099","","","","","","","","53","","","","306","probe-230","","","","","1","[object Object]","196","4","1","","","",""
"","html-keyboard-response","173","471819","0.0-95.0-1.0","""event"",""trial"",""time""
""fullscreenenter"",""0"",""4627""
","
","
","""event"",""trial"",""time""
""fullscreenenter"",""0"",""4627""
","
","null","<p></p>","null","","","","","","","","","","","","","","","","","","","","","","","",""
"","do_trial","174","474686","0.0-96.0-0.0","""event"",""trial"",""time""
""fullscreenenter"",""0"",""4627""
","
","
","""event"",""trial"",""time""
""fullscreenenter"",""0"",""4627""
","
","310.6000000014901","","","","","","","","50","0,1,0","6","blank","307","null","0.5324712132635863","0.11450127492133287","0.23290138693155168","1","","","","","","","","",""
"","html-keyboard-response","175","475688","0.0-96.0-1.0","""event"",""trial"",""time""
""fullscreenenter"",""0"",""4627""
","
","
","""event"",""trial"",""time""
""fullscreenenter"",""0"",""4627""
","
","null","<p></p>","null","","","","","","","","","","","","","","","","","","","","","","","",""
"","do_trial","176","478643","0.0-97.0-0.0","""event"",""trial"",""time""
""fullscreenenter"",""0"",""4627""
","
","
","""event"",""trial"",""time""
""fullscreenenter"",""0"",""4627""
","
","398.70000000298023","","","","","","","","49","1,1,1","6","blank","308","null","0.4780579643582979","0.1530751408544082","0.24345001757452958","1","","","","","","","","",""
"","html-keyboard-response","177","479644","0.0-97.0-1.0","""event"",""trial"",""time""
""fullscreenenter"",""0"",""4627""
","
","
","""event"",""trial"",""time""
""fullscreenenter"",""0"",""4627""
","
","null","<p></p>","null","","","","","","","","","","","","","","","","","","","","","","","",""
"","break","178","492373","0.0-98.0-0.0","""event"",""trial"",""time""
""fullscreenenter"",""0"",""4627""
","
","
","""event"",""trial"",""time""
""fullscreenenter"",""0"",""4627""
","
","12727.60000000149","<div class='center'><p>Time to take a quick break! You have 2 minutes to rest, but you can move on sooner if you'd like.</p><p> Press the <b>space bar</b> to continue.</p></div>","32","","","","","","","","","","","","","","","","","","","","","","","",""
"","do_trial","179","495703","0.0-98.0-1.0","""event"",""trial"",""time""
""fullscreenenter"",""0"",""4627""
","
","
","""event"",""trial"",""time""
""fullscreenenter"",""0"",""4627""
","
","773.2999999970198","","","","","","","","49","0,0,0","6","blank","309","null","0.5656163628058068","0.09808822708191851","0.18003449217873102","0","","","","","","","","",""
"","html-keyboard-response","180","496705","0.0-98.0-2.0","""event"",""trial"",""time""
""fullscreenenter"",""0"",""4627""
","
","
","""event"",""trial"",""time""
""fullscreenenter"",""0"",""4627""
","
","null","<p></p>","null","","","","","","","","","","","","","","","","","","","","","","","",""
"","do_recog","181","500682","0.0-99.0-0.0","""event"",""trial"",""time""
""fullscreenenter"",""0"",""4627""
","
","
","""event"",""trial"",""time""
""fullscreenenter"",""0"",""4627""
","
","2470.300000000745","","","","","","","","55","","","","310","probe-67","","","","","1","[object Object]","37","0","0","","","",""
"","html-keyboard-response","182","501684","0.0-99.0-1.0","""event"",""trial"",""time""
""fullscreenenter"",""0"",""4627""
","
","
","""event"",""trial"",""time""
""fullscreenenter"",""0"",""4627""
","
","null","<p></p>","null","","","","","","","","","","","","","","","","","","","","","","","",""
"","do_trial","183","504702","0.0-100.0-0.0","""event"",""trial"",""time""
""fullscreenenter"",""0"",""4627""
","
","
","""event"",""trial"",""time""
""fullscreenenter"",""0"",""4627""
","
","462.20000000298023","","","","","","","","49","0,0,0","6","blank","311","null","0.507415129859525","0.054664847046519166","0.2969207441051315","0","","","","","","","","",""
"","html-keyboard-response","184","505704","0.0-100.0-1.0","""event"",""trial"",""time""
""fullscreenenter"",""0"",""4627""
","
","
","""event"",""trial"",""time""
""fullscreenenter"",""0"",""4627""
","
","null","<p></p>","null","","","","","","","","","","","","","","","","","","","","","","","",""
"","do_trial","185","508606","0.0-101.0-0.0","""event"",""trial"",""time""
""fullscreenenter"",""0"",""4627""
","
","
","""event"",""trial"",""time""
""fullscreenenter"",""0"",""4627""
","
","347.1000000014901","","","","","","","","51","1,0,1","6","blank","312","null","0.6046315863053506","0.1024720584093538","0.3738024382118063","1","","","","","","","","",""
"","html-keyboard-response","186","509608","0.0-101.0-1.0","""event"",""trial"",""time""
""fullscreenenter"",""0"",""4627""
","
","
","""event"",""trial"",""time""
""fullscreenenter"",""0"",""4627""
","
","null","<p></p>","null","","","","","","","","","","","","","","","","","","","","","","","",""
"","do_trial","187","512249","0.0-102.0-0.0","""event"",""trial"",""time""
""fullscreenenter"",""0"",""4627""
","
","
","""event"",""trial"",""time""
""fullscreenenter"",""0"",""4627""
","
","85.19999999925494","","","","","","","","49","1,0,1","6","blank","313","null","0.7334613850908158","0.17087173191005228","0.42455582606985054","1","","","","","","","","",""
"","html-keyboard-response","188","513250","0.0-102.0-1.0","""event"",""trial"",""time""
""fullscreenenter"",""0"",""4627""
","
","
","""event"",""trial"",""time""
""fullscreenenter"",""0"",""4627""
","
","null","<p></p>","null","","","","","","","","","","","","","","","","","","","","","","","",""
"","do_trial","189","516045","0.0-103.0-0.0","""event"",""trial"",""time""
""fullscreenenter"",""0"",""4627""
","
","
","""event"",""trial"",""time""
""fullscreenenter"",""0"",""4627""
","
","239.59999999776483","","","","","","","","51","1,0,1","6","blank","314","null","0.6824567905018036","0.098594554185795","0.4641876069719355","1","","","","","","","","",""
"","html-keyboard-response","190","517047","0.0-103.0-1.0","""event"",""trial"",""time""
""fullscreenenter"",""0"",""4627""
","
","
","""event"",""trial"",""time""
""fullscreenenter"",""0"",""4627""
","
","null","<p></p>","null","","","","","","","","","","","","","","","","","","","","","","","",""
"","do_trial","191","519971","0.0-104.0-0.0","""event"",""trial"",""time""
""fullscreenenter"",""0"",""4627""
","
","
","""event"",""trial"",""time""
""fullscreenenter"",""0"",""4627""
","
","368.5999999977648","","","","","","","","49","0,1,0","6","blank","315","null","0.5635024744581404","0.11101319853467911","0.44180599218689964","0","","","","","","","","",""
"","html-keyboard-response","192","520973","0.0-104.0-1.0","""event"",""trial"",""time""
""fullscreenenter"",""0"",""4627""
","
","
","""event"",""trial"",""time""
""fullscreenenter"",""0"",""4627""
","
","null","<p></p>","null","","","","","","","","","","","","","","","","","","","","","","","",""
"","do_trial","193","523780","0.0-105.0-0.0","""event"",""trial"",""time""
""fullscreenenter"",""0"",""4627""
","
","
","""event"",""trial"",""time""
""fullscreenenter"",""0"",""4627""
","
","249.59999999776483","","","","","","","","49","0,0,1","6","blank","316","null","0.44357005511388636","0.07480063269508148","0.447976367830613","0","","","","","","","","",""
"","html-keyboard-response","194","524782","0.0-105.0-1.0","""event"",""trial"",""time""
""fullscreenenter"",""0"",""4627""
","
","
","""event"",""trial"",""time""
""fullscreenenter"",""0"",""4627""
","
","null","<p></p>","null","","","","","","","","","","","","","","","","","","","","","","","",""
"","do_recog","195","527622","0.0-106.0-0.0","""event"",""trial"",""time""
""fullscreenenter"",""0"",""4627""
","
","
","""event"",""trial"",""time""
""fullscreenenter"",""0"",""4627""
","
","1334.699999999255","","","","","","","","56","","","","317","probe-241","","","","","0","[object Object]","null","null","1","","","",""
"","html-keyboard-response","196","528624","0.0-106.0-1.0","""event"",""trial"",""time""
""fullscreenenter"",""0"",""4627""
","
","
","""event"",""trial"",""time""
""fullscreenenter"",""0"",""4627""
","
","null","<p></p>","null","","","","","","","","","","","","","","","","","","","","","","","",""
"","do_trial","197","531654","0.0-107.0-0.0","""event"",""trial"",""time""
""fullscreenenter"",""0"",""4627""
","
","
","""event"",""trial"",""time""
""fullscreenenter"",""0"",""4627""
","
","474.20000000298023","","","","","","","","51","0,0,0","6","blank","318","null","0.38234780581897226","0.09769166347900948","0.29149284106972473","0","","","","","","","","",""
"","html-keyboard-response","198","532656","0.0-107.0-1.0","""event"",""trial"",""time""
""fullscreenenter"",""0"",""4627""
","
","
","""event"",""trial"",""time""
""fullscreenenter"",""0"",""4627""
","
","null","<p></p>","null","","","","","","","","","","","","","","","","","","","","","","","",""
"","do_trial","199","535454","0.0-108.0-0.0","""event"",""trial"",""time""
""fullscreenenter"",""0"",""4627""
","
","
","""event"",""trial"",""time""
""fullscreenenter"",""0"",""4627""
","
","242.40000000223517","","","","","","","","50","1,0,0","6","blank","319","null","0.420647223226645","0.06666054367184585","0.3104407496227773","0","","","","","","","","",""
"","html-keyboard-response","200","536456","0.0-108.0-1.0","""event"",""trial"",""time""
""fullscreenenter"",""0"",""4627""
","
","
","""event"",""trial"",""time""
""fullscreenenter"",""0"",""4627""
","
","null","<p></p>","null","","","","","","","","","","","","","","","","","","","","","","","",""
"","do_trial","201","539278","0.0-109.0-0.0","""event"",""trial"",""time""
""fullscreenenter"",""0"",""4627""
","
","
","""event"",""trial"",""time""
""fullscreenenter"",""0"",""4627""
","
","265.29999999701977","","","","","","","","49","1,0,0","6","blank","320","null","0.4291151299708992","0.13452782602300337","0.34263582903545375","1","","","","","","","","",""
"","html-keyboard-response","202","540280","0.0-109.0-1.0","""event"",""trial"",""time""
""fullscreenenter"",""0"",""4627""
","
","
","""event"",""trial"",""time""
""fullscreenenter"",""0"",""4627""
","
","null","<p></p>","null","","","","","","","","","","","","","","","","","","","","","","","",""
"","do_trial","203","543237","0.0-110.0-0.0","""event"",""trial"",""time""
""fullscreenenter"",""0"",""4627""
","
","
","""event"",""trial"",""time""
""fullscreenenter"",""0"",""4627""
","
","400.1000000014901","","","","","","","","49","1,0,0","6","blank","321","null","0.5920894175126604","0.12321867804340045","0.3850522504189736","1","","","","","","","","",""
"","html-keyboard-response","204","544238","0.0-110.0-1.0","""event"",""trial"",""time""
""fullscreenenter"",""0"",""4627""
","
","
","""event"",""trial"",""time""
""fullscreenenter"",""0"",""4627""
","
","null","<p></p>","null","","","","","","","","","","","","","","","","","","","","","","","",""
"","do_trial","205","547218","0.0-111.0-0.0","""event"",""trial"",""time""
""fullscreenenter"",""0"",""4627""
","
","
","""event"",""trial"",""time""
""fullscreenenter"",""0"",""4627""
","
","422.0999999977648","","","","","","","","49","0,1,0","6","blank","322","null","0.637385686306608","0.05446942991359481","0.30473865968279856","0","","","","","","","","",""
"","html-keyboard-response","206","548220","0.0-111.0-1.0","""event"",""trial"",""time""
""fullscreenenter"",""0"",""4627""
","
","
","""event"",""trial"",""time""
""fullscreenenter"",""0"",""4627""
","
","null","<p></p>","null","","","","","","","","","","","","","","","","","","","","","","","",""
"","do_recog","207","550702","0.0-112.0-0.0","""event"",""trial"",""time""
""fullscreenenter"",""0"",""4627""
","
","
","""event"",""trial"",""time""
""fullscreenenter"",""0"",""4627""
","
","975.5","","","","","","","","53","","","","323","probe-202","","","","","1","[object Object]","113","2","1","","","",""
"","html-keyboard-response","208","551704","0.0-112.0-1.0","""event"",""trial"",""time""
""fullscreenenter"",""0"",""4627""
","
","
","""event"",""trial"",""time""
""fullscreenenter"",""0"",""4627""
","
","null","<p></p>","null","","","","","","","","","","","","","","","","","","","","","","","",""
"","do_trial","209","554602","0.0-113.0-0.0","""event"",""trial"",""time""
""fullscreenenter"",""0"",""4627""
","
","
","""event"",""trial"",""time""
""fullscreenenter"",""0"",""4627""
","
","342.5","","","","","","","","49","1,0,0","6","blank","324","null","0.6355069019116636","0.06408021174796373","0.15277432457332984","1","","","","","","","","",""
"","html-keyboard-response","210","555604","0.0-113.0-1.0","""event"",""trial"",""time""
""fullscreenenter"",""0"",""4627""
","
","
","""event"",""trial"",""time""
""fullscreenenter"",""0"",""4627""
","
","null","<p></p>","null","","","","","","","","","","","","","","","","","","","","","","","",""
"","do_recog","211","558330","0.0-114.0-0.0","""event"",""trial"",""time""
""fullscreenenter"",""0"",""4627""
","
","
","""event"",""trial"",""time""
""fullscreenenter"",""0"",""4627""
","
","1220.8999999985099","","","","","","","","56","","","","325","probe-253","","","","","0","[object Object]","null","null","1","","","",""
"","html-keyboard-response","212","559332","0.0-114.0-1.0","""event"",""trial"",""time""
""fullscreenenter"",""0"",""4627""
","
","
","""event"",""trial"",""time""
""fullscreenenter"",""0"",""4627""
","
","null","<p></p>","null","","","","","","","","","","","","","","","","","","","","","","","",""
"","do_trial","213","562402","0.0-115.0-0.0","""event"",""trial"",""time""
""fullscreenenter"",""0"",""4627""
","
","
","""event"",""trial"",""time""
""fullscreenenter"",""0"",""4627""
","
","513.1999999992549","","","","","","","","50","1,0,0","6","blank","326","null","0.41181995877786437","0.2207610127854638","0.18740255950489118","0","","","","","","","","",""
"","html-keyboard-response","214","563404","0.0-115.0-1.0","""event"",""trial"",""time""
""fullscreenenter"",""0"",""4627""
","
","
","""event"",""trial"",""time""
""fullscreenenter"",""0"",""4627""
","
","null","<p></p>","null","","","","","","","","","","","","","","","","","","","","","","","",""
"","do_trial","215","566219","0.0-116.0-0.0","""event"",""trial"",""time""
""fullscreenenter"",""0"",""4627""
","
","
","""event"",""trial"",""time""
""fullscreenenter"",""0"",""4627""
","
","258.0999999977648","","","","","","","","51","0,0,0","6","blank","327","null","0.4166176845163557","0.19019670698384267","0.24320551123697876","0","","","","","","","","",""
"","html-keyboard-response","216","567221","0.0-116.0-1.0","""event"",""trial"",""time""
""fullscreenenter"",""0"",""4627""
","
","
","""event"",""trial"",""time""
""fullscreenenter"",""0"",""4627""
","
","null","<p></p>","null","","","","","","","","","","","","","","","","","","","","","","","",""
"","do_recog","217","569954","0.0-117.0-0.0","""event"",""trial"",""time""
""fullscreenenter"",""0"",""4627""
","
","
","""event"",""trial"",""time""
""fullscreenenter"",""0"",""4627""
","
","1226.699999999255","","","","","","","","56","","","","328","probe-70","","","","","1","[object Object]","154","3","0","","","",""
"","html-keyboard-response","218","570956","0.0-117.0-1.0","""event"",""trial"",""time""
""fullscreenenter"",""0"",""4627""
","
","
","""event"",""trial"",""time""
""fullscreenenter"",""0"",""4627""
","
","null","<p></p>","null","","","","","","","","","","","","","","","","","","","","","","","",""
"","do_trial","219","573841","0.0-118.0-0.0","""event"",""trial"",""time""
""fullscreenenter"",""0"",""4627""
","
","
","""event"",""trial"",""time""
""fullscreenenter"",""0"",""4627""
","
","326.8999999985099","","","","","","","","49","1,1,1","6","blank","329","null","0.5498389285454","0.13634809021129352","0.38724924313090625","1","","","","","","","","",""
"","html-keyboard-response","220","574843","0.0-118.0-1.0","""event"",""trial"",""time""
""fullscreenenter"",""0"",""4627""
","
","
","""event"",""trial"",""time""
""fullscreenenter"",""0"",""4627""
","
","null","<p></p>","null","","","","","","","","","","","","","","","","","","","","","","","",""
"","do_trial","221","577804","0.0-119.0-0.0","""event"",""trial"",""time""
""fullscreenenter"",""0"",""4627""
","
","
","""event"",""trial"",""time""
""fullscreenenter"",""0"",""4627""
","
","405.30000000074506","","","","","","","","49","1,0,0","6","blank","330","null","0.5243875030808478","0.2525060328139858","0.24124330102006927","1","","","","","","","","",""
"","html-keyboard-response","222","578806","0.0-119.0-1.0","""event"",""trial"",""time""
""fullscreenenter"",""0"",""4627""
","
","
","""event"",""trial"",""time""
""fullscreenenter"",""0"",""4627""
","
","null","<p></p>","null","","","","","","","","","","","","","","","","","","","","","","","",""
"","do_trial","223","581649","0.0-120.0-0.0","""event"",""trial"",""time""
""fullscreenenter"",""0"",""4627""
","
","
","""event"",""trial"",""time""
""fullscreenenter"",""0"",""4627""
","
","286.69999999925494","","","","","","","","49","1,0,0","6","blank","331","null","0.5964209783420928","0.163872394608364","0.1760175746887016","1","","","","","","","","",""
"","html-keyboard-response","224","582650","0.0-120.0-1.0","""event"",""trial"",""time""
""fullscreenenter"",""0"",""4627""
","
","
","""event"",""trial"",""time""
""fullscreenenter"",""0"",""4627""
","
","null","<p></p>","null","","","","","","","","","","","","","","","","","","","","","","","",""
"","do_trial","225","585689","0.0-121.0-0.0","""event"",""trial"",""time""
""fullscreenenter"",""0"",""4627""
","
","
","""event"",""trial"",""time""
""fullscreenenter"",""0"",""4627""
","
","485.19999999925494","","","","","","","","49","1,0,0","6","blank","332","null","0.7385721194883899","0.06170097901530753","0.31996218928894915","1","","","","","","","","",""
"","html-keyboard-response","226","586691","0.0-121.0-1.0","""event"",""trial"",""time""
""fullscreenenter"",""0"",""4627""
","
","
","""event"",""trial"",""time""
""fullscreenenter"",""0"",""4627""
","
","null","<p></p>","null","","","","","","","","","","","","","","","","","","","","","","","",""
"","do_trial","227","589665","0.0-122.0-0.0","""event"",""trial"",""time""
""fullscreenenter"",""0"",""4627""
","
","
","""event"",""trial"",""time""
""fullscreenenter"",""0"",""4627""
","
","417.80000000074506","","","","","","","","49","1,0,0","6","blank","333","null","0.6712783537116901","0.18845464712798923","0.24891307738513685","1","","","","","","","","",""
"","html-keyboard-response","228","590667","0.0-122.0-1.0","""event"",""trial"",""time""
""fullscreenenter"",""0"",""4627""
","
","
","""event"",""trial"",""time""
""fullscreenenter"",""0"",""4627""
","
","null","<p></p>","null","","","","","","","","","","","","","","","","","","","","","","","",""
"","do_trial","229","593484","0.0-123.0-0.0","""event"",""trial"",""time""
""fullscreenenter"",""0"",""4627""
","
","
","""event"",""trial"",""time""
""fullscreenenter"",""0"",""4627""
","
","261.20000000298023","","","","","","","","49","0,0,0","6","blank","334","null","0.6320521090485671","0.061215981423716086","0.22785880396348515","0","","","","","","","","",""
"","html-keyboard-response","230","594487","0.0-123.0-1.0","""event"",""trial"",""time""
""fullscreenenter"",""0"",""4627""
","
","
","""event"",""trial"",""time""
""fullscreenenter"",""0"",""4627""
","
","null","<p></p>","null","","","","","","","","","","","","","","","","","","","","","","","",""
"","do_recog","231","596964","0.0-124.0-0.0","""event"",""trial"",""time""
""fullscreenenter"",""0"",""4627""
","
","
","""event"",""trial"",""time""
""fullscreenenter"",""0"",""4627""
","
","970.8000000007451","","","","","","","","53","","","","335","probe-178","","","","","1","[object Object]","153","3","1","","","",""
"","html-keyboard-response","232","597965","0.0-124.0-1.0","""event"",""trial"",""time""
""fullscreenenter"",""0"",""4627""
","
","
","""event"",""trial"",""time""
""fullscreenenter"",""0"",""4627""
","
","null","<p></p>","null","","","","","","","","","","","","","","","","","","","","","","","",""
"","do_trial","233","600831","0.0-125.0-0.0","""event"",""trial"",""time""
""fullscreenenter"",""0"",""4627""
","
","
","""event"",""trial"",""time""
""fullscreenenter"",""0"",""4627""
","
","310.80000000074506","","","","","","","","49","0,1,0","6","blank","336","null","0.7008112691352816","0.1417047724639684","0.13020080945986778","0","","","","","","","","",""
"","html-keyboard-response","234","601833","0.0-125.0-1.0","""event"",""trial"",""time""
""fullscreenenter"",""0"",""4627""
","
","
","""event"",""trial"",""time""
""fullscreenenter"",""0"",""4627""
","
","null","<p></p>","null","","","","","","","","","","","","","","","","","","","","","","","",""
"","do_recog","235","604472","0.0-126.0-0.0","""event"",""trial"",""time""
""fullscreenenter"",""0"",""4627""
","
","
","""event"",""trial"",""time""
""fullscreenenter"",""0"",""4627""
","
","1133.4000000022352","","","","","","","","53","","","","337","probe-118","","","","","1","[object Object]","114","2","1","","","",""
"","html-keyboard-response","236","605474","0.0-126.0-1.0","""event"",""trial"",""time""
""fullscreenenter"",""0"",""4627""
","
","
","""event"",""trial"",""time""
""fullscreenenter"",""0"",""4627""
","
","null","<p></p>","null","","","","","","","","","","","","","","","","","","","","","","","",""
"","do_trial","237","608360","0.0-127.0-0.0","""event"",""trial"",""time""
""fullscreenenter"",""0"",""4627""
","
","
","""event"",""trial"",""time""
""fullscreenenter"",""0"",""4627""
","
","330.5999999977648","","","","","","","","49","1,0,0","6","blank","338","null","0.6910127943433884","0.17958936229580238","0.0713325922841951","1","","","","","","","","",""
"","html-keyboard-response","238","609362","0.0-127.0-1.0","""event"",""trial"",""time""
""fullscreenenter"",""0"",""4627""
","
","
","""event"",""trial"",""time""
""fullscreenenter"",""0"",""4627""
","
","null","<p></p>","null","","","","","","","","","","","","","","","","","","","","","","","",""
"","do_recog","239","612104","0.0-128.0-0.0","""event"",""trial"",""time""
""fullscreenenter"",""0"",""4627""
","
","
","""event"",""trial"",""time""
""fullscreenenter"",""0"",""4627""
","
","1236.5999999977648","","","","","","","","55","","","","339","probe-123","","","","","1","[object Object]","111","2","0","","","",""
"","html-keyboard-response","240","613106","0.0-128.0-1.0","""event"",""trial"",""time""
""fullscreenenter"",""0"",""4627""
","
","
","""event"",""trial"",""time""
""fullscreenenter"",""0"",""4627""
","
","null","<p></p>","null","","","","","","","","","","","","","","","","","","","","","","","",""
"","do_trial","241","616078","0.0-129.0-0.0","""event"",""trial"",""time""
""fullscreenenter"",""0"",""4627""
","
","
","""event"",""trial"",""time""
""fullscreenenter"",""0"",""4627""
","
","415.30000000074506","","","","","","","","49","0,0,0","6","blank","340","null","0.5474085131781082","0.08350147129668706","0.21477421656395046","0","","","","","","","","",""
"","html-keyboard-response","242","617079","0.0-129.0-1.0","""event"",""trial"",""time""
""fullscreenenter"",""0"",""4627""
","
","
","""event"",""trial"",""time""
""fullscreenenter"",""0"",""4627""
","
","null","<p></p>","null","","","","","","","","","","","","","","","","","","","","","","","",""
"","do_trial","243","619760","0.0-130.0-0.0","""event"",""trial"",""time""
""fullscreenenter"",""0"",""4627""
","
","
","""event"",""trial"",""time""
""fullscreenenter"",""0"",""4627""
","
","124.30000000074506","","","","","","","","51","1,0,0","6","blank","341","null","0.42891546887063714","0.1715870423848685","0.2370261503706567","0","","","","","","","","",""
"","html-keyboard-response","244","620761","0.0-130.0-1.0","""event"",""trial"",""time""
""fullscreenenter"",""0"",""4627""
","
","
","""event"",""trial"",""time""
""fullscreenenter"",""0"",""4627""
","
","null","<p></p>","null","","","","","","","","","","","","","","","","","","","","","","","",""
"","do_trial","245","623582","0.0-131.0-0.0","""event"",""trial"",""time""
""fullscreenenter"",""0"",""4627""
","
","
","""event"",""trial"",""time""
""fullscreenenter"",""0"",""4627""
","
","263.69999999925494","","","","","","","","51","0,0,0","6","blank","342","null","0.5422640644810014","0.12145220950848304","0.09176239939772074","0","","","","","","","","",""
"","html-keyboard-response","246","624584","0.0-131.0-1.0","""event"",""trial"",""time""
""fullscreenenter"",""0"",""4627""
","
","
","""event"",""trial"",""time""
""fullscreenenter"",""0"",""4627""
","
","null","<p></p>","null","","","","","","","","","","","","","","","","","","","","","","","",""
"","do_trial","247","627379","0.0-132.0-0.0","""event"",""trial"",""time""
""fullscreenenter"",""0"",""4627""
","
","
","""event"",""trial"",""time""
""fullscreenenter"",""0"",""4627""
","
","239.10000000149012","","","","","","","","51","0,0,0","6","blank","343","null","0.4247156073484373","0.06691106703912791","0.07349270578705051","0","","","","","","","","",""
"","html-keyboard-response","248","628381","0.0-132.0-1.0","""event"",""trial"",""time""
""fullscreenenter"",""0"",""4627""
","
","
","""event"",""trial"",""time""
""fullscreenenter"",""0"",""4627""
","
","null","<p></p>","null","","","","","","","","","","","","","","","","","","","","","","","",""
"","do_trial","249","631453","0.0-133.0-0.0","""event"",""trial"",""time""
""fullscreenenter"",""0"",""4627""
","
","
","""event"",""trial"",""time""
""fullscreenenter"",""0"",""4627""
","
","516.1000000014901","","","","","","","","49","0,0,0","6","blank","344","null","0.5272709217512568","0.13730034102019426","0.21153960101536132","0","","","","","","","","",""
"","html-keyboard-response","250","632455","0.0-133.0-1.0","""event"",""trial"",""time""
""fullscreenenter"",""0"",""4627""
","
","
","""event"",""trial"",""time""
""fullscreenenter"",""0"",""4627""
","
","null","<p></p>","null","","","","","","","","","","","","","","","","","","","","","","","",""
"","do_trial","251","635370","0.0-134.0-0.0","""event"",""trial"",""time""
""fullscreenenter"",""0"",""4627""
","
","
","""event"",""trial"",""time""
""fullscreenenter"",""0"",""4627""
","
","359","","","","","","","","49","1,0,0","6","blank","345","null","0.5312934454531123","0.06763984455661703","0.28138129838914394","1","","","","","","","","",""
"","html-keyboard-response","252","636371","0.0-134.0-1.0","""event"",""trial"",""time""
""fullscreenenter"",""0"",""4627""
","
","
","""event"",""trial"",""time""
""fullscreenenter"",""0"",""4627""
","
","null","<p></p>","null","","","","","","","","","","","","","","","","","","","","","","","",""
"","do_recog","253","638751","0.0-135.0-0.0","""event"",""trial"",""time""
""fullscreenenter"",""0"",""4627""
","
","
","""event"",""trial"",""time""
""fullscreenenter"",""0"",""4627""
","
","873.3999999985099","","","","","","","","53","","","","346","probe-250","","","","","0","[object Object]","null","null","0","","","",""
"","html-keyboard-response","254","639752","0.0-135.0-1.0","""event"",""trial"",""time""
""fullscreenenter"",""0"",""4627""
","
","
","""event"",""trial"",""time""
""fullscreenenter"",""0"",""4627""
","
","null","<p></p>","null","","","","","","","","","","","","","","","","","","","","","","","",""
"","do_trial","255","642678","0.0-136.0-0.0","""event"",""trial"",""time""
""fullscreenenter"",""0"",""4627""
","
","
","""event"",""trial"",""time""
""fullscreenenter"",""0"",""4627""
","
","370.19999999925494","","","","","","","","49","0,0,0","6","blank","347","null","0.3619043272264008","0.1486708830713196","0.2410819418454004","0","","","","","","","","",""
"","html-keyboard-response","256","643680","0.0-136.0-1.0","""event"",""trial"",""time""
""fullscreenenter"",""0"",""4627""
","
","
","""event"",""trial"",""time""
""fullscreenenter"",""0"",""4627""
","
","null","<p></p>","null","","","","","","","","","","","","","","","","","","","","","","","",""
"","do_trial","257","647156","0.0-137.0-0.0","""event"",""trial"",""time""
""fullscreenenter"",""0"",""4627""
","
","
","""event"",""trial"",""time""
""fullscreenenter"",""0"",""4627""
","
","919.1999999992549","","","","","","","","49","0,0,0","6","blank","348","null","0.5195362776709451","0.08767203493863691","0.38153142079000957","0","","","","","","","","",""
"","html-keyboard-response","258","648158","0.0-137.0-1.0","""event"",""trial"",""time""
""fullscreenenter"",""0"",""4627""
","
","
","""event"",""trial"",""time""
""fullscreenenter"",""0"",""4627""
","
","null","<p></p>","null","","","","","","","","","","","","","","","","","","","","","","","",""
"","break","259","667764","0.0-138.0-0.0","""event"",""trial"",""time""
""fullscreenenter"",""0"",""4627""
","
","
","""event"",""trial"",""time""
""fullscreenenter"",""0"",""4627""
","
","19604.900000002235","<div class='center'><p>Time to take a quick break! You have 2 minutes to rest, but you can move on sooner if you'd like.</p><p> Press the <b>space bar</b> to continue.</p></div>","32","","","","","","","","","","","","","","","","","","","","","","","",""
"","do_trial","260","671378","0.0-138.0-1.0","""event"",""trial"",""time""
""fullscreenenter"",""0"",""4627""
","
","
","""event"",""trial"",""time""
""fullscreenenter"",""0"",""4627""
","
","1058.0999999977648","","","","","","","","49","1,0,1","6","blank","349","null","0.44724713816398903","0.15824532893174292","0.43466920236430107","1","","","","","","","","",""
"","html-keyboard-response","261","672379","0.0-138.0-2.0","""event"",""trial"",""time""
""fullscreenenter"",""0"",""4627""
","
","
","""event"",""trial"",""time""
""fullscreenenter"",""0"",""4627""
","
","null","<p></p>","null","","","","","","","","","","","","","","","","","","","","","","","",""
"","do_trial","262","675291","0.0-139.0-0.0","""event"",""trial"",""time""
""fullscreenenter"",""0"",""4627""
","
","
","""event"",""trial"",""time""
""fullscreenenter"",""0"",""4627""
","
","354.8999999985099","","","","","","","","49","0,0,1","6","blank","350","null","0.3851906096993352","0.15223839130648734","0.5308981106995014","0","","","","","","","","",""
"","html-keyboard-response","263","676293","0.0-139.0-1.0","""event"",""trial"",""time""
""fullscreenenter"",""0"",""4627""
","
","
","""event"",""trial"",""time""
""fullscreenenter"",""0"",""4627""
","
","null","<p></p>","null","","","","","","","","","","","","","","","","","","","","","","","",""
"","do_trial","264","679094","0.0-140.0-0.0","""event"",""trial"",""time""
""fullscreenenter"",""0"",""4627""
","
","
","""event"",""trial"",""time""
""fullscreenenter"",""0"",""4627""
","
","244.39999999850988","","","","","","","","51","0,0,1","6","blank","351","null","0.2245445271787638","0.3509014404699433","0.56036060363827","1","","","","","","","","",""
"","html-keyboard-response","265","680096","0.0-140.0-1.0","""event"",""trial"",""time""
""fullscreenenter"",""0"",""4627""
","
","
","""event"",""trial"",""time""
""fullscreenenter"",""0"",""4627""
","
","null","<p></p>","null","","","","","","","","","","","","","","","","","","","","","","","",""
"","do_trial","266","682964","0.0-141.0-0.0","""event"",""trial"",""time""
""fullscreenenter"",""0"",""4627""
","
","
","""event"",""trial"",""time""
""fullscreenenter"",""0"",""4627""
","
","312.5","","","","","","","","49","0,0,0","6","blank","352","null","0.1993433493157306","0.5289793936241286","0.4525095580540663","0","","","","","","","","",""
"","html-keyboard-response","267","683966","0.0-141.0-1.0","""event"",""trial"",""time""
""fullscreenenter"",""0"",""4627""
","
","
","""event"",""trial"",""time""
""fullscreenenter"",""0"",""4627""
","
","null","<p></p>","null","","","","","","","","","","","","","","","","","","","","","","","",""
"","do_recog","268","686327","0.0-142.0-0.0","""event"",""trial"",""time""
""fullscreenenter"",""0"",""4627""
","
","
","""event"",""trial"",""time""
""fullscreenenter"",""0"",""4627""
","
","854.5","","","","","","","","53","","","","353","probe-165","","","","","1","[object Object]","76","1","1","","","",""
"","html-keyboard-response","269","687329","0.0-142.0-1.0","""event"",""trial"",""time""
""fullscreenenter"",""0"",""4627""
","
","
","""event"",""trial"",""time""
""fullscreenenter"",""0"",""4627""
","
","null","<p></p>","null","","","","","","","","","","","","","","","","","","","","","","","",""
"","do_trial","270","690274","0.0-143.0-0.0","""event"",""trial"",""time""
""fullscreenenter"",""0"",""4627""
","
","
","""event"",""trial"",""time""
""fullscreenenter"",""0"",""4627""
","
","388.6000000014901","","","","","","","","49","0,0,0","6","blank","354","null","0.057605300226704625","0.5610825162886609","0.25811160999403043","0","","","","","","","","",""
"","html-keyboard-response","271","691276","0.0-143.0-1.0","""event"",""trial"",""time""
""fullscreenenter"",""0"",""4627""
","
","
","""event"",""trial"",""time""
""fullscreenenter"",""0"",""4627""
","
","null","<p></p>","null","","","","","","","","","","","","","","","","","","","","","","","",""
"","do_trial","272","694126","0.0-144.0-0.0","""event"",""trial"",""time""
""fullscreenenter"",""0"",""4627""
","
","
","""event"",""trial"",""time""
""fullscreenenter"",""0"",""4627""
","
","292.80000000074506","","","","","","","","49","0,0,0","6","blank","355","null","0.10510062628612073","0.5096901732682372","0.2528049516185817","0","","","","","","","","",""
"","html-keyboard-response","273","695128","0.0-144.0-1.0","""event"",""trial"",""time""
""fullscreenenter"",""0"",""4627""
","
","
","""event"",""trial"",""time""
""fullscreenenter"",""0"",""4627""
","
","null","<p></p>","null","","","","","","","","","","","","","","","","","","","","","","","",""
"","do_trial","274","697761","0.0-145.0-0.0","""event"",""trial"",""time""
""fullscreenenter"",""0"",""4627""
","
","
","""event"",""trial"",""time""
""fullscreenenter"",""0"",""4627""
","
","78.19999999925494","","","","","","","","51","0,1,0","6","blank","356","null","0.1498539548651718","0.7917379034402809","0.27973401917346574","0","","","","","","","","",""
"","html-keyboard-response","275","698763","0.0-145.0-1.0","""event"",""trial"",""time""
""fullscreenenter"",""0"",""4627""
","
","
","""event"",""trial"",""time""
""fullscreenenter"",""0"",""4627""
","
","null","<p></p>","null","","","","","","","","","","","","","","","","","","","","","","","",""
"","do_trial","276","701597","0.0-146.0-0.0","""event"",""trial"",""time""
""fullscreenenter"",""0"",""4627""
","
","
","""event"",""trial"",""time""
""fullscreenenter"",""0"",""4627""
","
","278.6000000014901","","","","","","","","50","0,0,1","6","blank","357","null","0.12628942981418648","0.7152707412415346","0.24621865856465294","0","","","","","","","","",""
"","html-keyboard-response","277","702599","0.0-146.0-1.0","""event"",""trial"",""time""
