"success","trial_type","trial_index","time_elapsed","internal_node_id","interactions","blur_events","focus_events","fullscreenenter_events","fullscreenexit_events","rt","stimulus","key_press","subject_id","participant_id","age","gender","prompt","response","choice_outcomes","context_n","context_img_id","trial_n","probe_img_id","pR_red","pR_white","pR_black","outcome","is_valid","image_to_show","probed_trial","probed_context","correct","probe","probed_trial_n","probed_context_n","context_im"
"true","fullscreen","0","2670","0.0-0.0","""event"",""trial"",""time""
""fullscreenenter"",""0"",""1680""
","
","
","""event"",""trial"",""time""
""fullscreenenter"",""0"",""1680""
","
","","","","","","","","","","","","","","","","","","","","","","","","","","",""
"","pavlovia","1","2681","0.0-1.0","""event"",""trial"",""time""
""fullscreenenter"",""0"",""1680""
","
","
","""event"",""trial"",""time""
""fullscreenenter"",""0"",""1680""
","
","","","","","","","","","","","","","","","","","","","","","","","","","","",""
"","welc_back","2","12515","0.0-2.0","""event"",""trial"",""time""
""fullscreenenter"",""0"",""1680""
","
","
","""event"",""trial"",""time""
""fullscreenenter"",""0"",""1680""
","
","null","run_exp/static/audio/clip_29_welcome_back.m4a","null","465","293","19","Female","<div class='center'><p>Welcome to day 2!</p><p> Yesterday, you were the head captain of a pirate ship. You asked your fellow pirates to rob other ships of their gold across six different islands.</p></div>","","","","","","","","","","","","","","","","","","",""
"","html-keyboard-response","3","13336","0.0-3.0","""event"",""trial"",""time""
""fullscreenenter"",""0"",""1680""
","
","
","""event"",""trial"",""time""
""fullscreenenter"",""0"",""1680""
","
","819.1000000238419","<div class='center'><p>Welcome to day 2!</p><p> Yesterday, you were the head captain of a pirate ship. You asked your fellow pirates to rob other ships of their gold across six different islands.</p><p><b>[Press the space bar to continue]</b></p></div>","32","","","","","","","","","","","","","","","","","","","","","","","",""
"","day_1_summary_goal","4","30558","0.0-4.0","""event"",""trial"",""time""
""fullscreenenter"",""0"",""1680""
","
","
","""event"",""trial"",""time""
""fullscreenenter"",""0"",""1680""
","
","null","run_exp/static/audio/clip_30_goal_of_game.m4a","null","","","","","<div class='center'><p>Today, like yesterday, you get to pick which pirate you want to rob the next ship.</p><p>If the pirate is successful in robbing a ship, you get gold coins that look like this: </p><p><img src='run_exp/static/images/tutorial/reward.png' height='150'></p><p> If they were not successful in robbing the ship, then you will get no gold coins and you'll see a big red x like this: </p><p><img src='run_exp/static/images/tutorial/reward_no.png' height='150'></p></div>","","","","","","","","","","","","","","","","","","",""
"","html-keyboard-response","5","32743","0.0-5.0","""event"",""trial"",""time""
""fullscreenenter"",""0"",""1680""
","
","
","""event"",""trial"",""time""
""fullscreenenter"",""0"",""1680""
","
","2181.7000000178814","<div class='center'><p>Today, like yesterday, you get to pick which pirate you want to rob the next ship.</p><p>If the pirate is successful in robbing a ship, you get gold coins that look like this: </p><p><img src='run_exp/static/images/tutorial/reward.png' height='150'></p><p> If they were not successful in robbing the ship, then you will get no gold coins and you'll see a big red x like this: </p><p><img src='run_exp/static/images/tutorial/reward_no.png' height='150'></p><p><b>[Press the space bar to continue]</b></p></div>","32","","","","","","","","","","","","","","","","","","","","","","","",""
"","day_1_summary_pick","6","47453","0.0-6.0","""event"",""trial"",""time""
""fullscreenenter"",""0"",""1680""
","
","
","""event"",""trial"",""time""
""fullscreenenter"",""0"",""1680""
","
","null","run_exp/static/audio/clip_31_how_to_pick_a_pirate.m4a","null","","","","","<div class='center'><p>Also, just like yesterday, you will use the 1,2,3 keys on your keyboard to pick a pirate. Press '1' to choose red beard, '2' to choose white beard, and '3' to choose black beard . You only have 3 seconds to pick a pirate, so please make a choice quickly!</p></div>","","","","","","","","","","","","","","","","","","",""
"","html-keyboard-response","7","48243","0.0-7.0","""event"",""trial"",""time""
""fullscreenenter"",""0"",""1680""
","
","
","""event"",""trial"",""time""
""fullscreenenter"",""0"",""1680""
","
","788.1999999880791","<div class='center'><p>Also, just like yesterday, you will use the 1,2,3 keys on your keyboard to pick a pirate. Press '1' to choose red beard, '2' to choose white beard, and '3' to choose black beard . You only have 3 seconds to pick a pirate, so please make a choice quickly!</p><p><b>[Press the space bar to continue]</b></p></div>","32","","","","","","","","","","","","","","","","","","","","","","","",""
"","test_phase_begin","8","78660","0.0-8.0","""event"",""trial"",""time""
""fullscreenenter"",""0"",""1680""
","
","
","""event"",""trial"",""time""
""fullscreenenter"",""0"",""1680""
","
","null","run_exp/static/audio/clip_32_final_place.m4a","null","","","","","<div class='center'><p>You’ve arrived at the final island of your journey! Unfortunately, it’s very foggy out, so you won’t be able to see it in the distance like the other islands you've visited.</p><p>You’ll still be deciding which pirate you want to rob a ship like before. However, because of the fog, you also won’t be able to see the ship.</p><p>This means you do not have to remember the ships you rob on this island.</p><p>Unlike yesterday, you won't be visiting multiple islands today. You will stay on this island for the entire game. This game will last ~30 minutes.</p></div>","","","","","","","","","","","","","","","","","","",""
"","html-keyboard-response","9","79322","0.0-9.0","""event"",""trial"",""time""
""fullscreenenter"",""0"",""1680""
","
","
","""event"",""trial"",""time""
""fullscreenenter"",""0"",""1680""
","
","660.4000000059605","<div class='center'><p>You’ve arrived at the final island of your journey! Unfortunately, it’s very foggy out, so you won’t be able to see it in the distance like the other islands you've visited.</p><p>You’ll still be deciding which pirate you want to rob a ship like before. However, because of the fog, you also won’t be able to see the ship.</p><p>This means you do not have to remember the ships you rob on this island.</p><p>Unlike yesterday, you won't be visiting multiple islands today. You will stay on this island for the entire game. This game will last ~30 minutes.</p><p><b>[Press the space bar to continue]</b></p></div>","32","","","","","","","","","","","","","","","","","","","","","","","",""
"","explain_probe_1","10","87044","0.0-10.0","""event"",""trial"",""time""
""fullscreenenter"",""0"",""1680""
","
","
","""event"",""trial"",""time""
""fullscreenenter"",""0"",""1680""
","
","null","run_exp/static/audio/clip_33_recognition_1.m4a","null","","","","","<div class='center'><p> Sometimes you’ll be shown a ship, and you will be asked if you saw this ship on a past island.</p><p> Here is an example of what you will see.</p><p><img src='run_exp/static/images/tutorial/example_recog_trial.png' height='500'></p></div>","","","","","","","","","","","","","","","","","","",""
"","html-keyboard-response","11","88108","0.0-11.0","""event"",""trial"",""time""
""fullscreenenter"",""0"",""1680""
","
","
","""event"",""trial"",""time""
""fullscreenenter"",""0"",""1680""
","
","1060.800000011921","<div class='center'><p> Sometimes you’ll be shown a ship, and you will be asked if you saw this ship on a past island.</p><p> Here is an example of what you will see.</p><p><img src='run_exp/static/images/tutorial/example_recog_trial.png' height='500'></p><p><b>[Press the space bar to continue]</b></p></div>","32","","","","","","","","","","","","","","","","","","","","","","","",""
"","explain_probe_2","12","109848","0.0-12.0","""event"",""trial"",""time""
""fullscreenenter"",""0"",""1680""
","
","
","""event"",""trial"",""time""
""fullscreenenter"",""0"",""1680""
","
","null","run_exp/static/audio/clip_34_recognition_2.m4a","null","","","","","<div class='center'><p> You will press the 5, 6, 7, 8 keys on your keyboard to respond.</p><p>If you are sure you saw the ship, press <b>5</b> on your keyboard.</p><p> If you think you saw it before but aren't sure, then press <b>6</b>.</p><p> If you think you have <b>not</b> seen it before but aren't sure, then press <b>7</b>.</p><p> If you are sure you did <b>not</b> see the ship before, then press <b>8</b>.</p><p><img src='run_exp/static/images/tutorial/example_recog_trial.png' height='500'></p></div>","","","","","","","","","","","","","","","","","","",""
"","html-keyboard-response","13","110417","0.0-13.0","""event"",""trial"",""time""
""fullscreenenter"",""0"",""1680""
","
","
","""event"",""trial"",""time""
""fullscreenenter"",""0"",""1680""
","
","566.0999999940395","<div class='center'><p> You will press the 5, 6, 7, 8 keys on your keyboard to respond.</p><p>If you are sure you saw the ship, press <b>5</b> on your keyboard.</p><p> If you think you saw it before but aren't sure, then press <b>6</b>.</p><p> If you think you have <b>not</b> seen it before but aren't sure, then press <b>7</b>.</p><p> If you are sure you did <b>not</b> see the ship before, then press <b>8</b>.</p><p><img src='run_exp/static/images/tutorial/example_recog_trial.png' height='500'></p><p><b>[Press the space bar to continue]</b></p></div>","32","","","","","","","","","","","","","","","","","","","","","","","",""
"","explain_outcome","14","127638","0.0-14.0","""event"",""trial"",""time""
""fullscreenenter"",""0"",""1680""
","
","
","""event"",""trial"",""time""
""fullscreenenter"",""0"",""1680""
","
","null","run_exp/static/audio/clip_35_recognition_3.m4a","null","","","","","<div class='center'><p> If you remember correctly, then you’ll get a gold coin like this: </p><p><img src='run_exp/static/images/tutorial/reward_small.png' height='200'></p><p>If you do not remember correctly, then you'll see a red x like this: </p><p><img src='run_exp/static/images/tutorial/reward_no.png' height='200'></p><p>Importantly, when you are shown a ship, take the time to remind yourself which island you saw it on. This will help you in the next part of the study.</p></div>","","","","","","","","","","","","","","","","","","",""
"","html-keyboard-response","15","129011","0.0-15.0","""event"",""trial"",""time""
""fullscreenenter"",""0"",""1680""
","
","
","""event"",""trial"",""time""
""fullscreenenter"",""0"",""1680""
","
","1368.800000011921","<div class='center'><p> If you remember correctly, then you’ll get a gold coin like this: </p><p><img src='run_exp/static/images/tutorial/reward_small.png' height='200'></p><p>If you do not remember correctly, then you'll see a red x like this: </p><p><img src='run_exp/static/images/tutorial/reward_no.png' height='200'></p><p>Importantly, when you are shown a ship, take the time to remind yourself which island you saw it on. This will help you in the next part of the study.</p><p><b>[Press the space bar to continue]</b></p></div>","32","","","","","","","","","","","","","","","","","","","","","","","",""
"","begin_test_phase","16","144853","0.0-16.0","""event"",""trial"",""time""
""fullscreenenter"",""0"",""1680""
","
","
","""event"",""trial"",""time""
""fullscreenenter"",""0"",""1680""
","
","null","run_exp/static/audio/clip_36_begin_final.m4a","null","","","","","<div class='center'><p>Let's go over the important points again. Your job is to: </p><p>1. Pick the pirate who is best at robbing ships and will bring you back gold coins. </p><p>2. Correctly remember whether or not you saw a ship before. If you did see the ship before, remind yourself on which island you saw it. </p></div>","","","","","","","","","","","","","","","","","","",""
"","html-keyboard-response","17","145292","0.0-17.0","""event"",""trial"",""time""
""fullscreenenter"",""0"",""1680""
","
","
","""event"",""trial"",""time""
""fullscreenenter"",""0"",""1680""
","
","349.90000000596046","<div class='center'><p>Let's go over the important points again. Your job is to: </p><p>1. Pick the pirate who is best at robbing ships and will bring you back gold coins. </p><p>2. Correctly remember whether or not you saw a ship before. If you did see the ship before, remind yourself on which island you saw it. </p><p><b>[Press the space bar to continue]</b></p></div>","32","","","","","","","","","","","","","","","","","","","","","","","",""
"","do_welcome","18","149314","0.0-18.0","""event"",""trial"",""time""
""fullscreenenter"",""0"",""1680""
","
","
","""event"",""trial"",""time""
""fullscreenenter"",""0"",""1680""
","
","null","","","","","","","","null","","","","","","","","","","","","","","","","","",""
"","do_trial","19","154548","0.0-19.0-0.0","""event"",""trial"",""time""
""fullscreenenter"",""0"",""1680""
","
","
","""event"",""trial"",""time""
""fullscreenenter"",""0"",""1680""
","
","2656.600000023842","","","","","","","","49","1,1,1","6","blank","230","null","0.1583176731242639","0.6709737879000062","0.4436499416355043","1","","","","","","","","",""
"","html-keyboard-response","20","155556","0.0-19.0-1.0","""event"",""trial"",""time""
""fullscreenenter"",""0"",""1680""
","
","
","""event"",""trial"",""time""
""fullscreenenter"",""0"",""1680""
","
","null","<p></p>","null","","","","","","","","","","","","","","","","","","","","","","","",""
"","do_trial","21","159191","0.0-20.0-0.0","""event"",""trial"",""time""
""fullscreenenter"",""0"",""1680""
","
","
","""event"",""trial"",""time""
""fullscreenenter"",""0"",""1680""
","
","1066","","","","","","","","50","0,1,1","6","blank","231","null","0.09589364021365829","0.5431515352676156","0.4396561229738103","1","","","","","","","","",""
"","html-keyboard-response","22","160196","0.0-20.0-1.0","""event"",""trial"",""time""
""fullscreenenter"",""0"",""1680""
","
","
","""event"",""trial"",""time""
""fullscreenenter"",""0"",""1680""
","
","null","<p></p>","null","","","","","","","","","","","","","","","","","","","","","","","",""
"","do_trial","23","163074","0.0-21.0-0.0","""event"",""trial"",""time""
""fullscreenenter"",""0"",""1680""
","
","
","""event"",""trial"",""time""
""fullscreenenter"",""0"",""1680""
","
","306.90000000596046","","","","","","","","51","0,1,0","6","blank","232","null","0.09848820620155266","0.5627042446632288","0.32951985640463216","0","","","","","","","","",""
"","html-keyboard-response","24","164081","0.0-21.0-1.0","""event"",""trial"",""time""
""fullscreenenter"",""0"",""1680""
","
","
","""event"",""trial"",""time""
""fullscreenenter"",""0"",""1680""
","
","null","<p></p>","null","","","","","","","","","","","","","","","","","","","","","","","",""
"","do_trial","25","166967","0.0-22.0-0.0","""event"",""trial"",""time""
""fullscreenenter"",""0"",""1680""
","
","
","""event"",""trial"",""time""
""fullscreenenter"",""0"",""1680""
","
","313.69999998807907","","","","","","","","50","0,1,1","6","blank","233","null","0.10112485723122515","0.5611576611445023","0.13846384723512845","1","","","","","","","","",""
"","html-keyboard-response","26","167973","0.0-22.0-1.0","""event"",""trial"",""time""
""fullscreenenter"",""0"",""1680""
","
","
","""event"",""trial"",""time""
""fullscreenenter"",""0"",""1680""
","
","null","<p></p>","null","","","","","","","","","","","","","","","","","","","","","","","",""
"","do_trial","27","171210","0.0-23.0-0.0","""event"",""trial"",""time""
""fullscreenenter"",""0"",""1680""
","
","
","""event"",""trial"",""time""
""fullscreenenter"",""0"",""1680""
","
","666.7999999821186","","","","","","","","49","0,1,0","6","blank","234","null","0.07638777037054008","0.5844964822461738","0.12394668940636579","0","","","","","","","","",""
"","html-keyboard-response","28","172216","0.0-23.0-1.0","""event"",""trial"",""time""
""fullscreenenter"",""0"",""1680""
","
","
","""event"",""trial"",""time""
""fullscreenenter"",""0"",""1680""
","
","null","<p></p>","null","","","","","","","","","","","","","","","","","","","","","","","",""
"","do_trial","29","175083","0.0-24.0-0.0","""event"",""trial"",""time""
""fullscreenenter"",""0"",""1680""
","
","
","""event"",""trial"",""time""
""fullscreenenter"",""0"",""1680""
","
","300.19999998807907","","","","","","","","50","1,0,0","6","blank","235","null","0.12134874012129947","0.5917168557001509","0.338699660035552","0","","","","","","","","",""
"","html-keyboard-response","30","176086","0.0-24.0-1.0","""event"",""trial"",""time""
""fullscreenenter"",""0"",""1680""
","
","
","""event"",""trial"",""time""
""fullscreenenter"",""0"",""1680""
","
","null","<p></p>","null","","","","","","","","","","","","","","","","","","","","","","","",""
"","do_trial","31","179126","0.0-25.0-0.0","""event"",""trial"",""time""
""fullscreenenter"",""0"",""1680""
","
","
","""event"",""trial"",""time""
""fullscreenenter"",""0"",""1680""
","
","473.30000001192093","","","","","","","","51","0,1,0","6","blank","236","null","0.1017226229066749","0.5107919160506682","0.2457176439343943","0","","","","","","","","",""
"","html-keyboard-response","32","180131","0.0-25.0-1.0","""event"",""trial"",""time""
""fullscreenenter"",""0"",""1680""
","
","
","""event"",""trial"",""time""
""fullscreenenter"",""0"",""1680""
","
","null","<p></p>","null","","","","","","","","","","","","","","","","","","","","","","","",""
"","do_trial","33","182963","0.0-26.0-0.0","""event"",""trial"",""time""
""fullscreenenter"",""0"",""1680""
","
","
","""event"",""trial"",""time""
""fullscreenenter"",""0"",""1680""
","
","263","","","","","","","","49","1,0,1","6","blank","237","null","0.15362815803024746","0.6097601301299197","0.2550366548637663","1","","","","","","","","",""
"","html-keyboard-response","34","183969","0.0-26.0-1.0","""event"",""trial"",""time""
""fullscreenenter"",""0"",""1680""
","
","
","""event"",""trial"",""time""
""fullscreenenter"",""0"",""1680""
","
","null","<p></p>","null","","","","","","","","","","","","","","","","","","","","","","","",""
"","do_trial","35","186786","0.0-27.0-0.0","""event"",""trial"",""time""
""fullscreenenter"",""0"",""1680""
","
","
","""event"",""trial"",""time""
""fullscreenenter"",""0"",""1680""
","
","259.59999999403954","","","","","","","","51","0,1,0","6","blank","238","null","0.14303535408257345","0.5138731427293621","0.26393757010693353","0","","","","","","","","",""
"","html-keyboard-response","36","187792","0.0-27.0-1.0","""event"",""trial"",""time""
""fullscreenenter"",""0"",""1680""
","
","
","""event"",""trial"",""time""
""fullscreenenter"",""0"",""1680""
","
","null","<p></p>","null","","","","","","","","","","","","","","","","","","","","","","","",""
"","do_trial","37","190651","0.0-28.0-0.0","""event"",""trial"",""time""
""fullscreenenter"",""0"",""1680""
","
","
","""event"",""trial"",""time""
""fullscreenenter"",""0"",""1680""
","
","292.60000002384186","","","","","","","","50","0,1,0","6","blank","239","null","0.23147784147618986","0.5872826853174419","0.28200660523328624","1","","","","","","","","",""
"","html-keyboard-response","38","191655","0.0-28.0-1.0","""event"",""trial"",""time""
""fullscreenenter"",""0"",""1680""
","
","
","""event"",""trial"",""time""
""fullscreenenter"",""0"",""1680""
","
","null","<p></p>","null","","","","","","","","","","","","","","","","","","","","","","","",""
"","do_trial","39","194499","0.0-29.0-0.0","""event"",""trial"",""time""
""fullscreenenter"",""0"",""1680""
","
","
","""event"",""trial"",""time""
""fullscreenenter"",""0"",""1680""
","
","277.5","","","","","","","","49","1,1,0","6","blank","240","null","0.26813926063459714","0.6067966210795599","0.34303713678415704","1","","","","","","","","",""
"","html-keyboard-response","40","195504","0.0-29.0-1.0","""event"",""trial"",""time""
""fullscreenenter"",""0"",""1680""
","
","
","""event"",""trial"",""time""
""fullscreenenter"",""0"",""1680""
","
","null","<p></p>","null","","","","","","","","","","","","","","","","","","","","","","","",""
"","do_trial","41","198352","0.0-30.0-0.0","""event"",""trial"",""time""
""fullscreenenter"",""0"",""1680""
","
","
","""event"",""trial"",""time""
""fullscreenenter"",""0"",""1680""
","
","283.40000000596046","","","","","","","","50","0,1,1","6","blank","241","null","0.3357026793814751","0.6249123760818269","0.42985712827555217","1","","","","","","","","",""
"","html-keyboard-response","42","199359","0.0-30.0-1.0","""event"",""trial"",""time""
""fullscreenenter"",""0"",""1680""
","
","
","""event"",""trial"",""time""
""fullscreenenter"",""0"",""1680""
","
","null","<p></p>","null","","","","","","","","","","","","","","","","","","","","","","","",""
"","do_trial","43","202247","0.0-31.0-0.0","""event"",""trial"",""time""
""fullscreenenter"",""0"",""1680""
","
","
","""event"",""trial"",""time""
""fullscreenenter"",""0"",""1680""
","
","318.90000000596046","","","","","","","","50","1,0,1","6","blank","242","null","0.4309926785155333","0.48347173782039393","0.4544542855761211","0","","","","","","","","",""
"","html-keyboard-response","44","203251","0.0-31.0-1.0","""event"",""trial"",""time""
""fullscreenenter"",""0"",""1680""
","
","
","""event"",""trial"",""time""
""fullscreenenter"",""0"",""1680""
","
","null","<p></p>","null","","","","","","","","","","","","","","","","","","","","","","","",""
"","do_trial","45","206085","0.0-32.0-0.0","""event"",""trial"",""time""
""fullscreenenter"",""0"",""1680""
","
","
","""event"",""trial"",""time""
""fullscreenenter"",""0"",""1680""
","
","264.39999997615814","","","","","","","","50","1,0,0","6","blank","243","null","0.48151029097017445","0.44825027002091783","0.3329890956220018","0","","","","","","","","",""
"","html-keyboard-response","46","207092","0.0-32.0-1.0","""event"",""trial"",""time""
""fullscreenenter"",""0"",""1680""
","
","
","""event"",""trial"",""time""
""fullscreenenter"",""0"",""1680""
","
","null","<p></p>","null","","","","","","","","","","","","","","","","","","","","","","","",""
"","do_trial","47","209936","0.0-33.0-0.0","""event"",""trial"",""time""
""fullscreenenter"",""0"",""1680""
","
","
","""event"",""trial"",""time""
""fullscreenenter"",""0"",""1680""
","
","273.7000000178814","","","","","","","","49","1,1,0","6","blank","244","null","0.640161354464006","0.2756505778605221","0.3210048854958798","1","","","","","","","","",""
"","html-keyboard-response","48","210938","0.0-33.0-1.0","""event"",""trial"",""time""
""fullscreenenter"",""0"",""1680""
","
","
","""event"",""trial"",""time""
""fullscreenenter"",""0"",""1680""
","
","null","<p></p>","null","","","","","","","","","","","","","","","","","","","","","","","",""
"","do_trial","49","213781","0.0-34.0-0.0","""event"",""trial"",""time""
""fullscreenenter"",""0"",""1680""
","
","
","""event"",""trial"",""time""
""fullscreenenter"",""0"",""1680""
","
","277.60000002384186","","","","","","","","50","1,0,0","6","blank","245","null","0.5996276459469406","0.10610770609518447","0.4017533376297262","0","","","","","","","","",""
"","html-keyboard-response","50","214784","0.0-34.0-1.0","""event"",""trial"",""time""
""fullscreenenter"",""0"",""1680""
","
","
","""event"",""trial"",""time""
""fullscreenenter"",""0"",""1680""
","
","null","<p></p>","null","","","","","","","","","","","","","","","","","","","","","","","",""
"","do_recog","51","220796","0.0-35.0-0.0","""event"",""trial"",""time""
""fullscreenenter"",""0"",""1680""
","
","
","""event"",""trial"",""time""
""fullscreenenter"",""0"",""1680""
","
","null","","","","","","","","null","","","","246","probe-65","","","","","1","[object Object]","78","1","0","","","",""
"","html-keyboard-response","52","221802","0.0-35.0-1.0","""event"",""trial"",""time""
""fullscreenenter"",""0"",""1680""
","
","
","""event"",""trial"",""time""
""fullscreenenter"",""0"",""1680""
","
","null","<p></p>","null","","","","","","","","","","","","","","","","","","","","","","","",""
"","do_trial","53","225443","0.0-36.0-0.0","""event"",""trial"",""time""
""fullscreenenter"",""0"",""1680""
","
","
","""event"",""trial"",""time""
""fullscreenenter"",""0"",""1680""
","
","1075","","","","","","","","49","1,0,1","6","blank","247","null","0.5594024209502291","0.15622840672050967","0.4022046873577827","1","","","","","","","","",""
"","html-keyboard-response","54","226449","0.0-36.0-1.0","""event"",""trial"",""time""
""fullscreenenter"",""0"",""1680""
","
","
","""event"",""trial"",""time""
""fullscreenenter"",""0"",""1680""
","
","null","<p></p>","null","","","","","","","","","","","","","","","","","","","","","","","",""
"","do_recog","55","230119","0.0-37.0-0.0","""event"",""trial"",""time""
""fullscreenenter"",""0"",""1680""
","
","
","""event"",""trial"",""time""
""fullscreenenter"",""0"",""1680""
","
","2157","","","","","","","","56","","","","248","probe-144","","","","","1","[object Object]","35","0","0","","","",""
"","html-keyboard-response","56","231126","0.0-37.0-1.0","""event"",""trial"",""time""
""fullscreenenter"",""0"",""1680""
","
","
","""event"",""trial"",""time""
""fullscreenenter"",""0"",""1680""
","
","null","<p></p>","null","","","","","","","","","","","","","","","","","","","","","","","",""
"","do_trial","57","235552","0.0-38.0-0.0","""event"",""trial"",""time""
""fullscreenenter"",""0"",""1680""
","
","
","""event"",""trial"",""time""
""fullscreenenter"",""0"",""1680""
","
","1855.4000000059605","","","","","","","","49","1,1,0","6","blank","249","null","0.5780108980256069","0.12952991205649889","0.47219210374466486","1","","","","","","","","",""
"","html-keyboard-response","58","236557","0.0-38.0-1.0","""event"",""trial"",""time""
""fullscreenenter"",""0"",""1680""
","
","
","""event"",""trial"",""time""
""fullscreenenter"",""0"",""1680""
","
","null","<p></p>","null","","","","","","","","","","","","","","","","","","","","","","","",""
"","do_trial","59","239438","0.0-39.0-0.0","""event"",""trial"",""time""
""fullscreenenter"",""0"",""1680""
","
","
","""event"",""trial"",""time""
""fullscreenenter"",""0"",""1680""
","
","309.7999999821186","","","","","","","","50","0,1,0","6","blank","250","null","0.6231583354947603","0.19183780470412307","0.4518846764995204","1","","","","","","","","",""
"","html-keyboard-response","60","240444","0.0-39.0-1.0","""event"",""trial"",""time""
""fullscreenenter"",""0"",""1680""
","
","
","""event"",""trial"",""time""
""fullscreenenter"",""0"",""1680""
","
","null","<p></p>","null","","","","","","","","","","","","","","","","","","","","","","","",""
"","do_trial","61","243695","0.0-40.0-0.0","""event"",""trial"",""time""
""fullscreenenter"",""0"",""1680""
","
","
","""event"",""trial"",""time""
""fullscreenenter"",""0"",""1680""
","
","681.9000000059605","","","","","","","","50","0,0,1","6","blank","251","null","0.42852714885831206","0.2123592796180666","0.36554117746342746","0","","","","","","","","",""
"","html-keyboard-response","62","244700","0.0-40.0-1.0","""event"",""trial"",""time""
""fullscreenenter"",""0"",""1680""
","
","
","""event"",""trial"",""time""
""fullscreenenter"",""0"",""1680""
","
","null","<p></p>","null","","","","","","","","","","","","","","","","","","","","","","","",""
"","do_trial","63","247563","0.0-41.0-0.0","""event"",""trial"",""time""
""fullscreenenter"",""0"",""1680""
","
","
","""event"",""trial"",""time""
""fullscreenenter"",""0"",""1680""
","
","306.90000000596046","","","","","","","","51","0,1,0","6","blank","252","null","0.5631123723278851","0.13383803751546036","0.2604384112125734","0","","","","","","","","",""
"","html-keyboard-response","64","248569","0.0-41.0-1.0","""event"",""trial"",""time""
""fullscreenenter"",""0"",""1680""
","
","
","""event"",""trial"",""time""
""fullscreenenter"",""0"",""1680""
","
","null","<p></p>","null","","","","","","","","","","","","","","","","","","","","","","","",""
"","do_trial","65","251145","0.0-42.0-0.0","""event"",""trial"",""time""
""fullscreenenter"",""0"",""1680""
","
","
","""event"",""trial"",""time""
""fullscreenenter"",""0"",""1680""
","
","0.19999998807907104","","","","","","","","49","1,1,0","6","blank","253","null","0.5344578901845669","0.14380931283445716","0.288613308756015","1","","","","","","","","",""
"","html-keyboard-response","66","252148","0.0-42.0-1.0","""event"",""trial"",""time""
""fullscreenenter"",""0"",""1680""
","
","
","""event"",""trial"",""time""
""fullscreenenter"",""0"",""1680""
","
","null","<p></p>","null","","","","","","","","","","","","","","","","","","","","","","","",""
"","do_trial","67","254966","0.0-43.0-0.0","""event"",""trial"",""time""
""fullscreenenter"",""0"",""1680""
","
","
","""event"",""trial"",""time""
""fullscreenenter"",""0"",""1680""
","
","249.5","","","","","","","","49","1,0,0","6","blank","254","null","0.48001957540600304","0.053998643830041076","0.361068088955839","1","","","","","","","","",""
"","html-keyboard-response","68","255971","0.0-43.0-1.0","""event"",""trial"",""time""
""fullscreenenter"",""0"",""1680""
","
","
","""event"",""trial"",""time""
""fullscreenenter"",""0"",""1680""
","
","null","<p></p>","null","","","","","","","","","","","","","","","","","","","","","","","",""
"","do_trial","69","258971","0.0-44.0-0.0","""event"",""trial"",""time""
""fullscreenenter"",""0"",""1680""
","
","
","""event"",""trial"",""time""
""fullscreenenter"",""0"",""1680""
","
","427.19999998807907","","","","","","","","49","1,1,1","6","blank","255","null","0.593520926270667","0.18025296876377528","0.2985776670777561","1","","","","","","","","",""
"","html-keyboard-response","70","259976","0.0-44.0-1.0","""event"",""trial"",""time""
""fullscreenenter"",""0"",""1680""
","
","
","""event"",""trial"",""time""
""fullscreenenter"",""0"",""1680""
","
","null","<p></p>","null","","","","","","","","","","","","","","","","","","","","","","","",""
"","do_recog","71","263042","0.0-45.0-0.0","""event"",""trial"",""time""
""fullscreenenter"",""0"",""1680""
","
","
","""event"",""trial"",""time""
""fullscreenenter"",""0"",""1680""
","
","1547.800000011921","","","","","","","","53","","","","256","probe-227","","","","","1","[object Object]","192","4","1","","","",""
"","html-keyboard-response","72","264048","0.0-45.0-1.0","""event"",""trial"",""time""
""fullscreenenter"",""0"",""1680""
","
","
","""event"",""trial"",""time""
""fullscreenenter"",""0"",""1680""
","
","null","<p></p>","null","","","","","","","","","","","","","","","","","","","","","","","",""
"","do_trial","73","267444","0.0-46.0-0.0","""event"",""trial"",""time""
""fullscreenenter"",""0"",""1680""
","
","
","""event"",""trial"",""time""
""fullscreenenter"",""0"",""1680""
","
","823.9000000059605","","","","","","","","49","0,0,1","6","blank","257","null","0.5011421723229186","0.07916886410205193","0.2998216642493671","0","","","","","","","","",""
"","html-keyboard-response","74","268448","0.0-46.0-1.0","""event"",""trial"",""time""
""fullscreenenter"",""0"",""1680""
","
","
","""event"",""trial"",""time""
""fullscreenenter"",""0"",""1680""
","
","null","<p></p>","null","","","","","","","","","","","","","","","","","","","","","","","",""
"","do_recog","75","271098","0.0-47.0-0.0","""event"",""trial"",""time""
""fullscreenenter"",""0"",""1680""
","
","
","""event"",""trial"",""time""
""fullscreenenter"",""0"",""1680""
","
","1136.7999999821186","","","","","","","","53","","","","258","probe-192","","","","","1","[object Object]","115","2","1","","","",""
"","html-keyboard-response","76","272102","0.0-47.0-1.0","""event"",""trial"",""time""
""fullscreenenter"",""0"",""1680""
","
","
","""event"",""trial"",""time""
""fullscreenenter"",""0"",""1680""
","
","null","<p></p>","null","","","","","","","","","","","","","","","","","","","","","","","",""
"","do_trial","77","275179","0.0-48.0-0.0","""event"",""trial"",""time""
""fullscreenenter"",""0"",""1680""
","
","
","""event"",""trial"",""time""
""fullscreenenter"",""0"",""1680""
","
","537","","","","","","","","50","0,0,0","6","blank","259","null","0.5460028414749298","0.19808964549590946","0.3763692105570047","0","","","","","","","","",""
"","html-keyboard-response","78","276181","0.0-48.0-1.0","""event"",""trial"",""time""
""fullscreenenter"",""0"",""1680""
","
","
","""event"",""trial"",""time""
""fullscreenenter"",""0"",""1680""
","
","null","<p></p>","null","","","","","","","","","","","","","","","","","","","","","","","",""
"","do_recog","79","279012","0.0-49.0-0.0","""event"",""trial"",""time""
""fullscreenenter"",""0"",""1680""
","
","
","""event"",""trial"",""time""
""fullscreenenter"",""0"",""1680""
","
","1317.7000000178814","","","","","","","","53","","","","260","probe-177","","","","","1","[object Object]","116","2","1","","","",""
"","html-keyboard-response","80","280017","0.0-49.0-1.0","""event"",""trial"",""time""
""fullscreenenter"",""0"",""1680""
","
","
","""event"",""trial"",""time""
""fullscreenenter"",""0"",""1680""
","
","null","<p></p>","null","","","","","","","","","","","","","","","","","","","","","","","",""
"","do_trial","81","283140","0.0-50.0-0.0","""event"",""trial"",""time""
""fullscreenenter"",""0"",""1680""
","
","
","""event"",""trial"",""time""
""fullscreenenter"",""0"",""1680""
","
","557","","","","","","","","49","1,0,0","6","blank","261","null","0.5273940764353732","0.20969772537831585","0.26393170404576344","1","","","","","","","","",""
"","html-keyboard-response","82","284147","0.0-50.0-1.0","""event"",""trial"",""time""
""fullscreenenter"",""0"",""1680""
","
","
","""event"",""trial"",""time""
""fullscreenenter"",""0"",""1680""
","
","null","<p></p>","null","","","","","","","","","","","","","","","","","","","","","","","",""
"","do_recog","83","287106","0.0-51.0-0.0","""event"",""trial"",""time""
""fullscreenenter"",""0"",""1680""
","
","
","""event"",""trial"",""time""
""fullscreenenter"",""0"",""1680""
","
","1448.9000000059605","","","","","","","","55","","","","262","probe-250","","","","","0","[object Object]","null","null","1","","","",""
"","html-keyboard-response","84","288114","0.0-51.0-1.0","""event"",""trial"",""time""
""fullscreenenter"",""0"",""1680""
","
","
","""event"",""trial"",""time""
""fullscreenenter"",""0"",""1680""
","
","null","<p></p>","null","","","","","","","","","","","","","","","","","","","","","","","",""
"","do_trial","85","291187","0.0-52.0-0.0","""event"",""trial"",""time""
""fullscreenenter"",""0"",""1680""
","
","
","""event"",""trial"",""time""
""fullscreenenter"",""0"",""1680""
","
","505.19999998807907","","","","","","","","49","0,0,1","6","blank","263","null","0.6458776114424906","0.16789903520265578","0.36597176568633827","0","","","","","","","","",""
"","html-keyboard-response","86","292191","0.0-52.0-1.0","""event"",""trial"",""time""
""fullscreenenter"",""0"",""1680""
","
","
","""event"",""trial"",""time""
""fullscreenenter"",""0"",""1680""
","
","null","<p></p>","null","","","","","","","","","","","","","","","","","","","","","","","",""
"","do_recog","87","294988","0.0-53.0-0.0","""event"",""trial"",""time""
""fullscreenenter"",""0"",""1680""
","
","
","""event"",""trial"",""time""
""fullscreenenter"",""0"",""1680""
","
","1286.4000000059605","","","","","","","","55","","","","264","probe-54","","","","","1","[object Object]","34","0","0","","","",""
"","html-keyboard-response","88","295990","0.0-53.0-1.0","""event"",""trial"",""time""
""fullscreenenter"",""0"",""1680""
","
","
","""event"",""trial"",""time""
""fullscreenenter"",""0"",""1680""
","
","null","<p></p>","null","","","","","","","","","","","","","","","","","","","","","","","",""
"","do_trial","89","299079","0.0-54.0-0.0","""event"",""trial"",""time""
""fullscreenenter"",""0"",""1680""
","
","
","""event"",""trial"",""time""
""fullscreenenter"",""0"",""1680""
","
","524.3000000119209","","","","","","","","51","0,0,1","6","blank","265","null","0.6717126615594738","0.3231934263917173","0.36634595148121835","1","","","","","","","","",""
"","html-keyboard-response","90","300085","0.0-54.0-1.0","""event"",""trial"",""time""
""fullscreenenter"",""0"",""1680""
","
","
","""event"",""trial"",""time""
""fullscreenenter"",""0"",""1680""
","
","null","<p></p>","null","","","","","","","","","","","","","","","","","","","","","","","",""
"","do_recog","91","302716","0.0-55.0-0.0","""event"",""trial"",""time""
""fullscreenenter"",""0"",""1680""
","
","
","""event"",""trial"",""time""
""fullscreenenter"",""0"",""1680""
","
","1122.199999988079","","","","","","","","53","","","","266","probe-145","","","","","1","[object Object]","111","2","1","","","",""
"","html-keyboard-response","92","303721","0.0-55.0-1.0","""event"",""trial"",""time""
""fullscreenenter"",""0"",""1680""
","
","
","""event"",""trial"",""time""
""fullscreenenter"",""0"",""1680""
","
","null","<p></p>","null","","","","","","","","","","","","","","","","","","","","","","","",""
"","do_trial","93","306917","0.0-56.0-0.0","""event"",""trial"",""time""
""fullscreenenter"",""0"",""1680""
","
","
","""event"",""trial"",""time""
""fullscreenenter"",""0"",""1680""
","
","629.5","","","","","","","","49","1,1,1","6","blank","267","null","0.6262788099394839","0.15580677318250255","0.3981296805122699","1","","","","","","","","",""
"","html-keyboard-response","94","307924","0.0-56.0-1.0","""event"",""trial"",""time""
""fullscreenenter"",""0"",""1680""
","
","
","""event"",""trial"",""time""
""fullscreenenter"",""0"",""1680""
","
","null","<p></p>","null","","","","","","","","","","","","","","","","","","","","","","","",""
"","do_recog","95","310740","0.0-57.0-0.0","""event"",""trial"",""time""
""fullscreenenter"",""0"",""1680""
","
","
","""event"",""trial"",""time""
""fullscreenenter"",""0"",""1680""
","
","1302.2000000178814","","","","","","","","53","","","","268","probe-71","","","","","1","[object Object]","198","4","1","","","",""
"","html-keyboard-response","96","311747","0.0-57.0-1.0","""event"",""trial"",""time""
""fullscreenenter"",""0"",""1680""
","
","
","""event"",""trial"",""time""
""fullscreenenter"",""0"",""1680""
","
","null","<p></p>","null","","","","","","","","","","","","","","","","","","","","","","","",""
"","break","97","431751","0.0-58.0-0.0","""event"",""trial"",""time""
""fullscreenenter"",""0"",""1680""
","
","
","""event"",""trial"",""time""
""fullscreenenter"",""0"",""1680""
","
","null","<div class='center'><p>Time to take a quick break! You have 2 minutes to rest, but you can move on sooner if you'd like.</p><p> Press the <b>space bar</b> to continue.</p></div>","null","","","","","","","","","","","","","","","","","","","","","","","",""
"","do_trial","98","436634","0.0-58.0-1.0","""event"",""trial"",""time""
""fullscreenenter"",""0"",""1680""
","
","
","""event"",""trial"",""time""
""fullscreenenter"",""0"",""1680""
","
","2315.699999988079","","","","","","","","50","1,0,1","6","blank","269","null","0.6074093619567031","0.15640486028846382","0.5000258158298135","0","","","","","","","","",""
"","html-keyboard-response","99","437637","0.0-58.0-2.0","""event"",""trial"",""time""
""fullscreenenter"",""0"",""1680""
","
","
","""event"",""trial"",""time""
""fullscreenenter"",""0"",""1680""
","
","null","<p></p>","null","","","","","","","","","","","","","","","","","","","","","","","",""
"","do_recog","100","440550","0.0-59.0-0.0","""event"",""trial"",""time""
""fullscreenenter"",""0"",""1680""
","
","
","""event"",""trial"",""time""
""fullscreenenter"",""0"",""1680""
","
","1402.1000000238419","","","","","","","","54","","","","270","probe-68","","","","","1","[object Object]","153","3","1","","","",""
"","html-keyboard-response","101","441555","0.0-59.0-1.0","""event"",""trial"",""time""
""fullscreenenter"",""0"",""1680""
","
","
","""event"",""trial"",""time""
""fullscreenenter"",""0"",""1680""
","
","null","<p></p>","null","","","","","","","","","","","","","","","","","","","","","","","",""
"","do_trial","102","444602","0.0-60.0-0.0","""event"",""trial"",""time""
""fullscreenenter"",""0"",""1680""
","
","
","""event"",""trial"",""time""
""fullscreenenter"",""0"",""1680""
","
","479.2999999821186","","","","","","","","49","0,0,1","6","blank","271","null","0.6970272475521853","0.1339928931256097","0.380736185727519","0","","","","","","","","",""
"","html-keyboard-response","103","445606","0.0-60.0-1.0","""event"",""trial"",""time""
""fullscreenenter"",""0"",""1680""
","
","
","""event"",""trial"",""time""
""fullscreenenter"",""0"",""1680""
","
","null","<p></p>","null","","","","","","","","","","","","","","","","","","","","","","","",""
"","do_recog","104","448297","0.0-61.0-0.0","""event"",""trial"",""time""
""fullscreenenter"",""0"",""1680""
","
","
","""event"",""trial"",""time""
""fullscreenenter"",""0"",""1680""
","
","1182","","","","","","","","54","","","","272","probe-69","","","","","1","[object Object]","159","3","1","","","",""
"","html-keyboard-response","105","449301","0.0-61.0-1.0","""event"",""trial"",""time""
""fullscreenenter"",""0"",""1680""
","
","
","""event"",""trial"",""time""
""fullscreenenter"",""0"",""1680""
","
","null","<p></p>","null","","","","","","","","","","","","","","","","","","","","","","","",""
"","do_trial","106","452282","0.0-62.0-0.0","""event"",""trial"",""time""
""fullscreenenter"",""0"",""1680""
","
","
","""event"",""trial"",""time""
""fullscreenenter"",""0"",""1680""
","
","416","","","","","","","","50","1,0,1","6","blank","273","null","0.6416015598214968","0.31147786509617675","0.2130633709992955","0","","","","","","","","",""
"","html-keyboard-response","107","453284","0.0-62.0-1.0","""event"",""trial"",""time""
""fullscreenenter"",""0"",""1680""
","
","
","""event"",""trial"",""time""
""fullscreenenter"",""0"",""1680""
","
","null","<p></p>","null","","","","","","","","","","","","","","","","","","","","","","","",""
"","do_recog","108","456234","0.0-63.0-0.0","""event"",""trial"",""time""
""fullscreenenter"",""0"",""1680""
","
","
","""event"",""trial"",""time""
""fullscreenenter"",""0"",""1680""
","
","1433.3999999761581","","","","","","","","54","","","","274","probe-234","","","","","0","[object Object]","null","null","0","","","",""
"","html-keyboard-response","109","457238","0.0-63.0-1.0","""event"",""trial"",""time""
""fullscreenenter"",""0"",""1680""
","
","
","""event"",""trial"",""time""
""fullscreenenter"",""0"",""1680""
","
","null","<p></p>","null","","","","","","","","","","","","","","","","","","","","","","","",""
"","do_trial","110","460701","0.0-64.0-0.0","""event"",""trial"",""time""
""fullscreenenter"",""0"",""1680""
","
","
","""event"",""trial"",""time""
""fullscreenenter"",""0"",""1680""
","
","895.5","","","","","","","","51","1,0,0","6","blank","275","null","0.6550632263276457","0.35543087105196963","0.14988002882779644","0","","","","","","","","",""
"","html-keyboard-response","111","461705","0.0-64.0-1.0","""event"",""trial"",""time""
""fullscreenenter"",""0"",""1680""
","
","
","""event"",""trial"",""time""
""fullscreenenter"",""0"",""1680""
","
","null","<p></p>","null","","","","","","","","","","","","","","","","","","","","","","","",""
"","do_recog","112","464485","0.0-65.0-0.0","""event"",""trial"",""time""
""fullscreenenter"",""0"",""1680""
","
","
","""event"",""trial"",""time""
""fullscreenenter"",""0"",""1680""
","
","1269.2000000178814","","","","","","","","55","","","","276","probe-239","","","","","0","[object Object]","null","null","1","","","",""
"","html-keyboard-response","113","465489","0.0-65.0-1.0","""event"",""trial"",""time""
""fullscreenenter"",""0"",""1680""
","
","
","""event"",""trial"",""time""
""fullscreenenter"",""0"",""1680""
","
","null","<p></p>","null","","","","","","","","","","","","","","","","","","","","","","","",""
"","do_trial","114","468704","0.0-66.0-0.0","""event"",""trial"",""time""
""fullscreenenter"",""0"",""1680""
","
","
","""event"",""trial"",""time""
""fullscreenenter"",""0"",""1680""
","
","647.1999999880791","","","","","","","","49","0,1,0","6","blank","277","null","0.4666690454244337","0.3675869725837926","0.12001239207590969","0","","","","","","","","",""
"","html-keyboard-response","115","469706","0.0-66.0-1.0","""event"",""trial"",""time""
""fullscreenenter"",""0"",""1680""
","
","
","""event"",""trial"",""time""
""fullscreenenter"",""0"",""1680""
","
","null","<p></p>","null","","","","","","","","","","","","","","","","","","","","","","","",""
"","do_trial","116","472937","0.0-67.0-0.0","""event"",""trial"",""time""
""fullscreenenter"",""0"",""1680""
","
","
","""event"",""trial"",""time""
""fullscreenenter"",""0"",""1680""
","
","658.6000000238419","","","","","","","","50","0,0,0","6","blank","278","null","0.5323701532885207","0.3386584863970094","0.09145913103747491","0","","","","","","","","",""
"","html-keyboard-response","117","473940","0.0-67.0-1.0","""event"",""trial"",""time""
""fullscreenenter"",""0"",""1680""
","
","
","""event"",""trial"",""time""
""fullscreenenter"",""0"",""1680""
","
","null","<p></p>","null","","","","","","","","","","","","","","","","","","","","","","","",""
"","do_trial","118","476947","0.0-68.0-0.0","""event"",""trial"",""time""
""fullscreenenter"",""0"",""1680""
","
","
","""event"",""trial"",""time""
""fullscreenenter"",""0"",""1680""
","
","444","","","","","","","","51","1,1,0","6","blank","279","null","0.4399802629934218","0.2546249244488795","0.11727218295225476","0","","","","","","","","",""
"","html-keyboard-response","119","477952","0.0-68.0-1.0","""event"",""trial"",""time""
""fullscreenenter"",""0"",""1680""
","
","
","""event"",""trial"",""time""
""fullscreenenter"",""0"",""1680""
","
","null","<p></p>","null","","","","","","","","","","","","","","","","","","","","","","","",""
"","do_trial","120","480944","0.0-69.0-0.0","""event"",""trial"",""time""
""fullscreenenter"",""0"",""1680""
","
","
","""event"",""trial"",""time""
""fullscreenenter"",""0"",""1680""
","
","423.69999998807907","","","","","","","","49","0,0,0","6","blank","280","null","0.5567386092933677","0.14930981336764013","0.23602537826750017","0","","","","","","","","",""
"","html-keyboard-response","121","481947","0.0-69.0-1.0","""event"",""trial"",""time""
""fullscreenenter"",""0"",""1680""
","
","
","""event"",""trial"",""time""
""fullscreenenter"",""0"",""1680""
","
","null","<p></p>","null","","","","","","","","","","","","","","","","","","","","","","","",""
"","do_recog","122","485252","0.0-70.0-0.0","""event"",""trial"",""time""
""fullscreenenter"",""0"",""1680""
","
","
","""event"",""trial"",""time""
""fullscreenenter"",""0"",""1680""
","
","1792.5","","","","","","","","55","","","","281","probe-140","","","","","1","[object Object]","37","0","0","","","",""
"","html-keyboard-response","123","486258","0.0-70.0-1.0","""event"",""trial"",""time""
""fullscreenenter"",""0"",""1680""
","
","
","""event"",""trial"",""time""
""fullscreenenter"",""0"",""1680""
","
","null","<p></p>","null","","","","","","","","","","","","","","","","","","","","","","","",""
"","do_trial","124","489686","0.0-71.0-0.0","""event"",""trial"",""time""
""fullscreenenter"",""0"",""1680""
","
","
","""event"",""trial"",""time""
""fullscreenenter"",""0"",""1680""
","
","861.6999999880791","","","","","","","","50","1,1,0","6","blank","282","null","0.5263628082553692","0.2501631842215395","0.20429708559121104","1","","","","","","","","",""
"","html-keyboard-response","125","490691","0.0-71.0-1.0","""event"",""trial"",""time""
""fullscreenenter"",""0"",""1680""
","
","
","""event"",""trial"",""time""
""fullscreenenter"",""0"",""1680""
","
","null","<p></p>","null","","","","","","","","","","","","","","","","","","","","","","","",""
"","do_trial","126","493817","0.0-72.0-0.0","""event"",""trial"",""time""
""fullscreenenter"",""0"",""1680""
","
","
","""event"",""trial"",""time""
""fullscreenenter"",""0"",""1680""
","
","557.4000000059605","","","","","","","","49","0,1,0","6","blank","283","null","0.5237804430541168","0.17965072863014814","0.2589134071522099","0","","","","","","","","",""
"","html-keyboard-response","127","494823","0.0-72.0-1.0","""event"",""trial"",""time""
""fullscreenenter"",""0"",""1680""
","
","
","""event"",""trial"",""time""
""fullscreenenter"",""0"",""1680""
","
","null","<p></p>","null","","","","","","","","","","","","","","","","","","","","","","","",""
"","do_trial","128","497986","0.0-73.0-0.0","""event"",""trial"",""time""
""fullscreenenter"",""0"",""1680""
","
","
","""event"",""trial"",""time""
""fullscreenenter"",""0"",""1680""
","
","595.1999999880791","","","","","","","","51","1,0,0","6","blank","284","null","0.5251591330932809","0.11031138884603328","0.15305587757227207","0","","","","","","","","",""
"","html-keyboard-response","129","498988","0.0-73.0-1.0","""event"",""trial"",""time""
""fullscreenenter"",""0"",""1680""
","
","
","""event"",""trial"",""time""
""fullscreenenter"",""0"",""1680""
","
","null","<p></p>","null","","","","","","","","","","","","","","","","","","","","","","","",""
"","do_recog","130","501613","0.0-74.0-0.0","""event"",""trial"",""time""
""fullscreenenter"",""0"",""1680""
","
","
","""event"",""trial"",""time""
""fullscreenenter"",""0"",""1680""
","
","1114.2000000178814","","","","","","","","54","","","","285","probe-83","","","","","1","[object Object]","158","3","1","","","",""
"","html-keyboard-response","131","502621","0.0-74.0-1.0","""event"",""trial"",""time""
""fullscreenenter"",""0"",""1680""
","
","
","""event"",""trial"",""time""
""fullscreenenter"",""0"",""1680""
","
","null","<p></p>","null","","","","","","","","","","","","","","","","","","","","","","","",""
"","do_trial","132","505826","0.0-75.0-0.0","""event"",""trial"",""time""
""fullscreenenter"",""0"",""1680""
","
","
","""event"",""trial"",""time""
""fullscreenenter"",""0"",""1680""
","
","637.7000000178814","","","","","","","","49","0,1,1","6","blank","286","null","0.3562292842713937","0.0777844810424116","0.16101324612592863","0","","","","","","","","",""
"","html-keyboard-response","133","506832","0.0-75.0-1.0","""event"",""trial"",""time""
""fullscreenenter"",""0"",""1680""
","
","
","""event"",""trial"",""time""
""fullscreenenter"",""0"",""1680""
","
","null","<p></p>","null","","","","","","","","","","","","","","","","","","","","","","","",""
"","do_trial","134","509962","0.0-76.0-0.0","""event"",""trial"",""time""
""fullscreenenter"",""0"",""1680""
","
","
","""event"",""trial"",""time""
""fullscreenenter"",""0"",""1680""
","
","559.3000000119209","","","","","","","","50","1,0,0","6","blank","287","null","0.42521609226421897","0.06307171021582011","0.14679687649671358","0","","","","","","","","",""
"","html-keyboard-response","135","510966","0.0-76.0-1.0","""event"",""trial"",""time""
""fullscreenenter"",""0"",""1680""
","
","
","""event"",""trial"",""time""
""fullscreenenter"",""0"",""1680""
","
","null","<p></p>","null","","","","","","","","","","","","","","","","","","","","","","","",""
"","do_trial","136","513786","0.0-77.0-0.0","""event"",""trial"",""time""
""fullscreenenter"",""0"",""1680""
","
","
","""event"",""trial"",""time""
""fullscreenenter"",""0"",""1680""
","
","255.09999999403954","","","","","","","","49","0,0,0","6","blank","288","null","0.5978742073672579","0.0884217894482946","0.053913287206773346","0","","","","","","","","",""
"","html-keyboard-response","137","514790","0.0-77.0-1.0","""event"",""trial"",""time""
""fullscreenenter"",""0"",""1680""
","
","
","""event"",""trial"",""time""
""fullscreenenter"",""0"",""1680""
","
","null","<p></p>","null","","","","","","","","","","","","","","","","","","","","","","","",""
"","do_trial","138","517610","0.0-78.0-0.0","""event"",""trial"",""time""
""fullscreenenter"",""0"",""1680""
","
","
","""event"",""trial"",""time""
""fullscreenenter"",""0"",""1680""
","
","258.09999999403954","","","","","","","","49","0,0,1","6","blank","289","null","0.6250908424783721","0.14153037894270523","0.15481904946014724","0","","","","","","","","",""
"","html-keyboard-response","139","518615","0.0-78.0-1.0","""event"",""trial"",""time""
""fullscreenenter"",""0"",""1680""
","
","
","""event"",""trial"",""time""
""fullscreenenter"",""0"",""1680""
","
","null","<p></p>","null","","","","","","","","","","","","","","","","","","","","","","","",""
"","do_trial","140","521494","0.0-79.0-0.0","""event"",""trial"",""time""
""fullscreenenter"",""0"",""1680""
","
","
","""event"",""trial"",""time""
""fullscreenenter"",""0"",""1680""
","
","312","","","","","","","","50","1,0,0","6","blank","290","null","0.6087950677108851","0.0725077028802607","0.14242447051680673","0","","","","","","","","",""
"","html-keyboard-response","141","522498","0.0-79.0-1.0","""event"",""trial"",""time""
""fullscreenenter"",""0"",""1680""
","
","
","""event"",""trial"",""time""
""fullscreenenter"",""0"",""1680""
","
","null","<p></p>","null","","","","","","","","","","","","","","","","","","","","","","","",""
"","do_trial","142","525636","0.0-80.0-0.0","""event"",""trial"",""time""
""fullscreenenter"",""0"",""1680""
","
","
","""event"",""trial"",""time""
""fullscreenenter"",""0"",""1680""
","
","573.0999999940395","","","","","","","","49","1,1,0","6","blank","291","null","0.6610379428531034","0.18627365289077932","0.19313203974455867","1","","","","","","","","",""
"","html-keyboard-response","143","526640","0.0-80.0-1.0","""event"",""trial"",""time""
""fullscreenenter"",""0"",""1680""
","
","
","""event"",""trial"",""time""
""fullscreenenter"",""0"",""1680""
","
","null","<p></p>","null","","","","","","","","","","","","","","","","","","","","","","","",""
"","do_recog","144","529484","0.0-81.0-0.0","""event"",""trial"",""time""
""fullscreenenter"",""0"",""1680""
","
","
","""event"",""trial"",""time""
""fullscreenenter"",""0"",""1680""
","
","1335.9000000059605","","","","","","","","55","","","","292","probe-57","","","","","1","[object Object]","118","2","0","","","",""
"","html-keyboard-response","145","530488","0.0-81.0-1.0","""event"",""trial"",""time""
""fullscreenenter"",""0"",""1680""
","
","
","""event"",""trial"",""time""
""fullscreenenter"",""0"",""1680""
","
","null","<p></p>","null","","","","","","","","","","","","","","","","","","","","","","","",""
"","do_trial","146","535060","0.0-82.0-0.0","""event"",""trial"",""time""
""fullscreenenter"",""0"",""1680""
","
","
","""event"",""trial"",""time""
""fullscreenenter"",""0"",""1680""
","
","2006.7000000178814","","","","","","","","49","1,0,0","6","blank","293","null","0.6689534904980632","0.10497273915066271","0.36601185845337186","1","","","","","","","","",""
"","html-keyboard-response","147","536064","0.0-82.0-1.0","""event"",""trial"",""time""
""fullscreenenter"",""0"",""1680""
","
","
","""event"",""trial"",""time""
""fullscreenenter"",""0"",""1680""
","
","null","<p></p>","null","","","","","","","","","","","","","","","","","","","","","","","",""
"","do_trial","148","538707","0.0-83.0-0.0","""event"",""trial"",""time""
""fullscreenenter"",""0"",""1680""
","
","
","""event"",""trial"",""time""
""fullscreenenter"",""0"",""1680""
","
","74.5","","","","","","","","49","1,0,1","6","blank","294","null","0.64744265097361","0.05293509960171702","0.29110547146056254","1","","","","","","","","",""
"","html-keyboard-response","149","539709","0.0-83.0-1.0","""event"",""trial"",""time""
""fullscreenenter"",""0"",""1680""
","
","
","""event"",""trial"",""time""
""fullscreenenter"",""0"",""1680""
","
","null","<p></p>","null","","","","","","","","","","","","","","","","","","","","","","","",""
"","do_trial","150","542688","0.0-84.0-0.0","""event"",""trial"",""time""
""fullscreenenter"",""0"",""1680""
","
","
","""event"",""trial"",""time""
""fullscreenenter"",""0"",""1680""
","
","407.59999999403954","","","","","","","","51","1,0,1","6","blank","295","null","0.5588333964074677","0.12487932918076038","0.3556483812827155","1","","","","","","","","",""
"","html-keyboard-response","151","543690","0.0-84.0-1.0","""event"",""trial"",""time""
""fullscreenenter"",""0"",""1680""
","
","
","""event"",""trial"",""time""
""fullscreenenter"",""0"",""1680""
","
","null","<p></p>","null","","","","","","","","","","","","","","","","","","","","","","","",""
"","do_trial","152","546866","0.0-85.0-0.0","""event"",""trial"",""time""
""fullscreenenter"",""0"",""1680""
","
","
","""event"",""trial"",""time""
""fullscreenenter"",""0"",""1680""
","
","609.5","","","","","","","","50","0,0,0","6","blank","296","null","0.544118444948137","0.09833481594653448","0.2401848055160577","0","","","","","","","","",""
"","html-keyboard-response","153","547869","0.0-85.0-1.0","""event"",""trial"",""time""
""fullscreenenter"",""0"",""1680""
","
","
","""event"",""trial"",""time""
""fullscreenenter"",""0"",""1680""
","
","null","<p></p>","null","","","","","","","","","","","","","","","","","","","","","","","",""
"","do_recog","154","550598","0.0-86.0-0.0","""event"",""trial"",""time""
""fullscreenenter"",""0"",""1680""
","
","
","""event"",""trial"",""time""
""fullscreenenter"",""0"",""1680""
","
","1219.4000000059605","","","","","","","","54","","","","297","probe-160","","","","","1","[object Object]","119","2","1","","","",""
"","html-keyboard-response","155","551601","0.0-86.0-1.0","""event"",""trial"",""time""
""fullscreenenter"",""0"",""1680""
","
","
","""event"",""trial"",""time""
""fullscreenenter"",""0"",""1680""
","
","null","<p></p>","null","","","","","","","","","","","","","","","","","","","","","","","",""
"","do_trial","156","555512","0.0-87.0-0.0","""event"",""trial"",""time""
""fullscreenenter"",""0"",""1680""
","
","
","""event"",""trial"",""time""
""fullscreenenter"",""0"",""1680""
","
","1345.199999988079","","","","","","","","49","1,0,0","6","blank","298","null","0.6043405917230917","0.132756885563193","0.23618000255922605","1","","","","","","","","",""
"","html-keyboard-response","157","556517","0.0-87.0-1.0","""event"",""trial"",""time""
""fullscreenenter"",""0"",""1680""
","
","
","""event"",""trial"",""time""
""fullscreenenter"",""0"",""1680""
","
","null","<p></p>","null","","","","","","","","","","","","","","","","","","","","","","","",""
"","do_trial","158","559429","0.0-88.0-0.0","""event"",""trial"",""time""
""fullscreenenter"",""0"",""1680""
","
","
","""event"",""trial"",""time""
""fullscreenenter"",""0"",""1680""
","
","339.5","","","","","","","","50","1,0,0","6","blank","299","null","0.5133445089756243","0.05330489172553361","0.2775065078485389","0","","","","","","","","",""
"","html-keyboard-response","159","560434","0.0-88.0-1.0","""event"",""trial"",""time""
""fullscreenenter"",""0"",""1680""
","
","
","""event"",""trial"",""time""
""fullscreenenter"",""0"",""1680""
","
","null","<p></p>","null","","","","","","","","","","","","","","","","","","","","","","","",""
"","do_trial","160","563456","0.0-89.0-0.0","""event"",""trial"",""time""
""fullscreenenter"",""0"",""1680""
","
","
","""event"",""trial"",""time""
""fullscreenenter"",""0"",""1680""
","
","456.30000001192093","","","","","","","","49","1,0,0","6","blank","300","null","0.4086976820713671","0.09884751686566072","0.49297884999229014","1","","","","","","","","",""
"","html-keyboard-response","161","564459","0.0-89.0-1.0","""event"",""trial"",""time""
""fullscreenenter"",""0"",""1680""
","
","
","""event"",""trial"",""time""
""fullscreenenter"",""0"",""1680""
","
","null","<p></p>","null","","","","","","","","","","","","","","","","","","","","","","","",""
"","do_trial","162","567473","0.0-90.0-0.0","""event"",""trial"",""time""
""fullscreenenter"",""0"",""1680""
","
","
","""event"",""trial"",""time""
""fullscreenenter"",""0"",""1680""
","
","442.80000001192093","","","","","","","","49","1,0,0","6","blank","301","null","0.40613083063423816","0.11427034446757238","0.5173771670750746","1","","","","","","","","",""
"","html-keyboard-response","163","568478","0.0-90.0-1.0","""event"",""trial"",""time""
""fullscreenenter"",""0"",""1680""
","
","
","""event"",""trial"",""time""
""fullscreenenter"",""0"",""1680""
","
","null","<p></p>","null","","","","","","","","","","","","","","","","","","","","","","","",""
"","do_trial","164","571282","0.0-91.0-0.0","""event"",""trial"",""time""
""fullscreenenter"",""0"",""1680""
","
","
","""event"",""trial"",""time""
""fullscreenenter"",""0"",""1680""
","
","236.59999999403954","","","","","","","","49","0,0,0","6","blank","302","null","0.38650571709438913","0.23515670377927644","0.5359423634797312","0","","","","","","","","",""
"","html-keyboard-response","165","572286","0.0-91.0-1.0","""event"",""trial"",""time""
""fullscreenenter"",""0"",""1680""
","
","
","""event"",""trial"",""time""
""fullscreenenter"",""0"",""1680""
","
","null","<p></p>","null","","","","","","","","","","","","","","","","","","","","","","","",""
"","do_recog","166","575364","0.0-92.0-0.0","""event"",""trial"",""time""
""fullscreenenter"",""0"",""1680""
","
","
","""event"",""trial"",""time""
""fullscreenenter"",""0"",""1680""
","
","1567.5","","","","","","","","56","","","","303","probe-186","","","","","1","[object Object]","194","4","0","","","",""
"","html-keyboard-response","167","576370","0.0-92.0-1.0","""event"",""trial"",""time""
""fullscreenenter"",""0"",""1680""
","
","
","""event"",""trial"",""time""
""fullscreenenter"",""0"",""1680""
","
","null","<p></p>","null","","","","","","","","","","","","","","","","","","","","","","","",""
"","do_trial","168","579561","0.0-93.0-0.0","""event"",""trial"",""time""
""fullscreenenter"",""0"",""1680""
","
","
","""event"",""trial"",""time""
""fullscreenenter"",""0"",""1680""
","
","651","","","","","","","","49","0,0,0","6","blank","304","null","0.30531813169979877","0.12665557820178822","0.6506695896068309","0","","","","","","","","",""
"","html-keyboard-response","169","580564","0.0-93.0-1.0","""event"",""trial"",""time""
""fullscreenenter"",""0"",""1680""
","
","
","""event"",""trial"",""time""
""fullscreenenter"",""0"",""1680""
","
","null","<p></p>","null","","","","","","","","","","","","","","","","","","","","","","","",""
"","do_trial","170","583680","0.0-94.0-0.0","""event"",""trial"",""time""
""fullscreenenter"",""0"",""1680""
","
","
","""event"",""trial"",""time""
""fullscreenenter"",""0"",""1680""
","
","545.5999999940395","","","","","","","","50","1,0,0","6","blank","305","null","0.33230123036543624","0.1469006174565072","0.6884199592999519","0","","","","","","","","",""
"","html-keyboard-response","171","584685","0.0-94.0-1.0","""event"",""trial"",""time""
""fullscreenenter"",""0"",""1680""
","
","
","""event"",""trial"",""time""
""fullscreenenter"",""0"",""1680""
","
","null","<p></p>","null","","","","","","","","","","","","","","","","","","","","","","","",""
"","do_trial","172","587572","0.0-95.0-0.0","""event"",""trial"",""time""
""fullscreenenter"",""0"",""1680""
","
","
","""event"",""trial"",""time""
""fullscreenenter"",""0"",""1680""
","
","345.5","","","","","","","","51","0,0,0","6","blank","306","null","0.2470370355684667","0.14876279483142998","0.6813691354276772","0","","","","","","","","",""
"","html-keyboard-response","173","588577","0.0-95.0-1.0","""event"",""trial"",""time""
""fullscreenenter"",""0"",""1680""
","
","
","""event"",""trial"",""time""
""fullscreenenter"",""0"",""1680""
","
","null","<p></p>","null","","","","","","","","","","","","","","","","","","","","","","","",""
"","do_trial","174","591522","0.0-96.0-0.0","""event"",""trial"",""time""
""fullscreenenter"",""0"",""1680""
","
","
","""event"",""trial"",""time""
""fullscreenenter"",""0"",""1680""
","
","379","","","","","","","","51","0,0,1","6","blank","307","null","0.09218423369428791","0.10963791808908041","0.7536178765034961","1","","","","","","","","",""
"","html-keyboard-response","175","592526","0.0-96.0-1.0","""event"",""trial"",""time""
""fullscreenenter"",""0"",""1680""
","
","
","""event"",""trial"",""time""
""fullscreenenter"",""0"",""1680""
","
","null","<p></p>","null","","","","","","","","","","","","","","","","","","","","","","","",""
"","do_trial","176","595539","0.0-97.0-0.0","""event"",""trial"",""time""
""fullscreenenter"",""0"",""1680""
","
","
","""event"",""trial"",""time""
""fullscreenenter"",""0"",""1680""
","
","448.09999999403954","","","","","","","","49","0,0,1","6","blank","308","null","0.2306245090365084","0.07106718118945597","0.6775019698860852","0","","","","","","","","",""
"","html-keyboard-response","177","596541","0.0-97.0-1.0","""event"",""trial"",""time""
""fullscreenenter"",""0"",""1680""
","
","
","""event"",""trial"",""time""
""fullscreenenter"",""0"",""1680""
","
","null","<p></p>","null","","","","","","","","","","","","","","","","","","","","","","","",""
"","break","178","716536","0.0-98.0-0.0","""event"",""trial"",""time""
""fullscreenenter"",""0"",""1680""
","
","
","""event"",""trial"",""time""
""fullscreenenter"",""0"",""1680""
","
","null","<div class='center'><p>Time to take a quick break! You have 2 minutes to rest, but you can move on sooner if you'd like.</p><p> Press the <b>space bar</b> to continue.</p></div>","null","","","","","","","","","","","","","","","","","","","","","","","",""
"","do_trial","179","720849","0.0-98.0-1.0","""event"",""trial"",""time""
""fullscreenenter"",""0"",""1680""
","
","
","""event"",""trial"",""time""
""fullscreenenter"",""0"",""1680""
","
","1770.9000000059605","","","","","","","","49","0,0,1","6","blank","309","null","0.2607022664668093","0.1703004576031278","0.6635245188996498","0","","","","","","","","",""
"","html-keyboard-response","180","721854","0.0-98.0-2.0","""event"",""trial"",""time""
""fullscreenenter"",""0"",""1680""
","
","
","""event"",""trial"",""time""
""fullscreenenter"",""0"",""1680""
","
","null","<p></p>","null","","","","","","","","","","","","","","","","","","","","","","","",""
"","do_recog","181","725667","0.0-99.0-0.0","""event"",""trial"",""time""
""fullscreenenter"",""0"",""1680""
","
","
","""event"",""trial"",""time""
""fullscreenenter"",""0"",""1680""
","
","2302.800000011921","","","","","","","","54","","","","310","probe-240","","","","","0","[object Object]","null","null","0","","","",""
"","html-keyboard-response","182","726674","0.0-99.0-1.0","""event"",""trial"",""time""
""fullscreenenter"",""0"",""1680""
","
","
","""event"",""trial"",""time""
""fullscreenenter"",""0"",""1680""
","
","null","<p></p>","null","","","","","","","","","","","","","","","","","","","","","","","",""
"","do_trial","183","730378","0.0-100.0-0.0","""event"",""trial"",""time""
""fullscreenenter"",""0"",""1680""
","
","
","""event"",""trial"",""time""
""fullscreenenter"",""0"",""1680""
","
","1141.5","","","","","","","","50","1,0,0","6","blank","311","null","0.3172271681064517","0.06441209742789936","0.6607735369330568","0","","","","","","","","",""
"","html-keyboard-response","184","731383","0.0-100.0-1.0","""event"",""trial"",""time""
""fullscreenenter"",""0"",""1680""
","
","
","""event"",""trial"",""time""
""fullscreenenter"",""0"",""1680""
","
","null","<p></p>","null","","","","","","","","","","","","","","","","","","","","","","","",""
"","do_trial","185","734142","0.0-101.0-0.0","""event"",""trial"",""time""
""fullscreenenter"",""0"",""1680""
","
","
","""event"",""trial"",""time""
""fullscreenenter"",""0"",""1680""
","
","194.40000000596046","","","","","","","","49","0,0,0","6","blank","312","null","0.2819271114050191","0.09741274599972673","0.6918640187259273","0","","","","","","","","",""
"","html-keyboard-response","186","735145","0.0-101.0-1.0","""event"",""trial"",""time""
""fullscreenenter"",""0"",""1680""
","
","
","""event"",""trial"",""time""
""fullscreenenter"",""0"",""1680""
","
","null","<p></p>","null","","","","","","","","","","","","","","","","","","","","","","","",""
"","do_trial","187","737968","0.0-102.0-0.0","""event"",""trial"",""time""
""fullscreenenter"",""0"",""1680""
","
","
","""event"",""trial"",""time""
""fullscreenenter"",""0"",""1680""
","
","257","","","","","","","","51","1,0,1","6","blank","313","null","0.33138299623793316","0.13328604538558209","0.6797077371451334","1","","","","","","","","",""
"","html-keyboard-response","188","738973","0.0-102.0-1.0","""event"",""trial"",""time""
""fullscreenenter"",""0"",""1680""
","
","
","""event"",""trial"",""time""
""fullscreenenter"",""0"",""1680""
","
","null","<p></p>","null","","","","","","","","","","","","","","","","","","","","","","","",""
"","do_trial","189","741890","0.0-103.0-0.0","""event"",""trial"",""time""
""fullscreenenter"",""0"",""1680""
","
","
","""event"",""trial"",""time""
""fullscreenenter"",""0"",""1680""
","
","349.30000001192093","","","","","","","","51","0,0,0","6","blank","314","null","0.2128776803855995","0.12763630479473725","0.6830400719924015","0","","","","","","","","",""
"","html-keyboard-response","190","742895","0.0-103.0-1.0","""event"",""trial"",""time""
""fullscreenenter"",""0"",""1680""
","
","
","""event"",""trial"",""time""
""fullscreenenter"",""0"",""1680""
","
","null","<p></p>","null","","","","","","","","","","","","","","","","","","","","","","","",""
"","do_trial","191","745755","0.0-104.0-0.0","""event"",""trial"",""time""
""fullscreenenter"",""0"",""1680""
","
","
","""event"",""trial"",""time""
""fullscreenenter"",""0"",""1680""
","
","291.30000001192093","","","","","","","","49","1,0,1","6","blank","315","null","0.4026696068809068","0.14969600584330564","0.6857775759579668","1","","","","","","","","",""
"","html-keyboard-response","192","746762","0.0-104.0-1.0","""event"",""trial"",""time""
""fullscreenenter"",""0"",""1680""
","
","
","""event"",""trial"",""time""
""fullscreenenter"",""0"",""1680""
","
","null","<p></p>","null","","","","","","","","","","","","","","","","","","","","","","","",""
"","do_recog","193","749541","0.0-105.0-0.0","""event"",""trial"",""time""
""fullscreenenter"",""0"",""1680""
","
","
","""event"",""trial"",""time""
""fullscreenenter"",""0"",""1680""
","
","1273.4000000059605","","","","","","","","54","","","","316","probe-28","","","","","1","[object Object]","152","3","1","","","",""
"","html-keyboard-response","194","750544","0.0-105.0-1.0","""event"",""trial"",""time""
""fullscreenenter"",""0"",""1680""
","
","
","""event"",""trial"",""time""
""fullscreenenter"",""0"",""1680""
","
","null","<p></p>","null","","","","","","","","","","","","","","","","","","","","","","","",""
"","do_trial","195","753641","0.0-106.0-0.0","""event"",""trial"",""time""
""fullscreenenter"",""0"",""1680""
","
","
","""event"",""trial"",""time""
""fullscreenenter"",""0"",""1680""
","
","514.5999999940395","","","","","","","","50","0,0,0","6","blank","317","null","0.37792582095339683","0.07553555813825212","0.5424992471043686","0","","","","","","","","",""
"","html-keyboard-response","196","754644","0.0-106.0-1.0","""event"",""trial"",""time""
""fullscreenenter"",""0"",""1680""
","
","
","""event"",""trial"",""time""
""fullscreenenter"",""0"",""1680""
","
","null","<p></p>","null","","","","","","","","","","","","","","","","","","","","","","","",""
"","do_trial","197","757471","0.0-107.0-0.0","""event"",""trial"",""time""
""fullscreenenter"",""0"",""1680""
","
","
","""event"",""trial"",""time""
""fullscreenenter"",""0"",""1680""
","
","259.80000001192093","","","","","","","","49","1,0,0","6","blank","318","null","0.39038912645347995","0.05976456156222018","0.4155791245271013","1","","","","","","","","",""
"","html-keyboard-response","198","758477","0.0-107.0-1.0","""event"",""trial"",""time""
""fullscreenenter"",""0"",""1680""
","
","
","""event"",""trial"",""time""
""fullscreenenter"",""0"",""1680""
","
","null","<p></p>","null","","","","","","","","","","","","","","","","","","","","","","","",""
"","do_recog","199","761437","0.0-108.0-0.0","""event"",""trial"",""time""
""fullscreenenter"",""0"",""1680""
","
","
","""event"",""trial"",""time""
""fullscreenenter"",""0"",""1680""
","
","1453.7999999821186","","","","","","","","54","","","","319","probe-07","","","","","1","[object Object]","117","2","1","","","",""
"","html-keyboard-response","200","762441","0.0-108.0-1.0","""event"",""trial"",""time""
""fullscreenenter"",""0"",""1680""
","
","
","""event"",""trial"",""time""
""fullscreenenter"",""0"",""1680""
","
","null","<p></p>","null","","","","","","","","","","","","","","","","","","","","","","","",""
"","do_trial","201","765982","0.0-109.0-0.0","""event"",""trial"",""time""
""fullscreenenter"",""0"",""1680""
","
","
","""event"",""trial"",""time""
""fullscreenenter"",""0"",""1680""
","
","971.1999999880791","","","","","","","","49","0,0,1","6","blank","320","null","0.3087846034836892","0.2377829550804519","0.39510534891599447","0","","","","","","","","",""
"","html-keyboard-response","202","766986","0.0-109.0-1.0","""event"",""trial"",""time""
""fullscreenenter"",""0"",""1680""
","
","
","""event"",""trial"",""time""
""fullscreenenter"",""0"",""1680""
","
","null","<p></p>","null","","","","","","","","","","","","","","","","","","","","","","","",""
"","do_trial","203","769804","0.0-110.0-0.0","""event"",""trial"",""time""
""fullscreenenter"",""0"",""1680""
","
","
","""event"",""trial"",""time""
""fullscreenenter"",""0"",""1680""
","
","248.09999999403954","","","","","","","","51","0,1,1","6","blank","321","null","0.2934621443431799","0.10567033073543236","0.4034025205576208","1","","","","","","","","",""
"","html-keyboard-response","204","770808","0.0-110.0-1.0","""event"",""trial"",""time""
""fullscreenenter"",""0"",""1680""
","
","
","""event"",""trial"",""time""
""fullscreenenter"",""0"",""1680""
","
","null","<p></p>","null","","","","","","","","","","","","","","","","","","","","","","","",""
"","do_trial","205","773670","0.0-111.0-0.0","""event"",""trial"",""time""
""fullscreenenter"",""0"",""1680""
","
","
","""event"",""trial"",""time""
""fullscreenenter"",""0"",""1680""
","
","296.40000000596046","","","","","","","","50","0,0,0","6","blank","322","null","0.29026817749310563","0.29355377160004026","0.41653956971449085","0","","","","","","","","",""
"","html-keyboard-response","206","774676","0.0-111.0-1.0","""event"",""trial"",""time""
""fullscreenenter"",""0"",""1680""
","
","
","""event"",""trial"",""time""
""fullscreenenter"",""0"",""1680""
","
","null","<p></p>","null","","","","","","","","","","","","","","","","","","","","","","","",""
"","do_trial","207","777502","0.0-112.0-0.0","""event"",""trial"",""time""
""fullscreenenter"",""0"",""1680""
","
","
","""event"",""trial"",""time""
""fullscreenenter"",""0"",""1680""
","
","256.2999999821186","","","","","","","","49","0,1,1","6","blank","323","null","0.2137593534795751","0.2120931806889813","0.4593208348951081","0","","","","","","","","",""
"","html-keyboard-response","208","778508","0.0-112.0-1.0","""event"",""trial"",""time""
""fullscreenenter"",""0"",""1680""
","
","
","""event"",""trial"",""time""
""fullscreenenter"",""0"",""1680""
","
","null","<p></p>","null","","","","","","","","","","","","","","","","","","","","","","","",""
"","do_trial","209","781343","0.0-113.0-0.0","""event"",""trial"",""time""
""fullscreenenter"",""0"",""1680""
","
","
","""event"",""trial"",""time""
""fullscreenenter"",""0"",""1680""
","
","271.09999999403954","","","","","","","","50","0,0,1","6","blank","324","null","0.352854798388464","0.07619130676200524","0.4146395267883655","0","","","","","","","","",""
"","html-keyboard-response","210","782347","0.0-113.0-1.0","""event"",""trial"",""time""
""fullscreenenter"",""0"",""1680""
","
","
","""event"",""trial"",""time""
""fullscreenenter"",""0"",""1680""
","
","null","<p></p>","null","","","","","","","","","","","","","","","","","","","","","","","",""
"","do_trial","211","785293","0.0-114.0-0.0","""event"",""trial"",""time""
""fullscreenenter"",""0"",""1680""
","
","
","""event"",""trial"",""time""
""fullscreenenter"",""0"",""1680""
","
","396.59999999403954","","","","","","","","51","1,1,0","6","blank","325","null","0.3852111447323348","0.08195907933252164","0.42247299750281136","0","","","","","","","","",""
"","html-keyboard-response","212","786296","0.0-114.0-1.0","""event"",""trial"",""time""
""fullscreenenter"",""0"",""1680""
","
","
","""event"",""trial"",""time""
""fullscreenenter"",""0"",""1680""
","
","null","<p></p>","null","","","","","","","","","","","","","","","","","","","","","","","",""
"","do_trial","213","789126","0.0-115.0-0.0","""event"",""trial"",""time""
""fullscreenenter"",""0"",""1680""
","
","
","""event"",""trial"",""time""
""fullscreenenter"",""0"",""1680""
","
","262.5","","","","","","","","49","0,0,1","6","blank","326","null","0.3497530975799868","0.10199662568826941","0.4129304130920574","0","","","","","","","","",""
"","html-keyboard-response","214","790132","0.0-115.0-1.0","""event"",""trial"",""time""
""fullscreenenter"",""0"",""1680""
","
","
","""event"",""trial"",""time""
""fullscreenenter"",""0"",""1680""
","
","null","<p></p>","null","","","","","","","","","","","","","","","","","","","","","","","",""
"","do_recog","215","793163","0.0-116.0-0.0","""event"",""trial"",""time""
""fullscreenenter"",""0"",""1680""
","
","
","""event"",""trial"",""time""
""fullscreenenter"",""0"",""1680""
","
","1521.0999999940395","","","","","","","","54","","","","327","probe-208","","","","","1","[object Object]","75","1","1","","","",""
"","html-keyboard-response","216","794166","0.0-116.0-1.0","""event"",""trial"",""time""
""fullscreenenter"",""0"",""1680""
","
","
","""event"",""trial"",""time""
""fullscreenenter"",""0"",""1680""
","
","null","<p></p>","null","","","","","","","","","","","","","","","","","","","","","","","",""
"","do_trial","217","797486","0.0-117.0-0.0","""event"",""trial"",""time""
""fullscreenenter"",""0"",""1680""
","
","
","""event"",""trial"",""time""
""fullscreenenter"",""0"",""1680""
","
","748.7000000178814","","","","","","","","50","0,1,0","6","blank","328","null","0.31117873101383386","0.062448381702751535","0.4310633186354237","1","","","","","","","","",""
"","html-keyboard-response","218","798488","0.0-117.0-1.0","""event"",""trial"",""time""
""fullscreenenter"",""0"",""1680""
","
","
","""event"",""trial"",""time""
""fullscreenenter"",""0"",""1680""
","
","null","<p></p>","null","","","","","","","","","","","","","","","","","","","","","","","",""
"","do_trial","219","801274","0.0-118.0-0.0","""event"",""trial"",""time""
""fullscreenenter"",""0"",""1680""
","
","
","""event"",""trial"",""time""
""fullscreenenter"",""0"",""1680""
","
","222.69999998807907","","","","","","","","50","0,0,0","6","blank","329","null","0.4059358951231953","0.07384921924961171","0.5016224976452237","0","","","","","","","","",""
"","html-keyboard-response","220","802276","0.0-118.0-1.0","""event"",""trial"",""time""
""fullscreenenter"",""0"",""1680""
","
","
","""event"",""trial"",""time""
""fullscreenenter"",""0"",""1680""
","
","null","<p></p>","null","","","","","","","","","","","","","","","","","","","","","","","",""
"","do_trial","221","804840","0.0-119.0-0.0","""event"",""trial"",""time""
""fullscreenenter"",""0"",""1680""
","
","
","""event"",""trial"",""time""
""fullscreenenter"",""0"",""1680""
","
","0.09999999403953552","","","","","","","","49","0,0,0","6","blank","330","null","0.44141088920282295","0.13757645050578032","0.5763557537570659","0","","","","","","","","",""
"","html-keyboard-response","222","805843","0.0-119.0-1.0","""event"",""trial"",""time""
""fullscreenenter"",""0"",""1680""
","
","
","""event"",""trial"",""time""
""fullscreenenter"",""0"",""1680""
","
","null","<p></p>","null","","","","","","","","","","","","","","","","","","","","","","","",""
"","do_trial","223","808800","0.0-120.0-0.0","""event"",""trial"",""time""
""fullscreenenter"",""0"",""1680""
","
","
","""event"",""trial"",""time""
""fullscreenenter"",""0"",""1680""
","
","388.19999998807907","","","","","","","","50","0,0,0","6","blank","331","null","0.4531266362398605","0.06674707587396349","0.6667168916915256","0","","","","","","","","",""
"","html-keyboard-response","224","809806","0.0-120.0-1.0","""event"",""trial"",""time""
""fullscreenenter"",""0"",""1680""
","
","
","""event"",""trial"",""time""
""fullscreenenter"",""0"",""1680""
","
","null","<p></p>","null","","","","","","","","","","","","","","","","","","","","","","","",""
"","do_trial","225","812377","0.0-121.0-0.0","""event"",""trial"",""time""
""fullscreenenter"",""0"",""1680""
","
","
","""event"",""trial"",""time""
""fullscreenenter"",""0"",""1680""
","
","0.30000001192092896","","","","","","","","51","0,0,1","6","blank","332","null","0.4687284372416741","0.10832016678506955","0.611507531880021","1","","","","","","","","",""
"","html-keyboard-response","226","813386","0.0-121.0-1.0","""event"",""trial"",""time""
""fullscreenenter"",""0"",""1680""
","
","
","""event"",""trial"",""time""
""fullscreenenter"",""0"",""1680""
","
","null","<p></p>","null","","","","","","","","","","","","","","","","","","","","","","","",""
"","do_recog","227","816105","0.0-122.0-0.0","""event"",""trial"",""time""
""fullscreenenter"",""0"",""1680""
","
","
","""event"",""trial"",""time""
""fullscreenenter"",""0"",""1680""
","
","1204.5","","","","","","","","55","","","","333","probe-181","","","","","1","[object Object]","151","3","0","","","",""
"","html-keyboard-response","228","817115","0.0-122.0-1.0","""event"",""trial"",""time""
""fullscreenenter"",""0"",""1680""
","
","
","""event"",""trial"",""time""
""fullscreenenter"",""0"",""1680""
","
","null","<p></p>","null","","","","","","","","","","","","","","","","","","","","","","","",""
"","do_trial","229","820172","0.0-123.0-0.0","""event"",""trial"",""time""
""fullscreenenter"",""0"",""1680""
","
","
","""event"",""trial"",""time""
""fullscreenenter"",""0"",""1680""
","
","493.5","","","","","","","","49","0,0,0","6","blank","334","null","0.38100576750786064","0.17194828017828168","0.6608991042968358","0","","","","","","","","",""
"","html-keyboard-response","230","821175","0.0-123.0-1.0","""event"",""trial"",""time""
""fullscreenenter"",""0"",""1680""
","
","
","""event"",""trial"",""time""
""fullscreenenter"",""0"",""1680""
","
","null","<p></p>","null","","","","","","","","","","","","","","","","","","","","","","","",""
"","do_trial","231","823999","0.0-124.0-0.0","""event"",""trial"",""time""
""fullscreenenter"",""0"",""1680""
","
","
","""event"",""trial"",""time""
""fullscreenenter"",""0"",""1680""
","
","256.69999998807907","","","","","","","","50","1,0,1","6","blank","335","null","0.28816523855941695","0.06296266590877508","0.45868890129021794","0","","","","","","","","",""
"","html-keyboard-response","232","825005","0.0-124.0-1.0","""event"",""trial"",""time""
""fullscreenenter"",""0"",""1680""
","
","
","""event"",""trial"",""time""
""fullscreenenter"",""0"",""1680""
","
","null","<p></p>","null","","","","","","","","","","","","","","","","","","","","","","","",""
"","do_trial","233","827775","0.0-125.0-0.0","""event"",""trial"",""time""
""fullscreenenter"",""0"",""1680""
","
","
","""event"",""trial"",""time""
""fullscreenenter"",""0"",""1680""
","
","215","","","","","","","","51","0,0,1","6","blank","336","null","0.16708454812229526","0.09828695043211168","0.530306046910382","1","","","","","","","","",""
"","html-keyboard-response","234","828783","0.0-125.0-1.0","""event"",""trial"",""time""
""fullscreenenter"",""0"",""1680""
","
","
","""event"",""trial"",""time""
""fullscreenenter"",""0"",""1680""
","
","null","<p></p>","null","","","","","","","","","","","","","","","","","","","","","","","",""
"","do_recog","235","831781","0.0-126.0-0.0","""event"",""trial"",""time""
""fullscreenenter"",""0"",""1680""
","
","
","""event"",""trial"",""time""
""fullscreenenter"",""0"",""1680""
","
","1483.699999988079","","","","","","","","54","","","","337","probe-230","","","","","1","[object Object]","38","0","1","","","",""
"","html-keyboard-response","236","832785","0.0-126.0-1.0","""event"",""trial"",""time""
""fullscreenenter"",""0"",""1680""
","
","
","""event"",""trial"",""time""
""fullscreenenter"",""0"",""1680""
","
","null","<p></p>","null","","","","","","","","","","","","","","","","","","","","","","","",""
"","do_trial","237","835720","0.0-127.0-0.0","""event"",""trial"",""time""
""fullscreenenter"",""0"",""1680""
","
","
","""event"",""trial"",""time""
""fullscreenenter"",""0"",""1680""
","
","369.19999998807907","","","","","","","","50","0,1,1","6","blank","338","null","0.0656509863095605","0.09301936260125081","0.5671795720522709","1","","","","","","","","",""
"","html-keyboard-response","238","836725","0.0-127.0-1.0","""event"",""trial"",""time""
""fullscreenenter"",""0"",""1680""
","
","
","""event"",""trial"",""time""
""fullscreenenter"",""0"",""1680""
","
","null","<p></p>","null","","","","","","","","","","","","","","","","","","","","","","","",""
"","do_recog","239","839470","0.0-128.0-0.0","""event"",""trial"",""time""
""fullscreenenter"",""0"",""1680""
","
","
","""event"",""trial"",""time""
""fullscreenenter"",""0"",""1680""
","
","1236.5","","","","","","","","53","","","","339","probe-81","","","","","1","[object Object]","113","2","1","","","",""
"","html-keyboard-response","240","840473","0.0-128.0-1.0","""event"",""trial"",""time""
""fullscreenenter"",""0"",""1680""
","
","
","""event"",""trial"",""time""
""fullscreenenter"",""0"",""1680""
","
","null","<p></p>","null","","","","","","","","","","","","","","","","","","","","","","","",""
"","do_trial","241","843483","0.0-129.0-0.0","""event"",""trial"",""time""
""fullscreenenter"",""0"",""1680""
","
","
","""event"",""trial"",""time""
""fullscreenenter"",""0"",""1680""
","
","441","","","","","","","","50","0,0,0","6","blank","340","null","0.25142265654813833","0.14606899082568212","0.6040568441508422","0","","","","","","","","",""
"","html-keyboard-response","242","844486","0.0-129.0-1.0","""event"",""trial"",""time""
""fullscreenenter"",""0"",""1680""
","
","
","""event"",""trial"",""time""
""fullscreenenter"",""0"",""1680""
","
","null","<p></p>","null","","","","","","","","","","","","","","","","","","","","","","","",""
"","do_recog","243","847209","0.0-130.0-0.0","""event"",""trial"",""time""
""fullscreenenter"",""0"",""1680""
","
","
","""event"",""trial"",""time""
""fullscreenenter"",""0"",""1680""
","
","1212.5","","","","","","","","54","","","","341","probe-12","","","","","1","[object Object]","197","4","1","","","",""
"","html-keyboard-response","244","848215","0.0-130.0-1.0","""event"",""trial"",""time""
""fullscreenenter"",""0"",""1680""
","
","
","""event"",""trial"",""time""
""fullscreenenter"",""0"",""1680""
","
","null","<p></p>","null","","","","","","","","","","","","","","","","","","","","","","","",""
"","do_trial","245","851343","0.0-131.0-0.0","""event"",""trial"",""time""
""fullscreenenter"",""0"",""1680""
","
","
","""event"",""trial"",""time""
""fullscreenenter"",""0"",""1680""
","
","575.8000000119209","","","","","","","","49","0,0,1","6","blank","342","null","0.2378283804496742","0.06229736710069586","0.59544222222568","0","","","","","","","","",""
"","html-keyboard-response","246","852346","0.0-131.0-1.0","""event"",""trial"",""time""
""fullscreenenter"",""0"",""1680""
","
","
","""event"",""trial"",""time""
""fullscreenenter"",""0"",""1680""
","
","null","<p></p>","null","","","","","","","","","","","","","","","","","","","","","","","",""
"","do_trial","247","855439","0.0-132.0-0.0","""event"",""trial"",""time""
""fullscreenenter"",""0"",""1680""
","
","
","""event"",""trial"",""time""
""fullscreenenter"",""0"",""1680""
","
","527.0999999940395","","","","","","","","50","0,0,1","6","blank","343","null","0.2085406441850231","0.07346938565159984","0.6484685289104339","0","","","","","","","","",""
"","html-keyboard-response","248","856444","0.0-132.0-1.0","""event"",""trial"",""time""
""fullscreenenter"",""0"",""1680""
","
","
","""event"",""trial"",""time""
""fullscreenenter"",""0"",""1680""
","
","null","<p></p>","null","","","","","","","","","","","","","","","","","","","","","","","",""
"","do_trial","249","859263","0.0-133.0-0.0","""event"",""trial"",""time""
""fullscreenenter"",""0"",""1680""
","
","
","""event"",""trial"",""time""
""fullscreenenter"",""0"",""1680""
","
","252.7999999821186","","","","","","","","50","0,1,1","6","blank","344","null","0.22921099647036175","0.15578541245469854","0.5799731072145927","1","","","","","","","","",""
"","html-keyboard-response","250","860267","0.0-133.0-1.0","""event"",""trial"",""time""
""fullscreenenter"",""0"",""1680""
","
","
","""event"",""trial"",""time""
""fullscreenenter"",""0"",""1680""
","
","null","<p></p>","null","","","","","","","","","","","","","","","","","","","","","","","",""
"","do_trial","251","863070","0.0-134.0-0.0","""event"",""trial"",""time""
""fullscreenenter"",""0"",""1680""
","
","
","""event"",""trial"",""time""
""fullscreenenter"",""0"",""1680""
","
","221.39999997615814","","","","","","","","49","0,0,1","6","blank","345","null","0.2418360686669507","0.19440790933412008","0.6453726254580824","0","","","","","","","","",""
"","html-keyboard-response","252","864071","0.0-134.0-1.0","""event"",""trial"",""time""
""fullscreenenter"",""0"",""1680""
","
","
","""event"",""trial"",""time""
""fullscreenenter"",""0"",""1680""
","
","null","<p></p>","null","","","","","","","","","","","","","","","","","","","","","","","",""
"","do_trial","253","867073","0.0-135.0-0.0","""event"",""trial"",""time""
""fullscreenenter"",""0"",""1680""
","
","
","""event"",""trial"",""time""
""fullscreenenter"",""0"",""1680""
","
","427.59999999403954","","","","","","","","51","0,0,1","6","blank","346","null","0.10983004667516832","0.061108477766716955","0.6779255709590895","1","","","","","","","","",""
"","html-keyboard-response","254","868078","0.0-135.0-1.0","""event"",""trial"",""time""
""fullscreenenter"",""0"",""1680""
","
","
","""event"",""trial"",""time""
""fullscreenenter"",""0"",""1680""
","
","null","<p></p>","null","","","","","","","","","","","","","","","","","","","","","","","",""
"","do_recog","255","870937","0.0-136.0-0.0","""event"",""trial"",""time""
""fullscreenenter"",""0"",""1680""
","
","
","""event"",""trial"",""time""
""fullscreenenter"",""0"",""1680""
","
","1348.5999999940395","","","","","","","","54","","","","347","probe-247","","","","","0","[object Object]","null","null","0","","","",""
"","html-keyboard-response","256","871942","0.0-136.0-1.0","""event"",""trial"",""time""
""fullscreenenter"",""0"",""1680""
","
","
","""event"",""trial"",""time""
""fullscreenenter"",""0"",""1680""
","
","null","<p></p>","null","","","","","","","","","","","","","","","","","","","","","","","",""
"","do_trial","257","875003","0.0-137.0-0.0","""event"",""trial"",""time""
""fullscreenenter"",""0"",""1680""
","
","
","""event"",""trial"",""time""
""fullscreenenter"",""0"",""1680""
","
","495","","","","","","","","49","0,0,1","6","blank","348","null","0.06990577846978101","0.15985801678891626","0.8683213409303671","0","","","","","","","","",""
"","html-keyboard-response","258","876006","0.0-137.0-1.0","""event"",""trial"",""time""
""fullscreenenter"",""0"",""1680""
","
","
","""event"",""trial"",""time""
""fullscreenenter"",""0"",""1680""
","
","null","<p></p>","null","","","","","","","","","","","","","","","","","","","","","","","",""
"","break","259","965352","0.0-138.0-0.0","""event"",""trial"",""time""
""fullscreenenter"",""0"",""1680""
","
","
","""event"",""trial"",""time""
""fullscreenenter"",""0"",""1680""
","
","89348.29999998212","<div class='center'><p>Time to take a quick break! You have 2 minutes to rest, but you can move on sooner if you'd like.</p><p> Press the <b>space bar</b> to continue.</p></div>","32","","","","","","","","","","","","","","","","","","","","","","","",""
"","do_trial","260","969179","0.0-138.0-1.0","""event"",""trial"",""time""
""fullscreenenter"",""0"",""1680""
","
","
","""event"",""trial"",""time""
""fullscreenenter"",""0"",""1680""
","
","1265","","","","","","","","49","1,0,1","6","blank","349","null","0.2932039228515684","0.09483358312136193","0.5220952562946137","1","","","","","","","","",""
"","html-keyboard-response","261","970196","0.0-138.0-2.0","""event"",""trial"",""time""
""fullscreenenter"",""0"",""1680""
","
","
","""event"",""trial"",""time""
""fullscreenenter"",""0"",""1680""
","
","null","<p></p>","null","","","","","","","","","","","","","","","","","","","","","","","",""
"","do_trial","262","973020","0.0-139.0-0.0","""event"",""trial"",""time""
""fullscreenenter"",""0"",""1680""
","
","
","""event"",""trial"",""time""
""fullscreenenter"",""0"",""1680""
","
","258.59999999403954","","","","","","","","49","0,0,1","6","blank","350","null","0.2708766398396756","0.12954284102781466","0.4730933572765387","0","","","","","","","","",""
"","html-keyboard-response","263","974027","0.0-139.0-1.0","""event"",""trial"",""time""
""fullscreenenter"",""0"",""1680""
","
","
","""event"",""trial"",""time""
""fullscreenenter"",""0"",""1680""
","
","null","<p></p>","null","","","","","","","","","","","","","","","","","","","","","","","",""
"","do_recog","264","976861","0.0-140.0-0.0","""event"",""trial"",""time""
""fullscreenenter"",""0"",""1680""
","
","
","""event"",""trial"",""time""
""fullscreenenter"",""0"",""1680""
","
","1324.2999999821186","","","","","","","","53","","","","351","probe-124","","","","","1","[object Object]","70","1","1","","","",""
"","html-keyboard-response","265","977866","0.0-140.0-1.0","""event"",""trial"",""time""
""fullscreenenter"",""0"",""1680""
","
","
","""event"",""trial"",""time""
""fullscreenenter"",""0"",""1680""
","
","null","<p></p>","null","","","","","","","","","","","","","","","","","","","","","","","",""
"","do_trial","266","981139","0.0-141.0-0.0","""event"",""trial"",""time""
""fullscreenenter"",""0"",""1680""
","
","
","""event"",""trial"",""time""
""fullscreenenter"",""0"",""1680""
","
","707.9000000059605","","","","","","","","50","0,1,0","6","blank","352","null","0.24817780749176188","0.32777207181581547","0.5095952784626282","1","","","","","","","","",""
"","html-keyboard-response","267","982142","0.0-141.0-1.0","""event"",""trial"",""time""
""fullscreenenter"",""0"",""1680""
","
","
","""event"",""trial"",""time""
""fullscreenenter"",""0"",""1680""
","
","null","<p></p>","null","","","","","","","","","","","","","","","","","","","","","","","",""
"","do_trial","268","986005","0.0-142.0-0.0","""event"",""trial"",""time""
""fullscreenenter"",""0"",""1680""
","
","
","""event"",""trial"",""time""
""fullscreenenter"",""0"",""1680""
","
","1292.199999988079","","","","","","","","49","0,0,1","6","blank","353","null","0.43945163923309244","0.19019156673409035","0.3728114904359508","0","","","","","","","","",""
"","html-keyboard-response","269","987010","0.0-142.0-1.0","""event"",""trial"",""time""
""fullscreenenter"",""0"",""1680""
","
","
","""event"",""trial"",""time""
""fullscreenenter"",""0"",""1680""
","
","null","<p></p>","null","","","","","","","","","","","","","","","","","","","","","","","",""
"","do_trial","270","990583","0.0-143.0-0.0","""event"",""trial"",""time""
""fullscreenenter"",""0"",""1680""
","
","
","""event"",""trial"",""time""
""fullscreenenter"",""0"",""1680""
","
","1008.1999999880791","","","","","","","","51","0,0,1","6","blank","354","null","0.5622621669994478","0.15334934418311252","0.3741758210846746","1","","","","","","","","",""
"","html-keyboard-response","271","991589","0.0-143.0-1.0","""event"",""trial"",""time""
""fullscreenenter"",""0"",""1680""
","
","
","""event"",""trial"",""time""
""fullscreenenter"",""0"",""1680""
","
","null","<p></p>","null","","","","","","","","","","","","","","","","","","","","","","","",""
"","do_trial","272","994496","0.0-144.0-0.0","""event"",""trial"",""time""
""fullscreenenter"",""0"",""1680""
","
","
","""event"",""trial"",""time""
""fullscreenenter"",""0"",""1680""
","
","340.2000000178814","","","","","","","","50","0,0,1","6","blank","355","null","0.6040614244686191","0.15743107994052616","0.2910449012520531","0","","","","","","","","",""
"","html-keyboard-response","273","995507","0.0-144.0-1.0","""event"",""trial"",""time""
""fullscreenenter"",""0"",""1680""
","
","
","""event"",""trial"",""time""
""fullscreenenter"",""0"",""1680""
","
","null","<p></p>","null","","","","","","","","","","","","","","","","","","","","","","","",""
"","do_recog","274","998311","0.0-145.0-0.0","""event"",""trial"",""time""
""fullscreenenter"",""0"",""1680""
","
","
","""event"",""trial"",""time""
""fullscreenenter"",""0"",""1680""
","
","1293.2000000178814","","","","","","","","53","","","","356","probe-193","","","","","1","[object Object]","190","4","1","","","",""
"","html-keyboard-response","275","999316","0.0-145.0-1.0","""event"",""trial"",""time""
""fullscreenenter"",""0"",""1680""
","
","
","""event"",""trial"",""time""
""fullscreenenter"",""0"",""1680""
","
","null","<p></p>","null","","","","","","","","","","","","","","","","","","","","","","","",""
"","do_trial","276","1002254","0.0-146.0-0.0","""event"",""trial"",""time""
""fullscreenenter"",""0"",""1680""
","
","
","""event"",""trial"",""time""
""fullscreenenter"",""0"",""1680""
","
","373.40000000596046","","","","","","","","50","1,0,0","6","blank","357","null","0.6170339970780124","0.08899953802290204","0.32361594571299057","0","","","","","","","","",""
"","html-keyboard-response","277","1003258","0.0-146.0-1.0","""event"",""trial"",""time""
""fullscreenenter"",""0"",""1680""
","
","
","""event"",""trial"",""time""
""fullscreenenter"",""0"",""1680""
","
