"success","trial_type","trial_index","time_elapsed","internal_node_id","interactions","blur_events","focus_events","fullscreenenter_events","fullscreenexit_events","rt","stimulus","key_press","subject_id","participant_id","age","gender","prompt","response","choice_outcomes","context_n","context_img_id","trial_n","probe_img_id","pR_red","pR_white","pR_black","outcome","is_valid","image_to_show","probed_trial","probed_context","correct","probe","probed_trial_n","probed_context_n","context_im"
"true","fullscreen","0","11065","0.0-0.0","""event"",""trial"",""time""
""fullscreenenter"",""0"",""10073""
","
","
","""event"",""trial"",""time""
""fullscreenenter"",""0"",""10073""
","
","","","","","","","","","","","","","","","","","","","","","","","","","","",""
"","pavlovia","1","11069","0.0-1.0","""event"",""trial"",""time""
""fullscreenenter"",""0"",""10073""
","
","
","""event"",""trial"",""time""
""fullscreenenter"",""0"",""10073""
","
","","","","","","","","","","","","","","","","","","","","","","","","","","",""
"","welc_back","2","20965","0.0-2.0","""event"",""trial"",""time""
""fullscreenenter"",""0"",""10073""
","
","
","""event"",""trial"",""time""
""fullscreenenter"",""0"",""10073""
","
","null","run_exp/static/audio/clip_29_welcome_back.m4a","null","2375","1980","14","Male","<div class='center'><p>Welcome to day 2!</p><p> Yesterday, you were the head captain of a pirate ship. You asked your fellow pirates to rob other ships of their gold across six different islands.</p></div>","","","","","","","","","","","","","","","","","","",""
"","html-keyboard-response","3","122202","0.0-3.0","""event"",""trial"",""time""
""fullscreenenter"",""0"",""10073""
","
","
","""event"",""trial"",""time""
""fullscreenenter"",""0"",""10073""
","
","101233.10000000149","<div class='center'><p>Welcome to day 2!</p><p> Yesterday, you were the head captain of a pirate ship. You asked your fellow pirates to rob other ships of their gold across six different islands.</p><p><b>[Press the space bar to continue]</b></p></div>","32","","","","","","","","","","","","","","","","","","","","","","","",""
"","day_1_summary_goal","4","139733","0.0-4.0","""event"",""trial"",""time""
""fullscreenenter"",""0"",""10073""
","
","
","""event"",""trial"",""time""
""fullscreenenter"",""0"",""10073""
","
","null","run_exp/static/audio/clip_30_goal_of_game.m4a","null","","","","","<div class='center'><p>Today, like yesterday, you get to pick which pirate you want to rob the next ship.</p><p>If the pirate is successful in robbing a ship, you get gold coins that look like this: </p><p><img src='run_exp/static/images/tutorial/reward.png' height='150'></p><p> If they were not successful in robbing the ship, then you will get no gold coins and you'll see a big red x like this: </p><p><img src='run_exp/static/images/tutorial/reward_no.png' height='150'></p></div>","","","","","","","","","","","","","","","","","","",""
"","html-keyboard-response","5","144048","0.0-5.0","""event"",""trial"",""time""
""fullscreenenter"",""0"",""10073""
","
","
","""event"",""trial"",""time""
""fullscreenenter"",""0"",""10073""
","
","4313.800000000745","<div class='center'><p>Today, like yesterday, you get to pick which pirate you want to rob the next ship.</p><p>If the pirate is successful in robbing a ship, you get gold coins that look like this: </p><p><img src='run_exp/static/images/tutorial/reward.png' height='150'></p><p> If they were not successful in robbing the ship, then you will get no gold coins and you'll see a big red x like this: </p><p><img src='run_exp/static/images/tutorial/reward_no.png' height='150'></p><p><b>[Press the space bar to continue]</b></p></div>","32","","","","","","","","","","","","","","","","","","","","","","","",""
"","day_1_summary_pick","6","158750","0.0-6.0","""event"",""trial"",""time""
""fullscreenenter"",""0"",""10073""
","
","
","""event"",""trial"",""time""
""fullscreenenter"",""0"",""10073""
","
","null","run_exp/static/audio/clip_31_how_to_pick_a_pirate.m4a","null","","","","","<div class='center'><p>Also, just like yesterday, you will use the 1,2,3 keys on your keyboard to pick a pirate. Press '1' to choose red beard, '2' to choose white beard, and '3' to choose black beard . You only have 3 seconds to pick a pirate, so please make a choice quickly!</p></div>","","","","","","","","","","","","","","","","","","",""
"","html-keyboard-response","7","158816","0.0-7.0","""event"",""trial"",""time""
""fullscreenenter"",""0"",""10073""
","
","
","""event"",""trial"",""time""
""fullscreenenter"",""0"",""10073""
","
","64.5","<div class='center'><p>Also, just like yesterday, you will use the 1,2,3 keys on your keyboard to pick a pirate. Press '1' to choose red beard, '2' to choose white beard, and '3' to choose black beard . You only have 3 seconds to pick a pirate, so please make a choice quickly!</p><p><b>[Press the space bar to continue]</b></p></div>","32","","","","","","","","","","","","","","","","","","","","","","","",""
"","test_phase_begin","8","189216","0.0-8.0","""event"",""trial"",""time""
""fullscreenenter"",""0"",""10073""
","
","
","""event"",""trial"",""time""
""fullscreenenter"",""0"",""10073""
","
","null","run_exp/static/audio/clip_32_final_place.m4a","null","","","","","<div class='center'><p>You’ve arrived at the final island of your journey! Unfortunately, it’s very foggy out, so you won’t be able to see it in the distance like the other islands you've visited.</p><p>You’ll still be deciding which pirate you want to rob a ship like before. However, because of the fog, you also won’t be able to see the ship.</p><p>This means you do not have to remember the ships you rob on this island.</p><p>Unlike yesterday, you won't be visiting multiple islands today. You will stay on this island for the entire game. This game will last ~30 minutes.</p></div>","","","","","","","","","","","","","","","","","","",""
"","html-keyboard-response","9","191236","0.0-9.0","""event"",""trial"",""time""
""fullscreenenter"",""0"",""10073""
","
","
","""event"",""trial"",""time""
""fullscreenenter"",""0"",""10073""
","
","2018.800000000745","<div class='center'><p>You’ve arrived at the final island of your journey! Unfortunately, it’s very foggy out, so you won’t be able to see it in the distance like the other islands you've visited.</p><p>You’ll still be deciding which pirate you want to rob a ship like before. However, because of the fog, you also won’t be able to see the ship.</p><p>This means you do not have to remember the ships you rob on this island.</p><p>Unlike yesterday, you won't be visiting multiple islands today. You will stay on this island for the entire game. This game will last ~30 minutes.</p><p><b>[Press the space bar to continue]</b></p></div>","32","","","","","","","","","","","","","","","","","","","","","","","",""
"","explain_probe_1","10","198945","0.0-10.0","""event"",""trial"",""time""
""fullscreenenter"",""0"",""10073""
","
","
","""event"",""trial"",""time""
""fullscreenenter"",""0"",""10073""
","
","null","run_exp/static/audio/clip_33_recognition_1.m4a","null","","","","","<div class='center'><p> Sometimes you’ll be shown a ship, and you will be asked if you saw this ship on a past island.</p><p> Here is an example of what you will see.</p><p><img src='run_exp/static/images/tutorial/example_recog_trial.png' height='500'></p></div>","","","","","","","","","","","","","","","","","","",""
"","html-keyboard-response","11","204785","0.0-11.0","""event"",""trial"",""time""
""fullscreenenter"",""0"",""10073""
","
","
","""event"",""trial"",""time""
""fullscreenenter"",""0"",""10073""
","
","5838.60000000149","<div class='center'><p> Sometimes you’ll be shown a ship, and you will be asked if you saw this ship on a past island.</p><p> Here is an example of what you will see.</p><p><img src='run_exp/static/images/tutorial/example_recog_trial.png' height='500'></p><p><b>[Press the space bar to continue]</b></p></div>","32","","","","","","","","","","","","","","","","","","","","","","","",""
"","explain_probe_2","12","226508","0.0-12.0","""event"",""trial"",""time""
""fullscreenenter"",""0"",""10073""
","
","
","""event"",""trial"",""time""
""fullscreenenter"",""0"",""10073""
","
","null","run_exp/static/audio/clip_34_recognition_2.m4a","null","","","","","<div class='center'><p> You will press the 5, 6, 7, 8 keys on your keyboard to respond.</p><p>If you are sure you saw the ship, press <b>5</b> on your keyboard.</p><p> If you think you saw it before but aren't sure, then press <b>6</b>.</p><p> If you think you have <b>not</b> seen it before but aren't sure, then press <b>7</b>.</p><p> If you are sure you did <b>not</b> see the ship before, then press <b>8</b>.</p><p><img src='run_exp/static/images/tutorial/example_recog_trial.png' height='500'></p></div>","","","","","","","","","","","","","","","","","","",""
"","html-keyboard-response","13","230158","0.0-13.0","""event"",""trial"",""time""
""fullscreenenter"",""0"",""10073""
","
","
","""event"",""trial"",""time""
""fullscreenenter"",""0"",""10073""
","
","3648.300000000745","<div class='center'><p> You will press the 5, 6, 7, 8 keys on your keyboard to respond.</p><p>If you are sure you saw the ship, press <b>5</b> on your keyboard.</p><p> If you think you saw it before but aren't sure, then press <b>6</b>.</p><p> If you think you have <b>not</b> seen it before but aren't sure, then press <b>7</b>.</p><p> If you are sure you did <b>not</b> see the ship before, then press <b>8</b>.</p><p><img src='run_exp/static/images/tutorial/example_recog_trial.png' height='500'></p><p><b>[Press the space bar to continue]</b></p></div>","32","","","","","","","","","","","","","","","","","","","","","","","",""
"","explain_outcome","14","247360","0.0-14.0","""event"",""trial"",""time""
""fullscreenenter"",""0"",""10073""
","
","
","""event"",""trial"",""time""
""fullscreenenter"",""0"",""10073""
","
","null","run_exp/static/audio/clip_35_recognition_3.m4a","null","","","","","<div class='center'><p> If you remember correctly, then you’ll get a gold coin like this: </p><p><img src='run_exp/static/images/tutorial/reward_small.png' height='200'></p><p>If you do not remember correctly, then you'll see a red x like this: </p><p><img src='run_exp/static/images/tutorial/reward_no.png' height='200'></p><p>Importantly, when you are shown a ship, take the time to remind yourself which island you saw it on. This will help you in the next part of the study.</p></div>","","","","","","","","","","","","","","","","","","",""
"","html-keyboard-response","15","270303","0.0-15.0","""event"",""trial"",""time""
""fullscreenenter"",""0"",""10073""
","
","
","""event"",""trial"",""time""
""fullscreenenter"",""0"",""10073""
","
","22941.79999999702","<div class='center'><p> If you remember correctly, then you’ll get a gold coin like this: </p><p><img src='run_exp/static/images/tutorial/reward_small.png' height='200'></p><p>If you do not remember correctly, then you'll see a red x like this: </p><p><img src='run_exp/static/images/tutorial/reward_no.png' height='200'></p><p>Importantly, when you are shown a ship, take the time to remind yourself which island you saw it on. This will help you in the next part of the study.</p><p><b>[Press the space bar to continue]</b></p></div>","32","","","","","","","","","","","","","","","","","","","","","","","",""
"","begin_test_phase","16","286415","0.0-16.0","""event"",""trial"",""time""
""fullscreenenter"",""0"",""10073""
","
","
","""event"",""trial"",""time""
""fullscreenenter"",""0"",""10073""
","
","null","run_exp/static/audio/clip_36_begin_final.m4a","null","","","","","<div class='center'><p>Let's go over the important points again. Your job is to: </p><p>1. Pick the pirate who is best at robbing ships and will bring you back gold coins. </p><p>2. Correctly remember whether or not you saw a ship before. If you did see the ship before, remind yourself on which island you saw it. </p></div>","","","","","","","","","","","","","","","","","","",""
"","html-keyboard-response","17","455532","0.0-17.0","""event"",""trial"",""time""
""fullscreenenter"",""0"",""10073""
","
","
","""event"",""trial"",""time""
""fullscreenenter"",""0"",""10073""
","
","169065.8999999985","<div class='center'><p>Let's go over the important points again. Your job is to: </p><p>1. Pick the pirate who is best at robbing ships and will bring you back gold coins. </p><p>2. Correctly remember whether or not you saw a ship before. If you did see the ship before, remind yourself on which island you saw it. </p><p><b>[Press the space bar to continue]</b></p></div>","32","","","","","","","","","","","","","","","","","","","","","","","",""
"","do_welcome","18","459548","0.0-18.0","""event"",""trial"",""time""
""fullscreenenter"",""0"",""10073""
","
","
","""event"",""trial"",""time""
""fullscreenenter"",""0"",""10073""
","
","null","","","","","","","","null","","","","","","","","","","","","","","","","","",""
"","do_trial","19","465596","0.0-19.0-0.0","""event"",""trial"",""time""
""fullscreenenter"",""0"",""10073""
","
","
","""event"",""trial"",""time""
""fullscreenenter"",""0"",""10073""
","
","null","","","","","","","","null","0,0,0","6","blank","230","null","0.6949903482179878","0.18123873324067064","0.27105735808321385","","","","","","","","","",""
"","html-keyboard-response","20","466603","0.0-19.0-1.0","""event"",""trial"",""time""
""fullscreenenter"",""0"",""10073""
","
","
","""event"",""trial"",""time""
""fullscreenenter"",""0"",""10073""
","
","null","<p></p>","null","","","","","","","","","","","","","","","","","","","","","","","",""
"","do_trial","21","470131","0.0-20.0-0.0","""event"",""trial"",""time""
""fullscreenenter"",""0"",""10073""
","
","
","""event"",""trial"",""time""
""fullscreenenter"",""0"",""10073""
","
","988.8000000007451","","","","","","","","51","1,0,1","6","blank","231","null","0.5604260861562106","0.20880038025610176","0.4151831742626644","1","","","","","","","","",""
"","html-keyboard-response","22","471135","0.0-20.0-1.0","""event"",""trial"",""time""
""fullscreenenter"",""0"",""10073""
","
","
","""event"",""trial"",""time""
""fullscreenenter"",""0"",""10073""
","
","null","<p></p>","null","","","","","","","","","","","","","","","","","","","","","","","",""
"","do_trial","23","474050","0.0-21.0-0.0","""event"",""trial"",""time""
""fullscreenenter"",""0"",""10073""
","
","
","""event"",""trial"",""time""
""fullscreenenter"",""0"",""10073""
","
","368.5","","","","","","","","51","0,0,1","6","blank","232","null","0.3988445460865943","0.06753617230445129","0.4063942219140908","1","","","","","","","","",""
"","html-keyboard-response","24","475053","0.0-21.0-1.0","""event"",""trial"",""time""
""fullscreenenter"",""0"",""10073""
","
","
","""event"",""trial"",""time""
""fullscreenenter"",""0"",""10073""
","
","null","<p></p>","null","","","","","","","","","","","","","","","","","","","","","","","",""
"","do_trial","25","477644","0.0-22.0-0.0","""event"",""trial"",""time""
""fullscreenenter"",""0"",""10073""
","
","
","""event"",""trial"",""time""
""fullscreenenter"",""0"",""10073""
","
","43.19999999925494","","","","","","","","51","0,0,0","6","blank","233","null","0.4934269703107146","0.17640161429518994","0.13788004192882958","0","","","","","","","","",""
"","html-keyboard-response","26","478651","0.0-22.0-1.0","""event"",""trial"",""time""
""fullscreenenter"",""0"",""10073""
","
","
","""event"",""trial"",""time""
""fullscreenenter"",""0"",""10073""
","
","null","<p></p>","null","","","","","","","","","","","","","","","","","","","","","","","",""
"","do_trial","27","481526","0.0-23.0-0.0","""event"",""trial"",""time""
""fullscreenenter"",""0"",""10073""
","
","
","""event"",""trial"",""time""
""fullscreenenter"",""0"",""10073""
","
","330.69999999925494","","","","","","","","50","0,0,0","6","blank","234","null","0.45772655019471875","0.13223770468213905","0.21904597264651687","0","","","","","","","","",""
"","html-keyboard-response","28","482532","0.0-23.0-1.0","""event"",""trial"",""time""
""fullscreenenter"",""0"",""10073""
","
","
","""event"",""trial"",""time""
""fullscreenenter"",""0"",""10073""
","
","null","<p></p>","null","","","","","","","","","","","","","","","","","","","","","","","",""
"","do_trial","29","485190","0.0-24.0-0.0","""event"",""trial"",""time""
""fullscreenenter"",""0"",""10073""
","
","
","""event"",""trial"",""time""
""fullscreenenter"",""0"",""10073""
","
","112.69999999925494","","","","","","","","51","0,0,0","6","blank","235","null","0.5100503815152044","0.05705240805777449","0.16644825047959785","0","","","","","","","","",""
"","html-keyboard-response","30","486193","0.0-24.0-1.0","""event"",""trial"",""time""
""fullscreenenter"",""0"",""10073""
","
","
","""event"",""trial"",""time""
""fullscreenenter"",""0"",""10073""
","
","null","<p></p>","null","","","","","","","","","","","","","","","","","","","","","","","",""
"","do_trial","31","489080","0.0-25.0-0.0","""event"",""trial"",""time""
""fullscreenenter"",""0"",""10073""
","
","
","""event"",""trial"",""time""
""fullscreenenter"",""0"",""10073""
","
","346.70000000298023","","","","","","","","49","1,0,0","6","blank","236","null","0.660796976502669","0.08245340371350537","0.23922108091659744","1","","","","","","","","",""
"","html-keyboard-response","32","490086","0.0-25.0-1.0","""event"",""trial"",""time""
""fullscreenenter"",""0"",""10073""
","
","
","""event"",""trial"",""time""
""fullscreenenter"",""0"",""10073""
","
","null","<p></p>","null","","","","","","","","","","","","","","","","","","","","","","","",""
"","do_trial","33","492633","0.0-26.0-0.0","""event"",""trial"",""time""
""fullscreenenter"",""0"",""10073""
","
","
","""event"",""trial"",""time""
""fullscreenenter"",""0"",""10073""
","
","0","","","","","","","","49","1,0,0","6","blank","237","null","0.6818094966189547","0.08212450460033197","0.18849385076291333","1","","","","","","","","",""
"","html-keyboard-response","34","493637","0.0-26.0-1.0","""event"",""trial"",""time""
""fullscreenenter"",""0"",""10073""
","
","
","""event"",""trial"",""time""
""fullscreenenter"",""0"",""10073""
","
","null","<p></p>","null","","","","","","","","","","","","","","","","","","","","","","","",""
"","do_trial","35","496421","0.0-27.0-0.0","""event"",""trial"",""time""
""fullscreenenter"",""0"",""10073""
","
","
","""event"",""trial"",""time""
""fullscreenenter"",""0"",""10073""
","
","235","","","","","","","","49","0,0,0","6","blank","238","null","0.5001622728997871","0.09028374605486071","0.17488283061830578","0","","","","","","","","",""
"","html-keyboard-response","36","497426","0.0-27.0-1.0","""event"",""trial"",""time""
""fullscreenenter"",""0"",""10073""
","
","
","""event"",""trial"",""time""
""fullscreenenter"",""0"",""10073""
","
","null","<p></p>","null","","","","","","","","","","","","","","","","","","","","","","","",""
"","do_trial","37","501041","0.0-28.0-0.0","""event"",""trial"",""time""
""fullscreenenter"",""0"",""10073""
","
","
","""event"",""trial"",""time""
""fullscreenenter"",""0"",""10073""
","
","1069.300000000745","","","","","","","","50","1,0,0","6","blank","239","null","0.5379310336130566","0.10515071649578066","0.4313250864451095","0","","","","","","","","",""
"","html-keyboard-response","38","502046","0.0-28.0-1.0","""event"",""trial"",""time""
""fullscreenenter"",""0"",""10073""
","
","
","""event"",""trial"",""time""
""fullscreenenter"",""0"",""10073""
","
","null","<p></p>","null","","","","","","","","","","","","","","","","","","","","","","","",""
"","do_trial","39","504864","0.0-29.0-0.0","""event"",""trial"",""time""
""fullscreenenter"",""0"",""10073""
","
","
","""event"",""trial"",""time""
""fullscreenenter"",""0"",""10073""
","
","278.0999999977648","","","","","","","","51","0,0,1","6","blank","240","null","0.46462442267787424","0.13897754425449418","0.4697544766577152","1","","","","","","","","",""
"","html-keyboard-response","40","505869","0.0-29.0-1.0","""event"",""trial"",""time""
""fullscreenenter"",""0"",""10073""
","
","
","""event"",""trial"",""time""
""fullscreenenter"",""0"",""10073""
","
","null","<p></p>","null","","","","","","","","","","","","","","","","","","","","","","","",""
"","do_recog","41","511884","0.0-30.0-0.0","""event"",""trial"",""time""
""fullscreenenter"",""0"",""10073""
","
","
","""event"",""trial"",""time""
""fullscreenenter"",""0"",""10073""
","
","null","","","","","","","","null","","","","241","probe-36","","","","","1","[object Object]","77","1","0","","","",""
"","html-keyboard-response","42","512891","0.0-30.0-1.0","""event"",""trial"",""time""
""fullscreenenter"",""0"",""10073""
","
","
","""event"",""trial"",""time""
""fullscreenenter"",""0"",""10073""
","
","null","<p></p>","null","","","","","","","","","","","","","","","","","","","","","","","",""
"","do_trial","43","516583","0.0-31.0-0.0","""event"",""trial"",""time""
""fullscreenenter"",""0"",""10073""
","
","
","""event"",""trial"",""time""
""fullscreenenter"",""0"",""10073""
","
","1153","","","","","","","","50","1,0,0","6","blank","242","null","0.5100897686409417","0.15046423816780152","0.5047462096247864","0","","","","","","","","",""
"","html-keyboard-response","44","517589","0.0-31.0-1.0","""event"",""trial"",""time""
""fullscreenenter"",""0"",""10073""
","
","
","""event"",""trial"",""time""
""fullscreenenter"",""0"",""10073""
","
","null","<p></p>","null","","","","","","","","","","","","","","","","","","","","","","","",""
"","do_trial","45","520426","0.0-32.0-0.0","""event"",""trial"",""time""
""fullscreenenter"",""0"",""10073""
","
","
","""event"",""trial"",""time""
""fullscreenenter"",""0"",""10073""
","
","288.6000000014901","","","","","","","","51","1,0,1","6","blank","243","null","0.32247254299257966","0.3251663004170901","0.45082658866015174","1","","","","","","","","",""
"","html-keyboard-response","46","521430","0.0-32.0-1.0","""event"",""trial"",""time""
""fullscreenenter"",""0"",""10073""
","
","
","""event"",""trial"",""time""
""fullscreenenter"",""0"",""10073""
","
","null","<p></p>","null","","","","","","","","","","","","","","","","","","","","","","","",""
"","do_trial","47","524065","0.0-33.0-0.0","""event"",""trial"",""time""
""fullscreenenter"",""0"",""10073""
","
","
","""event"",""trial"",""time""
""fullscreenenter"",""0"",""10073""
","
","94","","","","","","","","51","0,1,1","6","blank","244","null","0.32617038674264526","0.3668374799156513","0.38687211948049544","1","","","","","","","","",""
"","html-keyboard-response","48","525071","0.0-33.0-1.0","""event"",""trial"",""time""
""fullscreenenter"",""0"",""10073""
","
","
","""event"",""trial"",""time""
""fullscreenenter"",""0"",""10073""
","
","null","<p></p>","null","","","","","","","","","","","","","","","","","","","","","","","",""
"","do_trial","49","527678","0.0-34.0-0.0","""event"",""trial"",""time""
""fullscreenenter"",""0"",""10073""
","
","
","""event"",""trial"",""time""
""fullscreenenter"",""0"",""10073""
","
","60.19999999925494","","","","","","","","51","1,0,0","6","blank","245","null","0.27035275458041724","0.5549228498255007","0.3822099362068158","0","","","","","","","","",""
"","html-keyboard-response","50","528681","0.0-34.0-1.0","""event"",""trial"",""time""
""fullscreenenter"",""0"",""10073""
","
","
","""event"",""trial"",""time""
""fullscreenenter"",""0"",""10073""
","
","null","<p></p>","null","","","","","","","","","","","","","","","","","","","","","","","",""
"","do_recog","51","534693","0.0-35.0-0.0","""event"",""trial"",""time""
""fullscreenenter"",""0"",""10073""
","
","
","""event"",""trial"",""time""
""fullscreenenter"",""0"",""10073""
","
","null","","","","","","","","null","","","","246","probe-45","","","","","1","[object Object]","154","3","0","","","",""
"","html-keyboard-response","52","535697","0.0-35.0-1.0","""event"",""trial"",""time""
""fullscreenenter"",""0"",""10073""
","
","
","""event"",""trial"",""time""
""fullscreenenter"",""0"",""10073""
","
","null","<p></p>","null","","","","","","","","","","","","","","","","","","","","","","","",""
"","do_trial","53","539040","0.0-36.0-0.0","""event"",""trial"",""time""
""fullscreenenter"",""0"",""10073""
","
","
","""event"",""trial"",""time""
""fullscreenenter"",""0"",""10073""
","
","800.0999999977648","","","","","","","","49","0,0,1","6","blank","247","null","0.10285528106103238","0.7204906658134023","0.3852045917963702","0","","","","","","","","",""
"","html-keyboard-response","54","540042","0.0-36.0-1.0","""event"",""trial"",""time""
""fullscreenenter"",""0"",""10073""
","
","
","""event"",""trial"",""time""
""fullscreenenter"",""0"",""10073""
","
","null","<p></p>","null","","","","","","","","","","","","","","","","","","","","","","","",""
"","do_trial","55","542817","0.0-37.0-0.0","""event"",""trial"",""time""
""fullscreenenter"",""0"",""10073""
","
","
","""event"",""trial"",""time""
""fullscreenenter"",""0"",""10073""
","
","233.39999999850988","","","","","","","","51","0,1,1","6","blank","248","null","0.16653385634615614","0.7749551247853306","0.46603386001667557","1","","","","","","","","",""
"","html-keyboard-response","56","543822","0.0-37.0-1.0","""event"",""trial"",""time""
""fullscreenenter"",""0"",""10073""
","
","
","""event"",""trial"",""time""
""fullscreenenter"",""0"",""10073""
","
","null","<p></p>","null","","","","","","","","","","","","","","","","","","","","","","","",""
"","do_trial","57","547066","0.0-38.0-0.0","""event"",""trial"",""time""
""fullscreenenter"",""0"",""10073""
","
","
","""event"",""trial"",""time""
""fullscreenenter"",""0"",""10073""
","
","701.5","","","","","","","","50","0,1,1","6","blank","249","null","0.1910293726942091","0.8136427758453069","0.36849316226847056","1","","","","","","","","",""
"","html-keyboard-response","58","548069","0.0-38.0-1.0","""event"",""trial"",""time""
""fullscreenenter"",""0"",""10073""
","
","
","""event"",""trial"",""time""
""fullscreenenter"",""0"",""10073""
","
","null","<p></p>","null","","","","","","","","","","","","","","","","","","","","","","","",""
"","do_trial","59","550995","0.0-39.0-0.0","""event"",""trial"",""time""
""fullscreenenter"",""0"",""10073""
","
","
","""event"",""trial"",""time""
""fullscreenenter"",""0"",""10073""
","
","386","","","","","","","","51","0,0,0","6","blank","250","null","0.08499350033971652","0.6463038617969328","0.24555434064128775","0","","","","","","","","",""
"","html-keyboard-response","60","552000","0.0-39.0-1.0","""event"",""trial"",""time""
""fullscreenenter"",""0"",""10073""
","
","
","""event"",""trial"",""time""
""fullscreenenter"",""0"",""10073""
","
","null","<p></p>","null","","","","","","","","","","","","","","","","","","","","","","","",""
"","do_trial","61","554801","0.0-40.0-0.0","""event"",""trial"",""time""
""fullscreenenter"",""0"",""10073""
","
","
","""event"",""trial"",""time""
""fullscreenenter"",""0"",""10073""
","
","251.59999999776483","","","","","","","","50","0,1,0","6","blank","251","null","0.10013719205470041","0.5859899959963651","0.2530738425934177","1","","","","","","","","",""
"","html-keyboard-response","62","555807","0.0-40.0-1.0","""event"",""trial"",""time""
""fullscreenenter"",""0"",""10073""
","
","
","""event"",""trial"",""time""
""fullscreenenter"",""0"",""10073""
","
","null","<p></p>","null","","","","","","","","","","","","","","","","","","","","","","","",""
"","do_trial","63","558521","0.0-41.0-0.0","""event"",""trial"",""time""
""fullscreenenter"",""0"",""10073""
","
","
","""event"",""trial"",""time""
""fullscreenenter"",""0"",""10073""
","
","164.79999999701977","","","","","","","","50","0,1,1","6","blank","252","null","0.12190661754985588","0.5594042622854914","0.32145658566946594","1","","","","","","","","",""
"","html-keyboard-response","64","559526","0.0-41.0-1.0","""event"",""trial"",""time""
""fullscreenenter"",""0"",""10073""
","
","
","""event"",""trial"",""time""
""fullscreenenter"",""0"",""10073""
","
","null","<p></p>","null","","","","","","","","","","","","","","","","","","","","","","","",""
"","do_recog","65","563425","0.0-42.0-0.0","""event"",""trial"",""time""
""fullscreenenter"",""0"",""10073""
","
","
","""event"",""trial"",""time""
""fullscreenenter"",""0"",""10073""
","
","2393.5","","","","","","","","54","","","","253","probe-50","","","","","1","[object Object]","119","2","1","","","",""
"","html-keyboard-response","66","564430","0.0-42.0-1.0","""event"",""trial"",""time""
""fullscreenenter"",""0"",""10073""
","
","
","""event"",""trial"",""time""
""fullscreenenter"",""0"",""10073""
","
","null","<p></p>","null","","","","","","","","","","","","","","","","","","","","","","","",""
"","do_trial","67","568152","0.0-43.0-0.0","""event"",""trial"",""time""
""fullscreenenter"",""0"",""10073""
","
","
","""event"",""trial"",""time""
""fullscreenenter"",""0"",""10073""
","
","1177.2000000029802","","","","","","","","51","0,1,0","6","blank","254","null","0.27958338670053434","0.5729011608277645","0.2746554097161305","0","","","","","","","","",""
"","html-keyboard-response","68","569158","0.0-43.0-1.0","""event"",""trial"",""time""
""fullscreenenter"",""0"",""10073""
","
","
","""event"",""trial"",""time""
""fullscreenenter"",""0"",""10073""
","
","null","<p></p>","null","","","","","","","","","","","","","","","","","","","","","","","",""
"","do_trial","69","571897","0.0-44.0-0.0","""event"",""trial"",""time""
""fullscreenenter"",""0"",""10073""
","
","
","""event"",""trial"",""time""
""fullscreenenter"",""0"",""10073""
","
","202.20000000298023","","","","","","","","49","1,1,1","6","blank","255","null","0.2667390952718854","0.7054029553293236","0.2477034229443501","1","","","","","","","","",""
"","html-keyboard-response","70","572904","0.0-44.0-1.0","""event"",""trial"",""time""
""fullscreenenter"",""0"",""10073""
","
","
","""event"",""trial"",""time""
""fullscreenenter"",""0"",""10073""
","
","null","<p></p>","null","","","","","","","","","","","","","","","","","","","","","","","",""
"","do_trial","71","575664","0.0-45.0-0.0","""event"",""trial"",""time""
""fullscreenenter"",""0"",""10073""
","
","
","""event"",""trial"",""time""
""fullscreenenter"",""0"",""10073""
","
","213.10000000149012","","","","","","","","50","0,0,0","6","blank","256","null","0.24735101881039362","0.6105086038978967","0.414743659823329","0","","","","","","","","",""
"","html-keyboard-response","72","576670","0.0-45.0-1.0","""event"",""trial"",""time""
""fullscreenenter"",""0"",""10073""
","
","
","""event"",""trial"",""time""
""fullscreenenter"",""0"",""10073""
","
","null","<p></p>","null","","","","","","","","","","","","","","","","","","","","","","","",""
"","do_trial","73","579235","0.0-46.0-0.0","""event"",""trial"",""time""
""fullscreenenter"",""0"",""10073""
","
","
","""event"",""trial"",""time""
""fullscreenenter"",""0"",""10073""
","
","27.199999999254942","","","","","","","","49","0,0,0","6","blank","257","null","0.1787495836410897","0.6101031800634734","0.31375874139390386","0","","","","","","","","",""
"","html-keyboard-response","74","580241","0.0-46.0-1.0","""event"",""trial"",""time""
""fullscreenenter"",""0"",""10073""
","
","
","""event"",""trial"",""time""
""fullscreenenter"",""0"",""10073""
","
","null","<p></p>","null","","","","","","","","","","","","","","","","","","","","","","","",""
"","do_trial","75","583004","0.0-47.0-0.0","""event"",""trial"",""time""
""fullscreenenter"",""0"",""10073""
","
","
","""event"",""trial"",""time""
""fullscreenenter"",""0"",""10073""
","
","225.79999999701977","","","","","","","","51","0,1,0","6","blank","258","null","0.23018269794594737","0.6309120221015159","0.23767380341093222","0","","","","","","","","",""
"","html-keyboard-response","76","584010","0.0-47.0-1.0","""event"",""trial"",""time""
""fullscreenenter"",""0"",""10073""
","
","
","""event"",""trial"",""time""
""fullscreenenter"",""0"",""10073""
","
","null","<p></p>","null","","","","","","","","","","","","","","","","","","","","","","","",""
"","do_trial","77","586654","0.0-48.0-0.0","""event"",""trial"",""time""
""fullscreenenter"",""0"",""10073""
","
","
","""event"",""trial"",""time""
""fullscreenenter"",""0"",""10073""
","
","94.79999999701977","","","","","","","","50","0,0,1","6","blank","259","null","0.11806163050364511","0.609315894938756","0.30383504812892254","0","","","","","","","","",""
"","html-keyboard-response","78","587655","0.0-48.0-1.0","""event"",""trial"",""time""
""fullscreenenter"",""0"",""10073""
","
","
","""event"",""trial"",""time""
""fullscreenenter"",""0"",""10073""
","
","null","<p></p>","null","","","","","","","","","","","","","","","","","","","","","","","",""
"","do_trial","79","590347","0.0-49.0-0.0","""event"",""trial"",""time""
""fullscreenenter"",""0"",""10073""
","
","
","""event"",""trial"",""time""
""fullscreenenter"",""0"",""10073""
","
","150.10000000149012","","","","","","","","51","1,0,0","6","blank","260","null","0.10943870677086887","0.5277944498468427","0.28200736321084163","0","","","","","","","","",""
"","html-keyboard-response","80","591351","0.0-49.0-1.0","""event"",""trial"",""time""
""fullscreenenter"",""0"",""10073""
","
","
","""event"",""trial"",""time""
""fullscreenenter"",""0"",""10073""
","
","null","<p></p>","null","","","","","","","","","","","","","","","","","","","","","","","",""
"","do_recog","81","595696","0.0-50.0-0.0","""event"",""trial"",""time""
""fullscreenenter"",""0"",""10073""
","
","
","""event"",""trial"",""time""
""fullscreenenter"",""0"",""10073""
","
","2838","","","","","","","","56","","","","261","probe-214","","","","","1","[object Object]","115","2","0","","","",""
"","html-keyboard-response","82","596698","0.0-50.0-1.0","""event"",""trial"",""time""
""fullscreenenter"",""0"",""10073""
","
","
","""event"",""trial"",""time""
""fullscreenenter"",""0"",""10073""
","
","null","<p></p>","null","","","","","","","","","","","","","","","","","","","","","","","",""
"","do_trial","83","600828","0.0-51.0-0.0","""event"",""trial"",""time""
""fullscreenenter"",""0"",""10073""
","
","
","""event"",""trial"",""time""
""fullscreenenter"",""0"",""10073""
","
","1583.7999999970198","","","","","","","","50","0,1,0","6","blank","262","null","0.18060812620236671","0.6108230719788649","0.2470681386437455","1","","","","","","","","",""
"","html-keyboard-response","84","601831","0.0-51.0-1.0","""event"",""trial"",""time""
""fullscreenenter"",""0"",""10073""
","
","
","""event"",""trial"",""time""
""fullscreenenter"",""0"",""10073""
","
","null","<p></p>","null","","","","","","","","","","","","","","","","","","","","","","","",""
"","do_trial","85","604708","0.0-52.0-0.0","""event"",""trial"",""time""
""fullscreenenter"",""0"",""10073""
","
","
","""event"",""trial"",""time""
""fullscreenenter"",""0"",""10073""
","
","339.30000000074506","","","","","","","","50","0,0,0","6","blank","263","null","0.17262426337291864","0.3344485045590095","0.23501297018140666","0","","","","","","","","",""
"","html-keyboard-response","86","605715","0.0-52.0-1.0","""event"",""trial"",""time""
""fullscreenenter"",""0"",""10073""
","
","
","""event"",""trial"",""time""
""fullscreenenter"",""0"",""10073""
","
","null","<p></p>","null","","","","","","","","","","","","","","","","","","","","","","","",""
"","do_recog","87","609688","0.0-53.0-0.0","""event"",""trial"",""time""
""fullscreenenter"",""0"",""10073""
","
","
","""event"",""trial"",""time""
""fullscreenenter"",""0"",""10073""
","
","2463.800000000745","","","","","","","","55","","","","264","probe-03","","","","","1","[object Object]","111","2","0","","","",""
"","html-keyboard-response","88","610694","0.0-53.0-1.0","""event"",""trial"",""time""
""fullscreenenter"",""0"",""10073""
","
","
","""event"",""trial"",""time""
""fullscreenenter"",""0"",""10073""
","
","null","<p></p>","null","","","","","","","","","","","","","","","","","","","","","","","",""
"","do_trial","89","614295","0.0-54.0-0.0","""event"",""trial"",""time""
""fullscreenenter"",""0"",""10073""
","
","
","""event"",""trial"",""time""
""fullscreenenter"",""0"",""10073""
","
","1054.300000000745","","","","","","","","49","0,1,0","6","blank","265","null","0.1646268169502357","0.4078126469321835","0.08086195654596293","0","","","","","","","","",""
"","html-keyboard-response","90","615301","0.0-54.0-1.0","""event"",""trial"",""time""
""fullscreenenter"",""0"",""10073""
","
","
","""event"",""trial"",""time""
""fullscreenenter"",""0"",""10073""
","
","null","<p></p>","null","","","","","","","","","","","","","","","","","","","","","","","",""
"","do_recog","91","618737","0.0-55.0-0.0","""event"",""trial"",""time""
""fullscreenenter"",""0"",""10073""
","
","
","""event"",""trial"",""time""
""fullscreenenter"",""0"",""10073""
","
","1929","","","","","","","","53","","","","266","probe-43","","","","","1","[object Object]","35","0","1","","","",""
"","html-keyboard-response","92","619743","0.0-55.0-1.0","""event"",""trial"",""time""
""fullscreenenter"",""0"",""10073""
","
","
","""event"",""trial"",""time""
""fullscreenenter"",""0"",""10073""
","
","null","<p></p>","null","","","","","","","","","","","","","","","","","","","","","","","",""
"","do_trial","93","623248","0.0-56.0-0.0","""event"",""trial"",""time""
""fullscreenenter"",""0"",""10073""
","
","
","""event"",""trial"",""time""
""fullscreenenter"",""0"",""10073""
","
","962.5","","","","","","","","49","0,0,1","6","blank","267","null","0.13113337652184145","0.48831765143118844","0.2063100117010205","0","","","","","","","","",""
"","html-keyboard-response","94","624255","0.0-56.0-1.0","""event"",""trial"",""time""
""fullscreenenter"",""0"",""10073""
","
","
","""event"",""trial"",""time""
""fullscreenenter"",""0"",""10073""
","
","null","<p></p>","null","","","","","","","","","","","","","","","","","","","","","","","",""
"","do_trial","95","627032","0.0-57.0-0.0","""event"",""trial"",""time""
""fullscreenenter"",""0"",""10073""
","
","
","""event"",""trial"",""time""
""fullscreenenter"",""0"",""10073""
","
","233.19999999925494","","","","","","","","51","0,1,0","6","blank","268","null","0.10200465212365968","0.47508347839706205","0.09412712525107755","0","","","","","","","","",""
"","html-keyboard-response","96","628037","0.0-57.0-1.0","""event"",""trial"",""time""
""fullscreenenter"",""0"",""10073""
","
","
","""event"",""trial"",""time""
""fullscreenenter"",""0"",""10073""
","
","null","<p></p>","null","","","","","","","","","","","","","","","","","","","","","","","",""
"","break","97","656305","0.0-58.0-0.0","""event"",""trial"",""time""
""fullscreenenter"",""0"",""10073""
","
","
","""event"",""trial"",""time""
""fullscreenenter"",""0"",""10073""
","
","28267.10000000149","<div class='center'><p>Time to take a quick break! You have 2 minutes to rest, but you can move on sooner if you'd like.</p><p> Press the <b>space bar</b> to continue.</p></div>","32","","","","","","","","","","","","","","","","","","","","","","","",""
"","do_trial","98","660084","0.0-58.0-1.0","""event"",""trial"",""time""
""fullscreenenter"",""0"",""10073""
","
","
","""event"",""trial"",""time""
""fullscreenenter"",""0"",""10073""
","
","1235.3999999985099","","","","","","","","51","1,0,0","6","blank","269","null","0.1163588208027307","0.41913686914598447","0.2258820616041058","0","","","","","","","","",""
"","html-keyboard-response","99","661090","0.0-58.0-2.0","""event"",""trial"",""time""
""fullscreenenter"",""0"",""10073""
","
","
","""event"",""trial"",""time""
""fullscreenenter"",""0"",""10073""
","
","null","<p></p>","null","","","","","","","","","","","","","","","","","","","","","","","",""
"","do_trial","100","663897","0.0-59.0-0.0","""event"",""trial"",""time""
""fullscreenenter"",""0"",""10073""
","
","
","""event"",""trial"",""time""
""fullscreenenter"",""0"",""10073""
","
","265.1000000014901","","","","","","","","50","0,0,0","6","blank","270","null","0.06786417414546377","0.48056369417974615","0.2026188572235788","0","","","","","","","","",""
"","html-keyboard-response","101","664903","0.0-59.0-1.0","""event"",""trial"",""time""
""fullscreenenter"",""0"",""10073""
","
","
","""event"",""trial"",""time""
""fullscreenenter"",""0"",""10073""
","
","null","<p></p>","null","","","","","","","","","","","","","","","","","","","","","","","",""
"","do_trial","102","667681","0.0-60.0-0.0","""event"",""trial"",""time""
""fullscreenenter"",""0"",""10073""
","
","
","""event"",""trial"",""time""
""fullscreenenter"",""0"",""10073""
","
","238","","","","","","","","49","0,1,0","6","blank","271","null","0.06445287175256123","0.5775522676991681","0.20187592898255804","0","","","","","","","","",""
"","html-keyboard-response","103","668684","0.0-60.0-1.0","""event"",""trial"",""time""
""fullscreenenter"",""0"",""10073""
","
","
","""event"",""trial"",""time""
""fullscreenenter"",""0"",""10073""
","
","null","<p></p>","null","","","","","","","","","","","","","","","","","","","","","","","",""
"","do_recog","104","672432","0.0-61.0-0.0","""event"",""trial"",""time""
""fullscreenenter"",""0"",""10073""
","
","
","""event"",""trial"",""time""
""fullscreenenter"",""0"",""10073""
","
","2236.89999999851","","","","","","","","55","","","","272","probe-220","","","","","1","[object Object]","150","3","0","","","",""
"","html-keyboard-response","105","673433","0.0-61.0-1.0","""event"",""trial"",""time""
""fullscreenenter"",""0"",""10073""
","
","
","""event"",""trial"",""time""
""fullscreenenter"",""0"",""10073""
","
","null","<p></p>","null","","","","","","","","","","","","","","","","","","","","","","","",""
"","do_trial","106","677069","0.0-62.0-0.0","""event"",""trial"",""time""
""fullscreenenter"",""0"",""10073""
","
","
","""event"",""trial"",""time""
""fullscreenenter"",""0"",""10073""
","
","1096.199999999255","","","","","","","","50","0,0,0","6","blank","273","null","0.08650381144490747","0.5217699177841675","0.20069445676117273","0","","","","","","","","",""
"","html-keyboard-response","107","678075","0.0-62.0-1.0","""event"",""trial"",""time""
""fullscreenenter"",""0"",""10073""
","
","
","""event"",""trial"",""time""
""fullscreenenter"",""0"",""10073""
","
","null","<p></p>","null","","","","","","","","","","","","","","","","","","","","","","","",""
"","do_trial","108","680961","0.0-63.0-0.0","""event"",""trial"",""time""
""fullscreenenter"",""0"",""10073""
","
","
","""event"",""trial"",""time""
""fullscreenenter"",""0"",""10073""
","
","331","","","","","","","","51","0,1,0","6","blank","274","null","0.09525501952377408","0.5441753824418943","0.3358877275838789","0","","","","","","","","",""
"","html-keyboard-response","109","681964","0.0-63.0-1.0","""event"",""trial"",""time""
""fullscreenenter"",""0"",""10073""
","
","
","""event"",""trial"",""time""
""fullscreenenter"",""0"",""10073""
","
","null","<p></p>","null","","","","","","","","","","","","","","","","","","","","","","","",""
"","do_recog","110","685298","0.0-64.0-0.0","""event"",""trial"",""time""
""fullscreenenter"",""0"",""10073""
","
","
","""event"",""trial"",""time""
""fullscreenenter"",""0"",""10073""
","
","1823.7000000029802","","","","","","","","55","","","","275","probe-185","","","","","1","[object Object]","79","1","0","","","",""
"","html-keyboard-response","111","686304","0.0-64.0-1.0","""event"",""trial"",""time""
""fullscreenenter"",""0"",""10073""
","
","
","""event"",""trial"",""time""
""fullscreenenter"",""0"",""10073""
","
","null","<p></p>","null","","","","","","","","","","","","","","","","","","","","","","","",""
"","do_trial","112","689818","0.0-65.0-0.0","""event"",""trial"",""time""
""fullscreenenter"",""0"",""10073""
","
","
","""event"",""trial"",""time""
""fullscreenenter"",""0"",""10073""
","
","968.1999999992549","","","","","","","","50","0,1,1","6","blank","276","null","0.17371179598299322","0.46007906168357515","0.302152715017173","1","","","","","","","","",""
"","html-keyboard-response","113","690821","0.0-65.0-1.0","""event"",""trial"",""time""
""fullscreenenter"",""0"",""10073""
","
","
","""event"",""trial"",""time""
""fullscreenenter"",""0"",""10073""
","
","null","<p></p>","null","","","","","","","","","","","","","","","","","","","","","","","",""
"","do_recog","114","694433","0.0-66.0-0.0","""event"",""trial"",""time""
""fullscreenenter"",""0"",""10073""
","
","
","""event"",""trial"",""time""
""fullscreenenter"",""0"",""10073""
","
","2102","","","","","","","","55","","","","277","probe-239","","","","","0","[object Object]","null","null","1","","","",""
"","html-keyboard-response","115","695437","0.0-66.0-1.0","""event"",""trial"",""time""
""fullscreenenter"",""0"",""10073""
","
","
","""event"",""trial"",""time""
""fullscreenenter"",""0"",""10073""
","
","null","<p></p>","null","","","","","","","","","","","","","","","","","","","","","","","",""
"","do_trial","116","698983","0.0-67.0-0.0","""event"",""trial"",""time""
""fullscreenenter"",""0"",""10073""
","
","
","""event"",""trial"",""time""
""fullscreenenter"",""0"",""10073""
","
","1006.3999999985099","","","","","","","","50","0,1,0","6","blank","278","null","0.14066374633251294","0.6808042281312737","0.24804952796358087","1","","","","","","","","",""
"","html-keyboard-response","117","699988","0.0-67.0-1.0","""event"",""trial"",""time""
""fullscreenenter"",""0"",""10073""
","
","
","""event"",""trial"",""time""
""fullscreenenter"",""0"",""10073""
","
","null","<p></p>","null","","","","","","","","","","","","","","","","","","","","","","","",""
"","do_trial","118","702940","0.0-68.0-0.0","""event"",""trial"",""time""
""fullscreenenter"",""0"",""10073""
","
","
","""event"",""trial"",""time""
""fullscreenenter"",""0"",""10073""
","
","414.1000000014901","","","","","","","","50","0,0,0","6","blank","279","null","0.2107508779691952","0.655445707935439","0.18594800273529707","0","","","","","","","","",""
"","html-keyboard-response","119","703943","0.0-68.0-1.0","""event"",""trial"",""time""
""fullscreenenter"",""0"",""10073""
","
","
","""event"",""trial"",""time""
""fullscreenenter"",""0"",""10073""
","
","null","<p></p>","null","","","","","","","","","","","","","","","","","","","","","","","",""
"","do_trial","120","706624","0.0-69.0-0.0","""event"",""trial"",""time""
""fullscreenenter"",""0"",""10073""
","
","
","""event"",""trial"",""time""
""fullscreenenter"",""0"",""10073""
","
","131.39999999850988","","","","","","","","51","0,0,0","6","blank","280","null","0.09144821829595938","0.6940396153811021","0.17035494067603757","0","","","","","","","","",""
"","html-keyboard-response","121","707629","0.0-69.0-1.0","""event"",""trial"",""time""
""fullscreenenter"",""0"",""10073""
","
","
","""event"",""trial"",""time""
""fullscreenenter"",""0"",""10073""
","
","null","<p></p>","null","","","","","","","","","","","","","","","","","","","","","","","",""
"","do_trial","122","710311","0.0-70.0-0.0","""event"",""trial"",""time""
""fullscreenenter"",""0"",""10073""
","
","
","""event"",""trial"",""time""
""fullscreenenter"",""0"",""10073""
","
","138","","","","","","","","49","0,1,0","6","blank","281","null","0.13111115621211045","0.7385722143368078","0.32723649012352723","0","","","","","","","","",""
"","html-keyboard-response","123","711317","0.0-70.0-1.0","""event"",""trial"",""time""
""fullscreenenter"",""0"",""10073""
","
","
","""event"",""trial"",""time""
""fullscreenenter"",""0"",""10073""
","
","null","<p></p>","null","","","","","","","","","","","","","","","","","","","","","","","",""
"","do_trial","124","714204","0.0-71.0-0.0","""event"",""trial"",""time""
""fullscreenenter"",""0"",""10073""
","
","
","""event"",""trial"",""time""
""fullscreenenter"",""0"",""10073""
","
","342.30000000074506","","","","","","","","50","0,1,1","6","blank","282","null","0.10677186319678691","0.6928990322432786","0.47434321572133914","1","","","","","","","","",""
"","html-keyboard-response","125","715209","0.0-71.0-1.0","""event"",""trial"",""time""
""fullscreenenter"",""0"",""10073""
","
","
","""event"",""trial"",""time""
""fullscreenenter"",""0"",""10073""
","
","null","<p></p>","null","","","","","","","","","","","","","","","","","","","","","","","",""
"","do_trial","126","717821","0.0-72.0-0.0","""event"",""trial"",""time""
""fullscreenenter"",""0"",""10073""
","
","
","""event"",""trial"",""time""
""fullscreenenter"",""0"",""10073""
","
","72.10000000149012","","","","","","","","50","0,1,0","6","blank","283","null","0.06777174354989562","0.614038338150018","0.5005051086839162","1","","","","","","","","",""
"","html-keyboard-response","127","718827","0.0-72.0-1.0","""event"",""trial"",""time""
""fullscreenenter"",""0"",""10073""
","
","
","""event"",""trial"",""time""
""fullscreenenter"",""0"",""10073""
","
","null","<p></p>","null","","","","","","","","","","","","","","","","","","","","","","","",""
"","do_trial","128","721370","0.0-73.0-0.0","""event"",""trial"",""time""
""fullscreenenter"",""0"",""10073""
","
","
","""event"",""trial"",""time""
""fullscreenenter"",""0"",""10073""
","
","0.10000000149011612","","","","","","","","50","0,1,0","6","blank","284","null","0.12791607584218231","0.583891225106136","0.38207488731785716","1","","","","","","","","",""
"","html-keyboard-response","129","722372","0.0-73.0-1.0","""event"",""trial"",""time""
""fullscreenenter"",""0"",""10073""
","
","
","""event"",""trial"",""time""
""fullscreenenter"",""0"",""10073""
","
","null","<p></p>","null","","","","","","","","","","","","","","","","","","","","","","","",""
"","do_recog","130","725668","0.0-74.0-0.0","""event"",""trial"",""time""
""fullscreenenter"",""0"",""10073""
","
","
","""event"",""trial"",""time""
""fullscreenenter"",""0"",""10073""
","
","1789","","","","","","","","53","","","","285","probe-57","","","","","1","[object Object]","110","2","1","","","",""
"","html-keyboard-response","131","726672","0.0-74.0-1.0","""event"",""trial"",""time""
""fullscreenenter"",""0"",""10073""
","
","
","""event"",""trial"",""time""
""fullscreenenter"",""0"",""10073""
","
","null","<p></p>","null","","","","","","","","","","","","","","","","","","","","","","","",""
"","do_trial","132","730335","0.0-75.0-0.0","""event"",""trial"",""time""
""fullscreenenter"",""0"",""10073""
","
","
","""event"",""trial"",""time""
""fullscreenenter"",""0"",""10073""
","
","1116.5","","","","","","","","51","0,1,1","6","blank","286","null","0.10744527468722993","0.6487826172737192","0.32937845390216686","1","","","","","","","","",""
"","html-keyboard-response","133","731337","0.0-75.0-1.0","""event"",""trial"",""time""
""fullscreenenter"",""0"",""10073""
","
","
","""event"",""trial"",""time""
""fullscreenenter"",""0"",""10073""
","
","null","<p></p>","null","","","","","","","","","","","","","","","","","","","","","","","",""
"","do_recog","134","734667","0.0-76.0-0.0","""event"",""trial"",""time""
""fullscreenenter"",""0"",""10073""
","
","
","""event"",""trial"",""time""
""fullscreenenter"",""0"",""10073""
","
","1823.199999999255","","","","","","","","55","","","","287","probe-225","","","","","1","[object Object]","152","3","0","","","",""
"","html-keyboard-response","135","735673","0.0-76.0-1.0","""event"",""trial"",""time""
""fullscreenenter"",""0"",""10073""
","
","
","""event"",""trial"",""time""
""fullscreenenter"",""0"",""10073""
","
","null","<p></p>","null","","","","","","","","","","","","","","","","","","","","","","","",""
"","do_trial","136","739255","0.0-77.0-0.0","""event"",""trial"",""time""
""fullscreenenter"",""0"",""10073""
","
","
","""event"",""trial"",""time""
""fullscreenenter"",""0"",""10073""
","
","1038.300000000745","","","","","","","","50","0,1,1","6","blank","288","null","0.09613230261277837","0.7432658925306234","0.26729688300731513","1","","","","","","","","",""
"","html-keyboard-response","137","740261","0.0-77.0-1.0","""event"",""trial"",""time""
""fullscreenenter"",""0"",""10073""
","
","
","""event"",""trial"",""time""
""fullscreenenter"",""0"",""10073""
","
","null","<p></p>","null","","","","","","","","","","","","","","","","","","","","","","","",""
"","do_recog","138","743435","0.0-78.0-0.0","""event"",""trial"",""time""
""fullscreenenter"",""0"",""10073""
","
","
","""event"",""trial"",""time""
""fullscreenenter"",""0"",""10073""
","
","1663.9000000022352","","","","","","","","55","","","","289","probe-172","","","","","1","[object Object]","37","0","0","","","",""
"","html-keyboard-response","139","744441","0.0-78.0-1.0","""event"",""trial"",""time""
""fullscreenenter"",""0"",""10073""
","
","
","""event"",""trial"",""time""
""fullscreenenter"",""0"",""10073""
","
","null","<p></p>","null","","","","","","","","","","","","","","","","","","","","","","","",""
"","do_trial","140","748035","0.0-79.0-0.0","""event"",""trial"",""time""
""fullscreenenter"",""0"",""10073""
","
","
","""event"",""trial"",""time""
""fullscreenenter"",""0"",""10073""
","
","1048","","","","","","","","50","0,1,1","6","blank","290","null","0.076752721223998","0.6993433775445995","0.1989135041994323","1","","","","","","","","",""
"","html-keyboard-response","141","749039","0.0-79.0-1.0","""event"",""trial"",""time""
""fullscreenenter"",""0"",""10073""
","
","
","""event"",""trial"",""time""
""fullscreenenter"",""0"",""10073""
","
","null","<p></p>","null","","","","","","","","","","","","","","","","","","","","","","","",""
"","do_trial","142","751889","0.0-80.0-0.0","""event"",""trial"",""time""
""fullscreenenter"",""0"",""10073""
","
","
","""event"",""trial"",""time""
""fullscreenenter"",""0"",""10073""
","
","304","","","","","","","","50","0,1,0","6","blank","291","null","0.09434788668184464","0.6316236033718629","0.2753953747378579","1","","","","","","","","",""
"","html-keyboard-response","143","752894","0.0-80.0-1.0","""event"",""trial"",""time""
""fullscreenenter"",""0"",""10073""
","
","
","""event"",""trial"",""time""
""fullscreenenter"",""0"",""10073""
","
","null","<p></p>","null","","","","","","","","","","","","","","","","","","","","","","","",""
"","do_trial","144","755539","0.0-81.0-0.0","""event"",""trial"",""time""
""fullscreenenter"",""0"",""10073""
","
","
","""event"",""trial"",""time""
""fullscreenenter"",""0"",""10073""
","
","97.29999999701977","","","","","","","","50","0,1,0","6","blank","292","null","0.05623957770701656","0.519736507038887","0.266722542100389","1","","","","","","","","",""
"","html-keyboard-response","145","756545","0.0-81.0-1.0","""event"",""trial"",""time""
""fullscreenenter"",""0"",""10073""
","
","
","""event"",""trial"",""time""
""fullscreenenter"",""0"",""10073""
","
","null","<p></p>","null","","","","","","","","","","","","","","","","","","","","","","","",""
"","do_trial","146","759218","0.0-82.0-0.0","""event"",""trial"",""time""
""fullscreenenter"",""0"",""10073""
","
","
","""event"",""trial"",""time""
""fullscreenenter"",""0"",""10073""
","
","128.09999999776483","","","","","","","","50","0,0,0","6","blank","293","null","0.05397785441446329","0.33952296468033305","0.32745635213497504","0","","","","","","","","",""
"","html-keyboard-response","147","760224","0.0-82.0-1.0","""event"",""trial"",""time""
""fullscreenenter"",""0"",""10073""
","
","
","""event"",""trial"",""time""
""fullscreenenter"",""0"",""10073""
","
","null","<p></p>","null","","","","","","","","","","","","","","","","","","","","","","","",""
"","do_recog","148","763564","0.0-83.0-0.0","""event"",""trial"",""time""
""fullscreenenter"",""0"",""10073""
","
","
","""event"",""trial"",""time""
""fullscreenenter"",""0"",""10073""
","
","1832.7000000029802","","","","","","","","55","","","","294","probe-132","","","","","1","[object Object]","192","4","0","","","",""
"","html-keyboard-response","149","764569","0.0-83.0-1.0","""event"",""trial"",""time""
""fullscreenenter"",""0"",""10073""
","
","
","""event"",""trial"",""time""
""fullscreenenter"",""0"",""10073""
","
","null","<p></p>","null","","","","","","","","","","","","","","","","","","","","","","","",""
"","do_trial","150","768154","0.0-84.0-0.0","""event"",""trial"",""time""
""fullscreenenter"",""0"",""10073""
","
","
","""event"",""trial"",""time""
""fullscreenenter"",""0"",""10073""
","
","1042.1000000014901","","","","","","","","49","1,0,0","6","blank","295","null","0.22035901507841327","0.11000896223265415","0.6228661710893075","1","","","","","","","","",""
"","html-keyboard-response","151","769160","0.0-84.0-1.0","""event"",""trial"",""time""
""fullscreenenter"",""0"",""10073""
","
","
","""event"",""trial"",""time""
""fullscreenenter"",""0"",""10073""
","
","null","<p></p>","null","","","","","","","","","","","","","","","","","","","","","","","",""
"","do_trial","152","771743","0.0-85.0-0.0","""event"",""trial"",""time""
""fullscreenenter"",""0"",""10073""
","
","
","""event"",""trial"",""time""
""fullscreenenter"",""0"",""10073""
","
","37.899999998509884","","","","","","","","50","0,0,0","6","blank","296","null","0.0916513356416366","0.1713281007147076","0.5536617273485549","0","","","","","","","","",""
"","html-keyboard-response","153","772745","0.0-85.0-1.0","""event"",""trial"",""time""
""fullscreenenter"",""0"",""10073""
","
","
","""event"",""trial"",""time""
""fullscreenenter"",""0"",""10073""
","
","null","<p></p>","null","","","","","","","","","","","","","","","","","","","","","","","",""
"","do_trial","154","775450","0.0-86.0-0.0","""event"",""trial"",""time""
""fullscreenenter"",""0"",""10073""
","
","
","""event"",""trial"",""time""
""fullscreenenter"",""0"",""10073""
","
","156.80000000074506","","","","","","","","51","0,0,0","6","blank","297","null","0.17772796443994815","0.2373095383602655","0.46863932903454797","0","","","","","","","","",""
"","html-keyboard-response","155","776455","0.0-86.0-1.0","""event"",""trial"",""time""
""fullscreenenter"",""0"",""10073""
","
","
","""event"",""trial"",""time""
""fullscreenenter"",""0"",""10073""
","
","null","<p></p>","null","","","","","","","","","","","","","","","","","","","","","","","",""
"","do_trial","156","779366","0.0-87.0-0.0","""event"",""trial"",""time""
""fullscreenenter"",""0"",""10073""
","
","
","""event"",""trial"",""time""
""fullscreenenter"",""0"",""10073""
","
","362.69999999925494","","","","","","","","49","0,0,1","6","blank","298","null","0.24961294421636834","0.19549203061434678","0.43455037365126614","0","","","","","","","","",""
"","html-keyboard-response","157","780372","0.0-87.0-1.0","""event"",""trial"",""time""
""fullscreenenter"",""0"",""10073""
","
","
","""event"",""trial"",""time""
""fullscreenenter"",""0"",""10073""
","
","null","<p></p>","null","","","","","","","","","","","","","","","","","","","","","","","",""
"","do_trial","158","783177","0.0-88.0-0.0","""event"",""trial"",""time""
""fullscreenenter"",""0"",""10073""
","
","
","""event"",""trial"",""time""
""fullscreenenter"",""0"",""10073""
","
","265.30000000074506","","","","","","","","51","1,0,1","6","blank","299","null","0.2720743994606725","0.13983958666036517","0.6048184780446103","1","","","","","","","","",""
"","html-keyboard-response","159","784182","0.0-88.0-1.0","""event"",""trial"",""time""
""fullscreenenter"",""0"",""10073""
","
","
","""event"",""trial"",""time""
""fullscreenenter"",""0"",""10073""
","
","null","<p></p>","null","","","","","","","","","","","","","","","","","","","","","","","",""
"","do_recog","160","787895","0.0-89.0-0.0","""event"",""trial"",""time""
""fullscreenenter"",""0"",""10073""
","
","
","""event"",""trial"",""time""
""fullscreenenter"",""0"",""10073""
","
","2202.300000000745","","","","","","","","54","","","","300","probe-27","","","","","1","[object Object]","159","3","1","","","",""
"","html-keyboard-response","161","788901","0.0-89.0-1.0","""event"",""trial"",""time""
""fullscreenenter"",""0"",""10073""
""fullscreenexit"",""162"",""792422""
","
","
","""event"",""trial"",""time""
""fullscreenenter"",""0"",""10073""
","""event"",""trial"",""time""
""fullscreenexit"",""162"",""792422""
","null","<p></p>","null","","","","","","","","","","","","","","","","","","","","","","","",""
"","do_trial","162","792505","0.0-90.0-0.0","""event"",""trial"",""time""
""fullscreenenter"",""0"",""10073""
""fullscreenexit"",""162"",""792422""
","
","
","""event"",""trial"",""time""
""fullscreenenter"",""0"",""10073""
","""event"",""trial"",""time""
""fullscreenexit"",""162"",""792422""
","1059.5","","","","","","","","50","0,0,1","6","blank","301","null","0.2607734627436226","0.0721125884200373","0.4722749078790065","0","","","","","","","","",""
"","html-keyboard-response","163","793511","0.0-90.0-1.0","""event"",""trial"",""time""
""fullscreenenter"",""0"",""10073""
""fullscreenexit"",""162"",""792422""
","
","
","""event"",""trial"",""time""
""fullscreenenter"",""0"",""10073""
","""event"",""trial"",""time""
""fullscreenexit"",""162"",""792422""
","null","<p></p>","null","","","","","","","","","","","","","","","","","","","","","","","",""
"","do_recog","164","797619","0.0-91.0-0.0","""event"",""trial"",""time""
""fullscreenenter"",""0"",""10073""
""fullscreenexit"",""162"",""792422""
","
","
","""event"",""trial"",""time""
""fullscreenenter"",""0"",""10073""
","""event"",""trial"",""time""
""fullscreenexit"",""162"",""792422""
","2601.2000000029802","","","","","","","","55","","","","302","probe-69","","","","","1","[object Object]","151","3","0","","","",""
"","html-keyboard-response","165","798620","0.0-91.0-1.0","""event"",""trial"",""time""
""fullscreenenter"",""0"",""10073""
""fullscreenexit"",""162"",""792422""
","
","
","""event"",""trial"",""time""
""fullscreenenter"",""0"",""10073""
","""event"",""trial"",""time""
""fullscreenexit"",""162"",""792422""
","null","<p></p>","null","","","","","","","","","","","","","","","","","","","","","","","",""
"","do_trial","166","803550","0.0-92.0-0.0","""event"",""trial"",""time""
""fullscreenenter"",""0"",""10073""
""fullscreenexit"",""162"",""792422""
","
","
","""event"",""trial"",""time""
""fullscreenenter"",""0"",""10073""
","""event"",""trial"",""time""
""fullscreenexit"",""162"",""792422""
","2369.300000000745","","","","","","","","51","0,0,0","6","blank","303","null","0.4533906247675266","0.12980187493684323","0.460641408259427","0","","","","","","","","",""
"","html-keyboard-response","167","804557","0.0-92.0-1.0","""event"",""trial"",""time""
""fullscreenenter"",""0"",""10073""
""fullscreenexit"",""162"",""792422""
","
","
","""event"",""trial"",""time""
""fullscreenenter"",""0"",""10073""
","""event"",""trial"",""time""
""fullscreenexit"",""162"",""792422""
","null","<p></p>","null","","","","","","","","","","","","","","","","","","","","","","","",""
"","do_trial","168","807383","0.0-93.0-0.0","""event"",""trial"",""time""
""fullscreenenter"",""0"",""10073""
""fullscreenexit"",""162"",""792422""
","
","
","""event"",""trial"",""time""
""fullscreenenter"",""0"",""10073""
","""event"",""trial"",""time""
""fullscreenexit"",""162"",""792422""
","278.5","","","","","","","","51","0,0,0","6","blank","304","null","0.09549221104931568","0.11493591531845324","0.37914895604075766","0","","","","","","","","",""
"","html-keyboard-response","169","808389","0.0-93.0-1.0","""event"",""trial"",""time""
""fullscreenenter"",""0"",""10073""
""fullscreenexit"",""162"",""792422""
","
","
","""event"",""trial"",""time""
""fullscreenenter"",""0"",""10073""
","""event"",""trial"",""time""
""fullscreenexit"",""162"",""792422""
","null","<p></p>","null","","","","","","","","","","","","","","","","","","","","","","","",""
"","do_recog","170","811417","0.0-94.0-0.0","""event"",""trial"",""time""
""fullscreenenter"",""0"",""10073""
""fullscreenexit"",""162"",""792422""
","
","
","""event"",""trial"",""time""
""fullscreenenter"",""0"",""10073""
","""event"",""trial"",""time""
""fullscreenexit"",""162"",""792422""
","1517.5","","","","","","","","55","","","","305","probe-180","","","","","1","[object Object]","193","4","0","","","",""
"","html-keyboard-response","171","812421","0.0-94.0-1.0","""event"",""trial"",""time""
""fullscreenenter"",""0"",""10073""
""fullscreenexit"",""162"",""792422""
","
","
","""event"",""trial"",""time""
""fullscreenenter"",""0"",""10073""
","""event"",""trial"",""time""
""fullscreenexit"",""162"",""792422""
","null","<p></p>","null","","","","","","","","","","","","","","","","","","","","","","","",""
"","do_trial","172","816322","0.0-95.0-0.0","""event"",""trial"",""time""
""fullscreenenter"",""0"",""10073""
""fullscreenexit"",""162"",""792422""
","
","
","""event"",""trial"",""time""
""fullscreenenter"",""0"",""10073""
","""event"",""trial"",""time""
""fullscreenexit"",""162"",""792422""
","1356","","","","","","","","51","0,1,1","6","blank","306","null","0.13219923455615168","0.17981659067625638","0.537539734202663","1","","","","","","","","",""
"","html-keyboard-response","173","817327","0.0-95.0-1.0","""event"",""trial"",""time""
""fullscreenenter"",""0"",""10073""
""fullscreenexit"",""162"",""792422""
","
","
","""event"",""trial"",""time""
""fullscreenenter"",""0"",""10073""
","""event"",""trial"",""time""
""fullscreenexit"",""162"",""792422""
","null","<p></p>","null","","","","","","","","","","","","","","","","","","","","","","","",""
"","do_trial","174","820078","0.0-96.0-0.0","""event"",""trial"",""time""
""fullscreenenter"",""0"",""10073""
""fullscreenexit"",""162"",""792422""
","
","
","""event"",""trial"",""time""
""fullscreenenter"",""0"",""10073""
","""event"",""trial"",""time""
""fullscreenexit"",""162"",""792422""
","212.80000000074506","","","","","","","","51","0,0,1","6","blank","307","null","0.2524325908442097","0.05160012389954588","0.4672006945824759","1","","","","","","","","",""
"","html-keyboard-response","175","821079","0.0-96.0-1.0","""event"",""trial"",""time""
""fullscreenenter"",""0"",""10073""
""fullscreenexit"",""162"",""792422""
","
","
","""event"",""trial"",""time""
""fullscreenenter"",""0"",""10073""
","""event"",""trial"",""time""
""fullscreenexit"",""162"",""792422""
","null","<p></p>","null","","","","","","","","","","","","","","","","","","","","","","","",""
"","do_trial","176","823695","0.0-97.0-0.0","""event"",""trial"",""time""
""fullscreenenter"",""0"",""10073""
""fullscreenexit"",""162"",""792422""
","
","
","""event"",""trial"",""time""
""fullscreenenter"",""0"",""10073""
","""event"",""trial"",""time""
""fullscreenexit"",""162"",""792422""
","71.5","","","","","","","","51","1,0,1","6","blank","308","null","0.22424287174402444","0.05410545282449968","0.40148198469563456","1","","","","","","","","",""
"","html-keyboard-response","177","824696","0.0-97.0-1.0","""event"",""trial"",""time""
""fullscreenenter"",""0"",""10073""
""fullscreenexit"",""162"",""792422""
","
","
","""event"",""trial"",""time""
""fullscreenenter"",""0"",""10073""
","""event"",""trial"",""time""
""fullscreenexit"",""162"",""792422""
","null","<p></p>","null","","","","","","","","","","","","","","","","","","","","","","","",""
"","break","178","944707","0.0-98.0-0.0","""event"",""trial"",""time""
""fullscreenenter"",""0"",""10073""
""fullscreenexit"",""162"",""792422""
","
","
","""event"",""trial"",""time""
""fullscreenenter"",""0"",""10073""
","""event"",""trial"",""time""
""fullscreenexit"",""162"",""792422""
","null","<div class='center'><p>Time to take a quick break! You have 2 minutes to rest, but you can move on sooner if you'd like.</p><p> Press the <b>space bar</b> to continue.</p></div>","null","","","","","","","","","","","","","","","","","","","","","","","",""
"","do_trial","179","950755","0.0-98.0-1.0","""event"",""trial"",""time""
""fullscreenenter"",""0"",""10073""
""fullscreenexit"",""162"",""792422""
","
","
","""event"",""trial"",""time""
""fullscreenenter"",""0"",""10073""
","""event"",""trial"",""time""
""fullscreenexit"",""162"",""792422""
","null","","","","","","","","null","1,0,0","6","blank","309","null","0.25405900958188066","0.13861706414996733","0.5007964323409214","","","","","","","","","",""
"","html-keyboard-response","180","951759","0.0-98.0-2.0","""event"",""trial"",""time""
""fullscreenenter"",""0"",""10073""
""fullscreenexit"",""162"",""792422""
","
","
","""event"",""trial"",""time""
""fullscreenenter"",""0"",""10073""
","""event"",""trial"",""time""
""fullscreenexit"",""162"",""792422""
","null","<p></p>","null","","","","","","","","","","","","","","","","","","","","","","","",""
"","do_trial","181","957806","0.0-99.0-0.0","""event"",""trial"",""time""
""fullscreenenter"",""0"",""10073""
""fullscreenexit"",""162"",""792422""
","
","
","""event"",""trial"",""time""
""fullscreenenter"",""0"",""10073""
","""event"",""trial"",""time""
""fullscreenexit"",""162"",""792422""
","null","","","","","","","","null","0,0,0","6","blank","310","null","0.3536783564156366","0.14152843210219465","0.5938515304883407","","","","","","","","","",""
"","html-keyboard-response","182","958811","0.0-99.0-1.0","""event"",""trial"",""time""
""fullscreenenter"",""0"",""10073""
""fullscreenexit"",""162"",""792422""
""blur"",""183"",""961991""
","""event"",""trial"",""time""
""blur"",""183"",""961991""
","
","""event"",""trial"",""time""
""fullscreenenter"",""0"",""10073""
","""event"",""trial"",""time""
""fullscreenexit"",""162"",""792422""
","null","<p></p>","null","","","","","","","","","","","","","","","","","","","","","","","",""
"","do_trial","183","961991","0.0-100.0-0.0","""event"",""trial"",""time""
""fullscreenenter"",""0"",""10073""
""fullscreenexit"",""162"",""792422""
""blur"",""183"",""961991""
""focus"",""184"",""961993""
","""event"",""trial"",""time""
""blur"",""183"",""961991""
","""event"",""trial"",""time""
""focus"",""184"",""961993""
","""event"",""trial"",""time""
""fullscreenenter"",""0"",""10073""
","""event"",""trial"",""time""
""fullscreenexit"",""162"",""792422""
","331.6000000014901","","","","","","","","51","0,0,0","6","blank","311","null","0.3652474341060908","0.138162414470474","0.5057171160082606","0","","","","","","","","",""
"","html-keyboard-response","184","962996","0.0-100.0-1.0","""event"",""trial"",""time""
""fullscreenenter"",""0"",""10073""
""fullscreenexit"",""162"",""792422""
""blur"",""183"",""961991""
""focus"",""184"",""961993""
","""event"",""trial"",""time""
""blur"",""183"",""961991""
","""event"",""trial"",""time""
""focus"",""184"",""961993""
","""event"",""trial"",""time""
""fullscreenenter"",""0"",""10073""
","""event"",""trial"",""time""
""fullscreenexit"",""162"",""792422""
","null","<p></p>","null","","","","","","","","","","","","","","","","","","","","","","","",""
"","do_recog","185","966407","0.0-101.0-0.0","""event"",""trial"",""time""
""fullscreenenter"",""0"",""10073""
""fullscreenexit"",""162"",""792422""
""blur"",""183"",""961991""
""focus"",""184"",""961993""
","""event"",""trial"",""time""
""blur"",""183"",""961991""
","""event"",""trial"",""time""
""focus"",""184"",""961993""
","""event"",""trial"",""time""
""fullscreenenter"",""0"",""10073""
","""event"",""trial"",""time""
""fullscreenexit"",""162"",""792422""
","1900.7000000029802","","","","","","","","53","","","","312","probe-46","","","","","1","[object Object]","155","3","1","","","",""
"","html-keyboard-response","186","967413","0.0-101.0-1.0","""event"",""trial"",""time""
""fullscreenenter"",""0"",""10073""
""fullscreenexit"",""162"",""792422""
""blur"",""183"",""961991""
""focus"",""184"",""961993""
","""event"",""trial"",""time""
""blur"",""183"",""961991""
","""event"",""trial"",""time""
""focus"",""184"",""961993""
","""event"",""trial"",""time""
""fullscreenenter"",""0"",""10073""
","""event"",""trial"",""time""
""fullscreenexit"",""162"",""792422""
","null","<p></p>","null","","","","","","","","","","","","","","","","","","","","","","","",""
"","do_trial","187","971748","0.0-102.0-0.0","""event"",""trial"",""time""
""fullscreenenter"",""0"",""10073""
""fullscreenexit"",""162"",""792422""
""blur"",""183"",""961991""
""focus"",""184"",""961993""
","""event"",""trial"",""time""
""blur"",""183"",""961991""
","""event"",""trial"",""time""
""focus"",""184"",""961993""
","""event"",""trial"",""time""
""fullscreenenter"",""0"",""10073""
","""event"",""trial"",""time""
""fullscreenexit"",""162"",""792422""
","1798.6000000014901","","","","","","","","49","1,0,1","6","blank","313","null","0.33498798387702766","0.14169821878377856","0.5019420625737755","1","","","","","","","","",""
"","html-keyboard-response","188","972752","0.0-102.0-1.0","""event"",""trial"",""time""
""fullscreenenter"",""0"",""10073""
""fullscreenexit"",""162"",""792422""
""blur"",""183"",""961991""
""focus"",""184"",""961993""
","""event"",""trial"",""time""
""blur"",""183"",""961991""
","""event"",""trial"",""time""
""focus"",""184"",""961993""
","""event"",""trial"",""time""
""fullscreenenter"",""0"",""10073""
","""event"",""trial"",""time""
""fullscreenexit"",""162"",""792422""
","null","<p></p>","null","","","","","","","","","","","","","","","","","","","","","","","",""
"","do_recog","189","975864","0.0-103.0-0.0","""event"",""trial"",""time""
""fullscreenenter"",""0"",""10073""
""fullscreenexit"",""162"",""792422""
""blur"",""183"",""961991""
""focus"",""184"",""961993""
","""event"",""trial"",""time""
""blur"",""183"",""961991""
","""event"",""trial"",""time""
""focus"",""184"",""961993""
","""event"",""trial"",""time""
""fullscreenenter"",""0"",""10073""
","""event"",""trial"",""time""
""fullscreenexit"",""162"",""792422""
","1601.800000000745","","","","","","","","53","","","","314","probe-236","","","","","0","[object Object]","null","null","0","","","",""
"","html-keyboard-response","190","976869","0.0-103.0-1.0","""event"",""trial"",""time""
""fullscreenenter"",""0"",""10073""
""fullscreenexit"",""162"",""792422""
""blur"",""183"",""961991""
""focus"",""184"",""961993""
","""event"",""trial"",""time""
""blur"",""183"",""961991""
","""event"",""trial"",""time""
""focus"",""184"",""961993""
","""event"",""trial"",""time""
""fullscreenenter"",""0"",""10073""
","""event"",""trial"",""time""
""fullscreenexit"",""162"",""792422""
","null","<p></p>","null","","","","","","","","","","","","","","","","","","","","","","","",""
"","do_trial","191","980614","0.0-104.0-0.0","""event"",""trial"",""time""
""fullscreenenter"",""0"",""10073""
""fullscreenexit"",""162"",""792422""
""blur"",""183"",""961991""
""focus"",""184"",""961993""
","""event"",""trial"",""time""
""blur"",""183"",""961991""
","""event"",""trial"",""time""
""focus"",""184"",""961993""
","""event"",""trial"",""time""
""fullscreenenter"",""0"",""10073""
","""event"",""trial"",""time""
""fullscreenexit"",""162"",""792422""
","1200.5","","","","","","","","51","0,0,1","6","blank","315","null","0.3121360227772592","0.10046017955540318","0.6001385606525886","1","","","","","","","","",""
"","html-keyboard-response","192","981620","0.0-104.0-1.0","""event"",""trial"",""time""
""fullscreenenter"",""0"",""10073""
""fullscreenexit"",""162"",""792422""
""blur"",""183"",""961991""
""focus"",""184"",""961993""
","""event"",""trial"",""time""
""blur"",""183"",""961991""
","""event"",""trial"",""time""
""focus"",""184"",""961993""
","""event"",""trial"",""time""
""fullscreenenter"",""0"",""10073""
","""event"",""trial"",""time""
""fullscreenexit"",""162"",""792422""
","null","<p></p>","null","","","","","","","","","","","","","","","","","","","","","","","",""
"","do_recog","193","985543","0.0-105.0-0.0","""event"",""trial"",""time""
""fullscreenenter"",""0"",""10073""
""fullscreenexit"",""162"",""792422""
""blur"",""183"",""961991""
""focus"",""184"",""961993""
","""event"",""trial"",""time""
""blur"",""183"",""961991""
","""event"",""trial"",""time""
""focus"",""184"",""961993""
","""event"",""trial"",""time""
""fullscreenenter"",""0"",""10073""
","""event"",""trial"",""time""
""fullscreenexit"",""162"",""792422""
","2415","","","","","","","","55","","","","316","probe-171","","","","","1","[object Object]","39","0","0","","","",""
"","html-keyboard-response","194","986548","0.0-105.0-1.0","""event"",""trial"",""time""
""fullscreenenter"",""0"",""10073""
""fullscreenexit"",""162"",""792422""
""blur"",""183"",""961991""
""focus"",""184"",""961993""
","""event"",""trial"",""time""
""blur"",""183"",""961991""
","""event"",""trial"",""time""
""focus"",""184"",""961993""
","""event"",""trial"",""time""
""fullscreenenter"",""0"",""10073""
","""event"",""trial"",""time""
""fullscreenexit"",""162"",""792422""
","null","<p></p>","null","","","","","","","","","","","","","","","","","","","","","","","",""
"","do_trial","195","990375","0.0-106.0-0.0","""event"",""trial"",""time""
""fullscreenenter"",""0"",""10073""
""fullscreenexit"",""162"",""792422""
""blur"",""183"",""961991""
""focus"",""184"",""961993""
","""event"",""trial"",""time""
""blur"",""183"",""961991""
","""event"",""trial"",""time""
""focus"",""184"",""961993""
","""event"",""trial"",""time""
""fullscreenenter"",""0"",""10073""
","""event"",""trial"",""time""
""fullscreenexit"",""162"",""792422""
","1282.6000000014901","","","","","","","","51","1,0,0","6","blank","317","null","0.37851385323362935","0.16421579297388905","0.5707385773468411","0","","","","","","","","",""
"","html-keyboard-response","196","991381","0.0-106.0-1.0","""event"",""trial"",""time""
""fullscreenenter"",""0"",""10073""
""fullscreenexit"",""162"",""792422""
""blur"",""183"",""961991""
""focus"",""184"",""961993""
","""event"",""trial"",""time""
""blur"",""183"",""961991""
","""event"",""trial"",""time""
""focus"",""184"",""961993""
","""event"",""trial"",""time""
""fullscreenenter"",""0"",""10073""
","""event"",""trial"",""time""
""fullscreenexit"",""162"",""792422""
","null","<p></p>","null","","","","","","","","","","","","","","","","","","","","","","","",""
"","do_trial","197","994290","0.0-107.0-0.0","""event"",""trial"",""time""
""fullscreenenter"",""0"",""10073""
""fullscreenexit"",""162"",""792422""
""blur"",""183"",""961991""
""focus"",""184"",""961993""
","""event"",""trial"",""time""
""blur"",""183"",""961991""
","""event"",""trial"",""time""
""focus"",""184"",""961993""
","""event"",""trial"",""time""
""fullscreenenter"",""0"",""10073""
","""event"",""trial"",""time""
""fullscreenexit"",""162"",""792422""
","361.8999999985099","","","","","","","","50","0,0,1","6","blank","318","null","0.2301616768854513","0.11938649817529391","0.6178457415912354","0","","","","","","","","",""
"","html-keyboard-response","198","995291","0.0-107.0-1.0","""event"",""trial"",""time""
""fullscreenenter"",""0"",""10073""
""fullscreenexit"",""162"",""792422""
""blur"",""183"",""961991""
""focus"",""184"",""961993""
","""event"",""trial"",""time""
""blur"",""183"",""961991""
","""event"",""trial"",""time""
""focus"",""184"",""961993""
","""event"",""trial"",""time""
""fullscreenenter"",""0"",""10073""
","""event"",""trial"",""time""
""fullscreenexit"",""162"",""792422""
","null","<p></p>","null","","","","","","","","","","","","","","","","","","","","","","","",""
"","do_trial","199","998063","0.0-108.0-0.0","""event"",""trial"",""time""
""fullscreenenter"",""0"",""10073""
""fullscreenexit"",""162"",""792422""
""blur"",""183"",""961991""
""focus"",""184"",""961993""
","""event"",""trial"",""time""
""blur"",""183"",""961991""
","""event"",""trial"",""time""
""focus"",""184"",""961993""
","""event"",""trial"",""time""
""fullscreenenter"",""0"",""10073""
","""event"",""trial"",""time""
""fullscreenexit"",""162"",""792422""
","233.5","","","","","","","","49","0,0,1","6","blank","319","null","0.3385091844572316","0.1340647156902727","0.6611013556846281","0","","","","","","","","",""
"","html-keyboard-response","200","999069","0.0-108.0-1.0","""event"",""trial"",""time""
""fullscreenenter"",""0"",""10073""
""fullscreenexit"",""162"",""792422""
""blur"",""183"",""961991""
""focus"",""184"",""961993""
","""event"",""trial"",""time""
""blur"",""183"",""961991""
","""event"",""trial"",""time""
""focus"",""184"",""961993""
","""event"",""trial"",""time""
""fullscreenenter"",""0"",""10073""
","""event"",""trial"",""time""
""fullscreenexit"",""162"",""792422""
","null","<p></p>","null","","","","","","","","","","","","","","","","","","","","","","","",""
"","do_trial","201","1001829","0.0-109.0-0.0","""event"",""trial"",""time""
""fullscreenenter"",""0"",""10073""
""fullscreenexit"",""162"",""792422""
""blur"",""183"",""961991""
""focus"",""184"",""961993""
","""event"",""trial"",""time""
""blur"",""183"",""961991""
","""event"",""trial"",""time""
""focus"",""184"",""961993""
","""event"",""trial"",""time""
""fullscreenenter"",""0"",""10073""
","""event"",""trial"",""time""
""fullscreenexit"",""162"",""792422""
","220.09999999776483","","","","","","","","51","1,0,1","6","blank","320","null","0.10255531821992456","0.10007172788677665","0.6228187298192654","1","","","","","","","","",""
"","html-keyboard-response","202","1002835","0.0-109.0-1.0","""event"",""trial"",""time""
""fullscreenenter"",""0"",""10073""
""fullscreenexit"",""162"",""792422""
""blur"",""183"",""961991""
""focus"",""184"",""961993""
""blur"",""203"",""1004278""
""focus"",""203"",""1004281""
","""event"",""trial"",""time""
""blur"",""183"",""961991""
""blur"",""203"",""1004278""
","""event"",""trial"",""time""
""focus"",""184"",""961993""
""focus"",""203"",""1004281""
","""event"",""trial"",""time""
""fullscreenenter"",""0"",""10073""
","""event"",""trial"",""time""
""fullscreenexit"",""162"",""792422""
","null","<p></p>","null","","","","","","","","","","","","","","","","","","","","","","","",""
"","do_trial","203","1007296","0.0-110.0-0.0","""event"",""trial"",""time""
""fullscreenenter"",""0"",""10073""
""fullscreenexit"",""162"",""792422""
""blur"",""183"",""961991""
""focus"",""184"",""961993""
""blur"",""203"",""1004278""
""focus"",""203"",""1004281""
","""event"",""trial"",""time""
""blur"",""183"",""961991""
""blur"",""203"",""1004278""
","""event"",""trial"",""time""
""focus"",""184"",""961993""
""focus"",""203"",""1004281""
","""event"",""trial"",""time""
""fullscreenenter"",""0"",""10073""
","""event"",""trial"",""time""
""fullscreenexit"",""162"",""792422""
","1921.800000000745","","","","","","","","51","0,0,1","6","blank","321","null","0.20029760824429432","0.0828203719645358","0.6463903919676385","1","","","","","","","","",""
"","html-keyboard-response","204","1008299","0.0-110.0-1.0","""event"",""trial"",""time""
""fullscreenenter"",""0"",""10073""
""fullscreenexit"",""162"",""792422""
""blur"",""183"",""961991""
""focus"",""184"",""961993""
""blur"",""203"",""1004278""
""focus"",""203"",""1004281""
""blur"",""205"",""1009982""
""focus"",""205"",""1009984""
","""event"",""trial"",""time""
""blur"",""183"",""961991""
""blur"",""203"",""1004278""
""blur"",""205"",""1009982""
","""event"",""trial"",""time""
""focus"",""184"",""961993""
""focus"",""203"",""1004281""
""focus"",""205"",""1009984""
","""event"",""trial"",""time""
""fullscreenenter"",""0"",""10073""
","""event"",""trial"",""time""
""fullscreenexit"",""162"",""792422""
","null","<p></p>","null","","","","","","","","","","","","","","","","","","","","","","","",""
"","do_trial","205","1011175","0.0-111.0-0.0","""event"",""trial"",""time""
""fullscreenenter"",""0"",""10073""
""fullscreenexit"",""162"",""792422""
""blur"",""183"",""961991""
""focus"",""184"",""961993""
""blur"",""203"",""1004278""
""focus"",""203"",""1004281""
""blur"",""205"",""1009982""
""focus"",""205"",""1009984""
","""event"",""trial"",""time""
""blur"",""183"",""961991""
""blur"",""203"",""1004278""
""blur"",""205"",""1009982""
","""event"",""trial"",""time""
""focus"",""184"",""961993""
""focus"",""203"",""1004281""
""focus"",""205"",""1009984""
","""event"",""trial"",""time""
""fullscreenenter"",""0"",""10073""
","""event"",""trial"",""time""
""fullscreenexit"",""162"",""792422""
","326.9000000022352","","","","","","","","51","0,0,1","6","blank","322","null","0.08438028008238867","0.20298645679394375","0.6328156198996927","1","","","","","","","","",""
"","html-keyboard-response","206","1012179","0.0-111.0-1.0","""event"",""trial"",""time""
""fullscreenenter"",""0"",""10073""
""fullscreenexit"",""162"",""792422""
""blur"",""183"",""961991""
""focus"",""184"",""961993""
""blur"",""203"",""1004278""
""focus"",""203"",""1004281""
""blur"",""205"",""1009982""
""focus"",""205"",""1009984""
","""event"",""trial"",""time""
""blur"",""183"",""961991""
""blur"",""203"",""1004278""
""blur"",""205"",""1009982""
","""event"",""trial"",""time""
""focus"",""184"",""961993""
""focus"",""203"",""1004281""
""focus"",""205"",""1009984""
","""event"",""trial"",""time""
""fullscreenenter"",""0"",""10073""
","""event"",""trial"",""time""
""fullscreenexit"",""162"",""792422""
","null","<p></p>","null","","","","","","","","","","","","","","","","","","","","","","","",""
"","do_recog","207","1015389","0.0-112.0-0.0","""event"",""trial"",""time""
""fullscreenenter"",""0"",""10073""
""fullscreenexit"",""162"",""792422""
""blur"",""183"",""961991""
""focus"",""184"",""961993""
""blur"",""203"",""1004278""
""focus"",""203"",""1004281""
""blur"",""205"",""1009982""
""focus"",""205"",""1009984""
","""event"",""trial"",""time""
""blur"",""183"",""961991""
""blur"",""203"",""1004278""
""blur"",""205"",""1009982""
","""event"",""trial"",""time""
""focus"",""184"",""961993""
""focus"",""203"",""1004281""
""focus"",""205"",""1009984""
","""event"",""trial"",""time""
""fullscreenenter"",""0"",""10073""
","""event"",""trial"",""time""
""fullscreenexit"",""162"",""792422""
","1702.699999999255","","","","","","","","54","","","","323","probe-96","","","","","1","[object Object]","199","4","1","","","",""
"","html-keyboard-response","208","1016393","0.0-112.0-1.0","""event"",""trial"",""time""
""fullscreenenter"",""0"",""10073""
""fullscreenexit"",""162"",""792422""
""blur"",""183"",""961991""
""focus"",""184"",""961993""
""blur"",""203"",""1004278""
""focus"",""203"",""1004281""
""blur"",""205"",""1009982""
""focus"",""205"",""1009984""
","""event"",""trial"",""time""
""blur"",""183"",""961991""
""blur"",""203"",""1004278""
""blur"",""205"",""1009982""
","""event"",""trial"",""time""
""focus"",""184"",""961993""
""focus"",""203"",""1004281""
""focus"",""205"",""1009984""
","""event"",""trial"",""time""
""fullscreenenter"",""0"",""10073""
","""event"",""trial"",""time""
""fullscreenexit"",""162"",""792422""
","null","<p></p>","null","","","","","","","","","","","","","","","","","","","","","","","",""
"","do_trial","209","1020417","0.0-113.0-0.0","""event"",""trial"",""time""
""fullscreenenter"",""0"",""10073""
""fullscreenexit"",""162"",""792422""
""blur"",""183"",""961991""
""focus"",""184"",""961993""
""blur"",""203"",""1004278""
""focus"",""203"",""1004281""
""blur"",""205"",""1009982""
""focus"",""205"",""1009984""
","""event"",""trial"",""time""
""blur"",""183"",""961991""
""blur"",""203"",""1004278""
""blur"",""205"",""1009982""
","""event"",""trial"",""time""
""focus"",""184"",""961993""
""focus"",""203"",""1004281""
""focus"",""205"",""1009984""
","""event"",""trial"",""time""
""fullscreenenter"",""0"",""10073""
","""event"",""trial"",""time""
""fullscreenexit"",""162"",""792422""
","1473.6000000014901","","","","","","","","51","0,0,1","6","blank","324","null","0.22262720591791765","0.09264192521899738","0.7378580128723883","1","","","","","","","","",""
"","html-keyboard-response","210","1021422","0.0-113.0-1.0","""event"",""trial"",""time""
""fullscreenenter"",""0"",""10073""
""fullscreenexit"",""162"",""792422""
""blur"",""183"",""961991""
""focus"",""184"",""961993""
""blur"",""203"",""1004278""
""focus"",""203"",""1004281""
""blur"",""205"",""1009982""
""focus"",""205"",""1009984""
","""event"",""trial"",""time""
""blur"",""183"",""961991""
""blur"",""203"",""1004278""
""blur"",""205"",""1009982""
","""event"",""trial"",""time""
""focus"",""184"",""961993""
""focus"",""203"",""1004281""
""focus"",""205"",""1009984""
","""event"",""trial"",""time""
""fullscreenenter"",""0"",""10073""
","""event"",""trial"",""time""
""fullscreenexit"",""162"",""792422""
","null","<p></p>","null","","","","","","","","","","","","","","","","","","","","","","","",""
"","do_trial","211","1024232","0.0-114.0-0.0","""event"",""trial"",""time""
""fullscreenenter"",""0"",""10073""
""fullscreenexit"",""162"",""792422""
""blur"",""183"",""961991""
""focus"",""184"",""961993""
""blur"",""203"",""1004278""
""focus"",""203"",""1004281""
""blur"",""205"",""1009982""
""focus"",""205"",""1009984""
","""event"",""trial"",""time""
""blur"",""183"",""961991""
""blur"",""203"",""1004278""
""blur"",""205"",""1009982""
","""event"",""trial"",""time""
""focus"",""184"",""961993""
""focus"",""203"",""1004281""
""focus"",""205"",""1009984""
","""event"",""trial"",""time""
""fullscreenenter"",""0"",""10073""
","""event"",""trial"",""time""
""fullscreenexit"",""162"",""792422""
","262","","","","","","","","49","0,0,0","6","blank","325","null","0.11355488601271485","0.23418941654387668","0.6045658482941104","0","","","","","","","","",""
"","html-keyboard-response","212","1025237","0.0-114.0-1.0","""event"",""trial"",""time""
""fullscreenenter"",""0"",""10073""
""fullscreenexit"",""162"",""792422""
""blur"",""183"",""961991""
""focus"",""184"",""961993""
""blur"",""203"",""1004278""
""focus"",""203"",""1004281""
""blur"",""205"",""1009982""
""focus"",""205"",""1009984""
","""event"",""trial"",""time""
""blur"",""183"",""961991""
""blur"",""203"",""1004278""
""blur"",""205"",""1009982""
","""event"",""trial"",""time""
""focus"",""184"",""961993""
""focus"",""203"",""1004281""
""focus"",""205"",""1009984""
","""event"",""trial"",""time""
""fullscreenenter"",""0"",""10073""
","""event"",""trial"",""time""
""fullscreenexit"",""162"",""792422""
","null","<p></p>","null","","","","","","","","","","","","","","","","","","","","","","","",""
"","do_trial","213","1027816","0.0-115.0-0.0","""event"",""trial"",""time""
""fullscreenenter"",""0"",""10073""
""fullscreenexit"",""162"",""792422""
""blur"",""183"",""961991""
""focus"",""184"",""961993""
""blur"",""203"",""1004278""
""focus"",""203"",""1004281""
""blur"",""205"",""1009982""
""focus"",""205"",""1009984""
","""event"",""trial"",""time""
""blur"",""183"",""961991""
""blur"",""203"",""1004278""
""blur"",""205"",""1009982""
","""event"",""trial"",""time""
""focus"",""184"",""961993""
""focus"",""203"",""1004281""
""focus"",""205"",""1009984""
","""event"",""trial"",""time""
""fullscreenenter"",""0"",""10073""
","""event"",""trial"",""time""
""fullscreenexit"",""162"",""792422""
","32.399999998509884","","","","","","","","51","0,0,0","6","blank","326","null","0.13478771270062181","0.12796561923522876","0.6025593475256311","0","","","","","","","","",""
"","html-keyboard-response","214","1028822","0.0-115.0-1.0","""event"",""trial"",""time""
""fullscreenenter"",""0"",""10073""
""fullscreenexit"",""162"",""792422""
""blur"",""183"",""961991""
""focus"",""184"",""961993""
""blur"",""203"",""1004278""
""focus"",""203"",""1004281""
""blur"",""205"",""1009982""
""focus"",""205"",""1009984""
","""event"",""trial"",""time""
""blur"",""183"",""961991""
""blur"",""203"",""1004278""
""blur"",""205"",""1009982""
","""event"",""trial"",""time""
""focus"",""184"",""961993""
""focus"",""203"",""1004281""
""focus"",""205"",""1009984""
","""event"",""trial"",""time""
""fullscreenenter"",""0"",""10073""
","""event"",""trial"",""time""
""fullscreenexit"",""162"",""792422""
","null","<p></p>","null","","","","","","","","","","","","","","","","","","","","","","","",""
"","do_trial","215","1031570","0.0-116.0-0.0","""event"",""trial"",""time""
""fullscreenenter"",""0"",""10073""
""fullscreenexit"",""162"",""792422""
""blur"",""183"",""961991""
""focus"",""184"",""961993""
""blur"",""203"",""1004278""
""focus"",""203"",""1004281""
""blur"",""205"",""1009982""
""focus"",""205"",""1009984""
","""event"",""trial"",""time""
""blur"",""183"",""961991""
""blur"",""203"",""1004278""
""blur"",""205"",""1009982""
","""event"",""trial"",""time""
""focus"",""184"",""961993""
""focus"",""203"",""1004281""
""focus"",""205"",""1009984""
","""event"",""trial"",""time""
""fullscreenenter"",""0"",""10073""
","""event"",""trial"",""time""
""fullscreenexit"",""162"",""792422""
","203.5","","","","","","","","50","0,0,1","6","blank","327","null","0.33801241252617475","0.05639264025710944","0.5558211426277271","0","","","","","","","","",""
"","html-keyboard-response","216","1032576","0.0-116.0-1.0","""event"",""trial"",""time""
""fullscreenenter"",""0"",""10073""
""fullscreenexit"",""162"",""792422""
""blur"",""183"",""961991""
""focus"",""184"",""961993""
""blur"",""203"",""1004278""
""focus"",""203"",""1004281""
""blur"",""205"",""1009982""
""focus"",""205"",""1009984""
","""event"",""trial"",""time""
""blur"",""183"",""961991""
""blur"",""203"",""1004278""
""blur"",""205"",""1009982""
","""event"",""trial"",""time""
""focus"",""184"",""961993""
""focus"",""203"",""1004281""
""focus"",""205"",""1009984""
","""event"",""trial"",""time""
""fullscreenenter"",""0"",""10073""
","""event"",""trial"",""time""
""fullscreenexit"",""162"",""792422""
","null","<p></p>","null","","","","","","","","","","","","","","","","","","","","","","","",""
"","do_trial","217","1035430","0.0-117.0-0.0","""event"",""trial"",""time""
""fullscreenenter"",""0"",""10073""
""fullscreenexit"",""162"",""792422""
""blur"",""183"",""961991""
""focus"",""184"",""961993""
""blur"",""203"",""1004278""
""focus"",""203"",""1004281""
""blur"",""205"",""1009982""
""focus"",""205"",""1009984""
","""event"",""trial"",""time""
""blur"",""183"",""961991""
""blur"",""203"",""1004278""
""blur"",""205"",""1009982""
","""event"",""trial"",""time""
""focus"",""184"",""961993""
""focus"",""203"",""1004281""
""focus"",""205"",""1009984""
","""event"",""trial"",""time""
""fullscreenenter"",""0"",""10073""
","""event"",""trial"",""time""
""fullscreenexit"",""162"",""792422""
","312.5","","","","","","","","51","0,1,0","6","blank","328","null","0.22954812308499495","0.10183514766846283","0.5949555840011665","0","","","","","","","","",""
"","html-keyboard-response","218","1036435","0.0-117.0-1.0","""event"",""trial"",""time""
""fullscreenenter"",""0"",""10073""
""fullscreenexit"",""162"",""792422""
""blur"",""183"",""961991""
""focus"",""184"",""961993""
""blur"",""203"",""1004278""
""focus"",""203"",""1004281""
""blur"",""205"",""1009982""
""focus"",""205"",""1009984""
","""event"",""trial"",""time""
""blur"",""183"",""961991""
""blur"",""203"",""1004278""
""blur"",""205"",""1009982""
","""event"",""trial"",""time""
""focus"",""184"",""961993""
""focus"",""203"",""1004281""
""focus"",""205"",""1009984""
","""event"",""trial"",""time""
""fullscreenenter"",""0"",""10073""
","""event"",""trial"",""time""
""fullscreenexit"",""162"",""792422""
","null","<p></p>","null","","","","","","","","","","","","","","","","","","","","","","","",""
"","do_trial","219","1039293","0.0-118.0-0.0","""event"",""trial"",""time""
""fullscreenenter"",""0"",""10073""
""fullscreenexit"",""162"",""792422""
""blur"",""183"",""961991""
""focus"",""184"",""961993""
""blur"",""203"",""1004278""
""focus"",""203"",""1004281""
""blur"",""205"",""1009982""
""focus"",""205"",""1009984""
","""event"",""trial"",""time""
""blur"",""183"",""961991""
""blur"",""203"",""1004278""
""blur"",""205"",""1009982""
","""event"",""trial"",""time""
""focus"",""184"",""961993""
""focus"",""203"",""1004281""
""focus"",""205"",""1009984""
","""event"",""trial"",""time""
""fullscreenenter"",""0"",""10073""
","""event"",""trial"",""time""
""fullscreenexit"",""162"",""792422""
","319.6000000014901","","","","","","","","51","0,0,1","6","blank","329","null","0.13511774031589152","0.11389337688692568","0.6823954171797283","1","","","","","","","","",""
"","html-keyboard-response","220","1040298","0.0-118.0-1.0","""event"",""trial"",""time""
""fullscreenenter"",""0"",""10073""
""fullscreenexit"",""162"",""792422""
""blur"",""183"",""961991""
""focus"",""184"",""961993""
""blur"",""203"",""1004278""
""focus"",""203"",""1004281""
""blur"",""205"",""1009982""
""focus"",""205"",""1009984""
","""event"",""trial"",""time""
""blur"",""183"",""961991""
""blur"",""203"",""1004278""
""blur"",""205"",""1009982""
","""event"",""trial"",""time""
""focus"",""184"",""961993""
""focus"",""203"",""1004281""
""focus"",""205"",""1009984""
","""event"",""trial"",""time""
""fullscreenenter"",""0"",""10073""
","""event"",""trial"",""time""
""fullscreenexit"",""162"",""792422""
","null","<p></p>","null","","","","","","","","","","","","","","","","","","","","","","","",""
"","do_recog","221","1043804","0.0-119.0-0.0","""event"",""trial"",""time""
""fullscreenenter"",""0"",""10073""
""fullscreenexit"",""162"",""792422""
""blur"",""183"",""961991""
""focus"",""184"",""961993""
""blur"",""203"",""1004278""
""focus"",""203"",""1004281""
""blur"",""205"",""1009982""
""focus"",""205"",""1009984""
","""event"",""trial"",""time""
""blur"",""183"",""961991""
""blur"",""203"",""1004278""
""blur"",""205"",""1009982""
","""event"",""trial"",""time""
""focus"",""184"",""961993""
""focus"",""203"",""1004281""
""focus"",""205"",""1009984""
","""event"",""trial"",""time""
""fullscreenenter"",""0"",""10073""
","""event"",""trial"",""time""
""fullscreenexit"",""162"",""792422""
","2001.199999999255","","","","","","","","55","","","","330","probe-216","","","","","1","[object Object]","195","4","0","","","",""
"","html-keyboard-response","222","1044809","0.0-119.0-1.0","""event"",""trial"",""time""
""fullscreenenter"",""0"",""10073""
""fullscreenexit"",""162"",""792422""
""blur"",""183"",""961991""
""focus"",""184"",""961993""
""blur"",""203"",""1004278""
""focus"",""203"",""1004281""
""blur"",""205"",""1009982""
""focus"",""205"",""1009984""
","""event"",""trial"",""time""
""blur"",""183"",""961991""
