"success","trial_type","trial_index","time_elapsed","internal_node_id","rt","stimulus","key_press","subject_id","participant_id","age","gender","prompt","response","choice_outcomes","context_n","context_img_id","trial_n","probe_img_id","pR_red","pR_white","pR_black","outcome","is_valid","image_to_show","probed_trial","probed_context","correct","probe","probed_trial_n","probed_context_n","context_im"
"true","fullscreen","0","5871","0.0-0.0","","","","","","","","","","","","","","","","","","","","","","","","","","",""
"","pavlovia","1","5880","0.0-1.0","","","","","","","","","","","","","","","","","","","","","","","","","","",""
"","welc_back","2","18707","0.0-2.0","null","run_exp/static/audio/clip_29_welcome_back.m4a","null","127","385","8","Male","<div class='center'><p>Welcome to day 2!</p><p> Yesterday, you were the head captain of a pirate ship. You and your fellow pirates robbed ships for their gold and traveled to six different islands .</p></div>","","","","","","","","","","","","","","","","","","",""
"","html-keyboard-response","3","18870","0.0-3.0","157.60000002384186","<div class='center'><p>Welcome to day 2!</p><p> Yesterday, you were the head captain of a pirate ship. You and your fellow pirates robbed ships for their gold and traveled to six different islands .</p><p><b>[Press the space bar to continue]</b></p></div>","32","","","","","","","","","","","","","","","","","","","","","","","",""
"","day_1_summary_goal","4","38864","0.0-4.0","null","run_exp/static/audio/clip_30_goal_of_game.m4a","null","","","","","<div class='center'><p>Today, like yesterday, you get to pick which pirate you want to rob the next ship.</p><p>If the pirate is successful in robbing a ship, you get gold coins that look like this: </p><p><img src='run_exp/static/images/tutorial/reward.png' height='150'></p><p> If they were not successful in robbing the ship, then you will get no gold coins and you'll see a big red x like this: </p><p><img src='run_exp/static/images/tutorial/reward_no.png' height='150'></p></div>","","","","","","","","","","","","","","","","","","",""
"","html-keyboard-response","5","40166","0.0-5.0","1300.300000011921","<div class='center'><p>Today, like yesterday, you get to pick which pirate you want to rob the next ship.</p><p>If the pirate is successful in robbing a ship, you get gold coins that look like this: </p><p><img src='run_exp/static/images/tutorial/reward.png' height='150'></p><p> If they were not successful in robbing the ship, then you will get no gold coins and you'll see a big red x like this: </p><p><img src='run_exp/static/images/tutorial/reward_no.png' height='150'></p><p><b>[Press the space bar to continue]</b></p></div>","32","","","","","","","","","","","","","","","","","","","","","","","",""
"","day_1_summary_pick","6","58005","0.0-6.0","null","run_exp/static/audio/clip_31_how_to_pick_a_pirate.m4a","null","","","","","<div class='center'><p>Also, just like yesterday, you will use the 1,2,3 keys on your keyboard to pick a pirate. Press '1' to choose red beard, '2' to choose white beard, and '3' to choose black beard . You only have 3 seconds to pick a pirate, so please make a choice quickly!</p></div>","","","","","","","","","","","","","","","","","","",""
"","html-keyboard-response","7","59567","0.0-7.0","1558.8999999761581","<div class='center'><p>Also, just like yesterday, you will use the 1,2,3 keys on your keyboard to pick a pirate. Press '1' to choose red beard, '2' to choose white beard, and '3' to choose black beard . You only have 3 seconds to pick a pirate, so please make a choice quickly!</p><p><b>[Press the space bar to continue]</b></p></div>","32","","","","","","","","","","","","","","","","","","","","","","","",""
"","test_phase_begin","8","92885","0.0-8.0","null","run_exp/static/audio/clip_32_final_place.m4a","null","","","","","<div class='center'><p>You’ve arrived at the final island of your journey! Unfortunately, it’s very foggy out, so you won’t be able to see it in the distance like the other islands you've visited.</p><p>You’ll still be deciding which pirate you want to rob a ship like before. However, because of the fog, you also won’t be able to see the ship.</p><p>This means you do not have to remember the ships you rob on this island.</p><p>Unlike yesterday, you won't be visiting multiple islands today. You will stay on this island for the entire game. This game will last ~30 minutes.</p></div>","","","","","","","","","","","","","","","","","","",""
"","html-keyboard-response","9","93811","0.0-9.0","924.3000000119209","<div class='center'><p>You’ve arrived at the final island of your journey! Unfortunately, it’s very foggy out, so you won’t be able to see it in the distance like the other islands you've visited.</p><p>You’ll still be deciding which pirate you want to rob a ship like before. However, because of the fog, you also won’t be able to see the ship.</p><p>This means you do not have to remember the ships you rob on this island.</p><p>Unlike yesterday, you won't be visiting multiple islands today. You will stay on this island for the entire game. This game will last ~30 minutes.</p><p><b>[Press the space bar to continue]</b></p></div>","32","","","","","","","","","","","","","","","","","","","","","","","",""
"","explain_probe_1","10","103245","0.0-10.0","null","run_exp/static/audio/clip_33_recognition_1.m4a","null","","","","","<div class='center'><p> Sometimes you’ll be shown a ship, and you will be asked if you saw this ship on a past island.</p><p> Here is an example of what you will see.</p><p><img src='run_exp/static/images/tutorial/example_recog_trial.png' height='500'></p></div>","","","","","","","","","","","","","","","","","","",""
"","html-keyboard-response","11","107383","0.0-11.0","4133.900000035763","<div class='center'><p> Sometimes you’ll be shown a ship, and you will be asked if you saw this ship on a past island.</p><p> Here is an example of what you will see.</p><p><img src='run_exp/static/images/tutorial/example_recog_trial.png' height='500'></p><p><b>[Press the space bar to continue]</b></p></div>","32","","","","","","","","","","","","","","","","","","","","","","","",""
"","explain_probe_2","12","134244","0.0-12.0","null","run_exp/static/audio/clip_34_recognition_2.m4a","null","","","","","<div class='center'><p> You will press the 5, 6, 7, 8 keys on your keyboard to respond.</p><p>If you are very sure saw the ship, press <b>5</b> on your keyboard.</p><p> If you think you  saw it before but are not sure, then press <b>6</b>.</p><p> If you think you have <b>not</b> seen it before but are not sure, then press <b>7</b>.</p><p> If you are sure you did <b>not</b> see the ship before, then press <b>8</b>.</p><p><img src='run_exp/static/images/tutorial/example_recog_trial.png' height='500'></p></div>","","","","","","","","","","","","","","","","","","",""
"","html-keyboard-response","13","139605","0.0-13.0","5357.899999976158","<div class='center'><p> You will press the 5, 6, 7, 8 keys on your keyboard to respond.</p><p>If you are very sure saw the ship, press <b>5</b> on your keyboard.</p><p> If you think you  saw it before but are not sure, then press <b>6</b>.</p><p> If you think you have <b>not</b> seen it before but are not sure, then press <b>7</b>.</p><p> If you are sure you did <b>not</b> see the ship before, then press <b>8</b>.</p><p><img src='run_exp/static/images/tutorial/example_recog_trial.png' height='500'></p><p><b>[Press the space bar to continue]</b></p></div>","32","","","","","","","","","","","","","","","","","","","","","","","",""
"","explain_outcome","14","161164","0.0-14.0","null","run_exp/static/audio/clip_35_recognition_3.m4a","null","","","","","<div class='center'><p> If you remember correctly, then you’ll get a gold coin like this: </p><p><img src='run_exp/static/images/tutorial/reward_small.png' height='200'></p><p>If you do not remember correctly, then you'll see a red x like this: </p><p><img src='run_exp/static/images/tutorial/reward_no.png' height='200'></p><p>Importantly, when you are shown a ship, take the time to remind yourself which island you saw it on. This will help you in the next part of the study.</p></div>","","","","","","","","","","","","","","","","","","",""
"","html-keyboard-response","15","166888","0.0-15.0","5717.599999964237","<div class='center'><p> If you remember correctly, then you’ll get a gold coin like this: </p><p><img src='run_exp/static/images/tutorial/reward_small.png' height='200'></p><p>If you do not remember correctly, then you'll see a red x like this: </p><p><img src='run_exp/static/images/tutorial/reward_no.png' height='200'></p><p>Importantly, when you are shown a ship, take the time to remind yourself which island you saw it on. This will help you in the next part of the study.</p><p><b>[Press the space bar to continue]</b></p></div>","32","","","","","","","","","","","","","","","","","","","","","","","",""
"","begin_test_phase","16","191444","0.0-16.0","null","run_exp/static/audio/clip_36_begin_final.m4a","null","","","","","<div class='center'><p>Let's go over the important points again. Your job is to: </p><p>1. Pick the pirate who is best at robbing ships and will bring you back gold coins. </p><p>2. Correctly remember whether or not you saw a ship before. If you did see the ship before, remind yourself on which island you saw the ship. </p></div>","","","","","","","","","","","","","","","","","","",""
"","html-keyboard-response","17","191661","0.0-17.0","152.5","<div class='center'><p>Let's go over the important points again. Your job is to: </p><p>1. Pick the pirate who is best at robbing ships and will bring you back gold coins. </p><p>2. Correctly remember whether or not you saw a ship before. If you did see the ship before, remind yourself on which island you saw the ship. </p><p><b>[Press the space bar to continue]</b></p></div>","32","","","","","","","","","","","","","","","","","","","","","","","",""
"","do_welcome","18","195692","0.0-18.0","null","","","","","","","","null","","","","","","","","","","","","","","","","","",""
"","do_trial","19","200902","0.0-19.0-0.0","2567.199999988079","","","","","","","","51","0,0,0","6","blank","230","null","0.0904469703656731","0.33930663743613315","0.6558224619518379","0","","","","","","","","",""
"","html-keyboard-response","20","201913","0.0-19.0-1.0","null","<p></p>","null","","","","","","","","","","","","","","","","","","","","","","","",""
"","do_trial","21","204924","0.0-20.0-0.0","419.39999997615814","","","","","","","","49","0,0,1","6","blank","231","null","0.08928069738155694","0.3071431992929339","0.8331254789993543","0","","","","","","","","",""
"","html-keyboard-response","22","205928","0.0-20.0-1.0","null","<p></p>","null","","","","","","","","","","","","","","","","","","","","","","","",""
"","do_trial","23","208897","0.0-21.0-0.0","362.9000000357628","","","","","","","","50","0,0,1","6","blank","232","null","0.11327328805666138","0.41584486169039414","0.6030539208969351","0","","","","","","","","",""
"","html-keyboard-response","24","209900","0.0-21.0-1.0","null","<p></p>","null","","","","","","","","","","","","","","","","","","","","","","","",""
"","do_trial","25","212888","0.0-22.0-0.0","385.39999997615814","","","","","","","","51","0,0,1","6","blank","233","null","0.05673725455578899","0.2885581327661478","0.640035709384575","1","","","","","","","","",""
"","html-keyboard-response","26","213905","0.0-22.0-1.0","null","<p></p>","null","","","","","","","","","","","","","","","","","","","","","","","",""
"","do_trial","27","216811","0.0-23.0-0.0","313.10000002384186","","","","","","","","51","0,0,1","6","blank","234","null","0.07007803141170513","0.18375764302310502","0.6803941422967676","1","","","","","","","","",""
"","html-keyboard-response","28","217817","0.0-23.0-1.0","null","<p></p>","null","","","","","","","","","","","","","","","","","","","","","","","",""
"","do_trial","29","220738","0.0-24.0-0.0","330.39999997615814","","","","","","","","51","0,0,1","6","blank","235","null","0.08996887180426473","0.311634109893028","0.7064204821471965","1","","","","","","","","",""
"","html-keyboard-response","30","221743","0.0-24.0-1.0","null","<p></p>","null","","","","","","","","","","","","","","","","","","","","","","","",""
"","do_trial","31","224597","0.0-25.0-0.0","281.5","","","","","","","","51","1,1,1","6","blank","236","null","0.09760247272543487","0.2431700660456482","0.7640680417258257","1","","","","","","","","",""
"","html-keyboard-response","32","225602","0.0-25.0-1.0","null","<p></p>","null","","","","","","","","","","","","","","","","","","","","","","","",""
"","do_trial","33","228840","0.0-26.0-0.0","608.4000000357628","","","","","","","","51","0,0,0","6","blank","237","null","0.08384445525604431","0.17548506503044528","0.7063677102629266","0","","","","","","","","",""
"","html-keyboard-response","34","229844","0.0-26.0-1.0","null","<p></p>","null","","","","","","","","","","","","","","","","","","","","","","","",""
"","do_trial","35","232841","0.0-27.0-0.0","449.80000001192093","","","","","","","","49","0,0,1","6","blank","238","null","0.12356424086288216","0.20641074049974836","0.7536115207842862","0","","","","","","","","",""
"","html-keyboard-response","36","233847","0.0-27.0-1.0","null","<p></p>","null","","","","","","","","","","","","","","","","","","","","","","","",""
"","do_trial","37","237035","0.0-28.0-0.0","591.8000000119209","","","","","","","","50","0,1,1","6","blank","239","null","0.07205111731963415","0.2891087727925841","0.7478386787258683","1","","","","","","","","",""
"","html-keyboard-response","38","238038","0.0-28.0-1.0","null","<p></p>","null","","","","","","","","","","","","","","","","","","","","","","","",""
"","do_trial","39","241010","0.0-29.0-0.0","378.89999997615814","","","","","","","","50","0,0,1","6","blank","240","null","0.14260439595643057","0.36524177655798434","0.6840112890594848","0","","","","","","","","",""
"","html-keyboard-response","40","242016","0.0-29.0-1.0","null","<p></p>","null","","","","","","","","","","","","","","","","","","","","","","","",""
"","do_trial","41","245188","0.0-30.0-0.0","590.6999999880791","","","","","","","","49","0,0,0","6","blank","241","null","0.08579404560349178","0.2143001175073232","0.6635904687215546","0","","","","","","","","",""
"","html-keyboard-response","42","246194","0.0-30.0-1.0","null","<p></p>","null","","","","","","","","","","","","","","","","","","","","","","","",""
"","do_trial","43","250810","0.0-31.0-0.0","2007.6000000238419","","","","","","","","50","0,0,1","6","blank","242","null","0.37775778971962154","0.1937279492389213","0.5619016193616053","0","","","","","","","","",""
"","html-keyboard-response","44","251821","0.0-31.0-1.0","null","<p></p>","null","","","","","","","","","","","","","","","","","","","","","","","",""
"","do_trial","45","254769","0.0-32.0-0.0","379.80000001192093","","","","","","","","51","0,0,0","6","blank","243","null","0.315817688147612","0.31492048419701557","0.32419141317380673","0","","","","","","","","",""
"","html-keyboard-response","46","255776","0.0-32.0-1.0","null","<p></p>","null","","","","","","","","","","","","","","","","","","","","","","","",""
"","do_trial","47","260065","0.0-33.0-0.0","1702","","","","","","","","49","0,1,0","6","blank","244","null","0.3821722582353892","0.20850526371203842","0.29768128867211646","0","","","","","","","","",""
"","html-keyboard-response","48","261068","0.0-33.0-1.0","null","<p></p>","null","","","","","","","","","","","","","","","","","","","","","","","",""
"","do_recog","49","267106","0.0-34.0-0.0","null","","","","","","","","null","","","","245","probe-177","","","","","1","[object Object]","86","2","0","","","",""
"","html-keyboard-response","50","268123","0.0-34.0-1.0","null","<p></p>","null","","","","","","","","","","","","","","","","","","","","","","","",""
"","do_trial","51","272902","0.0-35.0-0.0","2190.899999976158","","","","","","","","51","0,0,0","6","blank","246","null","0.48573831584121535","0.17000681843475543","0.31630103798096504","0","","","","","","","","",""
"","html-keyboard-response","52","273905","0.0-35.0-1.0","null","<p></p>","null","","","","","","","","","","","","","","","","","","","","","","","",""
"","do_trial","53","276609","0.0-36.0-0.0","136.70000004768372","","","","","","","","50","0,0,0","6","blank","247","null","0.5016962635310019","0.1509924526302475","0.31489821800507867","0","","","","","","","","",""
"","html-keyboard-response","54","277613","0.0-36.0-1.0","null","<p></p>","null","","","","","","","","","","","","","","","","","","","","","","","",""
"","do_recog","55","283639","0.0-37.0-0.0","null","","","","","","","","null","","","","248","probe-234","","","","","0","[object Object]","null","null","0","","","",""
"","html-keyboard-response","56","284641","0.0-37.0-1.0","null","<p></p>","null","","","","","","","","","","","","","","","","","","","","","","","",""
"","do_trial","57","288460","0.0-38.0-0.0","1251.3999999761581","","","","","","","","49","1,0,0","6","blank","249","null","0.4658937676894282","0.09131801096737573","0.2061159028374761","1","","","","","","","","",""
"","html-keyboard-response","58","289464","0.0-38.0-1.0","null","<p></p>","null","","","","","","","","","","","","","","","","","","","","","","","",""
"","do_trial","59","294124","0.0-39.0-0.0","2084.199999988079","","","","","","","","49","0,0,1","6","blank","250","null","0.519492283138997","0.10554197363805068","0.27134840471594907","0","","","","","","","","",""
"","html-keyboard-response","60","295127","0.0-39.0-1.0","null","<p></p>","null","","","","","","","","","","","","","","","","","","","","","","","",""
"","do_trial","61","298610","0.0-40.0-0.0","918.2999999523163","","","","","","","","50","0,0,1","6","blank","251","null","0.5732920346291742","0.1521824302537612","0.359117996064388","0","","","","","","","","",""
"","html-keyboard-response","62","299615","0.0-40.0-1.0","null","<p></p>","null","","","","","","","","","","","","","","","","","","","","","","","",""
"","do_trial","63","303005","0.0-41.0-0.0","822.8000000119209","","","","","","","","51","1,0,0","6","blank","252","null","0.4427129031962063","0.1954712178747902","0.367604953447091","0","","","","","","","","",""
"","html-keyboard-response","64","304012","0.0-41.0-1.0","null","<p></p>","null","","","","","","","","","","","","","","","","","","","","","","","",""
"","do_trial","65","307425","0.0-42.0-0.0","785","","","","","","","","50","1,0,0","6","blank","253","null","0.6183586483486053","0.16294342904895218","0.3135256399442947","0","","","","","","","","",""
"","html-keyboard-response","66","308429","0.0-42.0-1.0","null","<p></p>","null","","","","","","","","","","","","","","","","","","","","","","","",""
"","do_recog","67","312885","0.0-43.0-0.0","2936.599999964237","","","","","","","","53","","","","254","probe-244","","","","","0","[object Object]","null","null","0","","","",""
"","html-keyboard-response","68","313889","0.0-43.0-1.0","null","<p></p>","null","","","","","","","","","","","","","","","","","","","","","","","",""
"","do_trial","69","317962","0.0-44.0-0.0","1463.9000000357628","","","","","","","","50","0,1,0","6","blank","255","null","0.6308710242145419","0.20980060306573692","0.2871276024657771","1","","","","","","","","",""
"","html-keyboard-response","70","318972","0.0-44.0-1.0","null","<p></p>","null","","","","","","","","","","","","","","","","","","","","","","","",""
"","do_recog","71","323012","0.0-45.0-0.0","2513.600000023842","","","","","","","","56","","","","256","probe-127","","","","","1","[object Object]","207","5","0","","","",""
"","html-keyboard-response","72","324018","0.0-45.0-1.0","null","<p></p>","null","","","","","","","","","","","","","","","","","","","","","","","",""
"","do_trial","73","330121","0.0-46.0-0.0","null","","","","","","","","null","1,0,0","6","blank","257","null","0.7286956666996808","0.12082389106941964","0.33066752123634596","","","","","","","","","",""
"","html-keyboard-response","74","331124","0.0-46.0-1.0","null","<p></p>","null","","","","","","","","","","","","","","","","","","","","","","","",""
"","do_trial","75","334460","0.0-47.0-0.0","731.3000000119209","","","","","","","","50","1,0,1","6","blank","258","null","0.6560983111254284","0.1705903930661333","0.26114451533638205","0","","","","","","","","",""
"","html-keyboard-response","76","335464","0.0-47.0-1.0","null","<p></p>","null","","","","","","","","","","","","","","","","","","","","","","","",""
"","do_trial","77","338370","0.0-48.0-0.0","323.10000002384186","","","","","","","","49","1,0,1","6","blank","259","null","0.6962178579368744","0.14831584113220328","0.2971119059275593","1","","","","","","","","",""
"","html-keyboard-response","78","339387","0.0-48.0-1.0","null","<p></p>","null","","","","","","","","","","","","","","","","","","","","","","","",""
"","do_trial","79","342629","0.0-49.0-0.0","626.1000000238419","","","","","","","","49","0,0,0","6","blank","260","null","0.5875817966940657","0.21947417259836502","0.18403017556452184","0","","","","","","","","",""
"","html-keyboard-response","80","343644","0.0-49.0-1.0","null","<p></p>","null","","","","","","","","","","","","","","","","","","","","","","","",""
"","do_trial","81","347685","0.0-50.0-0.0","1432.8999999761581","","","","","","","","50","1,1,0","6","blank","261","null","0.484648752142172","0.3140567449162669","0.3333699400647817","1","","","","","","","","",""
"","html-keyboard-response","82","348690","0.0-50.0-1.0","null","<p></p>","null","","","","","","","","","","","","","","","","","","","","","","","",""
"","do_trial","83","351961","0.0-51.0-0.0","721.3999999761581","","","","","","","","50","1,0,0","6","blank","262","null","0.5200345550804593","0.22897773612965833","0.15704234370945527","0","","","","","","","","",""
"","html-keyboard-response","84","352965","0.0-51.0-1.0","null","<p></p>","null","","","","","","","","","","","","","","","","","","","","","","","",""
"","do_trial","85","356120","0.0-52.0-0.0","554.8999999761581","","","","","","","","51","0,0,0","6","blank","263","null","0.4930722873679277","0.19802147045150187","0.23508473258106555","0","","","","","","","","",""
"","html-keyboard-response","86","357124","0.0-52.0-1.0","null","<p></p>","null","","","","","","","","","","","","","","","","","","","","","","","",""
"","do_recog","87","361514","0.0-53.0-0.0","2869.199999988079","","","","","","","","56","","","","264","probe-254","","","","","0","[object Object]","null","null","1","","","",""
"","html-keyboard-response","88","362518","0.0-53.0-1.0","null","<p></p>","null","","","","","","","","","","","","","","","","","","","","","","","",""
"","do_trial","89","366328","0.0-54.0-0.0","1224.1000000238419","","","","","","","","51","1,0,0","6","blank","265","null","0.511657126003424","0.05604861794731834","0.21017516048804905","0","","","","","","","","",""
"","html-keyboard-response","90","367331","0.0-54.0-1.0","null","<p></p>","null","","","","","","","","","","","","","","","","","","","","","","","",""
"","do_trial","91","370225","0.0-55.0-0.0","287.4000000357628","","","","","","","","51","1,0,0","6","blank","266","null","0.5150267542676508","0.17727726915813222","0.2959435099817029","0","","","","","","","","",""
"","html-keyboard-response","92","371227","0.0-55.0-1.0","null","<p></p>","null","","","","","","","","","","","","","","","","","","","","","","","",""
"","do_trial","93","377334","0.0-56.0-0.0","null","","","","","","","","null","0,0,0","6","blank","267","null","0.39432010215176294","0.18035586270431256","0.47477542598742817","","","","","","","","","",""
"","html-keyboard-response","94","378341","0.0-56.0-1.0","null","<p></p>","null","","","","","","","","","","","","","","","","","","","","","","","",""
"","do_trial","95","381457","0.0-57.0-0.0","522.1999999880791","","","","","","","","50","0,0,1","6","blank","268","null","0.49181881764789614","0.13603344816022944","0.4101675185026421","0","","","","","","","","",""
"","html-keyboard-response","96","382470","0.0-57.0-1.0","null","<p></p>","null","","","","","","","","","","","","","","","","","","","","","","","",""
"","break","97","448077","0.0-57.0-2.0","65605.5","<div class='center'><p>Time to take a quick break! You have 2 minutes to rest, but you can move on sooner if you'd like.</p><p> Press the <b>space bar</b> to continue.</p></div>","32","","","","","","","","","","","","","","","","","","","","","","","",""
"","do_trial","98","452226","0.0-57.0-3.0","1572.199999988079","","","","","","","","51","1,0,1","6","blank","269","null","0.6687118004409703","0.06046152224576531","0.501813859599062","1","","","","","","","","",""
"","html-keyboard-response","99","453230","0.0-57.0-4.0","null","<p></p>","null","","","","","","","","","","","","","","","","","","","","","","","",""
"","do_trial","100","456231","0.0-58.0-0.0","377.10000002384186","","","","","","","","51","1,0,1","6","blank","270","null","0.6361487270827996","0.0758394347441941","0.35745822526211257","1","","","","","","","","",""
"","html-keyboard-response","101","457247","0.0-58.0-1.0","null","<p></p>","null","","","","","","","","","","","","","","","","","","","","","","","",""
"","do_trial","102","460132","0.0-59.0-0.0","293.69999998807907","","","","","","","","51","0,0,0","6","blank","271","null","0.5680373715240673","0.06511584057657026","0.17225348970133195","0","","","","","","","","",""
"","html-keyboard-response","103","461137","0.0-59.0-1.0","null","<p></p>","null","","","","","","","","","","","","","","","","","","","","","","","",""
"","do_recog","104","465448","0.0-60.0-0.0","2790.800000011921","","","","","","","","53","","","","272","probe-104","","","","","1","[object Object]","122","3","1","","","",""
"","html-keyboard-response","105","466464","0.0-60.0-1.0","null","<p></p>","null","","","","","","","","","","","","","","","","","","","","","","","",""
"","do_trial","106","471668","0.0-61.0-0.0","2584.100000023842","","","","","","","","49","0,0,0","6","blank","273","null","0.5991545703952518","0.07462723811725533","0.26830379891084666","0","","","","","","","","",""
"","html-keyboard-response","107","472673","0.0-61.0-1.0","null","<p></p>","null","","","","","","","","","","","","","","","","","","","","","","","",""
"","do_trial","108","477069","0.0-62.0-0.0","1806.199999988079","","","","","","","","50","1,0,0","6","blank","274","null","0.6300925614748417","0.255385462549451","0.19979289734364428","0","","","","","","","","",""
"","html-keyboard-response","109","478072","0.0-62.0-1.0","null","<p></p>","null","","","","","","","","","","","","","","","","","","","","","","","",""
"","do_trial","110","482064","0.0-63.0-0.0","1409.4000000357628","","","","","","","","51","1,0,0","6","blank","275","null","0.5171449382438439","0.3139431715354453","0.24517127479452952","0","","","","","","","","",""
"","html-keyboard-response","111","483073","0.0-63.0-1.0","null","<p></p>","null","","","","","","","","","","","","","","","","","","","","","","","",""
"","do_trial","112","486875","0.0-64.0-0.0","1241.800000011921","","","","","","","","51","0,0,0","6","blank","276","null","0.573490047558558","0.2368501803958246","0.2960258447169916","0","","","","","","","","",""
"","html-keyboard-response","113","487881","0.0-64.0-1.0","null","<p></p>","null","","","","","","","","","","","","","","","","","","","","","","","",""
"","do_recog","114","491914","0.0-65.0-0.0","2511.300000011921","","","","","","","","53","","","","277","probe-221","","","","","1","[object Object]","121","3","1","","","",""
"","html-keyboard-response","115","492932","0.0-65.0-1.0","null","<p></p>","null","","","","","","","","","","","","","","","","","","","","","","","",""
"","do_trial","116","497051","0.0-66.0-0.0","1530.199999988079","","","","","","","","50","1,0,0","6","blank","278","null","0.5577118128119574","0.23768210109862054","0.36539325590057864","0","","","","","","","","",""
"","html-keyboard-response","117","498057","0.0-66.0-1.0","null","<p></p>","null","","","","","","","","","","","","","","","","","","","","","","","",""
"","do_recog","118","502062","0.0-67.0-0.0","2477.399999976158","","","","","","","","56","","","","279","probe-140","","","","","1","[object Object]","127","3","0","","","",""
"","html-keyboard-response","119","503067","0.0-67.0-1.0","null","<p></p>","null","","","","","","","","","","","","","","","","","","","","","","","",""
"","do_trial","120","507853","0.0-68.0-0.0","2185.699999988079","","","","","","","","50","1,0,0","6","blank","280","null","0.5773686376886122","0.20171788184646045","0.30887823539196","0","","","","","","","","",""
"","html-keyboard-response","121","508858","0.0-68.0-1.0","null","<p></p>","null","","","","","","","","","","","","","","","","","","","","","","","",""
"","do_trial","122","511892","0.0-69.0-0.0","418.4000000357628","","","","","","","","51","1,0,0","6","blank","281","null","0.523717766309113","0.1167175712912654","0.19741847110982647","0","","","","","","","","",""
"","html-keyboard-response","123","512897","0.0-69.0-1.0","null","<p></p>","null","","","","","","","","","","","","","","","","","","","","","","","",""
"","do_trial","124","515694","0.0-70.0-0.0","240.5","","","","","","","","49","1,1,1","6","blank","282","null","0.6008604378240632","0.1582652314059618","0.2878916598062872","1","","","","","","","","",""
"","html-keyboard-response","125","516701","0.0-70.0-1.0","null","<p></p>","null","","","","","","","","","","","","","","","","","","","","","","","",""
"","do_trial","126","520157","0.0-71.0-0.0","857.5","","","","","","","","50","1,0,1","6","blank","283","null","0.7790857200002616","0.08504795309974902","0.2561991153453337","0","","","","","","","","",""
"","html-keyboard-response","127","521165","0.0-71.0-1.0","null","<p></p>","null","","","","","","","","","","","","","","","","","","","","","","","",""
"","do_trial","128","524782","0.0-72.0-0.0","1011.3999999761581","","","","","","","","49","1,0,0","6","blank","284","null","0.7201202119170881","0.10198048074443644","0.37249169249081054","1","","","","","","","","",""
"","html-keyboard-response","129","525799","0.0-72.0-1.0","null","<p></p>","null","","","","","","","","","","","","","","","","","","","","","","","",""
"","do_recog","130","531836","0.0-73.0-0.0","null","","","","","","","","null","","","","285","probe-207","","","","","1","[object Object]","204","5","0","","","",""
"","html-keyboard-response","131","532840","0.0-73.0-1.0","null","<p></p>","null","","","","","","","","","","","","","","","","","","","","","","","",""
"","do_trial","132","537274","0.0-74.0-0.0","1837.300000011921","","","","","","","","50","1,0,0","6","blank","286","null","0.6244655664080558","0.05474069021966577","0.35959116796940677","0","","","","","","","","",""
"","html-keyboard-response","133","538281","0.0-74.0-1.0","null","<p></p>","null","","","","","","","","","","","","","","","","","","","","","","","",""
"","do_trial","134","541640","0.0-75.0-0.0","773.1000000238419","","","","","","","","51","1,0,0","6","blank","287","null","0.5634674807322875","0.11496712675436825","0.308824630909679","0","","","","","","","","",""
"","html-keyboard-response","135","542645","0.0-75.0-1.0","null","<p></p>","null","","","","","","","","","","","","","","","","","","","","","","","",""
"","do_recog","136","548675","0.0-76.0-0.0","null","","","","","","","","null","","","","288","probe-76","","","","","1","[object Object]","162","4","0","","","",""
"","html-keyboard-response","137","549691","0.0-76.0-1.0","null","<p></p>","null","","","","","","","","","","","","","","","","","","","","","","","",""
"","do_trial","138","553326","0.0-77.0-0.0","1049.5","","","","","","","","50","1,0,0","6","blank","289","null","0.5376217533644373","0.1586514914349969","0.37042047204914097","0","","","","","","","","",""
"","html-keyboard-response","139","554332","0.0-77.0-1.0","null","<p></p>","null","","","","","","","","","","","","","","","","","","","","","","","",""
"","do_trial","140","557600","0.0-78.0-0.0","686","","","","","","","","51","0,0,1","6","blank","290","null","0.5729965804074293","0.23578091137195942","0.5261731480389391","1","","","","","","","","",""
"","html-keyboard-response","141","558619","0.0-78.0-1.0","null","<p></p>","null","","","","","","","","","","","","","","","","","","","","","","","",""
"","do_trial","142","562853","0.0-79.0-0.0","1627","","","","","","","","51","1,1,1","6","blank","291","null","0.597845425549885","0.2695285561289324","0.40492963020091344","1","","","","","","","","",""
"","html-keyboard-response","143","563857","0.0-79.0-1.0","null","<p></p>","null","","","","","","","","","","","","","","","","","","","","","","","",""
"","do_recog","144","568116","0.0-80.0-0.0","2742.399999976158","","","","","","","","56","","","","292","probe-151","","","","","1","[object Object]","208","5","0","","","",""
"","html-keyboard-response","145","569133","0.0-80.0-1.0","null","<p></p>","null","","","","","","","","","","","","","","","","","","","","","","","",""
"","do_trial","146","572935","0.0-81.0-0.0","1221.3999999761581","","","","","","","","50","0,1,0","6","blank","293","null","0.37002344541924603","0.39122152447190567","0.252117770571782","1","","","","","","","","",""
"","html-keyboard-response","147","573942","0.0-81.0-1.0","null","<p></p>","null","","","","","","","","","","","","","","","","","","","","","","","",""
"","do_trial","148","578217","0.0-82.0-0.0","1671.7999999523163","","","","","","","","51","1,1,0","6","blank","294","null","0.3282955406652111","0.5472452446052897","0.20818168994925124","0","","","","","","","","",""
"","html-keyboard-response","149","579224","0.0-82.0-1.0","null","<p></p>","null","","","","","","","","","","","","","","","","","","","","","","","",""
"","do_trial","150","582769","0.0-83.0-0.0","920.9000000357628","","","","","","","","51","0,1,0","6","blank","295","null","0.25096511757243417","0.7974288184463788","0.17479887260449864","0","","","","","","","","",""
"","html-keyboard-response","151","583784","0.0-83.0-1.0","null","<p></p>","null","","","","","","","","","","","","","","","","","","","","","","","",""
"","do_recog","152","587449","0.0-84.0-0.0","2143.199999988079","","","","","","","","53","","","","296","probe-113","","","","","1","[object Object]","87","2","1","","","",""
"","html-keyboard-response","153","588453","0.0-84.0-1.0","null","<p></p>","null","","","","","","","","","","","","","","","","","","","","","","","",""
"","do_trial","154","594568","0.0-85.0-0.0","null","","","","","","","","null","0,1,0","6","blank","297","null","0.09828557967665877","0.776431335511402","0.3195412640312514","","","","","","","","","",""
"","html-keyboard-response","155","595575","0.0-85.0-1.0","null","<p></p>","null","","","","","","","","","","","","","","","","","","","","","","","",""
"","do_trial","156","599891","0.0-86.0-0.0","1743.5","","","","","","","","50","0,1,0","6","blank","298","null","0.17559268408396014","0.7739408725302458","0.25923331741855704","1","","","","","","","","",""
"","html-keyboard-response","157","600894","0.0-86.0-1.0","null","<p></p>","null","","","","","","","","","","","","","","","","","","","","","","","",""
"","do_trial","158","606967","0.0-87.0-0.0","null","","","","","","","","null","0,1,1","6","blank","299","null","0.10354505845355613","0.597680101182275","0.31182429881602675","","","","","","","","","",""
"","html-keyboard-response","159","607970","0.0-87.0-1.0","null","<p></p>","null","","","","","","","","","","","","","","","","","","","","","","","",""
"","do_recog","160","611461","0.0-88.0-0.0","1968.8999999761581","","","","","","","","53","","","","300","probe-20","","","","","1","[object Object]","88","2","1","","","",""
"","html-keyboard-response","161","612467","0.0-88.0-1.0","null","<p></p>","null","","","","","","","","","","","","","","","","","","","","","","","",""
"","do_trial","162","616042","0.0-89.0-0.0","987.6000000238419","","","","","","","","50","0,0,1","6","blank","301","null","0.17789963928160726","0.5614235568557177","0.3275619638450818","0","","","","","","","","",""
"","html-keyboard-response","163","617047","0.0-89.0-1.0","null","<p></p>","null","","","","","","","","","","","","","","","","","","","","","","","",""
"","do_trial","164","620122","0.0-90.0-0.0","506.5","","","","","","","","51","1,0,0","6","blank","302","null","0.1867614497264568","0.6047717895267669","0.24536107846124444","0","","","","","","","","",""
"","html-keyboard-response","165","621128","0.0-90.0-1.0","null","<p></p>","null","","","","","","","","","","","","","","","","","","","","","","","",""
"","do_trial","166","624990","0.0-91.0-0.0","1235.0999999642372","","","","","","","","50","1,1,0","6","blank","303","null","0.3407812701708325","0.6741816519986843","0.16639898678157297","1","","","","","","","","",""
"","html-keyboard-response","167","625993","0.0-91.0-1.0","null","<p></p>","null","","","","","","","","","","","","","","","","","","","","","","","",""
"","do_trial","168","628568","0.0-92.0-0.0","0.09999996423721313","","","","","","","","50","0,1,0","6","blank","304","null","0.13438719398716306","0.7253417296147637","0.3078016526353612","1","","","","","","","","",""
"","html-keyboard-response","169","629579","0.0-92.0-1.0","null","<p></p>","null","","","","","","","","","","","","","","","","","","","","","","","",""
"","do_trial","170","632767","0.0-93.0-0.0","605.8000000119209","","","","","","","","50","0,0,1","6","blank","305","null","0.07204795376082825","0.6746821397557021","0.18889761001706945","0","","","","","","","","",""
"","html-keyboard-response","171","633771","0.0-93.0-1.0","null","<p></p>","null","","","","","","","","","","","","","","","","","","","","","","","",""
"","do_trial","172","637724","0.0-94.0-0.0","1345.199999988079","","","","","","","","51","0,1,0","6","blank","306","null","0.11602629524717369","0.6440087115533453","0.2411488041156868","0","","","","","","","","",""
"","html-keyboard-response","173","638729","0.0-94.0-1.0","null","<p></p>","null","","","","","","","","","","","","","","","","","","","","","","","",""
"","do_recog","174","642814","0.0-95.0-0.0","2565.5","","","","","","","","53","","","","307","probe-153","","","","","1","[object Object]","45","1","1","","","",""
"","html-keyboard-response","175","643820","0.0-95.0-1.0","null","<p></p>","null","","","","","","","","","","","","","","","","","","","","","","","",""
"","do_trial","176","648572","0.0-96.0-0.0","2138.2000000476837","","","","","","","","50","0,0,0","6","blank","308","null","0.06364366274508831","0.6258734357156439","0.2978021820575024","0","","","","","","","","",""
"","html-keyboard-response","177","649589","0.0-96.0-1.0","null","<p></p>","null","","","","","","","","","","","","","","","","","","","","","","","",""
"","break","178","693619","0.0-96.0-2.0","44028.89999997616","<div class='center'><p>Time to take a quick break! You have 2 minutes to rest, but you can move on sooner if you'd like.</p><p> Press the <b>space bar</b> to continue.</p></div>","32","","","","","","","","","","","","","","","","","","","","","","","",""
"","do_trial","179","698077","0.0-96.0-3.0","1917.8999999761581","","","","","","","","49","0,1,0","6","blank","309","null","0.10095999748469126","0.715835905164016","0.41295933252072603","0","","","","","","","","",""
"","html-keyboard-response","180","699089","0.0-96.0-4.0","null","<p></p>","null","","","","","","","","","","","","","","","","","","","","","","","",""
"","do_trial","181","702055","0.0-97.0-0.0","375.19999998807907","","","","","","","","50","0,1,0","6","blank","310","null","0.20776157665767236","0.6456815148546642","0.2409895296461034","1","","","","","","","","",""
"","html-keyboard-response","182","703073","0.0-97.0-1.0","null","<p></p>","null","","","","","","","","","","","","","","","","","","","","","","","",""
"","do_trial","183","706181","0.0-98.0-0.0","547.5","","","","","","","","50","0,1,0","6","blank","311","null","0.13437492354458727","0.6263270657548067","0.20806113917582075","1","","","","","","","","",""
"","html-keyboard-response","184","707185","0.0-98.0-1.0","null","<p></p>","null","","","","","","","","","","","","","","","","","","","","","","","",""
"","do_trial","185","710204","0.0-99.0-0.0","411.30000001192093","","","","","","","","50","0,1,0","6","blank","312","null","0.10113614106258827","0.7963553648562856","0.15416053921697656","1","","","","","","","","",""
"","html-keyboard-response","186","711207","0.0-99.0-1.0","null","<p></p>","null","","","","","","","","","","","","","","","","","","","","","","","",""
"","do_recog","187","717239","0.0-100.0-0.0","null","","","","","","","","null","","","","313","probe-220","","","","","1","[object Object]","46","1","0","","","",""
"","html-keyboard-response","188","718246","0.0-100.0-1.0","null","<p></p>","null","","","","","","","","","","","","","","","","","","","","","","","",""
"","do_trial","189","722069","0.0-101.0-0.0","1219.2999999523163","","","","","","","","49","0,0,0","6","blank","314","null","0.07516258516931458","0.7152951342313876","0.15625143654481605","0","","","","","","","","",""
"","html-keyboard-response","190","723073","0.0-101.0-1.0","null","<p></p>","null","","","","","","","","","","","","","","","","","","","","","","","",""
"","do_recog","191","726923","0.0-102.0-0.0","2323.899999976158","","","","","","","","56","","","","315","probe-55","","","","","1","[object Object]","120","3","0","","","",""
"","html-keyboard-response","192","727927","0.0-102.0-1.0","null","<p></p>","null","","","","","","","","","","","","","","","","","","","","","","","",""
"","do_trial","193","731886","0.0-103.0-0.0","1406.8999999761581","","","","","","","","50","0,1,0","6","blank","316","null","0.05960854914508564","0.7396958290800065","0.07149960200871772","1","","","","","","","","",""
"","html-keyboard-response","194","732889","0.0-103.0-1.0","null","<p></p>","null","","","","","","","","","","","","","","","","","","","","","","","",""
"","do_trial","195","737470","0.0-104.0-0.0","1995.800000011921","","","","","","","","50","0,1,0","6","blank","317","null","0.07905452259667162","0.7360778730655844","0.2598211293247831","1","","","","","","","","",""
"","html-keyboard-response","196","738476","0.0-104.0-1.0","null","<p></p>","null","","","","","","","","","","","","","","","","","","","","","","","",""
"","do_recog","197","742656","0.0-105.0-0.0","2666.7999999523163","","","","","","","","53","","","","318","probe-88","","","","","1","[object Object]","206","5","1","","","",""
"","html-keyboard-response","198","743662","0.0-105.0-1.0","null","<p></p>","null","","","","","","","","","","","","","","","","","","","","","","","",""
"","do_trial","199","747964","0.0-106.0-0.0","1691.3999999761581","","","","","","","","51","0,1,1","6","blank","319","null","0.09016019441092295","0.7955752453645673","0.31836245314638795","1","","","","","","","","",""
"","html-keyboard-response","200","748969","0.0-106.0-1.0","null","<p></p>","null","","","","","","","","","","","","","","","","","","","","","","","",""
"","do_recog","201","753151","0.0-107.0-0.0","2668.5","","","","","","","","53","","","","320","probe-175","","","","","1","[object Object]","82","2","1","","","",""
"","html-keyboard-response","202","754155","0.0-107.0-1.0","null","<p></p>","null","","","","","","","","","","","","","","","","","","","","","","","",""
"","do_trial","203","757548","0.0-108.0-0.0","800.2999999523163","","","","","","","","49","0,1,0","6","blank","321","null","0.09324683967984425","0.7173547335405565","0.38182562685442284","0","","","","","","","","",""
"","html-keyboard-response","204","758554","0.0-108.0-1.0","null","<p></p>","null","","","","","","","","","","","","","","","","","","","","","","","",""
"","do_recog","205","762741","0.0-109.0-0.0","2670.7999999523163","","","","","","","","53","","","","322","probe-236","","","","","0","[object Object]","null","null","0","","","",""
"","html-keyboard-response","206","763746","0.0-109.0-1.0","null","<p></p>","null","","","","","","","","","","","","","","","","","","","","","","","",""
"","do_trial","207","767907","0.0-110.0-0.0","1560.2999999523163","","","","","","","","50","0,1,0","6","blank","323","null","0.0754552410983085","0.815843900706845","0.498770486103052","1","","","","","","","","",""
"","html-keyboard-response","208","768911","0.0-110.0-1.0","null","<p></p>","null","","","","","","","","","","","","","","","","","","","","","","","",""
"","do_recog","209","774936","0.0-111.0-0.0","null","","","","","","","","null","","","","324","probe-32","","","","","1","[object Object]","85","2","0","","","",""
"","html-keyboard-response","210","775941","0.0-111.0-1.0","null","<p></p>","null","","","","","","","","","","","","","","","","","","","","","","","",""
"","do_trial","211","780205","0.0-112.0-0.0","1675.199999988079","","","","","","","","49","0,0,1","6","blank","325","null","0.06305033760572297","0.7189762070836573","0.4643957929459221","0","","","","","","","","",""
"","html-keyboard-response","212","781209","0.0-112.0-1.0","null","<p></p>","null","","","","","","","","","","","","","","","","","","","","","","","",""
"","do_recog","213","787236","0.0-113.0-0.0","null","","","","","","","","null","","","","326","probe-139","","","","","1","[object Object]","166","4","0","","","",""
"","html-keyboard-response","214","788241","0.0-113.0-1.0","null","<p></p>","null","","","","","","","","","","","","","","","","","","","","","","","",""
"","do_trial","215","791318","0.0-114.0-0.0","480.19999998807907","","","","","","","","49","0,0,1","6","blank","327","null","0.0529103694284586","0.6107759167603319","0.40809520115576553","0","","","","","","","","",""
"","html-keyboard-response","216","792323","0.0-114.0-1.0","null","<p></p>","null","","","","","","","","","","","","","","","","","","","","","","","",""
"","do_trial","217","796503","0.0-115.0-0.0","1560","","","","","","","","50","0,1,1","6","blank","328","null","0.06959672459161885","0.4988748302954769","0.4153433908099597","1","","","","","","","","",""
"","html-keyboard-response","218","797507","0.0-115.0-1.0","null","<p></p>","null","","","","","","","","","","","","","","","","","","","","","","","",""
"","do_trial","219","801367","0.0-116.0-0.0","1239.5","","","","","","","","50","0,1,1","6","blank","329","null","0.17392300285690732","0.6186510360897325","0.5019717854393724","1","","","","","","","","",""
"","html-keyboard-response","220","802373","0.0-116.0-1.0","null","<p></p>","null","","","","","","","","","","","","","","","","","","","","","","","",""
"","do_trial","221","805601","0.0-117.0-0.0","623","","","","","","","","50","0,1,0","6","blank","330","null","0.18159459162129607","0.7504236217430851","0.3696055472729164","1","","","","","","","","",""
"","html-keyboard-response","222","806607","0.0-117.0-1.0","null","<p></p>","null","","","","","","","","","","","","","","","","","","","","","","","",""
"","do_recog","223","810378","0.0-118.0-0.0","2248.599999964237","","","","","","","","53","","","","331","probe-198","","","","","1","[object Object]","84","2","1","","","",""
"","html-keyboard-response","224","811387","0.0-118.0-1.0","null","<p></p>","null","","","","","","","","","","","","","","","","","","","","","","","",""
"","do_trial","225","817490","0.0-119.0-0.0","null","","","","","","","","null","0,0,0","6","blank","332","null","0.12366660426798923","0.723567020208022","0.35019142761599037","","","","","","","","","",""
"","html-keyboard-response","226","818496","0.0-119.0-1.0","null","<p></p>","null","","","","","","","","","","","","","","","","","","","","","","","",""
"","do_trial","227","821199","0.0-120.0-0.0","105.69999998807907","","","","","","","","51","0,0,1","6","blank","333","null","0.10923434280695872","0.5755889743644519","0.318644816003037","1","","","","","","","","",""
"","html-keyboard-response","228","822203","0.0-120.0-1.0","null","<p></p>","null","","","","","","","","","","","","","","","","","","","","","","","",""
"","do_trial","229","825908","0.0-121.0-0.0","1102.699999988079","","","","","","","","50","0,0,0","6","blank","334","null","0.06905806479927977","0.608257945317342","0.3597368297657652","0","","","","","","","","",""
"","html-keyboard-response","230","826914","0.0-121.0-1.0","null","<p></p>","null","","","","","","","","","","","","","","","","","","","","","","","",""
"","do_recog","231","832939","0.0-122.0-0.0","null","","","","","","","","null","","","","335","probe-137","","","","","1","[object Object]","83","2","0","","","",""
"","html-keyboard-response","232","833947","0.0-122.0-1.0","null","<p></p>","null","","","","","","","","","","","","","","","","","","","","","","","",""
"","do_trial","233","840062","0.0-123.0-0.0","null","","","","","","","","null","0,1,0","6","blank","336","null","0.12809710647884223","0.6250898815146131","0.32114503423404755","","","","","","","","","",""
"","html-keyboard-response","234","841065","0.0-123.0-1.0","null","<p></p>","null","","","","","","","","","","","","","","","","","","","","","","","",""
"","do_recog","235","845227","0.0-124.0-0.0","2648.400000035763","","","","","","","","53","","","","337","probe-178","","","","","1","[object Object]","49","1","1","","","",""
"","html-keyboard-response","236","846232","0.0-124.0-1.0","null","<p></p>","null","","","","","","","","","","","","","","","","","","","","","","","",""
"","do_trial","237","849498","0.0-125.0-0.0","686.1000000238419","","","","","","","","49","0,0,1","6","blank","338","null","0.11130325417765606","0.6287361967853976","0.4394316038627632","0","","","","","","","","",""
"","html-keyboard-response","238","850515","0.0-125.0-1.0","null","<p></p>","null","","","","","","","","","","","","","","","","","","","","","","","",""
"","do_trial","239","853751","0.0-126.0-0.0","627.5","","","","","","","","50","0,1,0","6","blank","339","null","0.19943707913568784","0.646106430340513","0.3312552452282283","1","","","","","","","","",""
"","html-keyboard-response","240","854767","0.0-126.0-1.0","null","<p></p>","null","","","","","","","","","","","","","","","","","","","","","","","",""
"","do_trial","241","858036","0.0-127.0-0.0","676.1000000238419","","","","","","","","50","0,1,0","6","blank","340","null","0.12702401531628968","0.5583900092870444","0.27931180808857253","1","","","","","","","","",""
"","html-keyboard-response","242","859040","0.0-127.0-1.0","null","<p></p>","null","","","","","","","","","","","","","","","","","","","","","","","",""
"","do_trial","243","861950","0.0-128.0-0.0","322.80000001192093","","","","","","","","50","0,1,0","6","blank","341","null","0.05443594841918849","0.7121198660210206","0.4043941769213645","1","","","","","","","","",""
"","html-keyboard-response","244","862956","0.0-128.0-1.0","null","<p></p>","null","","","","","","","","","","","","","","","","","","","","","","","",""
"","do_trial","245","865908","0.0-129.0-0.0","361.39999997615814","","","","","","","","50","0,1,1","6","blank","342","null","0.09446418912230821","0.8290614228030284","0.376724152119161","1","","","","","","","","",""
"","html-keyboard-response","246","866912","0.0-129.0-1.0","null","<p></p>","null","","","","","","","","","","","","","","","","","","","","","","","",""
"","do_recog","247","870323","0.0-130.0-0.0","1888.199999988079","","","","","","","","53","","","","343","probe-211","","","","","1","[object Object]","44","1","1","","","",""
"","html-keyboard-response","248","871328","0.0-130.0-1.0","null","<p></p>","null","","","","","","","","","","","","","","","","","","","","","","","",""
"","do_trial","249","874603","0.0-131.0-0.0","670.8999999761581","","","","","","","","50","0,1,0","6","blank","344","null","0.08565775189647518","0.7993224653402193","0.42910440060372446","1","","","","","","","","",""
"","html-keyboard-response","250","875606","0.0-131.0-1.0","null","<p></p>","null","","","","","","","","","","","","","","","","","","","","","","","",""
"","do_recog","251","881645","0.0-132.0-0.0","null","","","","","","","","null","","","","345","probe-188","","","","","1","[object Object]","89","2","0","","","",""
"","html-keyboard-response","252","882661","0.0-132.0-1.0","null","<p></p>","null","","","","","","","","","","","","","","","","","","","","","","","",""
"","do_trial","253","885654","0.0-133.0-0.0","442.60000002384186","","","","","","","","50","0,1,1","6","blank","346","null","0.18836833835632993","0.78037864953239","0.3128638901445275","1","","","","","","","","",""
"","html-keyboard-response","254","886670","0.0-133.0-1.0","null","<p></p>","null","","","","","","","","","","","","","","","","","","","","","","","",""
"","do_recog","255","889888","0.0-134.0-0.0","1695.6000000238419","","","","","","","","53","","","","347","probe-47","","","","","1","[object Object]","47","1","1","","","",""
"","html-keyboard-response","256","890905","0.0-134.0-1.0","null","<p></p>","null","","","","","","","","","","","","","","","","","","","","","","","",""
"","do_trial","257","894168","0.0-135.0-0.0","694.7999999523163","","","","","","","","50","0,0,0","6","blank","348","null","0.22564668988678716","0.8134844770934881","0.22016067653205706","0","","","","","","","","",""
"","html-keyboard-response","258","895176","0.0-135.0-1.0","null","<p></p>","null","","","","","","","","","","","","","","","","","","","","","","","",""
"","break","259","941571","0.0-135.0-2.0","46393.5","<div class='center'><p>Time to take a quick break! You have 2 minutes to rest, but you can move on sooner if you'd like.</p><p> Press the <b>space bar</b> to continue.</p></div>","32","","","","","","","","","","","","","","","","","","","","","","","",""
"","do_trial","260","946223","0.0-135.0-3.0","2060.800000011921","","","","","","","","51","0,0,0","6","blank","349","null","0.37467873739350305","0.7240587679977166","0.13079099275713144","0","","","","","","","","",""
"","html-keyboard-response","261","947228","0.0-135.0-4.0","null","<p></p>","null","","","","","","","","","","","","","","","","","","","","","","","",""
"","do_trial","262","950700","0.0-136.0-0.0","913.8999999761581","","","","","","","","50","1,1,0","6","blank","350","null","0.456338388828096","0.5460346087629574","0.11458569937826893","1","","","","","","","","",""
"","html-keyboard-response","263","951704","0.0-136.0-1.0","null","<p></p>","null","","","","","","","","","","","","","","","","","","","","","","","",""
"","do_trial","264","955168","0.0-137.0-0.0","874.8000000119209","","","","","","","","50","0,1,0","6","blank","351","null","0.6342095811140179","0.46959158146492785","0.10563329260755566","1","","","","","","","","",""
"","html-keyboard-response","265","956185","0.0-137.0-1.0","null","<p></p>","null","","","","","","","","","","","","","","","","","","","","","","","",""
"","do_trial","266","959678","0.0-138.0-0.0","880.1999999880791","","","","","","","","51","1,0,0","6","blank","352","null","0.5907010401105283","0.4216832990454593","0.05115630793160919","0","","","","","","","","",""
"","html-keyboard-response","267","960682","0.0-138.0-1.0","null","<p></p>","null","","","","","","","","","","","","","","","","","","","","","","","",""
"","do_recog","268","963643","0.0-139.0-0.0","1442.6000000238419","","","","","","","","54","","","","353","probe-93","","","","","1","[object Object]","165","4","1","","","",""
"","html-keyboard-response","269","964647","0.0-139.0-1.0","null","<p></p>","null","","","","","","","","","","","","","","","","","","","","","","","",""
"","do_trial","270","969081","0.0-140.0-0.0","1875.5","","","","","","","","50","1,0,0","6","blank","354","null","0.5345144803546815","0.38875953271225777","0.11614017246233864","0","","","","","","","","",""
"","html-keyboard-response","271","970099","0.0-140.0-1.0","null","<p></p>","null","","","","","","","","","","","","","","","","","","","","","","","",""
"","do_trial","272","974793","0.0-141.0-0.0","2088.399999976158","","","","","","","","49","0,0,0","6","blank","355","null","0.5602810565726138","0.4009037590571146","0.08332961269758503","0","","","","","","","","",""
"","html-keyboard-response","273","975798","0.0-141.0-1.0","null","<p></p>","null","","","","","","","","","","","","","","","","","","","","","","","",""
"","do_recog","274","979887","0.0-142.0-0.0","2560.699999988079","","","","","","","","53","","","","356","probe-79","","","","","1","[object Object]","123","3","1","","","",""
"","html-keyboard-response","275","980906","0.0-142.0-1.0","null","<p></p>","null","","","","","","","","","","","","","","","","","","","","","","","",""
"","do_trial","276","984763","0.0-143.0-0.0","1309","","","","","","","","50","0,0,0","6","blank","357","null","0.6455746481737928","0.4535684556447876","0.1642043092626743","0","","","","","","","","",""
"","html-keyboard-response","277","985767","0.0-143.0-1.0","null","<p></p>","null","","","","","","","","","","","","","","","","","","","","","","","",""
"","do_trial","278","988912","0.0-144.0-0.0","575.5999999642372","","","","","","","","51","1,0,1","6","blank","358","null","0.6526476167080321","0.3374889854240032","0.2455150114059","1","","","","","","","","",""
"","html-keyboard-response","279","989926","0.0-144.0-1.0","null","<p></p>","null","","","","","","","","","","","","","","","","","","","","","","","",""
"","do_trial","280","993033","0.0-145.0-0.0","498.80000001192093","","","","","","","","51","1,0,1","6","blank","359","null","0.6702867229068019","0.36874086558070085","0.08631410141516895","1","","","","","","","","",""
"","html-keyboard-response","281","994046","0.0-145.0-1.0","null","<p></p>","null","","","","","","","","","","","","","","","","","","","","","","","",""
"","do_trial","282","997078","0.0-146.0-0.0","451.30000001192093","","","","","","","","51","0,1,0","6","blank","360","null","0.48783306079175687","0.38840546833747946","0.1556441106349608","0","","","","","","","","",""
"","html-keyboard-response","283","998085","0.0-146.0-1.0","null","<p></p>","null","","","","","","","","","","","","","","","","","","","","","","","",""
"","do_recog","284","1004118","0.0-147.0-0.0","null","","","","","","","","null","","","","361","probe-216","","","","","1","[object Object]","169","4","0","","","",""
"","html-keyboard-response","285","1005122","0.0-147.0-1.0","null","<p></p>","null","","","","","","","","","","","","","","","","","","","","","","","",""
"","do_trial","286","1007967","0.0-148.0-0.0","272.4000000357628","","","","","","","","50","0,0,0","6","blank","362","null","0.43760703570011206","0.4832147868981775","0.2757811635550426","0","","","","","","","","",""
"","html-keyboard-response","287","1008973","0.0-148.0-1.0","null","<p></p>","null","","","","","","","","","","","","","","","","","","","","","","","",""
"","do_recog","288","1012141","0.0-149.0-0.0","1646.800000011921","","","","","","","","55","","","","363","probe-141","","","","","1","[object Object]","43","1","0","","","",""
"","html-keyboard-response","289","1013144","0.0-149.0-1.0","null","<p></p>","null","","","","","","","","","","","","","","","","","","","","","","","",""
"","do_trial","290","1016404","0.0-150.0-0.0","685.1999999880791","","","","","","","","51","0,0,0","6","blank","364","null","0.5071898979082065","0.3733713007755076","0.1654598403580163","0","","","","","","","","",""
"","html-keyboard-response","291","1017410","0.0-150.0-1.0","null","<p></p>","null","","","","","","","","","","","","","","","","","","","","","","","",""
"","do_recog","292","1020821","0.0-151.0-0.0","1899.5","","","","","","","","55","","","","365","probe-131","","","","","1","[object Object]","160","4","0","","","",""
"","html-keyboard-response","293","1021825","0.0-151.0-1.0","null","<p></p>","null","","","","","","","","","","","","","","","","","","","","","","","",""
"","do_trial","294","1025170","0.0-152.0-0.0","735.0999999642372","","","","","","","","50","1,1,0","6","blank","366","null","0.5759900256697879","0.40014458844700523","0.19667864384073228","1","","","","","","","","",""
"","html-keyboard-response","295","1026175","0.0-152.0-1.0","null","<p></p>","null","","","","","","","","","","","","","","","","","","","","","","","",""
"","do_recog","296","1029419","0.0-153.0-0.0","1722","","","","","","","","54","","","","367","probe-212","","","","","1","[object Object]","41","1","1","","","",""
"","html-keyboard-response","297","1030422","0.0-153.0-1.0","null","<p></p>","null","","","","","","","","","","","","","","","","","","","","","","","",""
"","do_trial","298","1033540","0.0-154.0-0.0","505.89999997615814","","","","","","","","50","1,0,1","6","blank","368","null","0.5787511081361226","0.43260359251459024","0.2394277493901169","0","","","","","","","","",""
"","html-keyboard-response","299","1034544","0.0-154.0-1.0","null","<p></p>","null","","","","","","","","","","","","","","","","","","","","","","","",""
"","do_trial","300","1037577","0.0-155.0-0.0","476.30000001192093","","","","","","","","49","0,0,0","6","blank","369","null","0.542256524935103","0.46329844027670175","0.17518684304635573","0","","","","","","","","",""
"","html-keyboard-response","301","1038593","0.0-155.0-1.0","null","<p></p>","null","","","","","","","","","","","","","","","","","","","","","","","",""
"","do_trial","302","1042034","0.0-156.0-0.0","821","","","","","","","","50","1,1,0","6","blank","370","null","0.5950650609053242","0.32894232903901827","0.17860070070570278","1","","","","","","","","",""
"","html-keyboard-response","303","1043037","0.0-156.0-1.0","null","<p></p>","null","","","","","","","","","","","","","","","","","","","","","","","",""
"","do_trial","304","1046070","0.0-157.0-0.0","468.2999999523163","","","","","","","","50","0,0,0","6","blank","371","null","0.5598312703637167","0.23245384022452187","0.08374655058544253","0","","","","","","","","",""
"","html-keyboard-response","305","1047074","0.0-157.0-1.0","null","<p></p>","null","","","","","","","","","","","","","","","","","","","","","","","",""
"","do_recog","306","1050456","0.0-158.0-0.0","1868.800000011921","","","","","","","","54","","","","372","probe-138","","","","","1","[object Object]","164","4","1","","","",""
"","html-keyboard-response","307","1051459","0.0-158.0-1.0","null","<p></p>","null","","","","","","","","","","","","","","","","","","","","","","","",""
"","do_trial","308","1054525","0.0-159.0-0.0","474.2000000476837","","","","","","","","50","1,0,0","6","blank","373","null","0.6148645244123986","0.23944029639545578","0.10883523437861044","0","","","","","","","","",""
"","html-keyboard-response","309","1055531","0.0-159.0-1.0","null","<p></p>","null","","","","","","","","","","","","","","","","","","","","","","","",""
"","do_recog","310","1059916","0.0-160.0-0.0","2859.800000011921","","","","","","","","53","","","","374","probe-34","","","","","1","[object Object]","40","1","1","","","",""
"","html-keyboard-response","311","1060923","0.0-160.0-1.0","null","<p></p>","null","","","","","","","","","","","","","","","","","","","","","","","",""
"","do_trial","312","1064570","0.0-161.0-0.0","1036.199999988079","","","","","","","","50","1,0,0","6","blank","375","null","0.49856552636649204","0.2629036668521359","0.06617288955979805","0","","","","","","","","",""
"","html-keyboard-response","313","1065575","0.0-161.0-1.0","null","<p></p>","null","","","","","","","","","","","","","","","","","","","","","","","",""
"","do_trial","314","1069692","0.0-162.0-0.0","1530.9000000357628","","","","","","","","50","0,1,0","6","blank","376","null","0.5911838566577989","0.17960921810154604","0.18822103185609404","1","","","","","","","","",""
"","html-keyboard-response","315","1070697","0.0-162.0-1.0","null","<p></p>","null","","","","","","","","","","","","","","","","","","","","","","","",""
"","do_trial","316","1073699","0.0-163.0-0.0","393.9000000357628","","","","","","","","51","1,1,0","6","blank","377","null","0.5871471679441369","0.25763067037752047","0.21668528396464698","0","","","","","","","","",""
"","html-keyboard-response","317","1074715","0.0-163.0-1.0","null","<p></p>","null","","","","","","","","","","","","","","","","","","","","","","","",""
"","do_trial","318","1078123","0.0-164.0-0.0","798.9000000357628","","","","","","","","51","0,1,0","6","blank","378","null","0.5845436014579721","0.30239180974317825","0.08686783060196338","0","","","","","","","","",""
"","html-keyboard-response","319","1079140","0.0-164.0-1.0","null","<p></p>","null","","","","","","","","","","","","","","","","","","","","","","","",""
"","do_trial","320","1082094","0.0-165.0-0.0","363.89999997615814","","","","","","","","50","1,1,0","6","blank","379","null","0.5675619254048232","0.30091256966498053","0.054305648476172697","1","","","","","","","","",""
"","html-keyboard-response","321","1083097","0.0-165.0-1.0","null","<p></p>","null","","","","","","","","","","","","","","","","","","","","","","","",""
"","do_recog","322","1086277","0.0-166.0-0.0","1666.199999988079","","","","","","","","53","","","","380","probe-159","","","","","1","[object Object]","161","4","1","","","",""
"","html-keyboard-response","323","1087296","0.0-166.0-1.0","null","<p></p>","null","","","","","","","","","","","","","","","","","","","","","","","",""
"","do_trial","324","1091646","0.0-167.0-0.0","1734.7999999523163","","","","","","","","50","1,0,0","6","blank","381","null","0.5913617360044414","0.18895676982674484","0.12586533307901346","0","","","","","","","","",""
"","html-keyboard-response","325","1092653","0.0-167.0-1.0","null","<p></p>","null","","","","","","","","","","","","","","","","","","","","","","","",""
"","do_trial","326","1097408","0.0-168.0-0.0","2170.099999964237","","","","","","","","49","1,0,0","6","blank","382","null","0.600796802537301","0.28360173861302473","0.09775089904435291","1","","","","","","","","",""
"","html-keyboard-response","327","1098415","0.0-168.0-1.0","null","<p></p>","null","","","","","","","","","","","","","","","","","","","","","","","",""
"","do_trial","328","1101865","0.0-169.0-0.0","843.8000000119209","","","","","","","","49","1,0,0","6","blank","383","null","0.6704651145711102","0.24781757341182128","0.2298662438838407","1","","","","","","","","",""
"","html-keyboard-response","329","1102882","0.0-169.0-1.0","null","<p></p>","null","","","","","","","","","","","","","","","","","","","","","","","",""
"","do_recog","330","1106916","0.0-170.0-0.0","2516.300000011921","","","","","","","","53","","","","384","probe-51","","","","","1","[object Object]","200","5","1","","","",""
"","html-keyboard-response","331","1107926","0.0-170.0-1.0","null","<p></p>","null","","","","","","","","","","","","","","","","","","","","","","","",""
"","do_trial","332","1111121","0.0-171.0-0.0","577.8000000119209","","","","","","","","49","0,0,0","6","blank","385","null","0.54180386461716","0.0721126017457524","0.14054647823803987","0","","","","","","","","",""
"","html-keyboard-response","333","1112125","0.0-171.0-1.0","null","<p></p>","null","","","","","","","","","","","","","","","","","","","","","","","",""
"","do_trial","334","1115205","0.0-172.0-0.0","464.5","","","","","","","","50","0,1,1","6","blank","386","null","0.6659541103989772","0.2551850918245379","0.20514934309417887","1","","","","","","","","",""
"","html-keyboard-response","335","1116213","0.0-172.0-1.0","null","<p></p>","null","","","","","","","","","","","","","","","","","","","","","","","",""
"","do_trial","336","1119452","0.0-173.0-0.0","663.5","","","","","","","","51","0,1,0","6","blank","387","null","0.7236332035239071","0.2618755176372496","0.2668564110623784","0","","","","","","","","",""
"","html-keyboard-response","337","1120458","0.0-173.0-1.0","null","<p></p>","null","","","","","","","","","","","","","","","","","","","","","","","",""
"","break","338","1160339","0.0-174.0-0.0","39879.299999952316","<div class='center'><p>Time to take a quick break! You have 2 minutes to rest, but you can move on sooner if you'd like.</p><p> Press the <b>space bar</b> to continue.</p></div>","32","","","","","","","","","","","","","","","","","","","","","","","",""
"","do_recog","339","1163613","0.0-174.0-1.0","1749.5","","","","","","","","53","","","","388","probe-90","","","","","1","[object Object]","202","5","1","","","",""
"","html-keyboard-response","340","1164616","0.0-174.0-2.0","null","<p></p>","null","","","","","","","","","","","","","","","","","","","","","","","",""
"","do_trial","341","1168134","0.0-175.0-0.0","946.3000000119209","","","","","","","","50","1,1,0","6","blank","389","null","0.555654865273801","0.21540749598693673","0.38389070757652055","1","","","","","","","","",""
"","html-keyboard-response","342","1169139","0.0-175.0-1.0","null","<p></p>","null","","","","","","","","","","","","","","","","","","","","","","","",""
"","do_trial","343","1172507","0.0-176.0-0.0","782.3000000119209","","","","","","","","50","1,0,0","6","blank","390","null","0.627018055866634","0.3322732427109275","0.3655317317963406","0","","","","","","","","",""
"","html-keyboard-response","344","1173523","0.0-176.0-1.0","null","<p></p>","null","","","","","","","","","","","","","","","","","","","","","","","",""
"","do_recog","345","1176843","0.0-177.0-0.0","1791.199999988079","","","","","","","","53","","","","391","probe-209","","","","","1","[object Object]","125","3","1","","","",""
"","html-keyboard-response","346","1177849","0.0-177.0-1.0","null","<p></p>","null","","","","","","","","","","","","","","","","","","","","","","","",""
"","do_trial","347","1181172","0.0-178.0-0.0","742.8000000119209","","","","","","","","49","1,1,0","6","blank","392","null","0.6059041022890037","0.282904035049628","0.24906683886888964","1","","","","","","","","",""
"","html-keyboard-response","348","1182189","0.0-178.0-1.0","null","<p></p>","null","","","","","","","","","","","","","","","","","","","","","","","",""
"","do_recog","349","1186008","0.0-179.0-0.0","2302.199999988079","","","","","","","","53","","","","393","probe-114","","","","","1","[object Object]","80","2","1","","","",""
"","html-keyboard-response","350","1187025","0.0-179.0-1.0","null","<p></p>","null","","","","","","","","","","","","","","","","","","","","","","","",""
"","do_trial","351","1189924","0.0-180.0-0.0","304.60000002384186","","","","","","","","50","0,0,0","6","blank","394","null","0.6359883565643247","0.2876060378415945","0.1370703230132166","0","","","","","","","","",""
"","html-keyboard-response","352","1190938","0.0-180.0-1.0","null","<p></p>","null","","","","","","","","","","","","","","","","","","","","","","","",""
"","do_recog","353","1194966","0.0-181.0-0.0","2504.699999988079","","","","","","","","53","","","","395","probe-202","","","","","1","[object Object]","203","5","1","","","",""
"","html-keyboard-response","354","1195970","0.0-181.0-1.0","null","<p></p>","null","","","","","","","","","","","","","","","","","","","","","","","",""
"","do_trial","355","1199701","0.0-182.0-0.0","1117.800000011921","","","","","","","","49","1,1,0","6","blank","396","null","0.6621162897757321","0.23992982610101748","0.20234472408214907","1","","","","","","","","",""
"","html-keyboard-response","356","1200709","0.0-182.0-1.0","null","<p></p>","null","","","","","","","","","","","","","","","","","","","","","","","",""
"","do_recog","357","1204740","0.0-183.0-0.0","2508.099999964237","","","","","","","","53","","","","397","probe-77","","","","","1","[object Object]","81","2","1","","","",""
"","html-keyboard-response","358","1205744","0.0-183.0-1.0","null","<p></p>","null","","","","","","","","","","","","","","","","","","","","","","","",""
"","do_trial","359","1209028","0.0-184.0-0.0","663.8999999761581","","","","","","","","50","0,0,0","6","blank","398","null","0.6504366845976677","0.19582780026983976","0.08079366022978857","0","","","","","","","","",""
"","html-keyboard-response","360","1210032","0.0-184.0-1.0","null","<p></p>","null","","","","","","","","","","","","","","","","","","","","","","","",""
"","do_trial","361","1214266","0.0-185.0-0.0","1681.7999999523163","","","","","","","","51","0,0,0","6","blank","399","null","0.620970690008094","0.2755687034172282","0.15218304801240687","0","","","","","","","","",""
"","html-keyboard-response","362","1215286","0.0-185.0-1.0","null","<p></p>","null","","","","","","","","","","","","","","","","","","","","","","","",""
"","do_trial","363","1219211","0.0-186.0-0.0","1321.5","","","","","","","","50","0,0,0","6","blank","400","null","0.641239474742476","0.36023915445116117","0.19494490185589405","0","","","","","","","","",""
"","html-keyboard-response","364","1220214","0.0-186.0-1.0","null","<p></p>","null","","","","","","","","","","","","","","","","","","","","","","","",""
"","do_recog","365","1224209","0.0-187.0-0.0","2465.7999999523163","","","","","","","","53","","","","401","probe-21","","","","","1","[object Object]","209","5","1","","","",""
"","html-keyboard-response","366","1225212","0.0-187.0-1.0","null","<p></p>","null","","","","","","","","","","","","","","","","","","","","","","","",""
"","do_trial","367","1228778","0.0-188.0-0.0","1008.6999999880791","","","","","","","","51","1,0,0","6","blank","402","null","0.48121385376226294","0.32785402557137505","0.12967508574655823","0","","","","","","","","",""
"","html-keyboard-response","368","1229783","0.0-188.0-1.0","null","<p></p>","null","","","","","","","","","","","","","","","","","","","","","","","",""
"","do_trial","369","1232543","0.0-189.0-0.0","156.5999999642372","","","","","","","","49","1,0,0","6","blank","403","null","0.511571442653686","0.26810706218864455","0.08550706979266522","1","","","","","","","","",""
"","html-keyboard-response","370","1233559","0.0-189.0-1.0","null","<p></p>","null","","","","","","","","","","","","","","","","","","","","","","","",""
"","do_trial","371","1236134","0.0-190.0-0.0","0.20000004768371582","","","","","","","","51","0,0,0","6","blank","404","null","0.5062906446935073","0.2347016511765715","0.11847531082184856","0","","","","","","","","",""
"","html-keyboard-response","372","1237137","0.0-190.0-1.0","null","<p></p>","null","","","","","","","","","","","","","","","","","","","","","","","",""
"","do_recog","373","1240235","0.0-191.0-0.0","1575.300000011921","","","","","","","","54","","","","405","probe-154","","","","","1","[object Object]","205","5","1","","","",""
"","html-keyboard-response","374","1241246","0.0-191.0-1.0","null","<p></p>","null","","","","","","","","","","","","","","","","","","","","","","","",""
"","do_trial","375","1243868","0.0-192.0-0.0","0.30000001192092896","","","","","","","","50","0,0,0","6","blank","406","null","0.37888635900939116","0.5244841915257173","0.14070695464475752","0","","","","","","","","",""
"","html-keyboard-response","376","1244881","0.0-192.0-1.0","null","<p></p>","null","","","","","","","","","","","","","","","","","","","","","","","",""
"","do_trial","377","1247563","0.0-193.0-0.0","92.79999995231628","","","","","","","","49","0,1,0","6","blank","407","null","0.28158169143695916","0.5986150227174705","0.19975210100114496","0","","","","","","","","",""
"","html-keyboard-response","378","1248578","0.0-193.0-1.0","null","<p></p>","null","","","","","","","","","","","","","","","","","","","","","","","",""
"","do_trial","379","1251381","0.0-194.0-0.0","188.4000000357628","","","","","","","","49","0,1,0","6","blank","408","null","0.33644453390836687","0.6106832874896047","0.22864632406259613","0","","","","","","","","",""
"","html-keyboard-response","380","1252397","0.0-194.0-1.0","null","<p></p>","null","","","","","","","","","","","","","","","","","","","","","","","",""
"","do_trial","381","1254997","0.0-195.0-0.0","0.09999996423721313","","","","","","","","49","0,1,0","6","blank","409","null","0.3965290066691734","0.7162449019930035","0.20453627204989422","0","","","","","","","","",""
"","html-keyboard-response","382","1256002","0.0-195.0-1.0","null","<p></p>","null","","","","","","","","","","","","","","","","","","","","","","","",""
"","do_recog","383","1259183","0.0-196.0-0.0","1664.199999988079","","","","","","","","54","","","","410","probe-222","","","","","1","[object Object]","128","3","1","","","",""
"","html-keyboard-response","384","1260189","0.0-196.0-1.0","null","<p></p>","null","","","","","","","","","","","","","","","","","","","","","","","",""
"","do_trial","385","1263482","0.0-197.0-0.0","718.7000000476837","","","","","","","","50","1,0,0","6","blank","411","null","0.35972288536646846","0.7006762731746629","0.19175346778466537","0","","","","","","","","",""
"","html-keyboard-response","386","1264487","0.0-197.0-1.0","null","<p></p>","null","","","","","","","","","","","","","","","","","","","","","","","",""
"","do_trial","387","1267223","0.0-198.0-0.0","141.5999999642372","","","","","","","","51","0,1,0","6","blank","412","null","0.31253992365375316","0.6669775189539081","0.07866178804453411","0","","","","","","","","",""
"","html-keyboard-response","388","1268240","0.0-198.0-1.0","null","<p></p>","null","","","","","","","","","","","","","","","","","","","","","","","",""
"","do_trial","389","1272152","0.0-199.0-0.0","1328.699999988079","","","","","","","","50","0,1,1","6","blank","413","null","0.40946804765027905","0.6244289835095693","0.0908298474054876","1","","","","","","","","",""
"","html-keyboard-response","390","1273160","0.0-199.0-1.0","null","<p></p>","null","","","","","","","","","","","","","","","","","","","","","","","",""
"","do_trial","391","1277184","0.0-200.0-0.0","1430.6000000238419","","","","","","","","51","1,0,0","6","blank","414","null","0.502111729128848","0.5200869938595168","0.1854912388146705","0","","","","","","","","",""
"","html-keyboard-response","392","1278189","0.0-200.0-1.0","null","<p></p>","null","","","","","","","","","","","","","","","","","","","","","","","",""
"","do_trial","393","1282868","0.0-201.0-0.0","2076.5","","","","","","","","51","0,1,0","6","blank","415","null","0.4924315051639178","0.5687590731045107","0.20434909145642363","0","","","","","","","","",""
"","html-keyboard-response","394","1283886","0.0-201.0-1.0","null","<p></p>","null","","","","","","","","","","","","","","","","","","","","","","","",""
"","do_recog","395","1287854","0.0-202.0-0.0","2449.100000023842","","","","","","","","53","","","","416","probe-142","","","","","1","[object Object]","163","4","1","","","",""
"","html-keyboard-response","396","1288873","0.0-202.0-1.0","null","<p></p>","null","","","","","","","","","","","","","","","","","","","","","","","",""
"","do_trial","397","1293931","0.0-203.0-0.0","2485.399999976158","","","","","","","","51","0,1,0","6","blank","417","null","0.39696492135157846","0.7096615724434073","0.06584028890111672","0","","","","","","","","",""
"","html-keyboard-response","398","1294949","0.0-203.0-1.0","null","<p></p>","null","","","","","","","","","","","","","","","","","","","","","","","",""
"","do_recog","399","1300978","0.0-204.0-0.0","null","","","","","","","","null","","","","418","probe-67","","","","","1","[object Object]","124","3","0","","","",""
"","html-keyboard-response","400","1301984","0.0-204.0-1.0","null","<p></p>","null","","","","","","","","","","","","","","","","","","","","","","","",""
"","do_trial","401","1305687","0.0-205.0-0.0","1127.199999988079","","","","","","","","49","1,0,0","6","blank","419","null","0.35990570921612347","0.5644404857433596","0.08195103721791167","1","","","","","","","","",""
"","html-keyboard-response","402","1306691","0.0-205.0-1.0","null","<p></p>","null","","","","","","","","","","","","","","","","","","","","","","","",""
"","do_trial","403","1309547","0.0-206.0-0.0","301.89999997615814","","","","","","","","51","0,0,0","6","blank","420","null","0.34694123157072704","0.4287666475119258","0.1455395195799291","0","","","","","","","","",""
"","html-keyboard-response","404","1310552","0.0-206.0-1.0","null","<p></p>","null","","","","","","","","","","","","","","","","","","","","","","","",""
"","do_trial","405","1313884","0.0-207.0-0.0","723.6000000238419","","","","","","","","50","0,1,0","6","blank","421","null","0.3151053120545538","0.5345291343050991","0.0857515666144364","1","","","","","","","","",""
"","html-keyboard-response","406","1314888","0.0-207.0-1.0","null","<p></p>","null","","","","","","","","","","","","","","","","","","","","","","","",""
"","do_trial","407","1320059","0.0-208.0-0.0","2562.7000000476837","","","","","","","","50","0,0,0","6","blank","422","null","0.11524056583438569","0.584960008413706","0.08070139971816645","0","","","","","","","","",""
"","html-keyboard-response","408","1321065","0.0-208.0-1.0","null","<p></p>","null","","","","","","","","","","","","","","","","","","","","","","","",""
"","do_recog","409","1327079","0.0-209.0-0.0","null","","","","","","","","null","","","","423","probe-17","","","","","1","[object Object]","129","3","0","","","",""
"","html-keyboard-response","410","1328082","0.0-209.0-1.0","null","<p></p>","null","","","","","","","","","","","","","","","","","","","","","","","",""
"","do_trial","411","1331571","0.0-210.0-0.0","918.5","","","","","","","","51","0,1,0","6","blank","424","null","0.2280289933425798","0.6012013452271495","0.09712989512020133","0","","","","","","","","",""
"","html-keyboard-response","412","1332588","0.0-210.0-1.0","null","<p></p>","null","","","","","","","","","","","","","","","","","","","","","","","",""
"","do_trial","413","1335573","0.0-211.0-0.0","378.5999999642372","","","","","","","","50","0,0,0","6","blank","425","null","0.2510457243928627","0.5107150449093293","0.15054382248559953","0","","","","","","","","",""
"","html-keyboard-response","414","1336579","0.0-211.0-1.0","null","<p></p>","null","","","","","","","","","","","","","","","","","","","","","","","",""
"","do_trial","415","1339859","0.0-212.0-0.0","689.5","","","","","","","","50","0,0,0","6","blank","426","null","0.23318127840818761","0.5218076285536143","0.2521183827841888","0","","","","","","","","",""
"","html-keyboard-response","416","1340864","0.0-212.0-1.0","null","<p></p>","null","","","","","","","","","","","","","","","","","","","","","","","",""
"","do_trial","417","1343736","0.0-213.0-0.0","317.9000000357628","","","","","","","","51","0,0,0","6","blank","427","null","0.0852951916336562","0.6303736646436863","0.15703709818769684","0","","","","","","","","",""
"","html-keyboard-response","418","1344740","0.0-213.0-1.0","null","<p></p>","null","","","","","","","","","","","","","","","","","","","","","","","",""
"","break","419","1398054","0.0-213.0-2.0","53312.30000001192","<div class='center'><p>Time to take a quick break! You have 2 minutes to rest, but you can move on sooner if you'd like.</p><p> Press the <b>space bar</b> to continue.</p></div>","32","","","","","","","","","","","","","","","","","","","","","","","",""
"","do_trial","420","1402201","0.0-213.0-3.0","1555.0999999642372","","","","","","","","50","1,1,0","6","blank","428","null","0.1883377952210972","0.568125499628472","0.1162155454160848","1","","","","","","","","",""
"","html-keyboard-response","421","1403204","0.0-213.0-4.0","null","<p></p>","null","","","","","","","","","","","","","","","","","","","","","","","",""
"","do_trial","422","1406345","0.0-214.0-0.0","540.3999999761581","","","","","","","","51","0,1,0","6","blank","429","null","0.17659967905393079","0.6536083363756434","0.0745968474789283","0","","","","","","","","",""
"","html-keyboard-response","423","1407356","0.0-214.0-1.0","null","<p></p>","null","","","","","","","","","","","","","","","","","","","","","","","",""
"","do_trial","424","1411046","0.0-215.0-0.0","1086.5","","","","","","","","50","0,1,0","6","blank","430","null","0.2023881907127527","0.5431027990255823","0.07443937443522355","1","","","","","","","","",""
"","html-keyboard-response","425","1412049","0.0-215.0-1.0","null","<p></p>","null","","","","","","","","","","","","","","","","","","","","","","","",""
"","do_trial","426","1415483","0.0-216.0-0.0","819.2000000476837","","","","","","","","50","0,1,0","6","blank","431","null","0.23587597814054698","0.577084030206168","0.30581509732438966","1","","","","","","","","",""
"","html-keyboard-response","427","1416490","0.0-216.0-1.0","null","<p></p>","null","","","","","","","","","","","","","","","","","","","","","","","",""
"","do_recog","428","1420167","0.0-217.0-0.0","2157.7999999523163","","","","","","","","53","","","","432","probe-163","","","","","1","[object Object]","201","5","1","","","",""
"","html-keyboard-response","429","1421174","0.0-217.0-1.0","null","<p></p>","null","","","","","","","","","","","","","","","","","","","","","","","",""
"","do_trial","430","1424474","0.0-218.0-0.0","718.6999999880791","","","","","","","","50","0,0,1","6","blank","433","null","0.361803591220379","0.6186882201811957","0.31869243244715534","0","","","","","","","","",""
"","html-keyboard-response","431","1425492","0.0-218.0-1.0","null","<p></p>","null","","","","","","","","","","","","","","","","","","","","","","","",""
"","do_trial","432","1429439","0.0-219.0-0.0","1333.8999999761581","","","","","","","","51","0,1,0","6","blank","434","null","0.353382169026882","0.650651627400265","0.08343907217638685","0","","","","","","","","",""
"","html-keyboard-response","433","1430445","0.0-219.0-1.0","null","<p></p>","null","","","","","","","","","","","","","","","","","","","","","","","",""
"","do_trial","434","1433102","0.0-220.0-0.0","61","","","","","","","","49","1,1,0","6","blank","435","null","0.4583621676494491","0.7576585309021208","0.2795357402154703","1","","","","","","","","",""
"","html-keyboard-response","435","1434108","0.0-220.0-1.0","null","<p></p>","null","","","","","","","","","","","","","","","","","","","","","","","",""
"","do_trial","436","1437062","0.0-221.0-0.0","399.4000000357628","","","","","","","","50","1,1,0","6","blank","436","null","0.47652545473943336","0.7116322131661589","0.37964102955776635","1","","","","","","","","",""
"","html-keyboard-response","437","1438068","0.0-221.0-1.0","null","<p></p>","null","","","","","","","","","","","","","","","","","","","","","","","",""
"","do_trial","438","1441347","0.0-222.0-0.0","689.6000000238419","","","","","","","","50","0,1,0","6","blank","437","null","0.40232790446847966","0.6854311345255819","0.0569813866435393","1","","","","","","","","",""
"","html-keyboard-response","439","1442351","0.0-222.0-1.0","null","<p></p>","null","","","","","","","","","","","","","","","","","","","","","","","",""
"","do_trial","440","1445326","0.0-223.0-0.0","360.19999998807907","","","","","","","","50","0,1,0","6","blank","438","null","0.25851746768471584","0.608399699589645","0.13459930790147037","1","","","","","","","","",""
"","html-keyboard-response","441","1446333","0.0-223.0-1.0","null","<p></p>","null","","","","","","","","","","","","","","","","","","","","","","","",""
"","do_trial","442","1449500","0.0-224.0-0.0","566.5","","","","","","","","50","0,1,0","6","blank","439","null","0.2628347466049612","0.6262622964376064","0.16732715619229044","1","","","","","","","","",""
"","html-keyboard-response","443","1450504","0.0-224.0-1.0","null","<p></p>","null","","","","","","","","","","","","","","","","","","","","","","","",""
"","do_recog","444","1453812","0.0-225.0-0.0","1783.0999999642372","","","","","","","","54","","","","440","probe-189","","","","","1","[object Object]","168","4","1","","","",""
"","html-keyboard-response","445","1454818","0.0-225.0-1.0","null","<p></p>","null","","","","","","","","","","","","","","","","","","","","","","","",""
"","do_trial","446","1457757","0.0-226.0-0.0","384.89999997615814","","","","","","","","50","0,0,0","6","blank","441","null","0.3489854591443023","0.5116390562452048","0.10880482039054998","0","","","","","","","","",""
"","html-keyboard-response","447","1458768","0.0-226.0-1.0","null","<p></p>","null","","","","","","","","","","","","","","","","","","","","","","","",""
"","do_trial","448","1461825","0.0-227.0-0.0","492.7000000476837","","","","","","","","50","0,1,0","6","blank","442","null","0.2895776559026165","0.6405975848981165","0.1494450699692315","1","","","","","","","","",""
"","html-keyboard-response","449","1462843","0.0-227.0-1.0","null","<p></p>","null","","","","","","","","","","","","","","","","","","","","","","","",""
"","do_trial","450","1466013","0.0-228.0-0.0","579.1000000238419","","","","","","","","50","1,1,0","6","blank","443","null","0.4434267030926766","0.5386891012732046","0.21951954388872325","1","","","","","","","","",""
"","html-keyboard-response","451","1467017","0.0-228.0-1.0","null","<p></p>","null","","","","","","","","","","","","","","","","","","","","","","","",""
"","do_trial","452","1471792","0.0-229.0-0.0","2156.300000011921","","","","","","","","50","0,0,0","6","blank","444","null","0.5174577003867248","0.6572251646144031","0.10598706614738035","0","","","","","","","","",""
"","html-keyboard-response","453","1472809","0.0-229.0-1.0","null","<p></p>","null","","","","","","","","","","","","","","","","","","","","","","","",""
"","do_trial","454","1476844","0.0-230.0-0.0","1457","","","","","","","","50","0,0,0","6","blank","445","null","0.29275309195537746","0.5853139222689825","0.057883111311051116","0","","","","","","","","",""
"","html-keyboard-response","455","1477862","0.0-230.0-1.0","null","<p></p>","null","","","","","","","","","","","","","","","","","","","","","","","",""
"","do_trial","456","1481094","0.0-231.0-0.0","615.5","","","","","","","","50","0,0,0","6","blank","446","null","0.3393644926309159","0.6246043881313612","0.16245371965943625","0","","","","","","","","",""
"","html-keyboard-response","457","1482102","0.0-231.0-1.0","null","<p></p>","null","","","","","","","","","","","","","","","","","","","","","","","",""
"","do_recog","458","1485842","0.0-232.0-0.0","2212.5","","","","","","","","55","","","","447","probe-84","","","","","1","[object Object]","42","1","0","","","",""
"","html-keyboard-response","459","1486852","0.0-232.0-1.0","null","<p></p>","null","","","","","","","","","","","","","","","","","","","","","","","",""
"","do_trial","460","1490776","0.0-233.0-0.0","1317.3999999761581","","","","","","","","51","1,0,0","6","blank","448","null","0.4075997393365593","0.5992474043326277","0.11814251136301752","0","","","","","","","","",""
"","html-keyboard-response","461","1491787","0.0-233.0-1.0","null","<p></p>","null","","","","","","","","","","","","","","","","","","","","","","","",""
"","do_trial","462","1495896","0.0-234.0-0.0","1504.8999999761581","","","","","","","","50","0,0,1","6","blank","449","null","0.4264163686250101","0.5000894301543752","0.20146233102039118","0","","","","","","","","",""
"","html-keyboard-response","463","1496899","0.0-234.0-1.0","null","<p></p>","null","","","","","","","","","","","","","","","","","","","","","","","",""
"","do_trial","464","1500963","0.0-235.0-0.0","1463.3999999761581","","","","","","","","50","0,1,0","6","blank","450","null","0.3619209009955362","0.3870888170254446","0.08954463085020041","1","","","","","","","","",""
"","html-keyboard-response","465","1501979","0.0-235.0-1.0","null","<p></p>","null","","","","","","","","","","","","","","","","","","","","","","","",""
"","do_trial","466","1507277","0.0-236.0-0.0","2675.7999999523163","","","","","","","","49","0,1,1","6","blank","451","null","0.2741462599865565","0.32676237071296654","0.15166410504435604","0","","","","","","","","",""
"","html-keyboard-response","467","1508282","0.0-236.0-1.0","null","<p></p>","null","","","","","","","","","","","","","","","","","","","","","","","",""
"","do_trial","468","1512224","0.0-237.0-0.0","1390.800000011921","","","","","","","","49","1,1,0","6","blank","452","null","0.3203963815312222","0.3671827436730344","0.11124064010042126","1","","","","","","","","",""
"","html-keyboard-response","469","1513228","0.0-237.0-1.0","null","<p></p>","null","","","","","","","","","","","","","","","","","","","","","","","",""
"","do_recog","470","1516236","0.0-238.0-0.0","1492.699999988079","","","","","","","","54","","","","453","probe-170","","","","","1","[object Object]","126","3","1","","","",""
"","html-keyboard-response","471","1517241","0.0-238.0-1.0","null","<p></p>","null","","","","","","","","","","","","","","","","","","","","","","","",""
"","do_trial","472","1520934","0.0-239.0-0.0","1114.800000011921","","","","","","","","49","0,0,0","6","blank","454","null","0.2691381116101718","0.3726284514229651","0.22330585989318885","0","","","","","","","","",""
"","html-keyboard-response","473","1521943","0.0-239.0-1.0","null","<p></p>","null","","","","","","","","","","","","","","","","","","","","","","","",""
"","do_trial","474","1524923","0.0-240.0-0.0","400.9000000357628","","","","","","","","49","0,0,0","6","blank","455","null","0.13548825512301538","0.2746148515003171","0.2500426533152117","0","","","","","","","","",""
"","html-keyboard-response","475","1525929","0.0-240.0-1.0","null","<p></p>","null","","","","","","","","","","","","","","","","","","","","","","","",""
"","do_trial","476","1528858","0.0-241.0-0.0","345.9000000357628","","","","","","","","49","1,0,0","6","blank","456","null","0.23734510328142758","0.20183175542022372","0.422576178337332","1","","","","","","","","",""
"","html-keyboard-response","477","1529862","0.0-241.0-1.0","null","<p></p>","null","","","","","","","","","","","","","","","","","","","","","","","",""
"","do_trial","478","1533579","0.0-242.0-0.0","1102.8999999761581","","","","","","","","49","0,0,0","6","blank","457","null","0.28312639784221777","0.21851823748240903","0.42704959684885024","0","","","","","","","","",""
"","html-keyboard-response","479","1534583","0.0-242.0-1.0","null","<p></p>","null","","","","","","","","","","","","","","","","","","","","","","","",""
"","do_recog","480","1538829","0.0-243.0-0.0","2734.800000011921","","","","","","","","53","","","","458","probe-246","","","","","0","[object Object]","null","null","0","","","",""
"","html-keyboard-response","481","1539833","0.0-243.0-1.0","null","<p></p>","null","","","","","","","","","","","","","","","","","","","","","","","",""
"","do_trial","482","1542758","0.0-244.0-0.0","367.60000002384186","","","","","","","","49","0,0,0","6","blank","459","null","0.25018572971410125","0.34881587721871393","0.42836558566894395","0","","","","","","","","",""
"","html-keyboard-response","483","1543762","0.0-244.0-1.0","null","<p></p>","null","","","","","","","","","","","","","","","","","","","","","","","",""
"","do_recog","484","1547155","0.0-245.0-0.0","1872.300000011921","","","","","","","","53","","","","460","probe-232","","","","","0","[object Object]","null","null","0","","","",""
"","html-keyboard-response","485","1548158","0.0-245.0-1.0","null","<p></p>","null","","","","","","","","","","","","","","","","","","","","","","","",""
"","do_trial","486","1551789","0.0-246.0-0.0","1041.1000000238419","","","","","","","","49","0,1,0","6","blank","461","null","0.06783836362775698","0.4010760811382328","0.5206302892859557","0","","","","","","","","",""
"","html-keyboard-response","487","1552794","0.0-246.0-1.0","null","<p></p>","null","","","","","","","","","","","","","","","","","","","","","","","",""
"","do_recog","488","1556327","0.0-247.0-0.0","2008.8999999761581","","","","","","","","54","","","","462","probe-242","","","","","0","[object Object]","null","null","0","","","",""
"","html-keyboard-response","489","1557331","0.0-247.0-1.0","null","<p></p>","null","","","","","","","","","","","","","","","","","","","","","","","",""
"","do_trial","490","1560601","0.0-248.0-0.0","674.5999999642372","","","","","","","","49","0,1,0","6","blank","463","null","0.14059860748793138","0.35965321274768547","0.5319515085942752","0","","","","","","","","",""
"","html-keyboard-response","491","1561604","0.0-248.0-1.0","null","<p></p>","null","","","","","","","","","","","","","","","","","","","","","","","",""
"","do_trial","492","1564633","0.0-249.0-0.0","475.5","","","","","","","","49","0,0,1","6","blank","464","null","0.14157127674244224","0.4862695485557631","0.6367860434963819","0","","","","","","","","",""
"","html-keyboard-response","493","1565638","0.0-249.0-1.0","null","<p></p>","null","","","","","","","","","","","","","","","","","","","","","","","",""
"","do_trial","494","1568793","0.0-250.0-0.0","598.1999999880791","","","","","","","","51","0,1,0","6","blank","465","null","0.0554390577844937","0.39813510275568414","0.6464333537501521","0","","","","","","","","",""
"","html-keyboard-response","495","1569797","0.0-250.0-1.0","null","<p></p>","null","","","","","","","","","","","","","","","","","","","","","","","",""
"","do_trial","496","1572511","0.0-251.0-0.0","168.10000002384186","","","","","","","","51","0,0,1","6","blank","466","null","0.06323282343914953","0.21702617222600268","0.597481287827898","1","","","","","","","","",""
"","html-keyboard-response","497","1573517","0.0-251.0-1.0","null","<p></p>","null","","","","","","","","","","","","","","","","","","","","","","","",""
"","do_trial","498","1576646","0.0-252.0-0.0","520.1999999880791","","","","","","","","51","1,0,1","6","blank","467","null","0.08805680285854951","0.25938556942258645","0.6172195231583191","1","","","","","","","","",""
"","html-keyboard-response","499","1577663","0.0-252.0-1.0","null","<p></p>","null","","","","","","","","","","","","","","","","","","","","","","","",""
"","break","500","1579621","0.0-252.0-2.0","1955.4000000357628","<div class='center'><p>Time to take a quick break! You have 2 minutes to rest, but you can move on sooner if you'd like.</p><p> Press the <b>space bar</b> to continue.</p></div>","32","","","","","","","","","","","","","","","","","","","","","","","",""
"","do_trial","501","1583177","0.0-252.0-3.0","947.6000000238419","","","","","","","","51","0,0,0","6","blank","468","null","0.05573259504303402","0.3060195308072682","0.5391279877487537","0","","","","","","","","",""
"","html-keyboard-response","502","1584183","0.0-252.0-4.0","null","<p></p>","null","","","","","","","","","","","","","","","","","","","","","","","",""
"","do_trial","503","1587179","0.0-253.0-0.0","436.69999998807907","","","","","","","","51","0,0,1","6","blank","469","null","0.16753903611501603","0.32005420566240306","0.5476954064754342","1","","","","","","","","",""
"","html-keyboard-response","504","1588187","0.0-253.0-1.0","null","<p></p>","null","","","","","","","","","","","","","","","","","","","","","","","",""
"","do_trial","505","1591716","0.0-254.0-0.0","941","","","","","","","","51","0,0,0","6","blank","470","null","0.2459672082347133","0.3389961508312868","0.6653485891482674","0","","","","","","","","",""
"","html-keyboard-response","506","1592722","0.0-254.0-1.0","null","<p></p>","null","","","","","","","","","","","","","","","","","","","","","","","",""
"","do_recog","507","1596538","0.0-255.0-0.0","2292.5","","","","","","","","55","","","","471","probe-253","","","","","0","[object Object]","null","null","1","","","",""
