"success","trial_type","trial_index","time_elapsed","internal_node_id","interactions","blur_events","focus_events","fullscreenenter_events","fullscreenexit_events","rt","stimulus","key_press","subject_id","participant_id","age","gender","prompt","response","choice_outcomes","context_n","context_img_id","trial_n","probe_img_id","pR_red","pR_white","pR_black","outcome","is_valid","image_to_show","probed_trial","probed_context","correct","probe","probed_trial_n","probed_context_n","context_im"
"true","fullscreen","0","3884","0.0-0.0","""event"",""trial"",""time""
""fullscreenenter"",""0"",""2898""
","
","
","""event"",""trial"",""time""
""fullscreenenter"",""0"",""2898""
","
","","","","","","","","","","","","","","","","","","","","","","","","","","",""
"","pavlovia","1","3891","0.0-1.0","""event"",""trial"",""time""
""fullscreenenter"",""0"",""2898""
","
","
","""event"",""trial"",""time""
""fullscreenenter"",""0"",""2898""
","
","","","","","","","","","","","","","","","","","","","","","","","","","","",""
"","welc_back","2","13664","0.0-2.0","""event"",""trial"",""time""
""fullscreenenter"",""0"",""2898""
","
","
","""event"",""trial"",""time""
""fullscreenenter"",""0"",""2898""
","
","null","run_exp/static/audio/clip_29_welcome_back.m4a","null","455","758","13","Male","<div class='center'><p>Welcome to day 2!</p><p> Yesterday, you were the head captain of a pirate ship. You asked your fellow pirates to rob other ships of their gold across six different islands.</p></div>","","","","","","","","","","","","","","","","","","",""
"","html-keyboard-response","3","13937","0.0-3.0","""event"",""trial"",""time""
""fullscreenenter"",""0"",""2898""
","
","
","""event"",""trial"",""time""
""fullscreenenter"",""0"",""2898""
","
","269.70000000298023","<div class='center'><p>Welcome to day 2!</p><p> Yesterday, you were the head captain of a pirate ship. You asked your fellow pirates to rob other ships of their gold across six different islands.</p><p><b>[Press the space bar to continue]</b></p></div>","32","","","","","","","","","","","","","","","","","","","","","","","",""
"","day_1_summary_goal","4","31301","0.0-4.0","""event"",""trial"",""time""
""fullscreenenter"",""0"",""2898""
","
","
","""event"",""trial"",""time""
""fullscreenenter"",""0"",""2898""
","
","null","run_exp/static/audio/clip_30_goal_of_game.m4a","null","","","","","<div class='center'><p>Today, like yesterday, you get to pick which pirate you want to rob the next ship.</p><p>If the pirate is successful in robbing a ship, you get gold coins that look like this: </p><p><img src='run_exp/static/images/tutorial/reward.png' height='150'></p><p> If they were not successful in robbing the ship, then you will get no gold coins and you'll see a big red x like this: </p><p><img src='run_exp/static/images/tutorial/reward_no.png' height='150'></p></div>","","","","","","","","","","","","","","","","","","",""
"","html-keyboard-response","5","31592","0.0-5.0","""event"",""trial"",""time""
""fullscreenenter"",""0"",""2898""
","
","
","""event"",""trial"",""time""
""fullscreenenter"",""0"",""2898""
","
","286.69999999925494","<div class='center'><p>Today, like yesterday, you get to pick which pirate you want to rob the next ship.</p><p>If the pirate is successful in robbing a ship, you get gold coins that look like this: </p><p><img src='run_exp/static/images/tutorial/reward.png' height='150'></p><p> If they were not successful in robbing the ship, then you will get no gold coins and you'll see a big red x like this: </p><p><img src='run_exp/static/images/tutorial/reward_no.png' height='150'></p><p><b>[Press the space bar to continue]</b></p></div>","32","","","","","","","","","","","","","","","","","","","","","","","",""
"","day_1_summary_pick","6","46433","0.0-6.0","""event"",""trial"",""time""
""fullscreenenter"",""0"",""2898""
","
","
","""event"",""trial"",""time""
""fullscreenenter"",""0"",""2898""
","
","null","run_exp/static/audio/clip_31_how_to_pick_a_pirate.m4a","null","","","","","<div class='center'><p>Also, just like yesterday, you will use the 1,2,3 keys on your keyboard to pick a pirate. Press '1' to choose red beard, '2' to choose white beard, and '3' to choose black beard . You only have 3 seconds to pick a pirate, so please make a choice quickly!</p></div>","","","","","","","","","","","","","","","","","","",""
"","html-keyboard-response","7","46746","0.0-7.0","""event"",""trial"",""time""
""fullscreenenter"",""0"",""2898""
","
","
","""event"",""trial"",""time""
""fullscreenenter"",""0"",""2898""
","
","311.5999999977648","<div class='center'><p>Also, just like yesterday, you will use the 1,2,3 keys on your keyboard to pick a pirate. Press '1' to choose red beard, '2' to choose white beard, and '3' to choose black beard . You only have 3 seconds to pick a pirate, so please make a choice quickly!</p><p><b>[Press the space bar to continue]</b></p></div>","32","","","","","","","","","","","","","","","","","","","","","","","",""
"","test_phase_begin","8","77254","0.0-8.0","""event"",""trial"",""time""
""fullscreenenter"",""0"",""2898""
","
","
","""event"",""trial"",""time""
""fullscreenenter"",""0"",""2898""
","
","null","run_exp/static/audio/clip_32_final_place.m4a","null","","","","","<div class='center'><p>You’ve arrived at the final island of your journey! Unfortunately, it’s very foggy out, so you won’t be able to see it in the distance like the other islands you've visited.</p><p>You’ll still be deciding which pirate you want to rob a ship like before. However, because of the fog, you also won’t be able to see the ship.</p><p>This means you do not have to remember the ships you rob on this island.</p><p>Unlike yesterday, you won't be visiting multiple islands today. You will stay on this island for the entire game. This game will last ~30 minutes.</p></div>","","","","","","","","","","","","","","","","","","",""
"","html-keyboard-response","9","77577","0.0-9.0","""event"",""trial"",""time""
""fullscreenenter"",""0"",""2898""
","
","
","""event"",""trial"",""time""
""fullscreenenter"",""0"",""2898""
","
","321.5","<div class='center'><p>You’ve arrived at the final island of your journey! Unfortunately, it’s very foggy out, so you won’t be able to see it in the distance like the other islands you've visited.</p><p>You’ll still be deciding which pirate you want to rob a ship like before. However, because of the fog, you also won’t be able to see the ship.</p><p>This means you do not have to remember the ships you rob on this island.</p><p>Unlike yesterday, you won't be visiting multiple islands today. You will stay on this island for the entire game. This game will last ~30 minutes.</p><p><b>[Press the space bar to continue]</b></p></div>","32","","","","","","","","","","","","","","","","","","","","","","","",""
"","explain_probe_1","10","85423","0.0-10.0","""event"",""trial"",""time""
""fullscreenenter"",""0"",""2898""
","
","
","""event"",""trial"",""time""
""fullscreenenter"",""0"",""2898""
","
","null","run_exp/static/audio/clip_33_recognition_1.m4a","null","","","","","<div class='center'><p> Sometimes you’ll be shown a ship, and you will be asked if you saw this ship on a past island.</p><p> Here is an example of what you will see.</p><p><img src='run_exp/static/images/tutorial/example_recog_trial.png' height='500'></p></div>","","","","","","","","","","","","","","","","","","",""
"","html-keyboard-response","11","85808","0.0-11.0","""event"",""trial"",""time""
""fullscreenenter"",""0"",""2898""
","
","
","""event"",""trial"",""time""
""fullscreenenter"",""0"",""2898""
","
","382.30000000074506","<div class='center'><p> Sometimes you’ll be shown a ship, and you will be asked if you saw this ship on a past island.</p><p> Here is an example of what you will see.</p><p><img src='run_exp/static/images/tutorial/example_recog_trial.png' height='500'></p><p><b>[Press the space bar to continue]</b></p></div>","32","","","","","","","","","","","","","","","","","","","","","","","",""
"","explain_probe_2","12","107703","0.0-12.0","""event"",""trial"",""time""
""fullscreenenter"",""0"",""2898""
","
","
","""event"",""trial"",""time""
""fullscreenenter"",""0"",""2898""
","
","null","run_exp/static/audio/clip_34_recognition_2.m4a","null","","","","","<div class='center'><p> You will press the 5, 6, 7, 8 keys on your keyboard to respond.</p><p>If you are sure you saw the ship, press <b>5</b> on your keyboard.</p><p> If you think you saw it before but aren't sure, then press <b>6</b>.</p><p> If you think you have <b>not</b> seen it before but aren't sure, then press <b>7</b>.</p><p> If you are sure you did <b>not</b> see the ship before, then press <b>8</b>.</p><p><img src='run_exp/static/images/tutorial/example_recog_trial.png' height='500'></p></div>","","","","","","","","","","","","","","","","","","",""
"","html-keyboard-response","13","107993","0.0-13.0","""event"",""trial"",""time""
""fullscreenenter"",""0"",""2898""
","
","
","""event"",""trial"",""time""
""fullscreenenter"",""0"",""2898""
","
","287.5999999977648","<div class='center'><p> You will press the 5, 6, 7, 8 keys on your keyboard to respond.</p><p>If you are sure you saw the ship, press <b>5</b> on your keyboard.</p><p> If you think you saw it before but aren't sure, then press <b>6</b>.</p><p> If you think you have <b>not</b> seen it before but aren't sure, then press <b>7</b>.</p><p> If you are sure you did <b>not</b> see the ship before, then press <b>8</b>.</p><p><img src='run_exp/static/images/tutorial/example_recog_trial.png' height='500'></p><p><b>[Press the space bar to continue]</b></p></div>","32","","","","","","","","","","","","","","","","","","","","","","","",""
"","explain_outcome","14","125341","0.0-14.0","""event"",""trial"",""time""
""fullscreenenter"",""0"",""2898""
","
","
","""event"",""trial"",""time""
""fullscreenenter"",""0"",""2898""
","
","null","run_exp/static/audio/clip_35_recognition_3.m4a","null","","","","","<div class='center'><p> If you remember correctly, then you’ll get a gold coin like this: </p><p><img src='run_exp/static/images/tutorial/reward_small.png' height='200'></p><p>If you do not remember correctly, then you'll see a red x like this: </p><p><img src='run_exp/static/images/tutorial/reward_no.png' height='200'></p><p>Importantly, when you are shown a ship, take the time to remind yourself which island you saw it on. This will help you in the next part of the study.</p></div>","","","","","","","","","","","","","","","","","","",""
"","html-keyboard-response","15","125642","0.0-15.0","""event"",""trial"",""time""
""fullscreenenter"",""0"",""2898""
","
","
","""event"",""trial"",""time""
""fullscreenenter"",""0"",""2898""
","
","297.30000000074506","<div class='center'><p> If you remember correctly, then you’ll get a gold coin like this: </p><p><img src='run_exp/static/images/tutorial/reward_small.png' height='200'></p><p>If you do not remember correctly, then you'll see a red x like this: </p><p><img src='run_exp/static/images/tutorial/reward_no.png' height='200'></p><p>Importantly, when you are shown a ship, take the time to remind yourself which island you saw it on. This will help you in the next part of the study.</p><p><b>[Press the space bar to continue]</b></p></div>","32","","","","","","","","","","","","","","","","","","","","","","","",""
"","begin_test_phase","16","141587","0.0-16.0","""event"",""trial"",""time""
""fullscreenenter"",""0"",""2898""
","
","
","""event"",""trial"",""time""
""fullscreenenter"",""0"",""2898""
","
","null","run_exp/static/audio/clip_36_begin_final.m4a","null","","","","","<div class='center'><p>Let's go over the important points again. Your job is to: </p><p>1. Pick the pirate who is best at robbing ships and will bring you back gold coins. </p><p>2. Correctly remember whether or not you saw a ship before. If you did see the ship before, remind yourself on which island you saw it. </p></div>","","","","","","","","","","","","","","","","","","",""
"","html-keyboard-response","17","143779","0.0-17.0","""event"",""trial"",""time""
""fullscreenenter"",""0"",""2898""
","
","
","""event"",""trial"",""time""
""fullscreenenter"",""0"",""2898""
","
","2094.699999999255","<div class='center'><p>Let's go over the important points again. Your job is to: </p><p>1. Pick the pirate who is best at robbing ships and will bring you back gold coins. </p><p>2. Correctly remember whether or not you saw a ship before. If you did see the ship before, remind yourself on which island you saw it. </p><p><b>[Press the space bar to continue]</b></p></div>","32","","","","","","","","","","","","","","","","","","","","","","","",""
"","do_welcome","18","147789","0.0-18.0","""event"",""trial"",""time""
""fullscreenenter"",""0"",""2898""
","
","
","""event"",""trial"",""time""
""fullscreenenter"",""0"",""2898""
","
","null","","","","","","","","null","","","","","","","","","","","","","","","","","",""
"","do_trial","19","151732","0.0-19.0-0.0","""event"",""trial"",""time""
""fullscreenenter"",""0"",""2898""
","
","
","""event"",""trial"",""time""
""fullscreenenter"",""0"",""2898""
","
","1367","","","","","","","","50","0,0,0","6","blank","230","null","0.3079660878372792","0.5406292671664962","0.1548842849321296","0","","","","","","","","",""
"","html-keyboard-response","20","152735","0.0-19.0-1.0","""event"",""trial"",""time""
""fullscreenenter"",""0"",""2898""
","
","
","""event"",""trial"",""time""
""fullscreenenter"",""0"",""2898""
","
","null","<p></p>","null","","","","","","","","","","","","","","","","","","","","","","","",""
"","do_trial","21","155455","0.0-20.0-0.0","""event"",""trial"",""time""
""fullscreenenter"",""0"",""2898""
","
","
","""event"",""trial"",""time""
""fullscreenenter"",""0"",""2898""
","
","143.60000000149012","","","","","","","","51","1,1,0","6","blank","231","null","0.3453486911424147","0.5921828201985675","0.07271502683429519","0","","","","","","","","",""
"","html-keyboard-response","22","156457","0.0-20.0-1.0","""event"",""trial"",""time""
""fullscreenenter"",""0"",""2898""
","
","
","""event"",""trial"",""time""
""fullscreenenter"",""0"",""2898""
","
","null","<p></p>","null","","","","","","","","","","","","","","","","","","","","","","","",""
"","do_trial","23","159056","0.0-21.0-0.0","""event"",""trial"",""time""
""fullscreenenter"",""0"",""2898""
","
","
","""event"",""trial"",""time""
""fullscreenenter"",""0"",""2898""
","
","34.30000000074506","","","","","","","","49","1,1,0","6","blank","232","null","0.3794409865883519","0.6335154110095362","0.06946822244782036","1","","","","","","","","",""
"","html-keyboard-response","24","160060","0.0-21.0-1.0","""event"",""trial"",""time""
""fullscreenenter"",""0"",""2898""
","
","
","""event"",""trial"",""time""
""fullscreenenter"",""0"",""2898""
","
","null","<p></p>","null","","","","","","","","","","","","","","","","","","","","","","","",""
"","do_trial","25","162658","0.0-22.0-0.0","""event"",""trial"",""time""
""fullscreenenter"",""0"",""2898""
","
","
","""event"",""trial"",""time""
""fullscreenenter"",""0"",""2898""
","
","34.600000001490116","","","","","","","","49","0,1,0","6","blank","233","null","0.41569970630696623","0.7125993491795761","0.07778902035762797","0","","","","","","","","",""
"","html-keyboard-response","26","163661","0.0-22.0-1.0","""event"",""trial"",""time""
""fullscreenenter"",""0"",""2898""
","
","
","""event"",""trial"",""time""
""fullscreenenter"",""0"",""2898""
","
","null","<p></p>","null","","","","","","","","","","","","","","","","","","","","","","","",""
"","do_trial","27","166228","0.0-23.0-0.0","""event"",""trial"",""time""
""fullscreenenter"",""0"",""2898""
","
","
","""event"",""trial"",""time""
""fullscreenenter"",""0"",""2898""
","
","0.30000000074505806","","","","","","","","49","0,0,0","6","blank","234","null","0.37713821836524875","0.4782426593404505","0.10668432245115607","0","","","","","","","","",""
"","html-keyboard-response","28","167230","0.0-23.0-1.0","""event"",""trial"",""time""
""fullscreenenter"",""0"",""2898""
","
","
","""event"",""trial"",""time""
""fullscreenenter"",""0"",""2898""
","
","null","<p></p>","null","","","","","","","","","","","","","","","","","","","","","","","",""
"","do_trial","29","169879","0.0-24.0-0.0","""event"",""trial"",""time""
""fullscreenenter"",""0"",""2898""
","
","
","""event"",""trial"",""time""
""fullscreenenter"",""0"",""2898""
","
","85.69999999925494","","","","","","","","50","0,0,0","6","blank","235","null","0.27261990061080604","0.4715241765217077","0.12747264799335178","0","","","","","","","","",""
"","html-keyboard-response","30","170882","0.0-24.0-1.0","""event"",""trial"",""time""
""fullscreenenter"",""0"",""2898""
","
","
","""event"",""trial"",""time""
""fullscreenenter"",""0"",""2898""
","
","null","<p></p>","null","","","","","","","","","","","","","","","","","","","","","","","",""
"","do_trial","31","173518","0.0-25.0-0.0","""event"",""trial"",""time""
""fullscreenenter"",""0"",""2898""
","
","
","""event"",""trial"",""time""
""fullscreenenter"",""0"",""2898""
","
","71","","","","","","","","51","0,0,0","6","blank","236","null","0.33499417351907357","0.5864396667722186","0.1174713817780494","0","","","","","","","","",""
"","html-keyboard-response","32","174521","0.0-25.0-1.0","""event"",""trial"",""time""
""fullscreenenter"",""0"",""2898""
","
","
","""event"",""trial"",""time""
""fullscreenenter"",""0"",""2898""
","
","null","<p></p>","null","","","","","","","","","","","","","","","","","","","","","","","",""
"","do_trial","33","177229","0.0-26.0-0.0","""event"",""trial"",""time""
""fullscreenenter"",""0"",""2898""
","
","
","""event"",""trial"",""time""
""fullscreenenter"",""0"",""2898""
","
","143.19999999925494","","","","","","","","49","1,1,0","6","blank","237","null","0.4861427251641178","0.7644587898156167","0.16248064091634504","1","","","","","","","","",""
"","html-keyboard-response","34","178231","0.0-26.0-1.0","""event"",""trial"",""time""
""fullscreenenter"",""0"",""2898""
","
","
","""event"",""trial"",""time""
""fullscreenenter"",""0"",""2898""
","
","null","<p></p>","null","","","","","","","","","","","","","","","","","","","","","","","",""
"","do_trial","35","180795","0.0-27.0-0.0","""event"",""trial"",""time""
""fullscreenenter"",""0"",""2898""
","
","
","""event"",""trial"",""time""
""fullscreenenter"",""0"",""2898""
","
","0.4000000022351742","","","","","","","","49","0,1,0","6","blank","238","null","0.30623203508180746","0.7649904365134934","0.16424595845352596","0","","","","","","","","",""
"","html-keyboard-response","36","181797","0.0-27.0-1.0","""event"",""trial"",""time""
""fullscreenenter"",""0"",""2898""
","
","
","""event"",""trial"",""time""
""fullscreenenter"",""0"",""2898""
","
","null","<p></p>","null","","","","","","","","","","","","","","","","","","","","","","","",""
"","do_trial","37","184365","0.0-28.0-0.0","""event"",""trial"",""time""
""fullscreenenter"",""0"",""2898""
","
","
","""event"",""trial"",""time""
""fullscreenenter"",""0"",""2898""
","
","4.699999999254942","","","","","","","","49","0,0,0","6","blank","239","null","0.3308421124001428","0.5981364924798437","0.1679373942603155","0","","","","","","","","",""
"","html-keyboard-response","38","185369","0.0-28.0-1.0","""event"",""trial"",""time""
""fullscreenenter"",""0"",""2898""
","
","
","""event"",""trial"",""time""
""fullscreenenter"",""0"",""2898""
","
","null","<p></p>","null","","","","","","","","","","","","","","","","","","","","","","","",""
"","do_trial","39","188056","0.0-29.0-0.0","""event"",""trial"",""time""
""fullscreenenter"",""0"",""2898""
","
","
","""event"",""trial"",""time""
""fullscreenenter"",""0"",""2898""
","
","122.90000000223517","","","","","","","","49","0,1,0","6","blank","240","null","0.28566533552398204","0.5693142976402735","0.17055070114812626","0","","","","","","","","",""
"","html-keyboard-response","40","189059","0.0-29.0-1.0","""event"",""trial"",""time""
""fullscreenenter"",""0"",""2898""
","
","
","""event"",""trial"",""time""
""fullscreenenter"",""0"",""2898""
","
","null","<p></p>","null","","","","","","","","","","","","","","","","","","","","","","","",""
"","do_trial","41","192060","0.0-30.0-0.0","""event"",""trial"",""time""
""fullscreenenter"",""0"",""2898""
","
","
","""event"",""trial"",""time""
""fullscreenenter"",""0"",""2898""
","
","436.79999999701977","","","","","","","","50","1,0,0","6","blank","241","null","0.3135726228736643","0.5532892893515711","0.15905719180142705","0","","","","","","","","",""
"","html-keyboard-response","42","193063","0.0-30.0-1.0","""event"",""trial"",""time""
""fullscreenenter"",""0"",""2898""
","
","
","""event"",""trial"",""time""
""fullscreenenter"",""0"",""2898""
","
","null","<p></p>","null","","","","","","","","","","","","","","","","","","","","","","","",""
"","do_trial","43","195686","0.0-31.0-0.0","""event"",""trial"",""time""
""fullscreenenter"",""0"",""2898""
","
","
","""event"",""trial"",""time""
""fullscreenenter"",""0"",""2898""
","
","56.20000000298023","","","","","","","","50","0,0,1","6","blank","242","null","0.33388404278414485","0.4171532493394691","0.0588710048385245","0","","","","","","","","",""
"","html-keyboard-response","44","196691","0.0-31.0-1.0","""event"",""trial"",""time""
""fullscreenenter"",""0"",""2898""
","
","
","""event"",""trial"",""time""
""fullscreenenter"",""0"",""2898""
","
","null","<p></p>","null","","","","","","","","","","","","","","","","","","","","","","","",""
"","do_trial","45","199257","0.0-32.0-0.0","""event"",""trial"",""time""
""fullscreenenter"",""0"",""2898""
","
","
","""event"",""trial"",""time""
""fullscreenenter"",""0"",""2898""
","
","0.29999999701976776","","","","","","","","51","1,0,0","6","blank","243","null","0.420832366624361","0.3352830915273113","0.2225234443875928","0","","","","","","","","",""
"","html-keyboard-response","46","200259","0.0-32.0-1.0","""event"",""trial"",""time""
""fullscreenenter"",""0"",""2898""
","
","
","""event"",""trial"",""time""
""fullscreenenter"",""0"",""2898""
","
","null","<p></p>","null","","","","","","","","","","","","","","","","","","","","","","","",""
"","do_trial","47","202825","0.0-33.0-0.0","""event"",""trial"",""time""
""fullscreenenter"",""0"",""2898""
","
","
","""event"",""trial"",""time""
""fullscreenenter"",""0"",""2898""
","
","0.30000000074505806","","","","","","","","49","1,0,0","6","blank","244","null","0.4867083190492532","0.2568885992378147","0.21842810914622057","1","","","","","","","","",""
"","html-keyboard-response","48","203827","0.0-33.0-1.0","""event"",""trial"",""time""
""fullscreenenter"",""0"",""2898""
","
","
","""event"",""trial"",""time""
""fullscreenenter"",""0"",""2898""
","
","null","<p></p>","null","","","","","","","","","","","","","","","","","","","","","","","",""
"","do_recog","49","209838","0.0-34.0-0.0","""event"",""trial"",""time""
""fullscreenenter"",""0"",""2898""
","
","
","""event"",""trial"",""time""
""fullscreenenter"",""0"",""2898""
","
","null","","","","","","","","null","","","","245","probe-03","","","","","1","[object Object]","191","4","0","","","",""
"","html-keyboard-response","50","210841","0.0-34.0-1.0","""event"",""trial"",""time""
""fullscreenenter"",""0"",""2898""
","
","
","""event"",""trial"",""time""
""fullscreenenter"",""0"",""2898""
","
","null","<p></p>","null","","","","","","","","","","","","","","","","","","","","","","","",""
"","do_trial","51","214099","0.0-35.0-0.0","""event"",""trial"",""time""
""fullscreenenter"",""0"",""2898""
","
","
","""event"",""trial"",""time""
""fullscreenenter"",""0"",""2898""
","
","692.8000000007451","","","","","","","","50","0,0,0","6","blank","246","null","0.46190796903133896","0.21544867018493727","0.2992146195289738","0","","","","","","","","",""
"","html-keyboard-response","52","215101","0.0-35.0-1.0","""event"",""trial"",""time""
""fullscreenenter"",""0"",""2898""
","
","
","""event"",""trial"",""time""
""fullscreenenter"",""0"",""2898""
","
","null","<p></p>","null","","","","","","","","","","","","","","","","","","","","","","","",""
"","do_recog","53","217781","0.0-36.0-0.0","""event"",""trial"",""time""
""fullscreenenter"",""0"",""2898""
","
","
","""event"",""trial"",""time""
""fullscreenenter"",""0"",""2898""
","
","1170.9000000022352","","","","","","","","53","","","","247","probe-242","","","","","0","[object Object]","null","null","0","","","",""
"","html-keyboard-response","54","218783","0.0-36.0-1.0","""event"",""trial"",""time""
""fullscreenenter"",""0"",""2898""
","
","
","""event"",""trial"",""time""
""fullscreenenter"",""0"",""2898""
","
","null","<p></p>","null","","","","","","","","","","","","","","","","","","","","","","","",""
"","do_trial","55","221862","0.0-37.0-0.0","""event"",""trial"",""time""
""fullscreenenter"",""0"",""2898""
","
","
","""event"",""trial"",""time""
""fullscreenenter"",""0"",""2898""
","
","513.1000000014901","","","","","","","","49","0,0,0","6","blank","248","null","0.6022508956438432","0.29490398155026576","0.36053962584440813","0","","","","","","","","",""
"","html-keyboard-response","56","222865","0.0-37.0-1.0","""event"",""trial"",""time""
""fullscreenenter"",""0"",""2898""
","
","
","""event"",""trial"",""time""
""fullscreenenter"",""0"",""2898""
","
","null","<p></p>","null","","","","","","","","","","","","","","","","","","","","","","","",""
"","do_trial","57","225646","0.0-38.0-0.0","""event"",""trial"",""time""
""fullscreenenter"",""0"",""2898""
","
","
","""event"",""trial"",""time""
""fullscreenenter"",""0"",""2898""
","
","214.89999999850988","","","","","","","","49","1,0,0","6","blank","249","null","0.6155757844189323","0.32514009861768983","0.3273905208119421","1","","","","","","","","",""
"","html-keyboard-response","58","226648","0.0-38.0-1.0","""event"",""trial"",""time""
""fullscreenenter"",""0"",""2898""
","
","
","""event"",""trial"",""time""
""fullscreenenter"",""0"",""2898""
","
","null","<p></p>","null","","","","","","","","","","","","","","","","","","","","","","","",""
"","do_recog","59","229426","0.0-39.0-0.0","""event"",""trial"",""time""
""fullscreenenter"",""0"",""2898""
","
","
","""event"",""trial"",""time""
""fullscreenenter"",""0"",""2898""
","
","1268.800000000745","","","","","","","","53","","","","250","probe-240","","","","","0","[object Object]","null","null","0","","","",""
"","html-keyboard-response","60","230429","0.0-39.0-1.0","""event"",""trial"",""time""
""fullscreenenter"",""0"",""2898""
","
","
","""event"",""trial"",""time""
""fullscreenenter"",""0"",""2898""
","
","null","<p></p>","null","","","","","","","","","","","","","","","","","","","","","","","",""
"","do_trial","61","233445","0.0-40.0-0.0","""event"",""trial"",""time""
""fullscreenenter"",""0"",""2898""
","
","
","""event"",""trial"",""time""
""fullscreenenter"",""0"",""2898""
","
","451.19999999925494","","","","","","","","49","1,0,0","6","blank","251","null","0.7318810815412303","0.2946642975300116","0.1754682051112254","1","","","","","","","","",""
"","html-keyboard-response","62","234447","0.0-40.0-1.0","""event"",""trial"",""time""
""fullscreenenter"",""0"",""2898""
","
","
","""event"",""trial"",""time""
""fullscreenenter"",""0"",""2898""
","
","null","<p></p>","null","","","","","","","","","","","","","","","","","","","","","","","",""
"","do_trial","63","237311","0.0-41.0-0.0","""event"",""trial"",""time""
""fullscreenenter"",""0"",""2898""
","
","
","""event"",""trial"",""time""
""fullscreenenter"",""0"",""2898""
","
","298.19999999925494","","","","","","","","49","1,0,1","6","blank","252","null","0.8835848367238262","0.14235028443242992","0.1942510043807186","1","","","","","","","","",""
"","html-keyboard-response","64","238313","0.0-41.0-1.0","""event"",""trial"",""time""
""fullscreenenter"",""0"",""2898""
","
","
","""event"",""trial"",""time""
""fullscreenenter"",""0"",""2898""
","
","null","<p></p>","null","","","","","","","","","","","","","","","","","","","","","","","",""
"","do_trial","65","241478","0.0-42.0-0.0","""event"",""trial"",""time""
""fullscreenenter"",""0"",""2898""
","
","
","""event"",""trial"",""time""
""fullscreenenter"",""0"",""2898""
","
","601","","","","","","","","49","1,1,1","6","blank","253","null","0.9384411454407776","0.14017427657119874","0.26256148070195484","1","","","","","","","","",""
"","html-keyboard-response","66","242480","0.0-42.0-1.0","""event"",""trial"",""time""
""fullscreenenter"",""0"",""2898""
","
","
","""event"",""trial"",""time""
""fullscreenenter"",""0"",""2898""
","
","null","<p></p>","null","","","","","","","","","","","","","","","","","","","","","","","",""
"","do_trial","67","245359","0.0-43.0-0.0","""event"",""trial"",""time""
""fullscreenenter"",""0"",""2898""
","
","
","""event"",""trial"",""time""
""fullscreenenter"",""0"",""2898""
","
","315","","","","","","","","49","0,0,0","6","blank","254","null","0.8300259524399831","0.05557275856497909","0.3784577936329959","0","","","","","","","","",""
"","html-keyboard-response","68","246362","0.0-43.0-1.0","""event"",""trial"",""time""
""fullscreenenter"",""0"",""2898""
","
","
","""event"",""trial"",""time""
""fullscreenenter"",""0"",""2898""
","
","null","<p></p>","null","","","","","","","","","","","","","","","","","","","","","","","",""
"","do_trial","69","249472","0.0-44.0-0.0","""event"",""trial"",""time""
""fullscreenenter"",""0"",""2898""
","
","
","""event"",""trial"",""time""
""fullscreenenter"",""0"",""2898""
","
","547","","","","","","","","49","1,1,0","6","blank","255","null","0.6591909206154521","0.1681968678491475","0.42294222920771163","1","","","","","","","","",""
"","html-keyboard-response","70","250474","0.0-44.0-1.0","""event"",""trial"",""time""
""fullscreenenter"",""0"",""2898""
","
","
","""event"",""trial"",""time""
""fullscreenenter"",""0"",""2898""
","
","null","<p></p>","null","","","","","","","","","","","","","","","","","","","","","","","",""
"","do_recog","71","252987","0.0-45.0-0.0","""event"",""trial"",""time""
""fullscreenenter"",""0"",""2898""
","
","
","""event"",""trial"",""time""
""fullscreenenter"",""0"",""2898""
","
","1003.8000000007451","","","","","","","","53","","","","256","probe-31","","","","","1","[object Object]","151","3","1","","","",""
"","html-keyboard-response","72","253990","0.0-45.0-1.0","""event"",""trial"",""time""
""fullscreenenter"",""0"",""2898""
","
","
","""event"",""trial"",""time""
""fullscreenenter"",""0"",""2898""
","
","null","<p></p>","null","","","","","","","","","","","","","","","","","","","","","","","",""
"","do_trial","73","256970","0.0-46.0-0.0","""event"",""trial"",""time""
""fullscreenenter"",""0"",""2898""
","
","
","""event"",""trial"",""time""
""fullscreenenter"",""0"",""2898""
","
","415.8999999985099","","","","","","","","49","1,0,1","6","blank","257","null","0.6189920873176964","0.2271036930355929","0.425593918843515","1","","","","","","","","",""
"","html-keyboard-response","74","257973","0.0-46.0-1.0","""event"",""trial"",""time""
""fullscreenenter"",""0"",""2898""
","
","
","""event"",""trial"",""time""
""fullscreenenter"",""0"",""2898""
","
","null","<p></p>","null","","","","","","","","","","","","","","","","","","","","","","","",""
"","do_recog","75","260643","0.0-47.0-0.0","""event"",""trial"",""time""
""fullscreenenter"",""0"",""2898""
","
","
","""event"",""trial"",""time""
""fullscreenenter"",""0"",""2898""
","
","1160.8999999985099","","","","","","","","54","","","","258","probe-18","","","","","1","[object Object]","158","3","1","","","",""
"","html-keyboard-response","76","261646","0.0-47.0-1.0","""event"",""trial"",""time""
""fullscreenenter"",""0"",""2898""
","
","
","""event"",""trial"",""time""
""fullscreenenter"",""0"",""2898""
","
","null","<p></p>","null","","","","","","","","","","","","","","","","","","","","","","","",""
"","do_trial","77","264561","0.0-48.0-0.0","""event"",""trial"",""time""
""fullscreenenter"",""0"",""2898""
","
","
","""event"",""trial"",""time""
""fullscreenenter"",""0"",""2898""
","
","351.69999999925494","","","","","","","","49","1,0,0","6","blank","259","null","0.5694528191837599","0.05620011121474176","0.3990377929416689","1","","","","","","","","",""
"","html-keyboard-response","78","265564","0.0-48.0-1.0","""event"",""trial"",""time""
""fullscreenenter"",""0"",""2898""
","
","
","""event"",""trial"",""time""
""fullscreenenter"",""0"",""2898""
","
","null","<p></p>","null","","","","","","","","","","","","","","","","","","","","","","","",""
"","do_recog","79","268572","0.0-49.0-0.0","""event"",""trial"",""time""
""fullscreenenter"",""0"",""2898""
","
","
","""event"",""trial"",""time""
""fullscreenenter"",""0"",""2898""
","
","1498.5","","","","","","","","56","","","","260","probe-68","","","","","1","[object Object]","30","0","0","","","",""
"","html-keyboard-response","80","269574","0.0-49.0-1.0","""event"",""trial"",""time""
""fullscreenenter"",""0"",""2898""
","
","
","""event"",""trial"",""time""
""fullscreenenter"",""0"",""2898""
","
","null","<p></p>","null","","","","","","","","","","","","","","","","","","","","","","","",""
"","do_trial","81","272614","0.0-50.0-0.0","""event"",""trial"",""time""
""fullscreenenter"",""0"",""2898""
","
","
","""event"",""trial"",""time""
""fullscreenenter"",""0"",""2898""
","
","470.1000000014901","","","","","","","","49","1,0,0","6","blank","261","null","0.5793343968764774","0.07518759292295912","0.35560503613467964","1","","","","","","","","",""
"","html-keyboard-response","82","273617","0.0-50.0-1.0","""event"",""trial"",""time""
""fullscreenenter"",""0"",""2898""
","
","
","""event"",""trial"",""time""
""fullscreenenter"",""0"",""2898""
","
","null","<p></p>","null","","","","","","","","","","","","","","","","","","","","","","","",""
"","do_trial","83","276430","0.0-51.0-0.0","""event"",""trial"",""time""
""fullscreenenter"",""0"",""2898""
","
","
","""event"",""trial"",""time""
""fullscreenenter"",""0"",""2898""
","
","248.59999999776483","","","","","","","","49","0,0,0","6","blank","262","null","0.6467423889087812","0.08961569523521774","0.32442003884233656","0","","","","","","","","",""
"","html-keyboard-response","84","277432","0.0-51.0-1.0","""event"",""trial"",""time""
""fullscreenenter"",""0"",""2898""
","
","
","""event"",""trial"",""time""
""fullscreenenter"",""0"",""2898""
","
","null","<p></p>","null","","","","","","","","","","","","","","","","","","","","","","","",""
"","do_trial","85","280343","0.0-52.0-0.0","""event"",""trial"",""time""
""fullscreenenter"",""0"",""2898""
","
","
","""event"",""trial"",""time""
""fullscreenenter"",""0"",""2898""
","
","347.6000000014901","","","","","","","","49","1,1,0","6","blank","263","null","0.6772120048042413","0.13473172959499766","0.27011378636134775","1","","","","","","","","",""
"","html-keyboard-response","86","281345","0.0-52.0-1.0","""event"",""trial"",""time""
""fullscreenenter"",""0"",""2898""
","
","
","""event"",""trial"",""time""
""fullscreenenter"",""0"",""2898""
","
","null","<p></p>","null","","","","","","","","","","","","","","","","","","","","","","","",""
"","do_trial","87","284188","0.0-53.0-0.0","""event"",""trial"",""time""
""fullscreenenter"",""0"",""2898""
","
","
","""event"",""trial"",""time""
""fullscreenenter"",""0"",""2898""
","
","277.69999999925494","","","","","","","","49","0,0,0","6","blank","264","null","0.4895527421271262","0.1681489408110078","0.250414561308382","0","","","","","","","","",""
"","html-keyboard-response","88","285190","0.0-53.0-1.0","""event"",""trial"",""time""
""fullscreenenter"",""0"",""2898""
","
","
","""event"",""trial"",""time""
""fullscreenenter"",""0"",""2898""
","
","null","<p></p>","null","","","","","","","","","","","","","","","","","","","","","","","",""
"","do_trial","89","288046","0.0-54.0-0.0","""event"",""trial"",""time""
""fullscreenenter"",""0"",""2898""
","
","
","""event"",""trial"",""time""
""fullscreenenter"",""0"",""2898""
","
","290.4000000022352","","","","","","","","49","0,0,0","6","blank","265","null","0.5150657491225465","0.13199290028138388","0.15745763060664866","0","","","","","","","","",""
"","html-keyboard-response","90","289048","0.0-54.0-1.0","""event"",""trial"",""time""
""fullscreenenter"",""0"",""2898""
","
","
","""event"",""trial"",""time""
""fullscreenenter"",""0"",""2898""
","
","null","<p></p>","null","","","","","","","","","","","","","","","","","","","","","","","",""
"","do_trial","91","292057","0.0-55.0-0.0","""event"",""trial"",""time""
""fullscreenenter"",""0"",""2898""
","
","
","""event"",""trial"",""time""
""fullscreenenter"",""0"",""2898""
","
","445","","","","","","","","50","0,0,0","6","blank","266","null","0.5447618761679297","0.2094582227149624","0.21542722922980934","0","","","","","","","","",""
"","html-keyboard-response","92","293059","0.0-55.0-1.0","""event"",""trial"",""time""
""fullscreenenter"",""0"",""2898""
","
","
","""event"",""trial"",""time""
""fullscreenenter"",""0"",""2898""
","
","null","<p></p>","null","","","","","","","","","","","","","","","","","","","","","","","",""
"","do_trial","93","295875","0.0-56.0-0.0","""event"",""trial"",""time""
""fullscreenenter"",""0"",""2898""
","
","
","""event"",""trial"",""time""
""fullscreenenter"",""0"",""2898""
","
","250.60000000149012","","","","","","","","51","0,0,0","6","blank","267","null","0.5441483855992703","0.16704343953991438","0.37377109001297515","0","","","","","","","","",""
"","html-keyboard-response","94","296877","0.0-56.0-1.0","""event"",""trial"",""time""
""fullscreenenter"",""0"",""2898""
","
","
","""event"",""trial"",""time""
""fullscreenenter"",""0"",""2898""
","
","null","<p></p>","null","","","","","","","","","","","","","","","","","","","","","","","",""
"","do_recog","95","299360","0.0-57.0-0.0","""event"",""trial"",""time""
""fullscreenenter"",""0"",""2898""
","
","
","""event"",""trial"",""time""
""fullscreenenter"",""0"",""2898""
","
","973.3000000007451","","","","","","","","54","","","","268","probe-114","","","","","1","[object Object]","113","2","1","","","",""
"","html-keyboard-response","96","300361","0.0-57.0-1.0","""event"",""trial"",""time""
""fullscreenenter"",""0"",""2898""
","
","
","""event"",""trial"",""time""
""fullscreenenter"",""0"",""2898""
","
","null","<p></p>","null","","","","","","","","","","","","","","","","","","","","","","","",""
"","break","97","301500","0.0-58.0-0.0","""event"",""trial"",""time""
""fullscreenenter"",""0"",""2898""
","
","
","""event"",""trial"",""time""
""fullscreenenter"",""0"",""2898""
","
","1135.6000000014901","<div class='center'><p>Time to take a quick break! You have 2 minutes to rest, but you can move on sooner if you'd like.</p><p> Press the <b>space bar</b> to continue.</p></div>","32","","","","","","","","","","","","","","","","","","","","","","","",""
"","do_trial","98","304576","0.0-58.0-1.0","""event"",""trial"",""time""
""fullscreenenter"",""0"",""2898""
","
","
","""event"",""trial"",""time""
""fullscreenenter"",""0"",""2898""
","
","512.1999999992549","","","","","","","","49","0,0,0","6","blank","269","null","0.5681599536084154","0.10371595230986858","0.32585421198191533","0","","","","","","","","",""
"","html-keyboard-response","99","305578","0.0-58.0-2.0","""event"",""trial"",""time""
""fullscreenenter"",""0"",""2898""
","
","
","""event"",""trial"",""time""
""fullscreenenter"",""0"",""2898""
","
","null","<p></p>","null","","","","","","","","","","","","","","","","","","","","","","","",""
"","do_trial","100","308373","0.0-59.0-0.0","""event"",""trial"",""time""
""fullscreenenter"",""0"",""2898""
","
","
","""event"",""trial"",""time""
""fullscreenenter"",""0"",""2898""
","
","229.90000000223517","","","","","","","","49","1,0,0","6","blank","270","null","0.6048808367631036","0.12809227514462293","0.28282327199927626","1","","","","","","","","",""
"","html-keyboard-response","101","309375","0.0-59.0-1.0","""event"",""trial"",""time""
""fullscreenenter"",""0"",""2898""
","
","
","""event"",""trial"",""time""
""fullscreenenter"",""0"",""2898""
","
","null","<p></p>","null","","","","","","","","","","","","","","","","","","","","","","","",""
"","do_recog","102","312241","0.0-60.0-0.0","""event"",""trial"",""time""
""fullscreenenter"",""0"",""2898""
","
","
","""event"",""trial"",""time""
""fullscreenenter"",""0"",""2898""
","
","1354.3999999985099","","","","","","","","53","","","","271","probe-48","","","","","1","[object Object]","192","4","1","","","",""
"","html-keyboard-response","103","313243","0.0-60.0-1.0","""event"",""trial"",""time""
""fullscreenenter"",""0"",""2898""
","
","
","""event"",""trial"",""time""
""fullscreenenter"",""0"",""2898""
","
","null","<p></p>","null","","","","","","","","","","","","","","","","","","","","","","","",""
"","do_trial","104","316023","0.0-61.0-0.0","""event"",""trial"",""time""
""fullscreenenter"",""0"",""2898""
","
","
","""event"",""trial"",""time""
""fullscreenenter"",""0"",""2898""
","
","216.40000000223517","","","","","","","","49","0,1,0","6","blank","272","null","0.5921088546701812","0.16448057443139733","0.22885884718713606","0","","","","","","","","",""
"","html-keyboard-response","105","317025","0.0-61.0-1.0","""event"",""trial"",""time""
""fullscreenenter"",""0"",""2898""
","
","
","""event"",""trial"",""time""
""fullscreenenter"",""0"",""2898""
","
","null","<p></p>","null","","","","","","","","","","","","","","","","","","","","","","","",""
"","do_trial","106","319603","0.0-62.0-0.0","""event"",""trial"",""time""
""fullscreenenter"",""0"",""2898""
","
","
","""event"",""trial"",""time""
""fullscreenenter"",""0"",""2898""
","
","13.699999999254942","","","","","","","","49","1,1,0","6","blank","273","null","0.7160833740198824","0.16938296328930405","0.20252921364105334","1","","","","","","","","",""
"","html-keyboard-response","107","320605","0.0-62.0-1.0","""event"",""trial"",""time""
""fullscreenenter"",""0"",""2898""
","
","
","""event"",""trial"",""time""
""fullscreenenter"",""0"",""2898""
","
","null","<p></p>","null","","","","","","","","","","","","","","","","","","","","","","","",""
"","do_recog","108","323111","0.0-63.0-0.0","""event"",""trial"",""time""
""fullscreenenter"",""0"",""2898""
","
","
","""event"",""trial"",""time""
""fullscreenenter"",""0"",""2898""
","
","997","","","","","","","","53","","","","274","probe-200","","","","","1","[object Object]","70","1","1","","","",""
"","html-keyboard-response","109","324114","0.0-63.0-1.0","""event"",""trial"",""time""
""fullscreenenter"",""0"",""2898""
","
","
","""event"",""trial"",""time""
""fullscreenenter"",""0"",""2898""
","
","null","<p></p>","null","","","","","","","","","","","","","","","","","","","","","","","",""
"","do_trial","110","326692","0.0-64.0-0.0","""event"",""trial"",""time""
""fullscreenenter"",""0"",""2898""
","
","
","""event"",""trial"",""time""
""fullscreenenter"",""0"",""2898""
","
","15.800000000745058","","","","","","","","49","1,0,0","6","blank","275","null","0.5873717472549264","0.16917158359739928","0.10256284476129318","1","","","","","","","","",""
"","html-keyboard-response","111","327694","0.0-64.0-1.0","""event"",""trial"",""time""
""fullscreenenter"",""0"",""2898""
","
","
","""event"",""trial"",""time""
""fullscreenenter"",""0"",""2898""
","
","null","<p></p>","null","","","","","","","","","","","","","","","","","","","","","","","",""
"","do_trial","112","330360","0.0-65.0-0.0","""event"",""trial"",""time""
""fullscreenenter"",""0"",""2898""
","
","
","""event"",""trial"",""time""
""fullscreenenter"",""0"",""2898""
","
","101.80000000074506","","","","","","","","49","0,0,0","6","blank","276","null","0.6326048241747488","0.05501949682992203","0.10747753596393542","0","","","","","","","","",""
"","html-keyboard-response","113","331363","0.0-65.0-1.0","""event"",""trial"",""time""
""fullscreenenter"",""0"",""2898""
","
","
","""event"",""trial"",""time""
""fullscreenenter"",""0"",""2898""
","
","null","<p></p>","null","","","","","","","","","","","","","","","","","","","","","","","",""
"","do_trial","114","333989","0.0-66.0-0.0","""event"",""trial"",""time""
""fullscreenenter"",""0"",""2898""
","
","
","""event"",""trial"",""time""
""fullscreenenter"",""0"",""2898""
","
","62.100000001490116","","","","","","","","49","0,0,0","6","blank","277","null","0.6373079632903438","0.16397987758963417","0.16257075399011622","0","","","","","","","","",""
"","html-keyboard-response","115","334991","0.0-66.0-1.0","""event"",""trial"",""time""
""fullscreenenter"",""0"",""2898""
","
","
","""event"",""trial"",""time""
""fullscreenenter"",""0"",""2898""
","
","null","<p></p>","null","","","","","","","","","","","","","","","","","","","","","","","",""
"","do_trial","116","337871","0.0-67.0-0.0","""event"",""trial"",""time""
""fullscreenenter"",""0"",""2898""
","
","
","""event"",""trial"",""time""
""fullscreenenter"",""0"",""2898""
","
","317.1000000014901","","","","","","","","49","1,0,0","6","blank","278","null","0.701902864473168","0.22800418454949753","0.21208812777701613","1","","","","","","","","",""
"","html-keyboard-response","117","338873","0.0-67.0-1.0","""event"",""trial"",""time""
""fullscreenenter"",""0"",""2898""
","
","
","""event"",""trial"",""time""
""fullscreenenter"",""0"",""2898""
","
","null","<p></p>","null","","","","","","","","","","","","","","","","","","","","","","","",""
"","do_trial","118","341543","0.0-68.0-0.0","""event"",""trial"",""time""
""fullscreenenter"",""0"",""2898""
","
","
","""event"",""trial"",""time""
""fullscreenenter"",""0"",""2898""
","
","103.89999999850988","","","","","","","","49","1,0,0","6","blank","279","null","0.6768800629112062","0.11737377692666573","0.201744617749577","1","","","","","","","","",""
"","html-keyboard-response","119","342545","0.0-68.0-1.0","""event"",""trial"",""time""
""fullscreenenter"",""0"",""2898""
","
","
","""event"",""trial"",""time""
""fullscreenenter"",""0"",""2898""
","
","null","<p></p>","null","","","","","","","","","","","","","","","","","","","","","","","",""
"","do_recog","120","345205","0.0-69.0-0.0","""event"",""trial"",""time""
""fullscreenenter"",""0"",""2898""
","
","
","""event"",""trial"",""time""
""fullscreenenter"",""0"",""2898""
","
","1149.0999999977648","","","","","","","","53","","","","280","probe-161","","","","","1","[object Object]","111","2","1","","","",""
"","html-keyboard-response","121","346207","0.0-69.0-1.0","""event"",""trial"",""time""
""fullscreenenter"",""0"",""2898""
","
","
","""event"",""trial"",""time""
""fullscreenenter"",""0"",""2898""
","
","null","<p></p>","null","","","","","","","","","","","","","","","","","","","","","","","",""
"","do_trial","122","349000","0.0-70.0-0.0","""event"",""trial"",""time""
""fullscreenenter"",""0"",""2898""
","
","
","""event"",""trial"",""time""
""fullscreenenter"",""0"",""2898""
","
","226","","","","","","","","49","1,0,1","6","blank","281","null","0.7174446620656175","0.09903493206276184","0.24293223372543243","1","","","","","","","","",""
"","html-keyboard-response","123","350002","0.0-70.0-1.0","""event"",""trial"",""time""
""fullscreenenter"",""0"",""2898""
","
","
","""event"",""trial"",""time""
""fullscreenenter"",""0"",""2898""
","
","null","<p></p>","null","","","","","","","","","","","","","","","","","","","","","","","",""
"","do_trial","124","352568","0.0-71.0-0.0","""event"",""trial"",""time""
""fullscreenenter"",""0"",""2898""
","
","
","""event"",""trial"",""time""
""fullscreenenter"",""0"",""2898""
","
","0.19999999925494194","","","","","","","","49","0,0,0","6","blank","282","null","0.5972671139547526","0.0928906944145169","0.25694118856082143","0","","","","","","","","",""
"","html-keyboard-response","125","353570","0.0-71.0-1.0","""event"",""trial"",""time""
""fullscreenenter"",""0"",""2898""
","
","
","""event"",""trial"",""time""
""fullscreenenter"",""0"",""2898""
","
","null","<p></p>","null","","","","","","","","","","","","","","","","","","","","","","","",""
"","do_trial","126","356410","0.0-72.0-0.0","""event"",""trial"",""time""
""fullscreenenter"",""0"",""2898""
","
","
","""event"",""trial"",""time""
""fullscreenenter"",""0"",""2898""
","
","274.6000000014901","","","","","","","","49","0,0,0","6","blank","283","null","0.6214623148942388","0.28508073746110557","0.38338166452805494","0","","","","","","","","",""
"","html-keyboard-response","127","357414","0.0-72.0-1.0","""event"",""trial"",""time""
""fullscreenenter"",""0"",""2898""
","
","
","""event"",""trial"",""time""
""fullscreenenter"",""0"",""2898""
","
","null","<p></p>","null","","","","","","","","","","","","","","","","","","","","","","","",""
"","do_recog","128","360338","0.0-73.0-0.0","""event"",""trial"",""time""
""fullscreenenter"",""0"",""2898""
","
","
","""event"",""trial"",""time""
""fullscreenenter"",""0"",""2898""
","
","1414.699999999255","","","","","","","","56","","","","284","probe-131","","","","","1","[object Object]","152","3","0","","","",""
"","html-keyboard-response","129","361340","0.0-73.0-1.0","""event"",""trial"",""time""
""fullscreenenter"",""0"",""2898""
","
","
","""event"",""trial"",""time""
""fullscreenenter"",""0"",""2898""
","
","null","<p></p>","null","","","","","","","","","","","","","","","","","","","","","","","",""
"","do_trial","130","364036","0.0-74.0-0.0","""event"",""trial"",""time""
""fullscreenenter"",""0"",""2898""
","
","
","""event"",""trial"",""time""
""fullscreenenter"",""0"",""2898""
","
","130.69999999925494","","","","","","","","49","1,0,0","6","blank","285","null","0.6432772693119069","0.3044777779799861","0.3049555733203576","1","","","","","","","","",""
"","html-keyboard-response","131","365038","0.0-74.0-1.0","""event"",""trial"",""time""
""fullscreenenter"",""0"",""2898""
","
","
","""event"",""trial"",""time""
""fullscreenenter"",""0"",""2898""
","
","null","<p></p>","null","","","","","","","","","","","","","","","","","","","","","","","",""
"","do_trial","132","367601","0.0-75.0-0.0","""event"",""trial"",""time""
""fullscreenenter"",""0"",""2898""
","
","
","""event"",""trial"",""time""
""fullscreenenter"",""0"",""2898""
","
","0.30000000074505806","","","","","","","","49","1,0,0","6","blank","286","null","0.5651891988907596","0.25829477616710966","0.330625528662506","1","","","","","","","","",""
"","html-keyboard-response","133","368604","0.0-75.0-1.0","""event"",""trial"",""time""
""fullscreenenter"",""0"",""2898""
","
","
","""event"",""trial"",""time""
""fullscreenenter"",""0"",""2898""
","
","null","<p></p>","null","","","","","","","","","","","","","","","","","","","","","","","",""
"","do_recog","134","371040","0.0-76.0-0.0","""event"",""trial"",""time""
""fullscreenenter"",""0"",""2898""
","
","
","""event"",""trial"",""time""
""fullscreenenter"",""0"",""2898""
","
","925.6999999992549","","","","","","","","53","","","","287","probe-134","","","","","1","[object Object]","157","3","1","","","",""
"","html-keyboard-response","135","372042","0.0-76.0-1.0","""event"",""trial"",""time""
""fullscreenenter"",""0"",""2898""
","
","
","""event"",""trial"",""time""
""fullscreenenter"",""0"",""2898""
","
","null","<p></p>","null","","","","","","","","","","","","","","","","","","","","","","","",""
"","do_trial","136","374664","0.0-77.0-0.0","""event"",""trial"",""time""
""fullscreenenter"",""0"",""2898""
","
","
","""event"",""trial"",""time""
""fullscreenenter"",""0"",""2898""
","
","1.5","","","","","","","","49","0,0,0","6","blank","288","null","0.6288479105028396","0.2569730919853626","0.3115371734870256","0","","","","","","","","",""
"","html-keyboard-response","137","375667","0.0-77.0-1.0","""event"",""trial"",""time""
""fullscreenenter"",""0"",""2898""
","
","
","""event"",""trial"",""time""
""fullscreenenter"",""0"",""2898""
","
","null","<p></p>","null","","","","","","","","","","","","","","","","","","","","","","","",""
"","do_trial","138","378729","0.0-78.0-0.0","""event"",""trial"",""time""
""fullscreenenter"",""0"",""2898""
","
","
","""event"",""trial"",""time""
""fullscreenenter"",""0"",""2898""
","
","497.3999999985099","","","","","","","","49","1,0,0","6","blank","289","null","0.617572481296811","0.13474179411281448","0.26268007661629456","1","","","","","","","","",""
"","html-keyboard-response","139","379731","0.0-78.0-1.0","""event"",""trial"",""time""
""fullscreenenter"",""0"",""2898""
","
","
","""event"",""trial"",""time""
""fullscreenenter"",""0"",""2898""
","
","null","<p></p>","null","","","","","","","","","","","","","","","","","","","","","","","",""
"","do_trial","140","382615","0.0-79.0-0.0","""event"",""trial"",""time""
""fullscreenenter"",""0"",""2898""
","
","
","""event"",""trial"",""time""
""fullscreenenter"",""0"",""2898""
","
","318.30000000074506","","","","","","","","49","1,0,0","6","blank","290","null","0.5542749610375483","0.1582798791670033","0.30457654388260136","1","","","","","","","","",""
"","html-keyboard-response","141","383617","0.0-79.0-1.0","""event"",""trial"",""time""
""fullscreenenter"",""0"",""2898""
","
","
","""event"",""trial"",""time""
""fullscreenenter"",""0"",""2898""
","
","null","<p></p>","null","","","","","","","","","","","","","","","","","","","","","","","",""
"","do_trial","142","386459","0.0-80.0-0.0","""event"",""trial"",""time""
""fullscreenenter"",""0"",""2898""
","
","
","""event"",""trial"",""time""
""fullscreenenter"",""0"",""2898""
","
","277.1000000014901","","","","","","","","49","0,0,1","6","blank","291","null","0.5079439791789483","0.14623053940856326","0.4801665706032377","0","","","","","","","","",""
"","html-keyboard-response","143","387461","0.0-80.0-1.0","""event"",""trial"",""time""
""fullscreenenter"",""0"",""2898""
","
","
","""event"",""trial"",""time""
""fullscreenenter"",""0"",""2898""
","
","null","<p></p>","null","","","","","","","","","","","","","","","","","","","","","","","",""
"","do_trial","144","390325","0.0-81.0-0.0","""event"",""trial"",""time""
""fullscreenenter"",""0"",""2898""
","
","
","""event"",""trial"",""time""
""fullscreenenter"",""0"",""2898""
","
","300","","","","","","","","49","0,0,0","6","blank","292","null","0.4883046541934147","0.15256820018078998","0.47474674268363226","0","","","","","","","","",""
"","html-keyboard-response","145","391327","0.0-81.0-1.0","""event"",""trial"",""time""
""fullscreenenter"",""0"",""2898""
","
","
","""event"",""trial"",""time""
""fullscreenenter"",""0"",""2898""
","
","null","<p></p>","null","","","","","","","","","","","","","","","","","","","","","","","",""
"","do_recog","146","394124","0.0-82.0-0.0","""event"",""trial"",""time""
""fullscreenenter"",""0"",""2898""
","
","
","""event"",""trial"",""time""
""fullscreenenter"",""0"",""2898""
","
","1288","","","","","","","","56","","","","293","probe-118","","","","","1","[object Object]","73","1","0","","","",""
"","html-keyboard-response","147","395127","0.0-82.0-1.0","""event"",""trial"",""time""
""fullscreenenter"",""0"",""2898""
","
","
","""event"",""trial"",""time""
""fullscreenenter"",""0"",""2898""
","
","null","<p></p>","null","","","","","","","","","","","","","","","","","","","","","","","",""
"","do_trial","148","398431","0.0-83.0-0.0","""event"",""trial"",""time""
""fullscreenenter"",""0"",""2898""
","
","
","""event"",""trial"",""time""
""fullscreenenter"",""0"",""2898""
","
","739.6000000014901","","","","","","","","51","1,0,1","6","blank","294","null","0.40012926744251415","0.18716933331379515","0.4698597876702574","1","","","","","","","","",""
"","html-keyboard-response","149","399434","0.0-83.0-1.0","""event"",""trial"",""time""
""fullscreenenter"",""0"",""2898""
","
","
","""event"",""trial"",""time""
""fullscreenenter"",""0"",""2898""
","
","null","<p></p>","null","","","","","","","","","","","","","","","","","","","","","","","",""
"","do_recog","150","402292","0.0-84.0-0.0","""event"",""trial"",""time""
""fullscreenenter"",""0"",""2898""
","
","
","""event"",""trial"",""time""
""fullscreenenter"",""0"",""2898""
","
","1348.300000000745","","","","","","","","56","","","","295","probe-245","","","","","0","[object Object]","null","null","1","","","",""
"","html-keyboard-response","151","403294","0.0-84.0-1.0","""event"",""trial"",""time""
""fullscreenenter"",""0"",""2898""
","
","
","""event"",""trial"",""time""
""fullscreenenter"",""0"",""2898""
","
","null","<p></p>","null","","","","","","","","","","","","","","","","","","","","","","","",""
"","do_trial","152","405858","0.0-85.0-0.0","""event"",""trial"",""time""
""fullscreenenter"",""0"",""2898""
","
","
","""event"",""trial"",""time""
""fullscreenenter"",""0"",""2898""
","
","0.19999999925494194","","","","","","","","51","0,0,0","6","blank","296","null","0.16332035595017694","0.3969540133425629","0.42237548109777534","0","","","","","","","","",""
"","html-keyboard-response","153","406860","0.0-85.0-1.0","""event"",""trial"",""time""
""fullscreenenter"",""0"",""2898""
","
","
","""event"",""trial"",""time""
""fullscreenenter"",""0"",""2898""
","
","null","<p></p>","null","","","","","","","","","","","","","","","","","","","","","","","",""
"","do_recog","154","409825","0.0-86.0-0.0","""event"",""trial"",""time""
""fullscreenenter"",""0"",""2898""
","
","
","""event"",""trial"",""time""
""fullscreenenter"",""0"",""2898""
","
","1455.300000000745","","","","","","","","55","","","","297","probe-212","","","","","1","[object Object]","154","3","0","","","",""
"","html-keyboard-response","155","410828","0.0-86.0-1.0","""event"",""trial"",""time""
""fullscreenenter"",""0"",""2898""
","
","
","""event"",""trial"",""time""
""fullscreenenter"",""0"",""2898""
","
","null","<p></p>","null","","","","","","","","","","","","","","","","","","","","","","","",""
"","do_trial","156","413392","0.0-87.0-0.0","""event"",""trial"",""time""
""fullscreenenter"",""0"",""2898""
","
","
","""event"",""trial"",""time""
""fullscreenenter"",""0"",""2898""
","
","0.30000000074505806","","","","","","","","51","1,1,1","6","blank","298","null","0.1154765599349672","0.3851652702231638","0.4031563459637973","1","","","","","","","","",""
"","html-keyboard-response","157","414394","0.0-87.0-1.0","""event"",""trial"",""time""
""fullscreenenter"",""0"",""2898""
","
","
","""event"",""trial"",""time""
""fullscreenenter"",""0"",""2898""
","
","null","<p></p>","null","","","","","","","","","","","","","","","","","","","","","","","",""
"","do_recog","158","417264","0.0-88.0-0.0","""event"",""trial"",""time""
""fullscreenenter"",""0"",""2898""
","
","
","""event"",""trial"",""time""
""fullscreenenter"",""0"",""2898""
","
","1360.8999999985099","","","","","","","","56","","","","299","probe-157","","","","","1","[object Object]","194","4","0","","","",""
"","html-keyboard-response","159","418267","0.0-88.0-1.0","""event"",""trial"",""time""
""fullscreenenter"",""0"",""2898""
","
","
","""event"",""trial"",""time""
""fullscreenenter"",""0"",""2898""
","
","null","<p></p>","null","","","","","","","","","","","","","","","","","","","","","","","",""
"","do_trial","160","420914","0.0-89.0-0.0","""event"",""trial"",""time""
""fullscreenenter"",""0"",""2898""
","
","
","""event"",""trial"",""time""
""fullscreenenter"",""0"",""2898""
","
","81.80000000074506","","","","","","","","51","0,1,0","6","blank","300","null","0.17795182453184946","0.46614304567184517","0.32655873245009515","0","","","","","","","","",""
"","html-keyboard-response","161","421917","0.0-89.0-1.0","""event"",""trial"",""time""
""fullscreenenter"",""0"",""2898""
","
","
","""event"",""trial"",""time""
""fullscreenenter"",""0"",""2898""
","
","null","<p></p>","null","","","","","","","","","","","","","","","","","","","","","","","",""
"","do_trial","162","424490","0.0-90.0-0.0","""event"",""trial"",""time""
""fullscreenenter"",""0"",""2898""
","
","
","""event"",""trial"",""time""
""fullscreenenter"",""0"",""2898""
","
","9","","","","","","","","51","0,1,1","6","blank","301","null","0.12932368336498476","0.5925998646674028","0.3293471021114667","1","","","","","","","","",""
"","html-keyboard-response","163","425492","0.0-90.0-1.0","""event"",""trial"",""time""
""fullscreenenter"",""0"",""2898""
","
","
","""event"",""trial"",""time""
""fullscreenenter"",""0"",""2898""
","
","null","<p></p>","null","","","","","","","","","","","","","","","","","","","","","","","",""
"","do_trial","164","428107","0.0-91.0-0.0","""event"",""trial"",""time""
""fullscreenenter"",""0"",""2898""
","
","
","""event"",""trial"",""time""
""fullscreenenter"",""0"",""2898""
","
","50","","","","","","","","51","1,1,0","6","blank","302","null","0.2450906543535978","0.6579758221857924","0.3949335199599239","0","","","","","","","","",""
"","html-keyboard-response","165","429109","0.0-91.0-1.0","""event"",""trial"",""time""
""fullscreenenter"",""0"",""2898""
","
","
","""event"",""trial"",""time""
""fullscreenenter"",""0"",""2898""
","
","null","<p></p>","null","","","","","","","","","","","","","","","","","","","","","","","",""
"","do_trial","166","431858","0.0-92.0-0.0","""event"",""trial"",""time""
""fullscreenenter"",""0"",""2898""
","
","
","""event"",""trial"",""time""
""fullscreenenter"",""0"",""2898""
","
","184.09999999776483","","","","","","","","51","0,0,0","6","blank","303","null","0.18287467491974022","0.6502338313897116","0.5052479800297098","0","","","","","","","","",""
"","html-keyboard-response","167","432861","0.0-92.0-1.0","""event"",""trial"",""time""
""fullscreenenter"",""0"",""2898""
","
","
","""event"",""trial"",""time""
""fullscreenenter"",""0"",""2898""
","
","null","<p></p>","null","","","","","","","","","","","","","","","","","","","","","","","",""
"","do_trial","168","435855","0.0-93.0-0.0","""event"",""trial"",""time""
""fullscreenenter"",""0"",""2898""
","
","
","""event"",""trial"",""time""
""fullscreenenter"",""0"",""2898""
","
","429.6000000014901","","","","","","","","51","0,0,1","6","blank","304","null","0.06768276756939842","0.7151175708573234","0.4510296615767935","1","","","","","","","","",""
"","html-keyboard-response","169","436857","0.0-93.0-1.0","""event"",""trial"",""time""
""fullscreenenter"",""0"",""2898""
","
","
","""event"",""trial"",""time""
""fullscreenenter"",""0"",""2898""
","
","null","<p></p>","null","","","","","","","","","","","","","","","","","","","","","","","",""
"","do_trial","170","439832","0.0-94.0-0.0","""event"",""trial"",""time""
""fullscreenenter"",""0"",""2898""
","
","
","""event"",""trial"",""time""
""fullscreenenter"",""0"",""2898""
","
","406.30000000074506","","","","","","","","51","0,0,1","6","blank","305","null","0.08659314414812812","0.6528320325450683","0.4414500845330015","1","","","","","","","","",""
"","html-keyboard-response","171","440834","0.0-94.0-1.0","""event"",""trial"",""time""
""fullscreenenter"",""0"",""2898""
","
","
","""event"",""trial"",""time""
""fullscreenenter"",""0"",""2898""
","
","null","<p></p>","null","","","","","","","","","","","","","","","","","","","","","","","",""
"","do_recog","172","443388","0.0-95.0-0.0","""event"",""trial"",""time""
""fullscreenenter"",""0"",""2898""
","
","
","""event"",""trial"",""time""
""fullscreenenter"",""0"",""2898""
","
","1045.3999999985099","","","","","","","","55","","","","306","probe-11","","","","","1","[object Object]","196","4","0","","","",""
"","html-keyboard-response","173","444391","0.0-95.0-1.0","""event"",""trial"",""time""
""fullscreenenter"",""0"",""2898""
","
","
","""event"",""trial"",""time""
""fullscreenenter"",""0"",""2898""
","
","null","<p></p>","null","","","","","","","","","","","","","","","","","","","","","","","",""
"","do_trial","174","447129","0.0-96.0-0.0","""event"",""trial"",""time""
""fullscreenenter"",""0"",""2898""
","
","
","""event"",""trial"",""time""
""fullscreenenter"",""0"",""2898""
","
","172.60000000149012","","","","","","","","51","0,0,1","6","blank","307","null","0.05297329359409263","0.6512858589241445","0.5054773926514623","1","","","","","","","","",""
"","html-keyboard-response","175","448131","0.0-96.0-1.0","""event"",""trial"",""time""
""fullscreenenter"",""0"",""2898""
","
","
","""event"",""trial"",""time""
""fullscreenenter"",""0"",""2898""
","
","null","<p></p>","null","","","","","","","","","","","","","","","","","","","","","","","",""
"","do_trial","176","450986","0.0-97.0-0.0","""event"",""trial"",""time""
""fullscreenenter"",""0"",""2898""
","
","
","""event"",""trial"",""time""
""fullscreenenter"",""0"",""2898""
","
","290.9000000022352","","","","","","","","51","0,1,0","6","blank","308","null","0.06778599280742509","0.6591004117410659","0.2787091509766418","0","","","","","","","","",""
"","html-keyboard-response","177","451989","0.0-97.0-1.0","""event"",""trial"",""time""
""fullscreenenter"",""0"",""2898""
","
","
","""event"",""trial"",""time""
""fullscreenenter"",""0"",""2898""
","
","null","<p></p>","null","","","","","","","","","","","","","","","","","","","","","","","",""
"","break","178","452919","0.0-98.0-0.0","""event"",""trial"",""time""
""fullscreenenter"",""0"",""2898""
","
","
","""event"",""trial"",""time""
""fullscreenenter"",""0"",""2898""
","
","926.3999999985099","<div class='center'><p>Time to take a quick break! You have 2 minutes to rest, but you can move on sooner if you'd like.</p><p> Press the <b>space bar</b> to continue.</p></div>","32","","","","","","","","","","","","","","","","","","","","","","","",""
"","do_trial","179","456195","0.0-98.0-1.0","""event"",""trial"",""time""
""fullscreenenter"",""0"",""2898""
","
","
","""event"",""trial"",""time""
""fullscreenenter"",""0"",""2898""
","
","713.8999999985099","","","","","","","","51","0,0,0","6","blank","309","null","0.0696070632553382","0.5382970194195168","0.2517229211309292","0","","","","","","","","",""
"","html-keyboard-response","180","457198","0.0-98.0-2.0","""event"",""trial"",""time""
""fullscreenenter"",""0"",""2898""
","
","
","""event"",""trial"",""time""
""fullscreenenter"",""0"",""2898""
","
","null","<p></p>","null","","","","","","","","","","","","","","","","","","","","","","","",""
"","do_trial","181","459931","0.0-99.0-0.0","""event"",""trial"",""time""
""fullscreenenter"",""0"",""2898""
","
","
","""event"",""trial"",""time""
""fullscreenenter"",""0"",""2898""
","
","167.10000000149012","","","","","","","","50","0,1,0","6","blank","310","null","0.07184030754185167","0.459309939438904","0.21149389599696708","1","","","","","","","","",""
"","html-keyboard-response","182","460933","0.0-99.0-1.0","""event"",""trial"",""time""
""fullscreenenter"",""0"",""2898""
","
","
","""event"",""trial"",""time""
""fullscreenenter"",""0"",""2898""
","
","null","<p></p>","null","","","","","","","","","","","","","","","","","","","","","","","",""
"","do_recog","183","463858","0.0-100.0-0.0","""event"",""trial"",""time""
""fullscreenenter"",""0"",""2898""
","
","
","""event"",""trial"",""time""
""fullscreenenter"",""0"",""2898""
","
","1414.6000000014901","","","","","","","","53","","","","311","probe-49","","","","","1","[object Object]","37","0","1","","","",""
"","html-keyboard-response","184","464861","0.0-100.0-1.0","""event"",""trial"",""time""
""fullscreenenter"",""0"",""2898""
","
","
","""event"",""trial"",""time""
""fullscreenenter"",""0"",""2898""
","
","null","<p></p>","null","","","","","","","","","","","","","","","","","","","","","","","",""
"","do_trial","185","467517","0.0-101.0-0.0","""event"",""trial"",""time""
""fullscreenenter"",""0"",""2898""
","
","
","""event"",""trial"",""time""
""fullscreenenter"",""0"",""2898""
","
","90.69999999925494","","","","","","","","50","0,0,0","6","blank","312","null","0.08817663947913415","0.5380658705278424","0.20482591526531507","0","","","","","","","","",""
"","html-keyboard-response","186","468519","0.0-101.0-1.0","""event"",""trial"",""time""
""fullscreenenter"",""0"",""2898""
","
","
","""event"",""trial"",""time""
""fullscreenenter"",""0"",""2898""
","
","null","<p></p>","null","","","","","","","","","","","","","","","","","","","","","","","",""
"","do_trial","187","471137","0.0-102.0-0.0","""event"",""trial"",""time""
""fullscreenenter"",""0"",""2898""
","
","
","""event"",""trial"",""time""
""fullscreenenter"",""0"",""2898""
","
","52.099999997764826","","","","","","","","50","0,0,0","6","blank","313","null","0.16310436149819055","0.5486021337344789","0.34668316851322234","0","","","","","","","","",""
"","html-keyboard-response","188","472139","0.0-102.0-1.0","""event"",""trial"",""time""
""fullscreenenter"",""0"",""2898""
","
","
","""event"",""trial"",""time""
""fullscreenenter"",""0"",""2898""
","
","null","<p></p>","null","","","","","","","","","","","","","","","","","","","","","","","",""
"","do_trial","189","474704","0.0-103.0-0.0","""event"",""trial"",""time""
""fullscreenenter"",""0"",""2898""
","
","
","""event"",""trial"",""time""
""fullscreenenter"",""0"",""2898""
","
","0.30000000074505806","","","","","","","","50","1,0,0","6","blank","314","null","0.1112836079359577","0.5766727213914716","0.2743286171165973","0","","","","","","","","",""
"","html-keyboard-response","190","475706","0.0-103.0-1.0","""event"",""trial"",""time""
""fullscreenenter"",""0"",""2898""
","
","
","""event"",""trial"",""time""
""fullscreenenter"",""0"",""2898""
","
","null","<p></p>","null","","","","","","","","","","","","","","","","","","","","","","","",""
"","do_trial","191","478296","0.0-104.0-0.0","""event"",""trial"",""time""
""fullscreenenter"",""0"",""2898""
","
","
","""event"",""trial"",""time""
""fullscreenenter"",""0"",""2898""
","
","26.5","","","","","","","","49","0,1,0","6","blank","315","null","0.21601878295353294","0.7056659523508211","0.41771630786526104","0","","","","","","","","",""
"","html-keyboard-response","192","479298","0.0-104.0-1.0","""event"",""trial"",""time""
""fullscreenenter"",""0"",""2898""
","
","
","""event"",""trial"",""time""
""fullscreenenter"",""0"",""2898""
","
","null","<p></p>","null","","","","","","","","","","","","","","","","","","","","","","","",""
"","do_trial","193","482393","0.0-105.0-0.0","""event"",""trial"",""time""
""fullscreenenter"",""0"",""2898""
","
","
","""event"",""trial"",""time""
""fullscreenenter"",""0"",""2898""
","
","532.1000000014901","","","","","","","","51","0,1,0","6","blank","316","null","0.23597317780756247","0.5671927589360152","0.3328941676621565","0","","","","","","","","",""
"","html-keyboard-response","194","483396","0.0-105.0-1.0","""event"",""trial"",""time""
""fullscreenenter"",""0"",""2898""
","
","
","""event"",""trial"",""time""
""fullscreenenter"",""0"",""2898""
","
","null","<p></p>","null","","","","","","","","","","","","","","","","","","","","","","","",""
"","do_recog","195","485971","0.0-106.0-0.0","""event"",""trial"",""time""
""fullscreenenter"",""0"",""2898""
","
","
","""event"",""trial"",""time""
""fullscreenenter"",""0"",""2898""
","
","1067.0999999977648","","","","","","","","53","","","","317","probe-100","","","","","1","[object Object]","119","2","1","","","",""
"","html-keyboard-response","196","486975","0.0-106.0-1.0","""event"",""trial"",""time""
""fullscreenenter"",""0"",""2898""
","
","
","""event"",""trial"",""time""
""fullscreenenter"",""0"",""2898""
","
","null","<p></p>","null","","","","","","","","","","","","","","","","","","","","","","","",""
"","do_trial","197","489581","0.0-107.0-0.0","""event"",""trial"",""time""
""fullscreenenter"",""0"",""2898""
","
","
","""event"",""trial"",""time""
""fullscreenenter"",""0"",""2898""
","
","42.900000002235174","","","","","","","","49","0,1,1","6","blank","318","null","0.16240025300394645","0.7542804663004486","0.26057625473079904","0","","","","","","","","",""
"","html-keyboard-response","198","490584","0.0-107.0-1.0","""event"",""trial"",""time""
""fullscreenenter"",""0"",""2898""
","
","
","""event"",""trial"",""time""
""fullscreenenter"",""0"",""2898""
","
","null","<p></p>","null","","","","","","","","","","","","","","","","","","","","","","","",""
"","do_trial","199","493206","0.0-108.0-0.0","""event"",""trial"",""time""
""fullscreenenter"",""0"",""2898""
","
","
","""event"",""trial"",""time""
""fullscreenenter"",""0"",""2898""
","
","58.19999999925494","","","","","","","","49","0,1,0","6","blank","319","null","0.10377344390467413","0.7940647842800934","0.26429881242806014","0","","","","","","","","",""
"","html-keyboard-response","200","494208","0.0-108.0-1.0","""event"",""trial"",""time""
""fullscreenenter"",""0"",""2898""
","
","
","""event"",""trial"",""time""
""fullscreenenter"",""0"",""2898""
","
","null","<p></p>","null","","","","","","","","","","","","","","","","","","","","","","","",""
"","do_trial","201","497022","0.0-109.0-0.0","""event"",""trial"",""time""
""fullscreenenter"",""0"",""2898""
","
","
","""event"",""trial"",""time""
""fullscreenenter"",""0"",""2898""
","
","250.5","","","","","","","","50","0,1,0","6","blank","320","null","0.14467811517156137","0.6458225629745742","0.21504065187743643","1","","","","","","","","",""
"","html-keyboard-response","202","498025","0.0-109.0-1.0","""event"",""trial"",""time""
""fullscreenenter"",""0"",""2898""
","
","
","""event"",""trial"",""time""
""fullscreenenter"",""0"",""2898""
","
","null","<p></p>","null","","","","","","","","","","","","","","","","","","","","","","","",""
"","do_recog","203","500586","0.0-110.0-0.0","""event"",""trial"",""time""
""fullscreenenter"",""0"",""2898""
","
","
","""event"",""trial"",""time""
""fullscreenenter"",""0"",""2898""
","
","1051.199999999255","","","","","","","","53","","","","321","probe-58","","","","","1","[object Object]","156","3","1","","","",""
"","html-keyboard-response","204","501588","0.0-110.0-1.0","""event"",""trial"",""time""
""fullscreenenter"",""0"",""2898""
","
","
","""event"",""trial"",""time""
""fullscreenenter"",""0"",""2898""
","
","null","<p></p>","null","","","","","","","","","","","","","","","","","","","","","","","",""
"","do_trial","205","504501","0.0-111.0-0.0","""event"",""trial"",""time""
""fullscreenenter"",""0"",""2898""
","
","
","""event"",""trial"",""time""
""fullscreenenter"",""0"",""2898""
","
","348.6000000014901","","","","","","","","50","0,1,0","6","blank","322","null","0.10248600015093452","0.8399025965995875","0.29780124073362624","1","","","","","","","","",""
"","html-keyboard-response","206","505504","0.0-111.0-1.0","""event"",""trial"",""time""
""fullscreenenter"",""0"",""2898""
","
","
","""event"",""trial"",""time""
""fullscreenenter"",""0"",""2898""
","
","null","<p></p>","null","","","","","","","","","","","","","","","","","","","","","","","",""
"","do_trial","207","508068","0.0-112.0-0.0","""event"",""trial"",""time""
""fullscreenenter"",""0"",""2898""
","
","
","""event"",""trial"",""time""
""fullscreenenter"",""0"",""2898""
","
","0.19999999925494194","","","","","","","","50","0,1,0","6","blank","323","null","0.12721968069298842","0.9292334148069357","0.3719035085761556","1","","","","","","","","",""
"","html-keyboard-response","208","509071","0.0-112.0-1.0","""event"",""trial"",""time""
""fullscreenenter"",""0"",""2898""
","
","
","""event"",""trial"",""time""
""fullscreenenter"",""0"",""2898""
","
","null","<p></p>","null","","","","","","","","","","","","","","","","","","","","","","","",""
"","do_trial","209","512017","0.0-113.0-0.0","""event"",""trial"",""time""
""fullscreenenter"",""0"",""2898""
","
","
","""event"",""trial"",""time""
""fullscreenenter"",""0"",""2898""
","
","383.30000000074506","","","","","","","","50","0,1,1","6","blank","324","null","0.10493322498153043","0.7878736637463566","0.30629756449562917","1","","","","","","","","",""
"","html-keyboard-response","210","513019","0.0-113.0-1.0","""event"",""trial"",""time""
""fullscreenenter"",""0"",""2898""
","
","
","""event"",""trial"",""time""
""fullscreenenter"",""0"",""2898""
","
","null","<p></p>","null","","","","","","","","","","","","","","","","","","","","","","","",""
"","do_recog","211","515673","0.0-114.0-0.0","""event"",""trial"",""time""
""fullscreenenter"",""0"",""2898""
","
","
","""event"",""trial"",""time""
""fullscreenenter"",""0"",""2898""
","
","1143.300000000745","","","","","","","","53","","","","325","probe-27","","","","","1","[object Object]","35","0","1","","","",""
"","html-keyboard-response","212","516676","0.0-114.0-1.0","""event"",""trial"",""time""
""fullscreenenter"",""0"",""2898""
","
","
","""event"",""trial"",""time""
""fullscreenenter"",""0"",""2898""
","
","null","<p></p>","null","","","","","","","","","","","","","","","","","","","","","","","",""
"","do_trial","213","519242","0.0-115.0-0.0","""event"",""trial"",""time""
""fullscreenenter"",""0"",""2898""
","
","
","""event"",""trial"",""time""
""fullscreenenter"",""0"",""2898""
","
","0.19999999925494194","","","","","","","","50","0,1,0","6","blank","326","null","0.18840437176710864","0.6971425236568698","0.3869352544805611","1","","","","","","","","",""
"","html-keyboard-response","214","520245","0.0-115.0-1.0","""event"",""trial"",""time""
""fullscreenenter"",""0"",""2898""
","
","
","""event"",""trial"",""time""
""fullscreenenter"",""0"",""2898""
","
","null","<p></p>","null","","","","","","","","","","","","","","","","","","","","","","","",""
"","do_trial","215","522999","0.0-116.0-0.0","""event"",""trial"",""time""
""fullscreenenter"",""0"",""2898""
","
","
","""event"",""trial"",""time""
""fullscreenenter"",""0"",""2898""
","
","189.40000000223517","","","","","","","","50","0,0,1","6","blank","327","null","0.19088841241420693","0.5740010773313822","0.34321801030505955","0","","","","","","","","",""
"","html-keyboard-response","216","524002","0.0-116.0-1.0","""event"",""trial"",""time""
""fullscreenenter"",""0"",""2898""
","
","
","""event"",""trial"",""time""
""fullscreenenter"",""0"",""2898""
","
","null","<p></p>","null","","","","","","","","","","","","","","","","","","","","","","","",""
"","do_trial","217","526565","0.0-117.0-0.0","""event"",""trial"",""time""
""fullscreenenter"",""0"",""2898""
","
","
","""event"",""trial"",""time""
""fullscreenenter"",""0"",""2898""
","
","0.19999999925494194","","","","","","","","50","0,1,0","6","blank","328","null","0.07937891423832667","0.6632471303813869","0.31468851721033586","1","","","","","","","","",""
"","html-keyboard-response","218","527568","0.0-117.0-1.0","""event"",""trial"",""time""
""fullscreenenter"",""0"",""2898""
","
","
","""event"",""trial"",""time""
""fullscreenenter"",""0"",""2898""
","
","null","<p></p>","null","","","","","","","","","","","","","","","","","","","","","","","",""
"","do_trial","219","530401","0.0-118.0-0.0","""event"",""trial"",""time""
""fullscreenenter"",""0"",""2898""
","
","
","""event"",""trial"",""time""
""fullscreenenter"",""0"",""2898""
","
","269.19999999925494","","","","","","","","50","0,1,0","6","blank","329","null","0.09784221303003371","0.6462455356850829","0.4318932847803387","1","","","","","","","","",""
"","html-keyboard-response","220","531403","0.0-118.0-1.0","""event"",""trial"",""time""
""fullscreenenter"",""0"",""2898""
","
","
","""event"",""trial"",""time""
""fullscreenenter"",""0"",""2898""
","
","null","<p></p>","null","","","","","","","","","","","","","","","","","","","","","","","",""
"","do_trial","221","534357","0.0-119.0-0.0","""event"",""trial"",""time""
""fullscreenenter"",""0"",""2898""
","
","
","""event"",""trial"",""time""
""fullscreenenter"",""0"",""2898""
","
","389.3999999985099","","","","","","","","50","0,0,0","6","blank","330","null","0.1437599691353915","0.5574207123977357","0.21823303592849935","0","","","","","","","","",""
"","html-keyboard-response","222","535360","0.0-119.0-1.0","""event"",""trial"",""time""
""fullscreenenter"",""0"",""2898""
","
","
","""event"",""trial"",""time""
""fullscreenenter"",""0"",""2898""
","
","null","<p></p>","null","","","","","","","","","","","","","","","","","","","","","","","",""
"","do_recog","223","537891","0.0-120.0-0.0","""event"",""trial"",""time""
""fullscreenenter"",""0"",""2898""
","
","
","""event"",""trial"",""time""
""fullscreenenter"",""0"",""2898""
","
","1022.1000000014901","","","","","","","","53","","","","331","probe-174","","","","","1","[object Object]","39","0","1","","","",""
"","html-keyboard-response","224","538893","0.0-120.0-1.0","""event"",""trial"",""time""
""fullscreenenter"",""0"",""2898""
","
","
","""event"",""trial"",""time""
""fullscreenenter"",""0"",""2898""
","
","null","<p></p>","null","","","","","","","","","","","","","","","","","","","","","","","",""
"","do_trial","225","541794","0.0-121.0-0.0","""event"",""trial"",""time""
""fullscreenenter"",""0"",""2898""
","
","
","""event"",""trial"",""time""
""fullscreenenter"",""0"",""2898""
","
","335.5999999977648","","","","","","","","50","0,0,0","6","blank","332","null","0.09368904810736517","0.6755988203997096","0.2548198703318327","0","","","","","","","","",""
"","html-keyboard-response","226","542796","0.0-121.0-1.0","""event"",""trial"",""time""
""fullscreenenter"",""0"",""2898""
","
","
","""event"",""trial"",""time""
""fullscreenenter"",""0"",""2898""
","
","null","<p></p>","null","","","","","","","","","","","","","","","","","","","","","","","",""
"","do_trial","227","545779","0.0-122.0-0.0","""event"",""trial"",""time""
""fullscreenenter"",""0"",""2898""
","
","
","""event"",""trial"",""time""
""fullscreenenter"",""0"",""2898""
","
","419.9000000022352","","","","","","","","49","0,1,0","6","blank","333","null","0.19702884428368847","0.6882037589991699","0.24739648696029823","0","","","","","","","","",""
"","html-keyboard-response","228","546781","0.0-122.0-1.0","""event"",""trial"",""time""
""fullscreenenter"",""0"",""2898""
","
","
","""event"",""trial"",""time""
""fullscreenenter"",""0"",""2898""
","
","null","<p></p>","null","","","","","","","","","","","","","","","","","","","","","","","",""
"","do_trial","229","549346","0.0-123.0-0.0","""event"",""trial"",""time""
""fullscreenenter"",""0"",""2898""
","
","
","""event"",""trial"",""time""
""fullscreenenter"",""0"",""2898""
","
","0.3999999985098839","","","","","","","","51","0,0,1","6","blank","334","null","0.06167698940024487","0.6390872567292746","0.3957976654430631","1","","","","","","","","",""
"","html-keyboard-response","230","550348","0.0-123.0-1.0","""event"",""trial"",""time""
""fullscreenenter"",""0"",""2898""
","
","
","""event"",""trial"",""time""
""fullscreenenter"",""0"",""2898""
","
","null","<p></p>","null","","","","","","","","","","","","","","","","","","","","","","","",""
"","do_trial","231","553224","0.0-124.0-0.0","""event"",""trial"",""time""
""fullscreenenter"",""0"",""2898""
","
","
","""event"",""trial"",""time""
""fullscreenenter"",""0"",""2898""
","
","310.79999999701977","","","","","","","","51","0,1,1","6","blank","335","null","0.06992902365548224","0.5517938709688458","0.3548957319598143","1","","","","","","","","",""
"","html-keyboard-response","232","554227","0.0-124.0-1.0","""event"",""trial"",""time""
""fullscreenenter"",""0"",""2898""
","
","
","""event"",""trial"",""time""
""fullscreenenter"",""0"",""2898""
","
","null","<p></p>","null","","","","","","","","","","","","","","","","","","","","","","","",""
"","do_trial","233","557089","0.0-125.0-0.0","""event"",""trial"",""time""
""fullscreenenter"",""0"",""2898""
","
","
","""event"",""trial"",""time""
""fullscreenenter"",""0"",""2898""
","
","298.1000000014901","","","","","","","","51","0,1,0","6","blank","336","null","0.17927397176294804","0.5180114340103592","0.3609391700101467","0","","","","","","","","",""
"","html-keyboard-response","234","558092","0.0-125.0-1.0","""event"",""trial"",""time""
""fullscreenenter"",""0"",""2898""
","
","
","""event"",""trial"",""time""
""fullscreenenter"",""0"",""2898""
","
","null","<p></p>","null","","","","","","","","","","","","","","","","","","","","","","","",""
"","do_trial","235","560656","0.0-126.0-0.0","""event"",""trial"",""time""
""fullscreenenter"",""0"",""2898""
","
","
","""event"",""trial"",""time""
""fullscreenenter"",""0"",""2898""
","
","0.19999999925494194","","","","","","","","51","0,0,1","6","blank","337","null","0.15326713217894092","0.4640680736611191","0.35712447773303274","1","","","","","","","","",""
"","html-keyboard-response","236","561659","0.0-126.0-1.0","""event"",""trial"",""time""
""fullscreenenter"",""0"",""2898""
","
","
","""event"",""trial"",""time""
""fullscreenenter"",""0"",""2898""
","
","null","<p></p>","null","","","","","","","","","","","","","","","","","","","","","","","",""
"","do_trial","237","564640","0.0-127.0-0.0","""event"",""trial"",""time""
""fullscreenenter"",""0"",""2898""
","
","
","""event"",""trial"",""time""
""fullscreenenter"",""0"",""2898""
","
","417","","","","","","","","51","0,1,0","6","blank","338","null","0.07290007569440095","0.36184703071173785","0.3664879306451844","0","","","","","","","","",""
"","html-keyboard-response","238","565643","0.0-127.0-1.0","""event"",""trial"",""time""
""fullscreenenter"",""0"",""2898""
","
","
","""event"",""trial"",""time""
""fullscreenenter"",""0"",""2898""
","
","null","<p></p>","null","","","","","","","","","","","","","","","","","","","","","","","",""
"","do_recog","239","568351","0.0-128.0-0.0","""event"",""trial"",""time""
""fullscreenenter"",""0"",""2898""
","
","
","""event"",""trial"",""time""
""fullscreenenter"",""0"",""2898""
","
","1197.9000000022352","","","","","","","","53","","","","339","probe-57","","","","","1","[object Object]","195","4","1","","","",""
"","html-keyboard-response","240","569353","0.0-128.0-1.0","""event"",""trial"",""time""
""fullscreenenter"",""0"",""2898""
","
","
","""event"",""trial"",""time""
""fullscreenenter"",""0"",""2898""
","
","null","<p></p>","null","","","","","","","","","","","","","","","","","","","","","","","",""
"","do_trial","241","572239","0.0-129.0-0.0","""event"",""trial"",""time""
""fullscreenenter"",""0"",""2898""
","
","
","""event"",""trial"",""time""
""fullscreenenter"",""0"",""2898""
","
","320.30000000074506","","","","","","","","49","0,1,0","6","blank","340","null","0.14232024971881152","0.49601949564176695","0.3850562810730697","0","","","","","","","","",""
"","html-keyboard-response","242","573242","0.0-129.0-1.0","""event"",""trial"",""time""
""fullscreenenter"",""0"",""2898""
","
","
","""event"",""trial"",""time""
""fullscreenenter"",""0"",""2898""
","
","null","<p></p>","null","","","","","","","","","","","","","","","","","","","","","","","",""
"","do_trial","243","575836","0.0-130.0-0.0","""event"",""trial"",""time""
""fullscreenenter"",""0"",""2898""
","
","
","""event"",""trial"",""time""
""fullscreenenter"",""0"",""2898""
","
","29.100000001490116","","","","","","","","51","0,1,0","6","blank","341","null","0.06105700410813846","0.7526585448288892","0.25373036777558666","0","","","","","","","","",""
"","html-keyboard-response","244","576839","0.0-130.0-1.0","""event"",""trial"",""time""
""fullscreenenter"",""0"",""2898""
","
","
","""event"",""trial"",""time""
""fullscreenenter"",""0"",""2898""
","
","null","<p></p>","null","","","","","","","","","","","","","","","","","","","","","","","",""
"","do_trial","245","579403","0.0-131.0-0.0","""event"",""trial"",""time""
""fullscreenenter"",""0"",""2898""
","
","
","""event"",""trial"",""time""
""fullscreenenter"",""0"",""2898""
","
","0.10000000149011612","","","","","","","","50","0,1,0","6","blank","342","null","0.10361277486941665","0.7317829622397639","0.16257895703708133","1","","","","","","","","",""
"","html-keyboard-response","246","580406","0.0-131.0-1.0","""event"",""trial"",""time""
""fullscreenenter"",""0"",""2898""
","
","
","""event"",""trial"",""time""
""fullscreenenter"",""0"",""2898""
","
","null","<p></p>","null","","","","","","","","","","","","","","","","","","","","","","","",""
"","do_trial","247","582995","0.0-132.0-0.0","""event"",""trial"",""time""
""fullscreenenter"",""0"",""2898""
","
","
","""event"",""trial"",""time""
""fullscreenenter"",""0"",""2898""
","
","26","","","","","","","","50","0,1,0","6","blank","343","null","0.12416832187158887","0.8321291582662589","0.10959743825693462","1","","","","","","","","",""
"","html-keyboard-response","248","583998","0.0-132.0-1.0","""event"",""trial"",""time""
""fullscreenenter"",""0"",""2898""
","
","
","""event"",""trial"",""time""
""fullscreenenter"",""0"",""2898""
","
","null","<p></p>","null","","","","","","","","","","","","","","","","","","","","","","","",""
"","do_recog","249","586618","0.0-133.0-0.0","""event"",""trial"",""time""
""fullscreenenter"",""0"",""2898""
","
","
","""event"",""trial"",""time""
""fullscreenenter"",""0"",""2898""
","
","1110.199999999255","","","","","","","","53","","","","344","probe-198","","","","","1","[object Object]","74","1","1","","","",""
"","html-keyboard-response","250","587620","0.0-133.0-1.0","""event"",""trial"",""time""
""fullscreenenter"",""0"",""2898""
","
","
","""event"",""trial"",""time""
""fullscreenenter"",""0"",""2898""
","
","null","<p></p>","null","","","","","","","","","","","","","","","","","","","","","","","",""
"","do_trial","251","590432","0.0-134.0-0.0","""event"",""trial"",""time""
""fullscreenenter"",""0"",""2898""
","
","
","""event"",""trial"",""time""
""fullscreenenter"",""0"",""2898""
","
","247.30000000074506","","","","","","","","50","0,0,1","6","blank","345","null","0.19070256376100755","0.6208531821587369","0.2064643489606368","0","","","","","","","","",""
"","html-keyboard-response","252","591435","0.0-134.0-1.0","""event"",""trial"",""time""
""fullscreenenter"",""0"",""2898""
","
","
","""event"",""trial"",""time""
""fullscreenenter"",""0"",""2898""
","
","null","<p></p>","null","","","","","","","","","","","","","","","","","","","","","","","",""
"","do_recog","253","594012","0.0-135.0-0.0","""event"",""trial"",""time""
""fullscreenenter"",""0"",""2898""
","
","
","""event"",""trial"",""time""
""fullscreenenter"",""0"",""2898""
","
","1069","","","","","","","","53","","","","346","probe-199","","","","","1","[object Object]","197","4","1","","","",""
"","html-keyboard-response","254","595015","0.0-135.0-1.0","""event"",""trial"",""time""
""fullscreenenter"",""0"",""2898""
","
","
","""event"",""trial"",""time""
""fullscreenenter"",""0"",""2898""
","
","null","<p></p>","null","","","","","","","","","","","","","","","","","","","","","","","",""
"","do_trial","255","597843","0.0-136.0-0.0","""event"",""trial"",""time""
""fullscreenenter"",""0"",""2898""
","
","
","""event"",""trial"",""time""
""fullscreenenter"",""0"",""2898""
","
","264","","","","","","","","49","0,1,0","6","blank","347","null","0.25535742267157824","0.445928247761119","0.33090688752404973","0","","","","","","","","",""
"","html-keyboard-response","256","598846","0.0-136.0-1.0","""event"",""trial"",""time""
""fullscreenenter"",""0"",""2898""
","
","
","""event"",""trial"",""time""
""fullscreenenter"",""0"",""2898""
","
","null","<p></p>","null","","","","","","","","","","","","","","","","","","","","","","","",""
"","do_trial","257","601579","0.0-137.0-0.0","""event"",""trial"",""time""
""fullscreenenter"",""0"",""2898""
","
","
","""event"",""trial"",""time""
""fullscreenenter"",""0"",""2898""
","
","168.20000000298023","","","","","","","","51","1,1,1","6","blank","348","null","0.36190751284661254","0.3763803794846187","0.5981412217727882","1","","","","","","","","",""
"","html-keyboard-response","258","602582","0.0-137.0-1.0","""event"",""trial"",""time""
""fullscreenenter"",""0"",""2898""
","
","
","""event"",""trial"",""time""
""fullscreenenter"",""0"",""2898""
","
","null","<p></p>","null","","","","","","","","","","","","","","","","","","","","","","","",""
"","break","259","603585","0.0-138.0-0.0","""event"",""trial"",""time""
""fullscreenenter"",""0"",""2898""
","
","
","""event"",""trial"",""time""
""fullscreenenter"",""0"",""2898""
","
","1000.8999999985099","<div class='center'><p>Time to take a quick break! You have 2 minutes to rest, but you can move on sooner if you'd like.</p><p> Press the <b>space bar</b> to continue.</p></div>","32","","","","","","","","","","","","","","","","","","","","","","","",""
"","do_recog","260","606179","0.0-138.0-1.0","""event"",""trial"",""time""
""fullscreenenter"",""0"",""2898""
","
","
","""event"",""trial"",""time""
""fullscreenenter"",""0"",""2898""
","
","1085.4000000022352","","","","","","","","53","","","","349","probe-109","","","","","1","[object Object]","78","1","1","","","",""
"","html-keyboard-response","261","607182","0.0-138.0-2.0","""event"",""trial"",""time""
""fullscreenenter"",""0"",""2898""
","
","
","""event"",""trial"",""time""
""fullscreenenter"",""0"",""2898""
","
","null","<p></p>","null","","","","","","","","","","","","","","","","","","","","","","","",""
"","do_trial","262","609809","0.0-139.0-0.0","""event"",""trial"",""time""
""fullscreenenter"",""0"",""2898""
","
","
","""event"",""trial"",""time""
""fullscreenenter"",""0"",""2898""
","
","62.600000001490116","","","","","","","","51","1,1,0","6","blank","350","null","0.21266023299892226","0.24474947190480403","0.603378737376388","0","","","","","","","","",""
"","html-keyboard-response","263","610812","0.0-139.0-1.0","""event"",""trial"",""time""
""fullscreenenter"",""0"",""2898""
","
","
","""event"",""trial"",""time""
""fullscreenenter"",""0"",""2898""
","
","null","<p></p>","null","","","","","","","","","","","","","","","","","","","","","","","",""
"","do_trial","264","613474","0.0-140.0-0.0","""event"",""trial"",""time""
""fullscreenenter"",""0"",""2898""
","
","
","""event"",""trial"",""time""
""fullscreenenter"",""0"",""2898""
","
","99.60000000149012","","","","","","","","50","0,0,1","6","blank","351","null","0.232000815484962","0.21063146282510836","0.5790556476922629","0","","","","","","","","",""
"","html-keyboard-response","265","614477","0.0-140.0-1.0","""event"",""trial"",""time""
""fullscreenenter"",""0"",""2898""
","
","
","""event"",""trial"",""time""
""fullscreenenter"",""0"",""2898""
","
","null","<p></p>","null","","","","","","","","","","","","","","","","","","","","","","","",""
"","do_trial","266","617094","0.0-141.0-0.0","""event"",""trial"",""time""
""fullscreenenter"",""0"",""2898""
","
","
","""event"",""trial"",""time""
""fullscreenenter"",""0"",""2898""
","
","53.19999999925494","","","","","","","","49","0,0,1","6","blank","352","null","0.1872918410275418","0.17807858890061648","0.5499526047999408","0","","","","","","","","",""
"","html-keyboard-response","267","618096","0.0-141.0-1.0","""event"",""trial"",""time""
""fullscreenenter"",""0"",""2898""
","
","
","""event"",""trial"",""time""
""fullscreenenter"",""0"",""2898""
","
","null","<p></p>","null","","","","","","","","","","","","","","","","","","","","","","","",""
"","do_trial","268","620706","0.0-142.0-0.0","""event"",""trial"",""time""
""fullscreenenter"",""0"",""2898""
","
","
","""event"",""trial"",""time""
""fullscreenenter"",""0"",""2898""
","
","45.29999999701977","","","","","","","","51","0,0,0","6","blank","353","null","0.24871434671865555","0.08912874885057245","0.57540968782081","0","","","","","","","","",""
"","html-keyboard-response","269","621708","0.0-142.0-1.0","""event"",""trial"",""time""
""fullscreenenter"",""0"",""2898""
","
","
","""event"",""trial"",""time""
""fullscreenenter"",""0"",""2898""
","
","null","<p></p>","null","","","","","","","","","","","","","","","","","","","","","","","",""
"","do_trial","270","624316","0.0-143.0-0.0","""event"",""trial"",""time""
""fullscreenenter"",""0"",""2898""
","
","
","""event"",""trial"",""time""
""fullscreenenter"",""0"",""2898""
","
","44.69999999925494","","","","","","","","50","0,0,1","6","blank","354","null","0.15092235749965774","0.13978092604013562","0.6222314776759733","0","","","","","","","","",""
"","html-keyboard-response","271","625319","0.0-143.0-1.0","""event"",""trial"",""time""
""fullscreenenter"",""0"",""2898""
","
","
","""event"",""trial"",""time""
""fullscreenenter"",""0"",""2898""
","
","null","<p></p>","null","","","","","","","","","","","","","","","","","","","","","","","",""
"","do_trial","272","627939","0.0-144.0-0.0","""event"",""trial"",""time""
""fullscreenenter"",""0"",""2898""
","
","
","""event"",""trial"",""time""
""fullscreenenter"",""0"",""2898""
","
","56","","","","","","","","49","1,0,1","6","blank","355","null","0.20437926079057447","0.129670437114102","0.6045027383268822","1","","","","","","","","",""
"","html-keyboard-response","273","628942","0.0-144.0-1.0","""event"",""trial"",""time""
""fullscreenenter"",""0"",""2898""
","
","
","""event"",""trial"",""time""
""fullscreenenter"",""0"",""2898""
","
","null","<p></p>","null","","","","","","","","","","","","","","","","","","","","","","","",""
"","do_recog","274","631348","0.0-145.0-0.0","""event"",""trial"",""time""
""fullscreenenter"",""0"",""2898""
","
","
","""event"",""trial"",""time""
""fullscreenenter"",""0"",""2898""
","
","896.5","","","","","","","","53","","","","356","probe-30","","","","","1","[object Object]","114","2","1","","","",""
"","html-keyboard-response","275","632351","0.0-145.0-1.0","""event"",""trial"",""time""
""fullscreenenter"",""0"",""2898""
","
","
","""event"",""trial"",""time""
""fullscreenenter"",""0"",""2898""
","
","null","<p></p>","null","","","","","","","","","","","","","","","","","","","","","","","",""
"","do_trial","276","634916","0.0-146.0-0.0","""event"",""trial"",""time""
""fullscreenenter"",""0"",""2898""
","
","
","""event"",""trial"",""time""
""fullscreenenter"",""0"",""2898""
","
","0.19999999925494194","","","","","","","","49","0,1,0","6","blank","357","null","0.2642623947353598","0.16847841427294086","0.6327367423535128","0","","","","","","","","",""
