"success","trial_type","trial_index","time_elapsed","internal_node_id","interactions","blur_events","focus_events","fullscreenenter_events","fullscreenexit_events","rt","stimulus","key_press","subject_id","participant_id","age","gender","prompt","response","choice_outcomes","context_n","context_img_id","trial_n","probe_img_id","pR_red","pR_white","pR_black","outcome","is_valid","image_to_show","probed_trial","probed_context","correct","probe","probed_trial_n","probed_context_n","context_im"
"true","fullscreen","0","2944","0.0-0.0","""event"",""trial"",""time""
""blur"",""0"",""522""
""focus"",""0"",""662""
""fullscreenenter"",""0"",""1977""
","""event"",""trial"",""time""
""blur"",""0"",""522""
","""event"",""trial"",""time""
""focus"",""0"",""662""
","""event"",""trial"",""time""
""fullscreenenter"",""0"",""1977""
","
","","","","","","","","","","","","","","","","","","","","","","","","","","",""
"","pavlovia","1","2947","0.0-1.0","""event"",""trial"",""time""
""blur"",""0"",""522""
""focus"",""0"",""662""
""fullscreenenter"",""0"",""1977""
","""event"",""trial"",""time""
""blur"",""0"",""522""
","""event"",""trial"",""time""
""focus"",""0"",""662""
","""event"",""trial"",""time""
""fullscreenenter"",""0"",""1977""
","
","","","","","","","","","","","","","","","","","","","","","","","","","","",""
"","welc_back","2","12716","0.0-2.0","""event"",""trial"",""time""
""blur"",""0"",""522""
""focus"",""0"",""662""
""fullscreenenter"",""0"",""1977""
","""event"",""trial"",""time""
""blur"",""0"",""522""
","""event"",""trial"",""time""
""focus"",""0"",""662""
","""event"",""trial"",""time""
""fullscreenenter"",""0"",""1977""
","
","null","run_exp/static/audio/clip_29_welcome_back.m4a","null","403","709","16","Male","<div class='center'><p>Welcome to day 2!</p><p> Yesterday, you were the head captain of a pirate ship. You asked your fellow pirates to rob other ships of their gold across six different islands.</p></div>","","","","","","","","","","","","","","","","","","",""
"","html-keyboard-response","3","23190","0.0-3.0","""event"",""trial"",""time""
""blur"",""0"",""522""
""focus"",""0"",""662""
""fullscreenenter"",""0"",""1977""
","""event"",""trial"",""time""
""blur"",""0"",""522""
","""event"",""trial"",""time""
""focus"",""0"",""662""
","""event"",""trial"",""time""
""fullscreenenter"",""0"",""1977""
","
","10472.900000035763","<div class='center'><p>Welcome to day 2!</p><p> Yesterday, you were the head captain of a pirate ship. You asked your fellow pirates to rob other ships of their gold across six different islands.</p><p><b>[Press the space bar to continue]</b></p></div>","32","","","","","","","","","","","","","","","","","","","","","","","",""
"","day_1_summary_goal","4","40353","0.0-4.0","""event"",""trial"",""time""
""blur"",""0"",""522""
""focus"",""0"",""662""
""fullscreenenter"",""0"",""1977""
","""event"",""trial"",""time""
""blur"",""0"",""522""
","""event"",""trial"",""time""
""focus"",""0"",""662""
","""event"",""trial"",""time""
""fullscreenenter"",""0"",""1977""
","
","null","run_exp/static/audio/clip_30_goal_of_game.m4a","null","","","","","<div class='center'><p>Today, like yesterday, you get to pick which pirate you want to rob the next ship.</p><p>If the pirate is successful in robbing a ship, you get gold coins that look like this: </p><p><img src='run_exp/static/images/tutorial/reward.png' height='150'></p><p> If they were not successful in robbing the ship, then you will get no gold coins and you'll see a big red x like this: </p><p><img src='run_exp/static/images/tutorial/reward_no.png' height='150'></p></div>","","","","","","","","","","","","","","","","","","",""
"","html-keyboard-response","5","41824","0.0-5.0","""event"",""trial"",""time""
""blur"",""0"",""522""
""focus"",""0"",""662""
""fullscreenenter"",""0"",""1977""
","""event"",""trial"",""time""
""blur"",""0"",""522""
","""event"",""trial"",""time""
""focus"",""0"",""662""
","""event"",""trial"",""time""
""fullscreenenter"",""0"",""1977""
","
","1467.699999988079","<div class='center'><p>Today, like yesterday, you get to pick which pirate you want to rob the next ship.</p><p>If the pirate is successful in robbing a ship, you get gold coins that look like this: </p><p><img src='run_exp/static/images/tutorial/reward.png' height='150'></p><p> If they were not successful in robbing the ship, then you will get no gold coins and you'll see a big red x like this: </p><p><img src='run_exp/static/images/tutorial/reward_no.png' height='150'></p><p><b>[Press the space bar to continue]</b></p></div>","32","","","","","","","","","","","","","","","","","","","","","","","",""
"","day_1_summary_pick","6","56512","0.0-6.0","""event"",""trial"",""time""
""blur"",""0"",""522""
""focus"",""0"",""662""
""fullscreenenter"",""0"",""1977""
","""event"",""trial"",""time""
""blur"",""0"",""522""
","""event"",""trial"",""time""
""focus"",""0"",""662""
","""event"",""trial"",""time""
""fullscreenenter"",""0"",""1977""
","
","null","run_exp/static/audio/clip_31_how_to_pick_a_pirate.m4a","null","","","","","<div class='center'><p>Also, just like yesterday, you will use the 1,2,3 keys on your keyboard to pick a pirate. Press '1' to choose red beard, '2' to choose white beard, and '3' to choose black beard . You only have 3 seconds to pick a pirate, so please make a choice quickly!</p></div>","","","","","","","","","","","","","","","","","","",""
"","html-keyboard-response","7","56842","0.0-7.0","""event"",""trial"",""time""
""blur"",""0"",""522""
""focus"",""0"",""662""
""fullscreenenter"",""0"",""1977""
","""event"",""trial"",""time""
""blur"",""0"",""522""
","""event"",""trial"",""time""
""focus"",""0"",""662""
","""event"",""trial"",""time""
""fullscreenenter"",""0"",""1977""
","
","327.9000000357628","<div class='center'><p>Also, just like yesterday, you will use the 1,2,3 keys on your keyboard to pick a pirate. Press '1' to choose red beard, '2' to choose white beard, and '3' to choose black beard . You only have 3 seconds to pick a pirate, so please make a choice quickly!</p><p><b>[Press the space bar to continue]</b></p></div>","32","","","","","","","","","","","","","","","","","","","","","","","",""
"","test_phase_begin","8","87233","0.0-8.0","""event"",""trial"",""time""
""blur"",""0"",""522""
""focus"",""0"",""662""
""fullscreenenter"",""0"",""1977""
","""event"",""trial"",""time""
""blur"",""0"",""522""
","""event"",""trial"",""time""
""focus"",""0"",""662""
","""event"",""trial"",""time""
""fullscreenenter"",""0"",""1977""
","
","null","run_exp/static/audio/clip_32_final_place.m4a","null","","","","","<div class='center'><p>You’ve arrived at the final island of your journey! Unfortunately, it’s very foggy out, so you won’t be able to see it in the distance like the other islands you've visited.</p><p>You’ll still be deciding which pirate you want to rob a ship like before. However, because of the fog, you also won’t be able to see the ship.</p><p>This means you do not have to remember the ships you rob on this island.</p><p>Unlike yesterday, you won't be visiting multiple islands today. You will stay on this island for the entire game. This game will last ~30 minutes.</p></div>","","","","","","","","","","","","","","","","","","",""
"","html-keyboard-response","9","88573","0.0-9.0","""event"",""trial"",""time""
""blur"",""0"",""522""
""focus"",""0"",""662""
""fullscreenenter"",""0"",""1977""
","""event"",""trial"",""time""
""blur"",""0"",""522""
","""event"",""trial"",""time""
""focus"",""0"",""662""
","""event"",""trial"",""time""
""fullscreenenter"",""0"",""1977""
","
","1338.800000011921","<div class='center'><p>You’ve arrived at the final island of your journey! Unfortunately, it’s very foggy out, so you won’t be able to see it in the distance like the other islands you've visited.</p><p>You’ll still be deciding which pirate you want to rob a ship like before. However, because of the fog, you also won’t be able to see the ship.</p><p>This means you do not have to remember the ships you rob on this island.</p><p>Unlike yesterday, you won't be visiting multiple islands today. You will stay on this island for the entire game. This game will last ~30 minutes.</p><p><b>[Press the space bar to continue]</b></p></div>","32","","","","","","","","","","","","","","","","","","","","","","","",""
"","explain_probe_1","10","96273","0.0-10.0","""event"",""trial"",""time""
""blur"",""0"",""522""
""focus"",""0"",""662""
""fullscreenenter"",""0"",""1977""
","""event"",""trial"",""time""
""blur"",""0"",""522""
","""event"",""trial"",""time""
""focus"",""0"",""662""
","""event"",""trial"",""time""
""fullscreenenter"",""0"",""1977""
","
","null","run_exp/static/audio/clip_33_recognition_1.m4a","null","","","","","<div class='center'><p> Sometimes you’ll be shown a ship, and you will be asked if you saw this ship on a past island.</p><p> Here is an example of what you will see.</p><p><img src='run_exp/static/images/tutorial/example_recog_trial.png' height='500'></p></div>","","","","","","","","","","","","","","","","","","",""
"","html-keyboard-response","11","98129","0.0-11.0","""event"",""trial"",""time""
""blur"",""0"",""522""
""focus"",""0"",""662""
""fullscreenenter"",""0"",""1977""
","""event"",""trial"",""time""
""blur"",""0"",""522""
","""event"",""trial"",""time""
""focus"",""0"",""662""
","""event"",""trial"",""time""
""fullscreenenter"",""0"",""1977""
","
","1857.199999988079","<div class='center'><p> Sometimes you’ll be shown a ship, and you will be asked if you saw this ship on a past island.</p><p> Here is an example of what you will see.</p><p><img src='run_exp/static/images/tutorial/example_recog_trial.png' height='500'></p><p><b>[Press the space bar to continue]</b></p></div>","32","","","","","","","","","","","","","","","","","","","","","","","",""
"","explain_probe_2","12","119829","0.0-12.0","""event"",""trial"",""time""
""blur"",""0"",""522""
""focus"",""0"",""662""
""fullscreenenter"",""0"",""1977""
","""event"",""trial"",""time""
""blur"",""0"",""522""
","""event"",""trial"",""time""
""focus"",""0"",""662""
","""event"",""trial"",""time""
""fullscreenenter"",""0"",""1977""
","
","null","run_exp/static/audio/clip_34_recognition_2.m4a","null","","","","","<div class='center'><p> You will press the 5, 6, 7, 8 keys on your keyboard to respond.</p><p>If you are sure you saw the ship, press <b>5</b> on your keyboard.</p><p> If you think you saw it before but aren't sure, then press <b>6</b>.</p><p> If you think you have <b>not</b> seen it before but aren't sure, then press <b>7</b>.</p><p> If you are sure you did <b>not</b> see the ship before, then press <b>8</b>.</p><p><img src='run_exp/static/images/tutorial/example_recog_trial.png' height='500'></p></div>","","","","","","","","","","","","","","","","","","",""
"","html-keyboard-response","13","120216","0.0-13.0","""event"",""trial"",""time""
""blur"",""0"",""522""
""focus"",""0"",""662""
""fullscreenenter"",""0"",""1977""
","""event"",""trial"",""time""
""blur"",""0"",""522""
","""event"",""trial"",""time""
""focus"",""0"",""662""
","""event"",""trial"",""time""
""fullscreenenter"",""0"",""1977""
","
","384.80000001192093","<div class='center'><p> You will press the 5, 6, 7, 8 keys on your keyboard to respond.</p><p>If you are sure you saw the ship, press <b>5</b> on your keyboard.</p><p> If you think you saw it before but aren't sure, then press <b>6</b>.</p><p> If you think you have <b>not</b> seen it before but aren't sure, then press <b>7</b>.</p><p> If you are sure you did <b>not</b> see the ship before, then press <b>8</b>.</p><p><img src='run_exp/static/images/tutorial/example_recog_trial.png' height='500'></p><p><b>[Press the space bar to continue]</b></p></div>","32","","","","","","","","","","","","","","","","","","","","","","","",""
"","explain_outcome","14","137410","0.0-14.0","""event"",""trial"",""time""
""blur"",""0"",""522""
""focus"",""0"",""662""
""fullscreenenter"",""0"",""1977""
","""event"",""trial"",""time""
""blur"",""0"",""522""
","""event"",""trial"",""time""
""focus"",""0"",""662""
","""event"",""trial"",""time""
""fullscreenenter"",""0"",""1977""
","
","null","run_exp/static/audio/clip_35_recognition_3.m4a","null","","","","","<div class='center'><p> If you remember correctly, then you’ll get a gold coin like this: </p><p><img src='run_exp/static/images/tutorial/reward_small.png' height='200'></p><p>If you do not remember correctly, then you'll see a red x like this: </p><p><img src='run_exp/static/images/tutorial/reward_no.png' height='200'></p><p>Importantly, when you are shown a ship, take the time to remind yourself which island you saw it on. This will help you in the next part of the study.</p></div>","","","","","","","","","","","","","","","","","","",""
"","html-keyboard-response","15","137759","0.0-15.0","""event"",""trial"",""time""
""blur"",""0"",""522""
""focus"",""0"",""662""
""fullscreenenter"",""0"",""1977""
","""event"",""trial"",""time""
""blur"",""0"",""522""
","""event"",""trial"",""time""
""focus"",""0"",""662""
","""event"",""trial"",""time""
""fullscreenenter"",""0"",""1977""
","
","347","<div class='center'><p> If you remember correctly, then you’ll get a gold coin like this: </p><p><img src='run_exp/static/images/tutorial/reward_small.png' height='200'></p><p>If you do not remember correctly, then you'll see a red x like this: </p><p><img src='run_exp/static/images/tutorial/reward_no.png' height='200'></p><p>Importantly, when you are shown a ship, take the time to remind yourself which island you saw it on. This will help you in the next part of the study.</p><p><b>[Press the space bar to continue]</b></p></div>","32","","","","","","","","","","","","","","","","","","","","","","","",""
"","begin_test_phase","16","153589","0.0-16.0","""event"",""trial"",""time""
""blur"",""0"",""522""
""focus"",""0"",""662""
""fullscreenenter"",""0"",""1977""
","""event"",""trial"",""time""
""blur"",""0"",""522""
","""event"",""trial"",""time""
""focus"",""0"",""662""
","""event"",""trial"",""time""
""fullscreenenter"",""0"",""1977""
","
","null","run_exp/static/audio/clip_36_begin_final.m4a","null","","","","","<div class='center'><p>Let's go over the important points again. Your job is to: </p><p>1. Pick the pirate who is best at robbing ships and will bring you back gold coins. </p><p>2. Correctly remember whether or not you saw a ship before. If you did see the ship before, remind yourself on which island you saw it. </p></div>","","","","","","","","","","","","","","","","","","",""
"","html-keyboard-response","17","154650","0.0-17.0","""event"",""trial"",""time""
""blur"",""0"",""522""
""focus"",""0"",""662""
""fullscreenenter"",""0"",""1977""
","""event"",""trial"",""time""
""blur"",""0"",""522""
","""event"",""trial"",""time""
""focus"",""0"",""662""
","""event"",""trial"",""time""
""fullscreenenter"",""0"",""1977""
","
","1024.3999999761581","<div class='center'><p>Let's go over the important points again. Your job is to: </p><p>1. Pick the pirate who is best at robbing ships and will bring you back gold coins. </p><p>2. Correctly remember whether or not you saw a ship before. If you did see the ship before, remind yourself on which island you saw it. </p><p><b>[Press the space bar to continue]</b></p></div>","32","","","","","","","","","","","","","","","","","","","","","","","",""
"","do_welcome","18","158680","0.0-18.0","""event"",""trial"",""time""
""blur"",""0"",""522""
""focus"",""0"",""662""
""fullscreenenter"",""0"",""1977""
","""event"",""trial"",""time""
""blur"",""0"",""522""
","""event"",""trial"",""time""
""focus"",""0"",""662""
","""event"",""trial"",""time""
""fullscreenenter"",""0"",""1977""
","
","null","","","","","","","","null","","","","","","","","","","","","","","","","","",""
"","do_trial","19","162401","0.0-19.0-0.0","""event"",""trial"",""time""
""blur"",""0"",""522""
""focus"",""0"",""662""
""fullscreenenter"",""0"",""1977""
","""event"",""trial"",""time""
""blur"",""0"",""522""
","""event"",""trial"",""time""
""focus"",""0"",""662""
","""event"",""trial"",""time""
""fullscreenenter"",""0"",""1977""
","
","1174.3999999761581","","","","","","","","50","0,0,1","6","blank","230","null","0.3350709682723081","0.13213921387148556","0.6353822671716576","0","","","","","","","","",""
"","html-keyboard-response","20","163421","0.0-19.0-1.0","""event"",""trial"",""time""
""blur"",""0"",""522""
""focus"",""0"",""662""
""fullscreenenter"",""0"",""1977""
","""event"",""trial"",""time""
""blur"",""0"",""522""
","""event"",""trial"",""time""
""focus"",""0"",""662""
","""event"",""trial"",""time""
""fullscreenenter"",""0"",""1977""
","
","null","<p></p>","null","","","","","","","","","","","","","","","","","","","","","","","",""
"","do_trial","21","166240","0.0-20.0-0.0","""event"",""trial"",""time""
""blur"",""0"",""522""
""focus"",""0"",""662""
""fullscreenenter"",""0"",""1977""
","""event"",""trial"",""time""
""blur"",""0"",""522""
","""event"",""trial"",""time""
""focus"",""0"",""662""
","""event"",""trial"",""time""
""fullscreenenter"",""0"",""1977""
","
","263.80000001192093","","","","","","","","49","0,0,0","6","blank","231","null","0.36758707472617036","0.09187305875589598","0.7332920475765378","0","","","","","","","","",""
"","html-keyboard-response","22","167260","0.0-20.0-1.0","""event"",""trial"",""time""
""blur"",""0"",""522""
""focus"",""0"",""662""
""fullscreenenter"",""0"",""1977""
","""event"",""trial"",""time""
""blur"",""0"",""522""
","""event"",""trial"",""time""
""focus"",""0"",""662""
","""event"",""trial"",""time""
""fullscreenenter"",""0"",""1977""
","
","null","<p></p>","null","","","","","","","","","","","","","","","","","","","","","","","",""
"","do_trial","23","170092","0.0-21.0-0.0","""event"",""trial"",""time""
""blur"",""0"",""522""
""focus"",""0"",""662""
""fullscreenenter"",""0"",""1977""
","""event"",""trial"",""time""
""blur"",""0"",""522""
","""event"",""trial"",""time""
""focus"",""0"",""662""
","""event"",""trial"",""time""
""fullscreenenter"",""0"",""1977""
","
","277","","","","","","","","51","1,0,1","6","blank","232","null","0.36000476162855904","0.054303678066161175","0.7684380133507009","1","","","","","","","","",""
"","html-keyboard-response","24","171109","0.0-21.0-1.0","""event"",""trial"",""time""
""blur"",""0"",""522""
""focus"",""0"",""662""
""fullscreenenter"",""0"",""1977""
","""event"",""trial"",""time""
""blur"",""0"",""522""
","""event"",""trial"",""time""
""focus"",""0"",""662""
","""event"",""trial"",""time""
""fullscreenenter"",""0"",""1977""
","
","null","<p></p>","null","","","","","","","","","","","","","","","","","","","","","","","",""
"","do_trial","25","173911","0.0-22.0-0.0","""event"",""trial"",""time""
""blur"",""0"",""522""
""focus"",""0"",""662""
""fullscreenenter"",""0"",""1977""
","""event"",""trial"",""time""
""blur"",""0"",""522""
","""event"",""trial"",""time""
""focus"",""0"",""662""
","""event"",""trial"",""time""
""fullscreenenter"",""0"",""1977""
","
","245.80000001192093","","","","","","","","50","0,0,0","6","blank","233","null","0.24750025617557989","0.08014781652347526","0.4754405911314023","0","","","","","","","","",""
"","html-keyboard-response","26","174928","0.0-22.0-1.0","""event"",""trial"",""time""
""blur"",""0"",""522""
""focus"",""0"",""662""
""fullscreenenter"",""0"",""1977""
","""event"",""trial"",""time""
""blur"",""0"",""522""
","""event"",""trial"",""time""
""focus"",""0"",""662""
","""event"",""trial"",""time""
""fullscreenenter"",""0"",""1977""
","
","null","<p></p>","null","","","","","","","","","","","","","","","","","","","","","","","",""
"","do_trial","27","177664","0.0-23.0-0.0","""event"",""trial"",""time""
""blur"",""0"",""522""
""focus"",""0"",""662""
""fullscreenenter"",""0"",""1977""
","""event"",""trial"",""time""
""blur"",""0"",""522""
","""event"",""trial"",""time""
""focus"",""0"",""662""
","""event"",""trial"",""time""
""fullscreenenter"",""0"",""1977""
","
","193.5","","","","","","","","51","0,0,1","6","blank","234","null","0.2265164111554489","0.11309831115514708","0.6007698276769838","1","","","","","","","","",""
"","html-keyboard-response","28","178669","0.0-23.0-1.0","""event"",""trial"",""time""
""blur"",""0"",""522""
""focus"",""0"",""662""
""fullscreenenter"",""0"",""1977""
","""event"",""trial"",""time""
""blur"",""0"",""522""
","""event"",""trial"",""time""
""focus"",""0"",""662""
","""event"",""trial"",""time""
""fullscreenenter"",""0"",""1977""
","
","null","<p></p>","null","","","","","","","","","","","","","","","","","","","","","","","",""
"","do_trial","29","181396","0.0-24.0-0.0","""event"",""trial"",""time""
""blur"",""0"",""522""
""focus"",""0"",""662""
""fullscreenenter"",""0"",""1977""
","""event"",""trial"",""time""
""blur"",""0"",""522""
","""event"",""trial"",""time""
""focus"",""0"",""662""
","""event"",""trial"",""time""
""fullscreenenter"",""0"",""1977""
","
","172.19999998807907","","","","","","","","49","0,0,1","6","blank","235","null","0.26455763057800696","0.05932289336885431","0.6849138050880653","0","","","","","","","","",""
"","html-keyboard-response","30","182410","0.0-24.0-1.0","""event"",""trial"",""time""
""blur"",""0"",""522""
""focus"",""0"",""662""
""fullscreenenter"",""0"",""1977""
","""event"",""trial"",""time""
""blur"",""0"",""522""
","""event"",""trial"",""time""
""focus"",""0"",""662""
","""event"",""trial"",""time""
""fullscreenenter"",""0"",""1977""
","
","null","<p></p>","null","","","","","","","","","","","","","","","","","","","","","","","",""
"","do_trial","31","185245","0.0-25.0-0.0","""event"",""trial"",""time""
""blur"",""0"",""522""
""focus"",""0"",""662""
""fullscreenenter"",""0"",""1977""
","""event"",""trial"",""time""
""blur"",""0"",""522""
","""event"",""trial"",""time""
""focus"",""0"",""662""
","""event"",""trial"",""time""
""fullscreenenter"",""0"",""1977""
","
","288.89999997615814","","","","","","","","50","0,1,1","6","blank","236","null","0.202997247689009","0.18492836267896842","0.7487337872351815","1","","","","","","","","",""
"","html-keyboard-response","32","186260","0.0-25.0-1.0","""event"",""trial"",""time""
""blur"",""0"",""522""
""focus"",""0"",""662""
""fullscreenenter"",""0"",""1977""
","""event"",""trial"",""time""
""blur"",""0"",""522""
","""event"",""trial"",""time""
""focus"",""0"",""662""
","""event"",""trial"",""time""
""fullscreenenter"",""0"",""1977""
","
","null","<p></p>","null","","","","","","","","","","","","","","","","","","","","","","","",""
"","do_trial","33","189144","0.0-26.0-0.0","""event"",""trial"",""time""
""blur"",""0"",""522""
""focus"",""0"",""662""
""fullscreenenter"",""0"",""1977""
","""event"",""trial"",""time""
""blur"",""0"",""522""
","""event"",""trial"",""time""
""focus"",""0"",""662""
","""event"",""trial"",""time""
""fullscreenenter"",""0"",""1977""
","
","309.80000001192093","","","","","","","","49","0,0,1","6","blank","237","null","0.1942969211255397","0.12856654141801938","0.7635882736030617","0","","","","","","","","",""
"","html-keyboard-response","34","190160","0.0-26.0-1.0","""event"",""trial"",""time""
""blur"",""0"",""522""
""focus"",""0"",""662""
""fullscreenenter"",""0"",""1977""
","""event"",""trial"",""time""
""blur"",""0"",""522""
","""event"",""trial"",""time""
""focus"",""0"",""662""
","""event"",""trial"",""time""
""fullscreenenter"",""0"",""1977""
","
","null","<p></p>","null","","","","","","","","","","","","","","","","","","","","","","","",""
"","do_trial","35","192976","0.0-27.0-0.0","""event"",""trial"",""time""
""blur"",""0"",""522""
""focus"",""0"",""662""
""fullscreenenter"",""0"",""1977""
","""event"",""trial"",""time""
""blur"",""0"",""522""
","""event"",""trial"",""time""
""focus"",""0"",""662""
","""event"",""trial"",""time""
""fullscreenenter"",""0"",""1977""
","
","265.2999999523163","","","","","","","","51","1,0,1","6","blank","238","null","0.11295075277130293","0.1038830485524829","0.5829355712816006","1","","","","","","","","",""
"","html-keyboard-response","36","193993","0.0-27.0-1.0","""event"",""trial"",""time""
""blur"",""0"",""522""
""focus"",""0"",""662""
""fullscreenenter"",""0"",""1977""
","""event"",""trial"",""time""
""blur"",""0"",""522""
","""event"",""trial"",""time""
""focus"",""0"",""662""
","""event"",""trial"",""time""
""fullscreenenter"",""0"",""1977""
","
","null","<p></p>","null","","","","","","","","","","","","","","","","","","","","","","","",""
"","do_trial","37","196880","0.0-28.0-0.0","""event"",""trial"",""time""
""blur"",""0"",""522""
""focus"",""0"",""662""
""fullscreenenter"",""0"",""1977""
","""event"",""trial"",""time""
""blur"",""0"",""522""
","""event"",""trial"",""time""
""focus"",""0"",""662""
","""event"",""trial"",""time""
""fullscreenenter"",""0"",""1977""
","
","321.39999997615814","","","","","","","","50","0,0,1","6","blank","239","null","0.258828928910167","0.11534608477821276","0.5629044308438287","0","","","","","","","","",""
"","html-keyboard-response","38","197891","0.0-28.0-1.0","""event"",""trial"",""time""
""blur"",""0"",""522""
""focus"",""0"",""662""
""fullscreenenter"",""0"",""1977""
","""event"",""trial"",""time""
""blur"",""0"",""522""
","""event"",""trial"",""time""
""focus"",""0"",""662""
","""event"",""trial"",""time""
""fullscreenenter"",""0"",""1977""
","
","null","<p></p>","null","","","","","","","","","","","","","","","","","","","","","","","",""
"","do_trial","39","200707","0.0-29.0-0.0","""event"",""trial"",""time""
""blur"",""0"",""522""
""focus"",""0"",""662""
""fullscreenenter"",""0"",""1977""
","""event"",""trial"",""time""
""blur"",""0"",""522""
","""event"",""trial"",""time""
""focus"",""0"",""662""
","""event"",""trial"",""time""
""fullscreenenter"",""0"",""1977""
","
","266.30000001192093","","","","","","","","51","0,0,0","6","blank","240","null","0.24463296641579962","0.2948601160697615","0.45856497779929173","0","","","","","","","","",""
"","html-keyboard-response","40","201725","0.0-29.0-1.0","""event"",""trial"",""time""
""blur"",""0"",""522""
""focus"",""0"",""662""
""fullscreenenter"",""0"",""1977""
","""event"",""trial"",""time""
""blur"",""0"",""522""
","""event"",""trial"",""time""
""focus"",""0"",""662""
","""event"",""trial"",""time""
""fullscreenenter"",""0"",""1977""
","
","null","<p></p>","null","","","","","","","","","","","","","","","","","","","","","","","",""
"","do_recog","41","207741","0.0-30.0-0.0","""event"",""trial"",""time""
""blur"",""0"",""522""
""focus"",""0"",""662""
""fullscreenenter"",""0"",""1977""
","""event"",""trial"",""time""
""blur"",""0"",""522""
","""event"",""trial"",""time""
""focus"",""0"",""662""
","""event"",""trial"",""time""
""fullscreenenter"",""0"",""1977""
","
","null","","","","","","","","null","","","","241","probe-211","","","","","1","[object Object]","31","0","0","","","",""
"","html-keyboard-response","42","208756","0.0-30.0-1.0","""event"",""trial"",""time""
""blur"",""0"",""522""
""focus"",""0"",""662""
""fullscreenenter"",""0"",""1977""
","""event"",""trial"",""time""
""blur"",""0"",""522""
","""event"",""trial"",""time""
""focus"",""0"",""662""
","""event"",""trial"",""time""
""fullscreenenter"",""0"",""1977""
","
","null","<p></p>","null","","","","","","","","","","","","","","","","","","","","","","","",""
"","do_trial","43","211691","0.0-31.0-0.0","""event"",""trial"",""time""
""blur"",""0"",""522""
""focus"",""0"",""662""
""fullscreenenter"",""0"",""1977""
","""event"",""trial"",""time""
""blur"",""0"",""522""
","""event"",""trial"",""time""
""focus"",""0"",""662""
","""event"",""trial"",""time""
""fullscreenenter"",""0"",""1977""
","
","375.5999999642372","","","","","","","","49","0,0,1","6","blank","242","null","0.31560077671418935","0.28580139908811014","0.4417140637014391","0","","","","","","","","",""
"","html-keyboard-response","44","212706","0.0-31.0-1.0","""event"",""trial"",""time""
""blur"",""0"",""522""
""focus"",""0"",""662""
""fullscreenenter"",""0"",""1977""
","""event"",""trial"",""time""
""blur"",""0"",""522""
","""event"",""trial"",""time""
""focus"",""0"",""662""
","""event"",""trial"",""time""
""fullscreenenter"",""0"",""1977""
","
","null","<p></p>","null","","","","","","","","","","","","","","","","","","","","","","","",""
"","do_trial","45","215340","0.0-32.0-0.0","""event"",""trial"",""time""
""blur"",""0"",""522""
""focus"",""0"",""662""
""fullscreenenter"",""0"",""1977""
","""event"",""trial"",""time""
""blur"",""0"",""522""
","""event"",""trial"",""time""
""focus"",""0"",""662""
","""event"",""trial"",""time""
""fullscreenenter"",""0"",""1977""
","
","86.10000002384186","","","","","","","","51","0,0,1","6","blank","243","null","0.2997629197281127","0.26389261022252875","0.5174408895176714","1","","","","","","","","",""
"","html-keyboard-response","46","216355","0.0-32.0-1.0","""event"",""trial"",""time""
""blur"",""0"",""522""
""focus"",""0"",""662""
""fullscreenenter"",""0"",""1977""
","""event"",""trial"",""time""
""blur"",""0"",""522""
","""event"",""trial"",""time""
""focus"",""0"",""662""
","""event"",""trial"",""time""
""fullscreenenter"",""0"",""1977""
","
","null","<p></p>","null","","","","","","","","","","","","","","","","","","","","","","","",""
"","do_trial","47","219075","0.0-33.0-0.0","""event"",""trial"",""time""
""blur"",""0"",""522""
""focus"",""0"",""662""
""fullscreenenter"",""0"",""1977""
","""event"",""trial"",""time""
""blur"",""0"",""522""
","""event"",""trial"",""time""
""focus"",""0"",""662""
","""event"",""trial"",""time""
""fullscreenenter"",""0"",""1977""
","
","172.80000001192093","","","","","","","","50","0,1,1","6","blank","244","null","0.2072094190976475","0.472779332801981","0.27609910576897834","1","","","","","","","","",""
"","html-keyboard-response","48","220087","0.0-33.0-1.0","""event"",""trial"",""time""
""blur"",""0"",""522""
""focus"",""0"",""662""
""fullscreenenter"",""0"",""1977""
","""event"",""trial"",""time""
""blur"",""0"",""522""
","""event"",""trial"",""time""
""focus"",""0"",""662""
","""event"",""trial"",""time""
""fullscreenenter"",""0"",""1977""
","
","null","<p></p>","null","","","","","","","","","","","","","","","","","","","","","","","",""
"","do_trial","49","222921","0.0-34.0-0.0","""event"",""trial"",""time""
""blur"",""0"",""522""
""focus"",""0"",""662""
""fullscreenenter"",""0"",""1977""
","""event"",""trial"",""time""
""blur"",""0"",""522""
","""event"",""trial"",""time""
""focus"",""0"",""662""
","""event"",""trial"",""time""
""fullscreenenter"",""0"",""1977""
","
","282.19999998807907","","","","","","","","51","0,0,0","6","blank","245","null","0.12871575587358533","0.570958958492148","0.38584916122247637","0","","","","","","","","",""
"","html-keyboard-response","50","223934","0.0-34.0-1.0","""event"",""trial"",""time""
""blur"",""0"",""522""
""focus"",""0"",""662""
""fullscreenenter"",""0"",""1977""
","""event"",""trial"",""time""
""blur"",""0"",""522""
","""event"",""trial"",""time""
""focus"",""0"",""662""
","""event"",""trial"",""time""
""fullscreenenter"",""0"",""1977""
","
","null","<p></p>","null","","","","","","","","","","","","","","","","","","","","","","","",""
"","do_trial","51","226821","0.0-35.0-0.0","""event"",""trial"",""time""
""blur"",""0"",""522""
""focus"",""0"",""662""
""fullscreenenter"",""0"",""1977""
","""event"",""trial"",""time""
""blur"",""0"",""522""
","""event"",""trial"",""time""
""focus"",""0"",""662""
","""event"",""trial"",""time""
""fullscreenenter"",""0"",""1977""
","
","332.89999997615814","","","","","","","","49","1,0,0","6","blank","246","null","0.11301000327271687","0.6802491036832126","0.35375706367143883","1","","","","","","","","",""
"","html-keyboard-response","52","227837","0.0-35.0-1.0","""event"",""trial"",""time""
""blur"",""0"",""522""
""focus"",""0"",""662""
""fullscreenenter"",""0"",""1977""
","""event"",""trial"",""time""
""blur"",""0"",""522""
","""event"",""trial"",""time""
""focus"",""0"",""662""
","""event"",""trial"",""time""
""fullscreenenter"",""0"",""1977""
","
","null","<p></p>","null","","","","","","","","","","","","","","","","","","","","","","","",""
"","do_trial","53","230404","0.0-36.0-0.0","""event"",""trial"",""time""
""blur"",""0"",""522""
""focus"",""0"",""662""
""fullscreenenter"",""0"",""1977""
","""event"",""trial"",""time""
""blur"",""0"",""522""
","""event"",""trial"",""time""
""focus"",""0"",""662""
","""event"",""trial"",""time""
""fullscreenenter"",""0"",""1977""
","
","14","","","","","","","","50","0,0,1","6","blank","247","null","0.1674964955670965","0.5742662088815406","0.3255881856205454","0","","","","","","","","",""
"","html-keyboard-response","54","231418","0.0-36.0-1.0","""event"",""trial"",""time""
""blur"",""0"",""522""
""focus"",""0"",""662""
""fullscreenenter"",""0"",""1977""
","""event"",""trial"",""time""
""blur"",""0"",""522""
","""event"",""trial"",""time""
""focus"",""0"",""662""
","""event"",""trial"",""time""
""fullscreenenter"",""0"",""1977""
","
","null","<p></p>","null","","","","","","","","","","","","","","","","","","","","","","","",""
"","do_recog","55","234278","0.0-37.0-0.0","""event"",""trial"",""time""
""blur"",""0"",""522""
""focus"",""0"",""662""
""fullscreenenter"",""0"",""1977""
","""event"",""trial"",""time""
""blur"",""0"",""522""
","""event"",""trial"",""time""
""focus"",""0"",""662""
","""event"",""trial"",""time""
""fullscreenenter"",""0"",""1977""
","
","1351.6000000238419","","","","","","","","55","","","","248","probe-181","","","","","1","[object Object]","115","2","0","","","",""
"","html-keyboard-response","56","235287","0.0-37.0-1.0","""event"",""trial"",""time""
""blur"",""0"",""522""
""focus"",""0"",""662""
""fullscreenenter"",""0"",""1977""
","""event"",""trial"",""time""
""blur"",""0"",""522""
","""event"",""trial"",""time""
""focus"",""0"",""662""
","""event"",""trial"",""time""
""fullscreenenter"",""0"",""1977""
","
","null","<p></p>","null","","","","","","","","","","","","","","","","","","","","","","","",""
"","do_trial","57","238369","0.0-38.0-0.0","""event"",""trial"",""time""
""blur"",""0"",""522""
""focus"",""0"",""662""
""fullscreenenter"",""0"",""1977""
","""event"",""trial"",""time""
""blur"",""0"",""522""
","""event"",""trial"",""time""
""focus"",""0"",""662""
","""event"",""trial"",""time""
""fullscreenenter"",""0"",""1977""
","
","532.5","","","","","","","","50","0,0,0","6","blank","249","null","0.10579297642616645","0.5492271498720448","0.3134225674630178","0","","","","","","","","",""
"","html-keyboard-response","58","239375","0.0-38.0-1.0","""event"",""trial"",""time""
""blur"",""0"",""522""
""focus"",""0"",""662""
""fullscreenenter"",""0"",""1977""
","""event"",""trial"",""time""
""blur"",""0"",""522""
","""event"",""trial"",""time""
""focus"",""0"",""662""
","""event"",""trial"",""time""
""fullscreenenter"",""0"",""1977""
","
","null","<p></p>","null","","","","","","","","","","","","","","","","","","","","","","","",""
"","do_recog","59","241886","0.0-39.0-0.0","""event"",""trial"",""time""
""blur"",""0"",""522""
""focus"",""0"",""662""
""fullscreenenter"",""0"",""1977""
","""event"",""trial"",""time""
""blur"",""0"",""522""
","""event"",""trial"",""time""
""focus"",""0"",""662""
","""event"",""trial"",""time""
""fullscreenenter"",""0"",""1977""
","
","998.5","","","","","","","","53","","","","250","probe-113","","","","","1","[object Object]","191","4","1","","","",""
"","html-keyboard-response","60","242900","0.0-39.0-1.0","""event"",""trial"",""time""
""blur"",""0"",""522""
""focus"",""0"",""662""
""fullscreenenter"",""0"",""1977""
","""event"",""trial"",""time""
""blur"",""0"",""522""
","""event"",""trial"",""time""
""focus"",""0"",""662""
","""event"",""trial"",""time""
""fullscreenenter"",""0"",""1977""
","
","null","<p></p>","null","","","","","","","","","","","","","","","","","","","","","","","",""
"","do_trial","61","245850","0.0-40.0-0.0","""event"",""trial"",""time""
""blur"",""0"",""522""
""focus"",""0"",""662""
""fullscreenenter"",""0"",""1977""
","""event"",""trial"",""time""
""blur"",""0"",""522""
","""event"",""trial"",""time""
""focus"",""0"",""662""
","""event"",""trial"",""time""
""fullscreenenter"",""0"",""1977""
","
","392.10000002384186","","","","","","","","49","0,1,1","6","blank","251","null","0.12214825947081728","0.5629111541686697","0.4170179977769793","0","","","","","","","","",""
"","html-keyboard-response","62","246866","0.0-40.0-1.0","""event"",""trial"",""time""
""blur"",""0"",""522""
""focus"",""0"",""662""
""fullscreenenter"",""0"",""1977""
","""event"",""trial"",""time""
""blur"",""0"",""522""
","""event"",""trial"",""time""
""focus"",""0"",""662""
","""event"",""trial"",""time""
""fullscreenenter"",""0"",""1977""
","
","null","<p></p>","null","","","","","","","","","","","","","","","","","","","","","","","",""
"","do_recog","63","249348","0.0-41.0-0.0","""event"",""trial"",""time""
""blur"",""0"",""522""
""focus"",""0"",""662""
""fullscreenenter"",""0"",""1977""
","""event"",""trial"",""time""
""blur"",""0"",""522""
","""event"",""trial"",""time""
""focus"",""0"",""662""
","""event"",""trial"",""time""
""fullscreenenter"",""0"",""1977""
","
","954.9000000357628","","","","","","","","53","","","","252","probe-231","","","","","0","[object Object]","null","null","0","","","",""
"","html-keyboard-response","64","250365","0.0-41.0-1.0","""event"",""trial"",""time""
""blur"",""0"",""522""
""focus"",""0"",""662""
""fullscreenenter"",""0"",""1977""
","""event"",""trial"",""time""
""blur"",""0"",""522""
","""event"",""trial"",""time""
""focus"",""0"",""662""
","""event"",""trial"",""time""
""fullscreenenter"",""0"",""1977""
","
","null","<p></p>","null","","","","","","","","","","","","","","","","","","","","","","","",""
"","do_trial","65","253251","0.0-42.0-0.0","""event"",""trial"",""time""
""blur"",""0"",""522""
""focus"",""0"",""662""
""fullscreenenter"",""0"",""1977""
","""event"",""trial"",""time""
""blur"",""0"",""522""
","""event"",""trial"",""time""
""focus"",""0"",""662""
","""event"",""trial"",""time""
""fullscreenenter"",""0"",""1977""
","
","329.5","","","","","","","","49","0,1,1","6","blank","253","null","0.18911493444425212","0.5528199344907748","0.5220789710684604","0","","","","","","","","",""
"","html-keyboard-response","66","254252","0.0-42.0-1.0","""event"",""trial"",""time""
""blur"",""0"",""522""
""focus"",""0"",""662""
""fullscreenenter"",""0"",""1977""
","""event"",""trial"",""time""
""blur"",""0"",""522""
","""event"",""trial"",""time""
""focus"",""0"",""662""
","""event"",""trial"",""time""
""fullscreenenter"",""0"",""1977""
","
","null","<p></p>","null","","","","","","","","","","","","","","","","","","","","","","","",""
"","do_recog","67","256781","0.0-43.0-0.0","""event"",""trial"",""time""
""blur"",""0"",""522""
""focus"",""0"",""662""
""fullscreenenter"",""0"",""1977""
","""event"",""trial"",""time""
""blur"",""0"",""522""
","""event"",""trial"",""time""
""focus"",""0"",""662""
","""event"",""trial"",""time""
""fullscreenenter"",""0"",""1977""
","
","1012.6000000238419","","","","","","","","54","","","","254","probe-129","","","","","1","[object Object]","116","2","1","","","",""
"","html-keyboard-response","68","257798","0.0-43.0-1.0","""event"",""trial"",""time""
""blur"",""0"",""522""
""focus"",""0"",""662""
""fullscreenenter"",""0"",""1977""
","""event"",""trial"",""time""
""blur"",""0"",""522""
","""event"",""trial"",""time""
""focus"",""0"",""662""
","""event"",""trial"",""time""
""fullscreenenter"",""0"",""1977""
","
","null","<p></p>","null","","","","","","","","","","","","","","","","","","","","","","","",""
"","do_trial","69","260631","0.0-44.0-0.0","""event"",""trial"",""time""
""blur"",""0"",""522""
""focus"",""0"",""662""
""fullscreenenter"",""0"",""1977""
","""event"",""trial"",""time""
""blur"",""0"",""522""
","""event"",""trial"",""time""
""focus"",""0"",""662""
","""event"",""trial"",""time""
""fullscreenenter"",""0"",""1977""
","
","281.9000000357628","","","","","","","","50","0,0,0","6","blank","255","null","0.22024848454527926","0.5412898339444107","0.42869536085618976","0","","","","","","","","",""
"","html-keyboard-response","70","261648","0.0-44.0-1.0","""event"",""trial"",""time""
""blur"",""0"",""522""
""focus"",""0"",""662""
""fullscreenenter"",""0"",""1977""
","""event"",""trial"",""time""
""blur"",""0"",""522""
","""event"",""trial"",""time""
""focus"",""0"",""662""
","""event"",""trial"",""time""
""fullscreenenter"",""0"",""1977""
","
","null","<p></p>","null","","","","","","","","","","","","","","","","","","","","","","","",""
"","do_trial","71","264300","0.0-45.0-0.0","""event"",""trial"",""time""
""blur"",""0"",""522""
""focus"",""0"",""662""
""fullscreenenter"",""0"",""1977""
","""event"",""trial"",""time""
""blur"",""0"",""522""
","""event"",""trial"",""time""
""focus"",""0"",""662""
","""event"",""trial"",""time""
""fullscreenenter"",""0"",""1977""
","
","99.19999998807907","","","","","","","","51","0,1,1","6","blank","256","null","0.30343051923962483","0.4891582952857903","0.4591045883330046","1","","","","","","","","",""
"","html-keyboard-response","72","265315","0.0-45.0-1.0","""event"",""trial"",""time""
""blur"",""0"",""522""
""focus"",""0"",""662""
""fullscreenenter"",""0"",""1977""
","""event"",""trial"",""time""
""blur"",""0"",""522""
","""event"",""trial"",""time""
""focus"",""0"",""662""
","""event"",""trial"",""time""
""fullscreenenter"",""0"",""1977""
","
","null","<p></p>","null","","","","","","","","","","","","","","","","","","","","","","","",""
"","do_trial","73","268097","0.0-46.0-0.0","""event"",""trial"",""time""
""blur"",""0"",""522""
""focus"",""0"",""662""
""fullscreenenter"",""0"",""1977""
","""event"",""trial"",""time""
""blur"",""0"",""522""
","""event"",""trial"",""time""
""focus"",""0"",""662""
","""event"",""trial"",""time""
""fullscreenenter"",""0"",""1977""
","
","227.60000002384186","","","","","","","","49","0,1,0","6","blank","257","null","0.25770329604870545","0.4842585075033561","0.4345867585394468","0","","","","","","","","",""
"","html-keyboard-response","74","269113","0.0-46.0-1.0","""event"",""trial"",""time""
""blur"",""0"",""522""
""focus"",""0"",""662""
""fullscreenenter"",""0"",""1977""
","""event"",""trial"",""time""
""blur"",""0"",""522""
","""event"",""trial"",""time""
""focus"",""0"",""662""
","""event"",""trial"",""time""
""fullscreenenter"",""0"",""1977""
","
","null","<p></p>","null","","","","","","","","","","","","","","","","","","","","","","","",""
"","do_trial","75","271838","0.0-47.0-0.0","""event"",""trial"",""time""
""blur"",""0"",""522""
""focus"",""0"",""662""
""fullscreenenter"",""0"",""1977""
","""event"",""trial"",""time""
""blur"",""0"",""522""
","""event"",""trial"",""time""
""focus"",""0"",""662""
","""event"",""trial"",""time""
""fullscreenenter"",""0"",""1977""
","
","169.30000001192093","","","","","","","","51","0,0,0","6","blank","258","null","0.09294837893365619","0.5492491186837223","0.2612560675081926","0","","","","","","","","",""
"","html-keyboard-response","76","272844","0.0-47.0-1.0","""event"",""trial"",""time""
""blur"",""0"",""522""
""focus"",""0"",""662""
""fullscreenenter"",""0"",""1977""
","""event"",""trial"",""time""
""blur"",""0"",""522""
","""event"",""trial"",""time""
""focus"",""0"",""662""
","""event"",""trial"",""time""
""fullscreenenter"",""0"",""1977""
","
","null","<p></p>","null","","","","","","","","","","","","","","","","","","","","","","","",""
"","do_trial","77","275612","0.0-48.0-0.0","""event"",""trial"",""time""
""blur"",""0"",""522""
""focus"",""0"",""662""
""fullscreenenter"",""0"",""1977""
","""event"",""trial"",""time""
""blur"",""0"",""522""
","""event"",""trial"",""time""
""focus"",""0"",""662""
","""event"",""trial"",""time""
""fullscreenenter"",""0"",""1977""
","
","216.5","","","","","","","","50","0,0,0","6","blank","259","null","0.12475610070352158","0.6183647841290422","0.2182877204710374","0","","","","","","","","",""
"","html-keyboard-response","78","276628","0.0-48.0-1.0","""event"",""trial"",""time""
""blur"",""0"",""522""
""focus"",""0"",""662""
""fullscreenenter"",""0"",""1977""
","""event"",""trial"",""time""
""blur"",""0"",""522""
","""event"",""trial"",""time""
""focus"",""0"",""662""
","""event"",""trial"",""time""
""fullscreenenter"",""0"",""1977""
","
","null","<p></p>","null","","","","","","","","","","","","","","","","","","","","","","","",""
"","do_recog","79","279180","0.0-49.0-0.0","""event"",""trial"",""time""
""blur"",""0"",""522""
""focus"",""0"",""662""
""fullscreenenter"",""0"",""1977""
","""event"",""trial"",""time""
""blur"",""0"",""522""
","""event"",""trial"",""time""
""focus"",""0"",""662""
","""event"",""trial"",""time""
""fullscreenenter"",""0"",""1977""
","
","1044.800000011921","","","","","","","","56","","","","260","probe-67","","","","","1","[object Object]","193","4","0","","","",""
"","html-keyboard-response","80","280194","0.0-49.0-1.0","""event"",""trial"",""time""
""blur"",""0"",""522""
""focus"",""0"",""662""
""fullscreenenter"",""0"",""1977""
","""event"",""trial"",""time""
""blur"",""0"",""522""
","""event"",""trial"",""time""
""focus"",""0"",""662""
","""event"",""trial"",""time""
""fullscreenenter"",""0"",""1977""
","
","null","<p></p>","null","","","","","","","","","","","","","","","","","","","","","","","",""
"","do_trial","81","283028","0.0-50.0-0.0","""event"",""trial"",""time""
""blur"",""0"",""522""
""focus"",""0"",""662""
""fullscreenenter"",""0"",""1977""
","""event"",""trial"",""time""
""blur"",""0"",""522""
","""event"",""trial"",""time""
""focus"",""0"",""662""
","""event"",""trial"",""time""
""fullscreenenter"",""0"",""1977""
","
","277.80000001192093","","","","","","","","49","0,0,1","6","blank","261","null","0.12674179860123178","0.5731018537368835","0.15527774050779447","0","","","","","","","","",""
"","html-keyboard-response","82","284044","0.0-50.0-1.0","""event"",""trial"",""time""
""blur"",""0"",""522""
""focus"",""0"",""662""
""fullscreenenter"",""0"",""1977""
","""event"",""trial"",""time""
""blur"",""0"",""522""
","""event"",""trial"",""time""
""focus"",""0"",""662""
","""event"",""trial"",""time""
""fullscreenenter"",""0"",""1977""
","
","null","<p></p>","null","","","","","","","","","","","","","","","","","","","","","","","",""
"","do_trial","83","287176","0.0-51.0-0.0","""event"",""trial"",""time""
""blur"",""0"",""522""
""focus"",""0"",""662""
""fullscreenenter"",""0"",""1977""
","""event"",""trial"",""time""
""blur"",""0"",""522""
","""event"",""trial"",""time""
""focus"",""0"",""662""
","""event"",""trial"",""time""
""fullscreenenter"",""0"",""1977""
","
","576.6999999880791","","","","","","","","50","0,1,0","6","blank","262","null","0.1113537934874127","0.5827572238487982","0.1496185603410081","1","","","","","","","","",""
"","html-keyboard-response","84","288193","0.0-51.0-1.0","""event"",""trial"",""time""
""blur"",""0"",""522""
""focus"",""0"",""662""
""fullscreenenter"",""0"",""1977""
","""event"",""trial"",""time""
""blur"",""0"",""522""
","""event"",""trial"",""time""
""focus"",""0"",""662""
","""event"",""trial"",""time""
""fullscreenenter"",""0"",""1977""
","
","null","<p></p>","null","","","","","","","","","","","","","","","","","","","","","","","",""
"","do_trial","85","291077","0.0-52.0-0.0","""event"",""trial"",""time""
""blur"",""0"",""522""
""focus"",""0"",""662""
""fullscreenenter"",""0"",""1977""
","""event"",""trial"",""time""
""blur"",""0"",""522""
","""event"",""trial"",""time""
""focus"",""0"",""662""
","""event"",""trial"",""time""
""fullscreenenter"",""0"",""1977""
","
","327","","","","","","","","51","0,1,1","6","blank","263","null","0.07154691743370221","0.5564851802400306","0.16590905675655798","1","","","","","","","","",""
"","html-keyboard-response","86","292092","0.0-52.0-1.0","""event"",""trial"",""time""
""blur"",""0"",""522""
""focus"",""0"",""662""
""fullscreenenter"",""0"",""1977""
","""event"",""trial"",""time""
""blur"",""0"",""522""
","""event"",""trial"",""time""
""focus"",""0"",""662""
","""event"",""trial"",""time""
""fullscreenenter"",""0"",""1977""
","
","null","<p></p>","null","","","","","","","","","","","","","","","","","","","","","","","",""
"","do_trial","87","294809","0.0-53.0-0.0","""event"",""trial"",""time""
""blur"",""0"",""522""
""focus"",""0"",""662""
""fullscreenenter"",""0"",""1977""
","""event"",""trial"",""time""
""blur"",""0"",""522""
","""event"",""trial"",""time""
""focus"",""0"",""662""
","""event"",""trial"",""time""
""fullscreenenter"",""0"",""1977""
","
","168.80000001192093","","","","","","","","49","1,1,0","6","blank","264","null","0.16175694752203554","0.6780980572134189","0.2917857752712213","1","","","","","","","","",""
"","html-keyboard-response","88","295822","0.0-53.0-1.0","""event"",""trial"",""time""
""blur"",""0"",""522""
""focus"",""0"",""662""
""fullscreenenter"",""0"",""1977""
","""event"",""trial"",""time""
""blur"",""0"",""522""
","""event"",""trial"",""time""
""focus"",""0"",""662""
","""event"",""trial"",""time""
""fullscreenenter"",""0"",""1977""
","
","null","<p></p>","null","","","","","","","","","","","","","","","","","","","","","","","",""
"","do_trial","89","298393","0.0-54.0-0.0","""event"",""trial"",""time""
""blur"",""0"",""522""
""focus"",""0"",""662""
""fullscreenenter"",""0"",""1977""
","""event"",""trial"",""time""
""blur"",""0"",""522""
","""event"",""trial"",""time""
""focus"",""0"",""662""
","""event"",""trial"",""time""
""fullscreenenter"",""0"",""1977""
","
","18.30000001192093","","","","","","","","49","0,1,0","6","blank","265","null","0.06619126863489157","0.687768916671174","0.2736439838178168","0","","","","","","","","",""
"","html-keyboard-response","90","299407","0.0-54.0-1.0","""event"",""trial"",""time""
""blur"",""0"",""522""
""focus"",""0"",""662""
""fullscreenenter"",""0"",""1977""
","""event"",""trial"",""time""
""blur"",""0"",""522""
","""event"",""trial"",""time""
""focus"",""0"",""662""
","""event"",""trial"",""time""
""fullscreenenter"",""0"",""1977""
","
","null","<p></p>","null","","","","","","","","","","","","","","","","","","","","","","","",""
"","do_trial","91","302042","0.0-55.0-0.0","""event"",""trial"",""time""
""blur"",""0"",""522""
""focus"",""0"",""662""
""fullscreenenter"",""0"",""1977""
","""event"",""trial"",""time""
""blur"",""0"",""522""
","""event"",""trial"",""time""
""focus"",""0"",""662""
","""event"",""trial"",""time""
""fullscreenenter"",""0"",""1977""
","
","84","","","","","","","","50","0,0,1","6","blank","266","null","0.07120152497416589","0.6171098860169701","0.2596325796643071","0","","","","","","","","",""
"","html-keyboard-response","92","303058","0.0-55.0-1.0","""event"",""trial"",""time""
""blur"",""0"",""522""
""focus"",""0"",""662""
""fullscreenenter"",""0"",""1977""
","""event"",""trial"",""time""
""blur"",""0"",""522""
","""event"",""trial"",""time""
""focus"",""0"",""662""
","""event"",""trial"",""time""
""fullscreenenter"",""0"",""1977""
","
","null","<p></p>","null","","","","","","","","","","","","","","","","","","","","","","","",""
"","do_trial","93","305650","0.0-56.0-0.0","""event"",""trial"",""time""
""blur"",""0"",""522""
""focus"",""0"",""662""
""fullscreenenter"",""0"",""1977""
","""event"",""trial"",""time""
""blur"",""0"",""522""
","""event"",""trial"",""time""
""focus"",""0"",""662""
","""event"",""trial"",""time""
""fullscreenenter"",""0"",""1977""
","
","37.19999998807907","","","","","","","","51","0,1,1","6","blank","267","null","0.10956265293422494","0.694950970432314","0.1374749236885661","1","","","","","","","","",""
"","html-keyboard-response","94","306658","0.0-56.0-1.0","""event"",""trial"",""time""
""blur"",""0"",""522""
""focus"",""0"",""662""
""fullscreenenter"",""0"",""1977""
","""event"",""trial"",""time""
""blur"",""0"",""522""
","""event"",""trial"",""time""
""focus"",""0"",""662""
","""event"",""trial"",""time""
""fullscreenenter"",""0"",""1977""
","
","null","<p></p>","null","","","","","","","","","","","","","","","","","","","","","","","",""
"","do_recog","95","309010","0.0-57.0-0.0","""event"",""trial"",""time""
""blur"",""0"",""522""
""focus"",""0"",""662""
""fullscreenenter"",""0"",""1977""
","""event"",""trial"",""time""
""blur"",""0"",""522""
","""event"",""trial"",""time""
""focus"",""0"",""662""
","""event"",""trial"",""time""
""fullscreenenter"",""0"",""1977""
","
","837.4000000357628","","","","","","","","53","","","","268","probe-76","","","","","1","[object Object]","196","4","1","","","",""
"","html-keyboard-response","96","310022","0.0-57.0-1.0","""event"",""trial"",""time""
""blur"",""0"",""522""
""focus"",""0"",""662""
""fullscreenenter"",""0"",""1977""
","""event"",""trial"",""time""
""blur"",""0"",""522""
","""event"",""trial"",""time""
""focus"",""0"",""662""
","""event"",""trial"",""time""
""fullscreenenter"",""0"",""1977""
","
","null","<p></p>","null","","","","","","","","","","","","","","","","","","","","","","","",""
"","break","97","311796","0.0-58.0-0.0","""event"",""trial"",""time""
""blur"",""0"",""522""
""focus"",""0"",""662""
""fullscreenenter"",""0"",""1977""
","""event"",""trial"",""time""
""blur"",""0"",""522""
","""event"",""trial"",""time""
""focus"",""0"",""662""
","""event"",""trial"",""time""
""fullscreenenter"",""0"",""1977""
","
","1772.300000011921","<div class='center'><p>Time to take a quick break! You have 2 minutes to rest, but you can move on sooner if you'd like.</p><p> Press the <b>space bar</b> to continue.</p></div>","32","","","","","","","","","","","","","","","","","","","","","","","",""
"","do_trial","98","315176","0.0-58.0-1.0","""event"",""trial"",""time""
""blur"",""0"",""522""
""focus"",""0"",""662""
""fullscreenenter"",""0"",""1977""
","""event"",""trial"",""time""
""blur"",""0"",""522""
","""event"",""trial"",""time""
""focus"",""0"",""662""
","""event"",""trial"",""time""
""fullscreenenter"",""0"",""1977""
","
","829.5999999642372","","","","","","","","50","0,0,0","6","blank","269","null","0.24216078650722814","0.7703947354141198","0.2057817230745903","0","","","","","","","","",""
"","html-keyboard-response","99","316188","0.0-58.0-2.0","""event"",""trial"",""time""
""blur"",""0"",""522""
""focus"",""0"",""662""
""fullscreenenter"",""0"",""1977""
","""event"",""trial"",""time""
""blur"",""0"",""522""
","""event"",""trial"",""time""
""focus"",""0"",""662""
","""event"",""trial"",""time""
""fullscreenenter"",""0"",""1977""
","
","null","<p></p>","null","","","","","","","","","","","","","","","","","","","","","","","",""
"","do_trial","100","318838","0.0-59.0-0.0","""event"",""trial"",""time""
""blur"",""0"",""522""
""focus"",""0"",""662""
""fullscreenenter"",""0"",""1977""
","""event"",""trial"",""time""
""blur"",""0"",""522""
","""event"",""trial"",""time""
""focus"",""0"",""662""
","""event"",""trial"",""time""
""fullscreenenter"",""0"",""1977""
","
","93.19999998807907","","","","","","","","49","0,1,1","6","blank","270","null","0.13484506585198108","0.772123952813538","0.2783835764199131","0","","","","","","","","",""
"","html-keyboard-response","101","319854","0.0-59.0-1.0","""event"",""trial"",""time""
""blur"",""0"",""522""
""focus"",""0"",""662""
""fullscreenenter"",""0"",""1977""
","""event"",""trial"",""time""
""blur"",""0"",""522""
","""event"",""trial"",""time""
""focus"",""0"",""662""
","""event"",""trial"",""time""
""fullscreenenter"",""0"",""1977""
","
","null","<p></p>","null","","","","","","","","","","","","","","","","","","","","","","","",""
"","do_trial","102","322638","0.0-60.0-0.0","""event"",""trial"",""time""
""blur"",""0"",""522""
""focus"",""0"",""662""
""fullscreenenter"",""0"",""1977""
","""event"",""trial"",""time""
""blur"",""0"",""522""
","""event"",""trial"",""time""
""focus"",""0"",""662""
","""event"",""trial"",""time""
""fullscreenenter"",""0"",""1977""
","
","236.89999997615814","","","","","","","","51","0,1,0","6","blank","271","null","0.13116497239103134","0.7403753562313525","0.3504643316103847","0","","","","","","","","",""
"","html-keyboard-response","103","323654","0.0-60.0-1.0","""event"",""trial"",""time""
""blur"",""0"",""522""
""focus"",""0"",""662""
""fullscreenenter"",""0"",""1977""
","""event"",""trial"",""time""
""blur"",""0"",""522""
","""event"",""trial"",""time""
""focus"",""0"",""662""
","""event"",""trial"",""time""
""fullscreenenter"",""0"",""1977""
","
","null","<p></p>","null","","","","","","","","","","","","","","","","","","","","","","","",""
"","do_trial","104","326288","0.0-61.0-0.0","""event"",""trial"",""time""
""blur"",""0"",""522""
""focus"",""0"",""662""
""fullscreenenter"",""0"",""1977""
","""event"",""trial"",""time""
""blur"",""0"",""522""
","""event"",""trial"",""time""
""focus"",""0"",""662""
","""event"",""trial"",""time""
""fullscreenenter"",""0"",""1977""
","
","81.80000001192093","","","","","","","","50","0,1,0","6","blank","272","null","0.14379630293801593","0.8178086253682242","0.3811323743553475","1","","","","","","","","",""
"","html-keyboard-response","105","327292","0.0-61.0-1.0","""event"",""trial"",""time""
""blur"",""0"",""522""
""focus"",""0"",""662""
""fullscreenenter"",""0"",""1977""
","""event"",""trial"",""time""
""blur"",""0"",""522""
","""event"",""trial"",""time""
""focus"",""0"",""662""
","""event"",""trial"",""time""
""fullscreenenter"",""0"",""1977""
","
","null","<p></p>","null","","","","","","","","","","","","","","","","","","","","","","","",""
"","do_trial","106","330072","0.0-62.0-0.0","""event"",""trial"",""time""
""blur"",""0"",""522""
""focus"",""0"",""662""
""fullscreenenter"",""0"",""1977""
","""event"",""trial"",""time""
""blur"",""0"",""522""
","""event"",""trial"",""time""
""focus"",""0"",""662""
","""event"",""trial"",""time""
""fullscreenenter"",""0"",""1977""
","
","229","","","","","","","","51","0,1,1","6","blank","273","null","0.11990520609179088","0.725266159848279","0.2781588604703848","1","","","","","","","","",""
"","html-keyboard-response","107","331086","0.0-62.0-1.0","""event"",""trial"",""time""
""blur"",""0"",""522""
""focus"",""0"",""662""
""fullscreenenter"",""0"",""1977""
","""event"",""trial"",""time""
""blur"",""0"",""522""
","""event"",""trial"",""time""
""focus"",""0"",""662""
","""event"",""trial"",""time""
""fullscreenenter"",""0"",""1977""
","
","null","<p></p>","null","","","","","","","","","","","","","","","","","","","","","","","",""
"","do_trial","108","333921","0.0-63.0-0.0","""event"",""trial"",""time""
""blur"",""0"",""522""
""focus"",""0"",""662""
""fullscreenenter"",""0"",""1977""
","""event"",""trial"",""time""
""blur"",""0"",""522""
","""event"",""trial"",""time""
""focus"",""0"",""662""
","""event"",""trial"",""time""
""fullscreenenter"",""0"",""1977""
","
","277.19999998807907","","","","","","","","49","1,1,0","6","blank","274","null","0.10027525163332172","0.6760726916074774","0.22443563618398407","1","","","","","","","","",""
"","html-keyboard-response","109","334935","0.0-63.0-1.0","""event"",""trial"",""time""
""blur"",""0"",""522""
""focus"",""0"",""662""
""fullscreenenter"",""0"",""1977""
","""event"",""trial"",""time""
""blur"",""0"",""522""
","""event"",""trial"",""time""
""focus"",""0"",""662""
","""event"",""trial"",""time""
""fullscreenenter"",""0"",""1977""
","
","null","<p></p>","null","","","","","","","","","","","","","","","","","","","","","","","",""
"","do_recog","110","337469","0.0-64.0-0.0","""event"",""trial"",""time""
""blur"",""0"",""522""
""focus"",""0"",""662""
""fullscreenenter"",""0"",""1977""
","""event"",""trial"",""time""
""blur"",""0"",""522""
","""event"",""trial"",""time""
""focus"",""0"",""662""
","""event"",""trial"",""time""
""fullscreenenter"",""0"",""1977""
","
","1011.6000000238419","","","","","","","","54","","","","275","probe-234","","","","","0","[object Object]","null","null","0","","","",""
"","html-keyboard-response","111","338485","0.0-64.0-1.0","""event"",""trial"",""time""
""blur"",""0"",""522""
""focus"",""0"",""662""
""fullscreenenter"",""0"",""1977""
","""event"",""trial"",""time""
""blur"",""0"",""522""
","""event"",""trial"",""time""
""focus"",""0"",""662""
","""event"",""trial"",""time""
""fullscreenenter"",""0"",""1977""
","
","null","<p></p>","null","","","","","","","","","","","","","","","","","","","","","","","",""
"","do_trial","112","341104","0.0-65.0-0.0","""event"",""trial"",""time""
""blur"",""0"",""522""
""focus"",""0"",""662""
""fullscreenenter"",""0"",""1977""
","""event"",""trial"",""time""
""blur"",""0"",""522""
","""event"",""trial"",""time""
""focus"",""0"",""662""
","""event"",""trial"",""time""
""fullscreenenter"",""0"",""1977""
","
","67.10000002384186","","","","","","","","49","0,0,0","6","blank","276","null","0.12664365119654933","0.6498591112388653","0.32960006313809037","0","","","","","","","","",""
"","html-keyboard-response","113","342118","0.0-65.0-1.0","""event"",""trial"",""time""
""blur"",""0"",""522""
""focus"",""0"",""662""
""fullscreenenter"",""0"",""1977""
","""event"",""trial"",""time""
""blur"",""0"",""522""
","""event"",""trial"",""time""
""focus"",""0"",""662""
","""event"",""trial"",""time""
""fullscreenenter"",""0"",""1977""
","
","null","<p></p>","null","","","","","","","","","","","","","","","","","","","","","","","",""
"","do_trial","114","344673","0.0-66.0-0.0","""event"",""trial"",""time""
""blur"",""0"",""522""
""focus"",""0"",""662""
""fullscreenenter"",""0"",""1977""
","""event"",""trial"",""time""
""blur"",""0"",""522""
","""event"",""trial"",""time""
""focus"",""0"",""662""
","""event"",""trial"",""time""
""fullscreenenter"",""0"",""1977""
","
","0.09999996423721313","","","","","","","","50","0,1,0","6","blank","277","null","0.2765037880372697","0.6423919515870266","0.2997369453540626","1","","","","","","","","",""
"","html-keyboard-response","115","345684","0.0-66.0-1.0","""event"",""trial"",""time""
""blur"",""0"",""522""
""focus"",""0"",""662""
""fullscreenenter"",""0"",""1977""
","""event"",""trial"",""time""
""blur"",""0"",""522""
","""event"",""trial"",""time""
""focus"",""0"",""662""
","""event"",""trial"",""time""
""fullscreenenter"",""0"",""1977""
","
","null","<p></p>","null","","","","","","","","","","","","","","","","","","","","","","","",""
"","do_trial","116","348323","0.0-67.0-0.0","""event"",""trial"",""time""
""blur"",""0"",""522""
""focus"",""0"",""662""
""fullscreenenter"",""0"",""1977""
","""event"",""trial"",""time""
""blur"",""0"",""522""
","""event"",""trial"",""time""
""focus"",""0"",""662""
","""event"",""trial"",""time""
""fullscreenenter"",""0"",""1977""
","
","93.89999997615814","","","","","","","","51","0,1,0","6","blank","278","null","0.281369881385314","0.73848368197101","0.4192843522088571","0","","","","","","","","",""
"","html-keyboard-response","117","349333","0.0-67.0-1.0","""event"",""trial"",""time""
""blur"",""0"",""522""
""focus"",""0"",""662""
""fullscreenenter"",""0"",""1977""
","""event"",""trial"",""time""
""blur"",""0"",""522""
","""event"",""trial"",""time""
""focus"",""0"",""662""
","""event"",""trial"",""time""
""fullscreenenter"",""0"",""1977""
","
","null","<p></p>","null","","","","","","","","","","","","","","","","","","","","","","","",""
"","do_recog","118","352212","0.0-68.0-0.0","""event"",""trial"",""time""
""blur"",""0"",""522""
""focus"",""0"",""662""
""fullscreenenter"",""0"",""1977""
","""event"",""trial"",""time""
""blur"",""0"",""522""
","""event"",""trial"",""time""
""focus"",""0"",""662""
","""event"",""trial"",""time""
""fullscreenenter"",""0"",""1977""
","
","1361.7999999523163","","","","","","","","56","","","","279","probe-252","","","","","0","[object Object]","null","null","1","","","",""
"","html-keyboard-response","119","353218","0.0-68.0-1.0","""event"",""trial"",""time""
""blur"",""0"",""522""
""focus"",""0"",""662""
""fullscreenenter"",""0"",""1977""
","""event"",""trial"",""time""
""blur"",""0"",""522""
","""event"",""trial"",""time""
""focus"",""0"",""662""
","""event"",""trial"",""time""
""fullscreenenter"",""0"",""1977""
","
","null","<p></p>","null","","","","","","","","","","","","","","","","","","","","","","","",""
"","do_trial","120","356026","0.0-69.0-0.0","""event"",""trial"",""time""
""blur"",""0"",""522""
""focus"",""0"",""662""
""fullscreenenter"",""0"",""1977""
","""event"",""trial"",""time""
""blur"",""0"",""522""
","""event"",""trial"",""time""
""focus"",""0"",""662""
","""event"",""trial"",""time""
""fullscreenenter"",""0"",""1977""
","
","250.70000004768372","","","","","","","","50","0,1,0","6","blank","280","null","0.20069154372057374","0.6896755189753436","0.38486576127477923","1","","","","","","","","",""
"","html-keyboard-response","121","357044","0.0-69.0-1.0","""event"",""trial"",""time""
""blur"",""0"",""522""
""focus"",""0"",""662""
""fullscreenenter"",""0"",""1977""
","""event"",""trial"",""time""
""blur"",""0"",""522""
","""event"",""trial"",""time""
""focus"",""0"",""662""
","""event"",""trial"",""time""
""fullscreenenter"",""0"",""1977""
","
","null","<p></p>","null","","","","","","","","","","","","","","","","","","","","","","","",""
"","do_recog","122","360032","0.0-70.0-0.0","""event"",""trial"",""time""
""blur"",""0"",""522""
""focus"",""0"",""662""
""fullscreenenter"",""0"",""1977""
","""event"",""trial"",""time""
""blur"",""0"",""522""
","""event"",""trial"",""time""
""focus"",""0"",""662""
","""event"",""trial"",""time""
""fullscreenenter"",""0"",""1977""
","
","1465.5999999642372","","","","","","","","56","","","","281","probe-160","","","","","1","[object Object]","190","4","0","","","",""
"","html-keyboard-response","123","361041","0.0-70.0-1.0","""event"",""trial"",""time""
""blur"",""0"",""522""
""focus"",""0"",""662""
""fullscreenenter"",""0"",""1977""
","""event"",""trial"",""time""
""blur"",""0"",""522""
","""event"",""trial"",""time""
""focus"",""0"",""662""
","""event"",""trial"",""time""
""fullscreenenter"",""0"",""1977""
","
","null","<p></p>","null","","","","","","","","","","","","","","","","","","","","","","","",""
"","do_trial","124","363782","0.0-71.0-0.0","""event"",""trial"",""time""
""blur"",""0"",""522""
""focus"",""0"",""662""
""fullscreenenter"",""0"",""1977""
","""event"",""trial"",""time""
""blur"",""0"",""522""
","""event"",""trial"",""time""
""focus"",""0"",""662""
","""event"",""trial"",""time""
""fullscreenenter"",""0"",""1977""
","
","192.80000001192093","","","","","","","","49","0,1,1","6","blank","282","null","0.07047286116961742","0.6188800262089648","0.4319097105381883","0","","","","","","","","",""
"","html-keyboard-response","125","364798","0.0-71.0-1.0","""event"",""trial"",""time""
""blur"",""0"",""522""
""focus"",""0"",""662""
""fullscreenenter"",""0"",""1977""
","""event"",""trial"",""time""
""blur"",""0"",""522""
","""event"",""trial"",""time""
""focus"",""0"",""662""
","""event"",""trial"",""time""
""fullscreenenter"",""0"",""1977""
","
","null","<p></p>","null","","","","","","","","","","","","","","","","","","","","","","","",""
"","do_recog","126","367131","0.0-72.0-0.0","""event"",""trial"",""time""
""blur"",""0"",""522""
""focus"",""0"",""662""
""fullscreenenter"",""0"",""1977""
","""event"",""trial"",""time""
""blur"",""0"",""522""
","""event"",""trial"",""time""
""focus"",""0"",""662""
","""event"",""trial"",""time""
""fullscreenenter"",""0"",""1977""
","
","817.5","","","","","","","","53","","","","283","probe-92","","","","","1","[object Object]","74","1","1","","","",""
"","html-keyboard-response","127","368142","0.0-72.0-1.0","""event"",""trial"",""time""
""blur"",""0"",""522""
""focus"",""0"",""662""
""fullscreenenter"",""0"",""1977""
","""event"",""trial"",""time""
""blur"",""0"",""522""
","""event"",""trial"",""time""
""focus"",""0"",""662""
","""event"",""trial"",""time""
""fullscreenenter"",""0"",""1977""
","
","null","<p></p>","null","","","","","","","","","","","","","","","","","","","","","","","",""
"","do_trial","128","370826","0.0-73.0-0.0","""event"",""trial"",""time""
""blur"",""0"",""522""
""focus"",""0"",""662""
""fullscreenenter"",""0"",""1977""
","""event"",""trial"",""time""
""blur"",""0"",""522""
","""event"",""trial"",""time""
""focus"",""0"",""662""
","""event"",""trial"",""time""
""fullscreenenter"",""0"",""1977""
","
","139.70000004768372","","","","","","","","51","1,0,0","6","blank","284","null","0.11525294267843966","0.7595591503909529","0.5184485751996687","0","","","","","","","","",""
"","html-keyboard-response","129","371832","0.0-73.0-1.0","""event"",""trial"",""time""
""blur"",""0"",""522""
""focus"",""0"",""662""
""fullscreenenter"",""0"",""1977""
","""event"",""trial"",""time""
""blur"",""0"",""522""
","""event"",""trial"",""time""
""focus"",""0"",""662""
","""event"",""trial"",""time""
""fullscreenenter"",""0"",""1977""
","
","null","<p></p>","null","","","","","","","","","","","","","","","","","","","","","","","",""
"","do_trial","130","374463","0.0-74.0-0.0","""event"",""trial"",""time""
""blur"",""0"",""522""
""focus"",""0"",""662""
""fullscreenenter"",""0"",""1977""
","""event"",""trial"",""time""
""blur"",""0"",""522""
","""event"",""trial"",""time""
""focus"",""0"",""662""
","""event"",""trial"",""time""
""fullscreenenter"",""0"",""1977""
","
","82.30000001192093","","","","","","","","49","0,1,1","6","blank","285","null","0.051221029035842344","0.6609828803813366","0.566930233356975","0","","","","","","","","",""
"","html-keyboard-response","131","375477","0.0-74.0-1.0","""event"",""trial"",""time""
""blur"",""0"",""522""
""focus"",""0"",""662""
""fullscreenenter"",""0"",""1977""
","""event"",""trial"",""time""
""blur"",""0"",""522""
","""event"",""trial"",""time""
""focus"",""0"",""662""
","""event"",""trial"",""time""
""fullscreenenter"",""0"",""1977""
","
","null","<p></p>","null","","","","","","","","","","","","","","","","","","","","","","","",""
"","do_trial","132","378030","0.0-75.0-0.0","""event"",""trial"",""time""
""blur"",""0"",""522""
""focus"",""0"",""662""
""fullscreenenter"",""0"",""1977""
","""event"",""trial"",""time""
""blur"",""0"",""522""
","""event"",""trial"",""time""
""focus"",""0"",""662""
","""event"",""trial"",""time""
""fullscreenenter"",""0"",""1977""
","
","0.10000002384185791","","","","","","","","50","0,1,0","6","blank","286","null","0.07617014654380225","0.5112551377000025","0.46642726801397244","1","","","","","","","","",""
"","html-keyboard-response","133","379032","0.0-75.0-1.0","""event"",""trial"",""time""
""blur"",""0"",""522""
""focus"",""0"",""662""
""fullscreenenter"",""0"",""1977""
","""event"",""trial"",""time""
""blur"",""0"",""522""
","""event"",""trial"",""time""
""focus"",""0"",""662""
","""event"",""trial"",""time""
""fullscreenenter"",""0"",""1977""
","
","null","<p></p>","null","","","","","","","","","","","","","","","","","","","","","","","",""
"","do_trial","134","381752","0.0-76.0-0.0","""event"",""trial"",""time""
""blur"",""0"",""522""
""focus"",""0"",""662""
""fullscreenenter"",""0"",""1977""
","""event"",""trial"",""time""
""blur"",""0"",""522""
","""event"",""trial"",""time""
""focus"",""0"",""662""
","""event"",""trial"",""time""
""fullscreenenter"",""0"",""1977""
","
","172.5","","","","","","","","50","0,1,0","6","blank","287","null","0.055747654534506696","0.6134167743478715","0.3726703510582287","1","","","","","","","","",""
"","html-keyboard-response","135","382761","0.0-76.0-1.0","""event"",""trial"",""time""
""blur"",""0"",""522""
""focus"",""0"",""662""
""fullscreenenter"",""0"",""1977""
","""event"",""trial"",""time""
""blur"",""0"",""522""
","""event"",""trial"",""time""
""focus"",""0"",""662""
","""event"",""trial"",""time""
""fullscreenenter"",""0"",""1977""
","
","null","<p></p>","null","","","","","","","","","","","","","","","","","","","","","","","",""
"","do_trial","136","385378","0.0-77.0-0.0","""event"",""trial"",""time""
""blur"",""0"",""522""
""focus"",""0"",""662""
""fullscreenenter"",""0"",""1977""
","""event"",""trial"",""time""
""blur"",""0"",""522""
","""event"",""trial"",""time""
""focus"",""0"",""662""
","""event"",""trial"",""time""
""fullscreenenter"",""0"",""1977""
","
","65.59999996423721","","","","","","","","51","0,0,0","6","blank","288","null","0.11634756670723753","0.6073431964280621","0.27731923469993325","0","","","","","","","","",""
"","html-keyboard-response","137","386394","0.0-77.0-1.0","""event"",""trial"",""time""
""blur"",""0"",""522""
""focus"",""0"",""662""
""fullscreenenter"",""0"",""1977""
","""event"",""trial"",""time""
""blur"",""0"",""522""
","""event"",""trial"",""time""
""focus"",""0"",""662""
","""event"",""trial"",""time""
""fullscreenenter"",""0"",""1977""
","
","null","<p></p>","null","","","","","","","","","","","","","","","","","","","","","","","",""
"","do_recog","138","388744","0.0-78.0-0.0","""event"",""trial"",""time""
""blur"",""0"",""522""
""focus"",""0"",""662""
""fullscreenenter"",""0"",""1977""
","""event"",""trial"",""time""
""blur"",""0"",""522""
","""event"",""trial"",""time""
""focus"",""0"",""662""
","""event"",""trial"",""time""
""fullscreenenter"",""0"",""1977""
","
","833.0999999642372","","","","","","","","53","","","","289","probe-177","","","","","1","[object Object]","37","0","1","","","",""
"","html-keyboard-response","139","389761","0.0-78.0-1.0","""event"",""trial"",""time""
""blur"",""0"",""522""
""focus"",""0"",""662""
""fullscreenenter"",""0"",""1977""
","""event"",""trial"",""time""
""blur"",""0"",""522""
","""event"",""trial"",""time""
""focus"",""0"",""662""
","""event"",""trial"",""time""
""fullscreenenter"",""0"",""1977""
","
","null","<p></p>","null","","","","","","","","","","","","","","","","","","","","","","","",""
"","do_trial","140","392433","0.0-79.0-0.0","""event"",""trial"",""time""
""blur"",""0"",""522""
""focus"",""0"",""662""
""fullscreenenter"",""0"",""1977""
","""event"",""trial"",""time""
""blur"",""0"",""522""
","""event"",""trial"",""time""
""focus"",""0"",""662""
","""event"",""trial"",""time""
""fullscreenenter"",""0"",""1977""
","
","124","","","","","","","","49","0,1,0","6","blank","290","null","0.16180190892756305","0.6732773594906689","0.2831856698999711","0","","","","","","","","",""
"","html-keyboard-response","141","393443","0.0-79.0-1.0","""event"",""trial"",""time""
""blur"",""0"",""522""
""focus"",""0"",""662""
""fullscreenenter"",""0"",""1977""
","""event"",""trial"",""time""
""blur"",""0"",""522""
","""event"",""trial"",""time""
""focus"",""0"",""662""
","""event"",""trial"",""time""
""fullscreenenter"",""0"",""1977""
","
","null","<p></p>","null","","","","","","","","","","","","","","","","","","","","","","","",""
"","do_recog","142","396309","0.0-80.0-0.0","""event"",""trial"",""time""
""blur"",""0"",""522""
""focus"",""0"",""662""
""fullscreenenter"",""0"",""1977""
","""event"",""trial"",""time""
""blur"",""0"",""522""
","""event"",""trial"",""time""
""focus"",""0"",""662""
","""event"",""trial"",""time""
""fullscreenenter"",""0"",""1977""
","
","1353.800000011921","","","","","","","","55","","","","291","probe-81","","","","","1","[object Object]","71","1","0","","","",""
"","html-keyboard-response","143","397326","0.0-80.0-1.0","""event"",""trial"",""time""
""blur"",""0"",""522""
""focus"",""0"",""662""
""fullscreenenter"",""0"",""1977""
","""event"",""trial"",""time""
""blur"",""0"",""522""
","""event"",""trial"",""time""
""focus"",""0"",""662""
","""event"",""trial"",""time""
""fullscreenenter"",""0"",""1977""
","
","null","<p></p>","null","","","","","","","","","","","","","","","","","","","","","","","",""
"","do_trial","144","400176","0.0-81.0-0.0","""event"",""trial"",""time""
""blur"",""0"",""522""
""focus"",""0"",""662""
""fullscreenenter"",""0"",""1977""
","""event"",""trial"",""time""
""blur"",""0"",""522""
","""event"",""trial"",""time""
""focus"",""0"",""662""
","""event"",""trial"",""time""
""fullscreenenter"",""0"",""1977""
","
","300.5","","","","","","","","49","0,1,1","6","blank","292","null","0.19144683248548774","0.7253070029208264","0.34928999095119123","0","","","","","","","","",""
"","html-keyboard-response","145","401191","0.0-81.0-1.0","""event"",""trial"",""time""
""blur"",""0"",""522""
""focus"",""0"",""662""
""fullscreenenter"",""0"",""1977""
","""event"",""trial"",""time""
""blur"",""0"",""522""
","""event"",""trial"",""time""
""focus"",""0"",""662""
","""event"",""trial"",""time""
""fullscreenenter"",""0"",""1977""
","
","null","<p></p>","null","","","","","","","","","","","","","","","","","","","","","","","",""
"","do_trial","146","403824","0.0-82.0-0.0","""event"",""trial"",""time""
""blur"",""0"",""522""
""focus"",""0"",""662""
""fullscreenenter"",""0"",""1977""
","""event"",""trial"",""time""
""blur"",""0"",""522""
","""event"",""trial"",""time""
""focus"",""0"",""662""
","""event"",""trial"",""time""
""fullscreenenter"",""0"",""1977""
","
","78.30000001192093","","","","","","","","51","0,1,1","6","blank","293","null","0.1445034793055918","0.7381250241934005","0.4103476000008926","1","","","","","","","","",""
"","html-keyboard-response","147","404840","0.0-82.0-1.0","""event"",""trial"",""time""
""blur"",""0"",""522""
""focus"",""0"",""662""
""fullscreenenter"",""0"",""1977""
","""event"",""trial"",""time""
""blur"",""0"",""522""
","""event"",""trial"",""time""
""focus"",""0"",""662""
","""event"",""trial"",""time""
""fullscreenenter"",""0"",""1977""
","
","null","<p></p>","null","","","","","","","","","","","","","","","","","","","","","","","",""
"","do_trial","148","407392","0.0-83.0-0.0","""event"",""trial"",""time""
""blur"",""0"",""522""
""focus"",""0"",""662""
""fullscreenenter"",""0"",""1977""
","""event"",""trial"",""time""
""blur"",""0"",""522""
","""event"",""trial"",""time""
""focus"",""0"",""662""
","""event"",""trial"",""time""
""fullscreenenter"",""0"",""1977""
","
","0.10000002384185791","","","","","","","","50","0,1,0","6","blank","294","null","0.11672058464287975","0.7388236819958663","0.40193820420866233","1","","","","","","","","",""
"","html-keyboard-response","149","408407","0.0-83.0-1.0","""event"",""trial"",""time""
""blur"",""0"",""522""
""focus"",""0"",""662""
""fullscreenenter"",""0"",""1977""
","""event"",""trial"",""time""
""blur"",""0"",""522""
","""event"",""trial"",""time""
""focus"",""0"",""662""
","""event"",""trial"",""time""
""fullscreenenter"",""0"",""1977""
","
","null","<p></p>","null","","","","","","","","","","","","","","","","","","","","","","","",""
"","do_recog","150","411122","0.0-84.0-0.0","""event"",""trial"",""time""
""blur"",""0"",""522""
""focus"",""0"",""662""
""fullscreenenter"",""0"",""1977""
","""event"",""trial"",""time""
""blur"",""0"",""522""
","""event"",""trial"",""time""
""focus"",""0"",""662""
","""event"",""trial"",""time""
""fullscreenenter"",""0"",""1977""
","
","1195","","","","","","","","56","","","","295","probe-06","","","","","1","[object Object]","152","3","0","","","",""
"","html-keyboard-response","151","412125","0.0-84.0-1.0","""event"",""trial"",""time""
""blur"",""0"",""522""
""focus"",""0"",""662""
""fullscreenenter"",""0"",""1977""
","""event"",""trial"",""time""
""blur"",""0"",""522""
","""event"",""trial"",""time""
""focus"",""0"",""662""
","""event"",""trial"",""time""
""fullscreenenter"",""0"",""1977""
","
","null","<p></p>","null","","","","","","","","","","","","","","","","","","","","","","","",""
"","do_trial","152","414674","0.0-85.0-0.0","""event"",""trial"",""time""
""blur"",""0"",""522""
""focus"",""0"",""662""
""fullscreenenter"",""0"",""1977""
","""event"",""trial"",""time""
""blur"",""0"",""522""
","""event"",""trial"",""time""
""focus"",""0"",""662""
","""event"",""trial"",""time""
""fullscreenenter"",""0"",""1977""
","
","0.19999998807907104","","","","","","","","49","0,0,0","6","blank","296","null","0.3098658786001631","0.48286530931543964","0.2505515664035259","0","","","","","","","","",""
"","html-keyboard-response","153","415679","0.0-85.0-1.0","""event"",""trial"",""time""
""blur"",""0"",""522""
""focus"",""0"",""662""
""fullscreenenter"",""0"",""1977""
","""event"",""trial"",""time""
""blur"",""0"",""522""
","""event"",""trial"",""time""
""focus"",""0"",""662""
","""event"",""trial"",""time""
""fullscreenenter"",""0"",""1977""
","
","null","<p></p>","null","","","","","","","","","","","","","","","","","","","","","","","",""
"","do_recog","154","418306","0.0-86.0-0.0","""event"",""trial"",""time""
""blur"",""0"",""522""
""focus"",""0"",""662""
""fullscreenenter"",""0"",""1977""
","""event"",""trial"",""time""
""blur"",""0"",""522""
","""event"",""trial"",""time""
""focus"",""0"",""662""
","""event"",""trial"",""time""
""fullscreenenter"",""0"",""1977""
","
","1103.4000000357628","","","","","","","","56","","","","297","probe-182","","","","","1","[object Object]","112","2","0","","","",""
"","html-keyboard-response","155","419321","0.0-86.0-1.0","""event"",""trial"",""time""
""blur"",""0"",""522""
""focus"",""0"",""662""
""fullscreenenter"",""0"",""1977""
","""event"",""trial"",""time""
""blur"",""0"",""522""
","""event"",""trial"",""time""
""focus"",""0"",""662""
","""event"",""trial"",""time""
""fullscreenenter"",""0"",""1977""
","
","null","<p></p>","null","","","","","","","","","","","","","","","","","","","","","","","",""
"","do_trial","156","421989","0.0-87.0-0.0","""event"",""trial"",""time""
""blur"",""0"",""522""
""focus"",""0"",""662""
""fullscreenenter"",""0"",""1977""
","""event"",""trial"",""time""
""blur"",""0"",""522""
","""event"",""trial"",""time""
""focus"",""0"",""662""
","""event"",""trial"",""time""
""fullscreenenter"",""0"",""1977""
","
","115.89999997615814","","","","","","","","51","0,0,0","6","blank","298","null","0.4940967038813493","0.33829109660634177","0.15931989787190368","0","","","","","","","","",""
"","html-keyboard-response","157","423006","0.0-87.0-1.0","""event"",""trial"",""time""
""blur"",""0"",""522""
""focus"",""0"",""662""
""fullscreenenter"",""0"",""1977""
","""event"",""trial"",""time""
""blur"",""0"",""522""
","""event"",""trial"",""time""
""focus"",""0"",""662""
","""event"",""trial"",""time""
""fullscreenenter"",""0"",""1977""
","
","null","<p></p>","null","","","","","","","","","","","","","","","","","","","","","","","",""
"","do_trial","158","425738","0.0-88.0-0.0","""event"",""trial"",""time""
""blur"",""0"",""522""
""focus"",""0"",""662""
""fullscreenenter"",""0"",""1977""
","""event"",""trial"",""time""
""blur"",""0"",""522""
","""event"",""trial"",""time""
""focus"",""0"",""662""
","""event"",""trial"",""time""
""fullscreenenter"",""0"",""1977""
","
","178.5","","","","","","","","49","1,0,0","6","blank","299","null","0.4102683804140655","0.3422044723313068","0.14301156257825026","1","","","","","","","","",""
"","html-keyboard-response","159","426754","0.0-88.0-1.0","""event"",""trial"",""time""
""blur"",""0"",""522""
""focus"",""0"",""662""
""fullscreenenter"",""0"",""1977""
","""event"",""trial"",""time""
""blur"",""0"",""522""
","""event"",""trial"",""time""
""focus"",""0"",""662""
","""event"",""trial"",""time""
""fullscreenenter"",""0"",""1977""
","
","null","<p></p>","null","","","","","","","","","","","","","","","","","","","","","","","",""
"","do_trial","160","429521","0.0-89.0-0.0","""event"",""trial"",""time""
""blur"",""0"",""522""
""focus"",""0"",""662""
""fullscreenenter"",""0"",""1977""
","""event"",""trial"",""time""
""blur"",""0"",""522""
","""event"",""trial"",""time""
""focus"",""0"",""662""
","""event"",""trial"",""time""
""fullscreenenter"",""0"",""1977""
","
","215.5","","","","","","","","50","1,0,0","6","blank","300","null","0.5095701072095842","0.22488451476801963","0.0696005167615426","0","","","","","","","","",""
"","html-keyboard-response","161","430536","0.0-89.0-1.0","""event"",""trial"",""time""
""blur"",""0"",""522""
""focus"",""0"",""662""
""fullscreenenter"",""0"",""1977""
","""event"",""trial"",""time""
""blur"",""0"",""522""
","""event"",""trial"",""time""
""focus"",""0"",""662""
","""event"",""trial"",""time""
""fullscreenenter"",""0"",""1977""
","
","null","<p></p>","null","","","","","","","","","","","","","","","","","","","","","","","",""
"","do_recog","162","433620","0.0-90.0-0.0","""event"",""trial"",""time""
""blur"",""0"",""522""
""focus"",""0"",""662""
""fullscreenenter"",""0"",""1977""
","""event"",""trial"",""time""
""blur"",""0"",""522""
","""event"",""trial"",""time""
""focus"",""0"",""662""
","""event"",""trial"",""time""
""fullscreenenter"",""0"",""1977""
","
","1568.3999999761581","","","","","","","","53","","","","301","probe-119","","","","","1","[object Object]","153","3","1","","","",""
"","html-keyboard-response","163","434635","0.0-90.0-1.0","""event"",""trial"",""time""
""blur"",""0"",""522""
""focus"",""0"",""662""
""fullscreenenter"",""0"",""1977""
","""event"",""trial"",""time""
""blur"",""0"",""522""
","""event"",""trial"",""time""
""focus"",""0"",""662""
","""event"",""trial"",""time""
""fullscreenenter"",""0"",""1977""
","
","null","<p></p>","null","","","","","","","","","","","","","","","","","","","","","","","",""
"","do_trial","164","437386","0.0-91.0-0.0","""event"",""trial"",""time""
""blur"",""0"",""522""
""focus"",""0"",""662""
""fullscreenenter"",""0"",""1977""
","""event"",""trial"",""time""
""blur"",""0"",""522""
","""event"",""trial"",""time""
""focus"",""0"",""662""
","""event"",""trial"",""time""
""fullscreenenter"",""0"",""1977""
","
","201.5999999642372","","","","","","","","49","1,1,1","6","blank","302","null","0.597185925300659","0.2107514580555808","0.12207604247330923","1","","","","","","","","",""
"","html-keyboard-response","165","438392","0.0-91.0-1.0","""event"",""trial"",""time""
""blur"",""0"",""522""
""focus"",""0"",""662""
""fullscreenenter"",""0"",""1977""
","""event"",""trial"",""time""
""blur"",""0"",""522""
","""event"",""trial"",""time""
""focus"",""0"",""662""
","""event"",""trial"",""time""
""fullscreenenter"",""0"",""1977""
","
","null","<p></p>","null","","","","","","","","","","","","","","","","","","","","","","","",""
"","do_trial","166","441186","0.0-92.0-0.0","""event"",""trial"",""time""
""blur"",""0"",""522""
""focus"",""0"",""662""
""fullscreenenter"",""0"",""1977""
","""event"",""trial"",""time""
""blur"",""0"",""522""
","""event"",""trial"",""time""
""focus"",""0"",""662""
","""event"",""trial"",""time""
""fullscreenenter"",""0"",""1977""
","
","241.10000002384186","","","","","","","","50","0,1,0","6","blank","303","null","0.46708569835354896","0.28473492872146045","0.15836711529945546","1","","","","","","","","",""
"","html-keyboard-response","167","442202","0.0-92.0-1.0","""event"",""trial"",""time""
""blur"",""0"",""522""
""focus"",""0"",""662""
""fullscreenenter"",""0"",""1977""
","""event"",""trial"",""time""
""blur"",""0"",""522""
","""event"",""trial"",""time""
""focus"",""0"",""662""
","""event"",""trial"",""time""
""fullscreenenter"",""0"",""1977""
","
","null","<p></p>","null","","","","","","","","","","","","","","","","","","","","","","","",""
"","do_trial","168","445035","0.0-93.0-0.0","""event"",""trial"",""time""
""blur"",""0"",""522""
""focus"",""0"",""662""
""fullscreenenter"",""0"",""1977""
","""event"",""trial"",""time""
""blur"",""0"",""522""
","""event"",""trial"",""time""
""focus"",""0"",""662""
","""event"",""trial"",""time""
""fullscreenenter"",""0"",""1977""
","
","283.69999998807907","","","","","","","","51","0,1,0","6","blank","304","null","0.48644470187385497","0.5058049212258231","0.17726416370127815","0","","","","","","","","",""
"","html-keyboard-response","169","446050","0.0-93.0-1.0","""event"",""trial"",""time""
""blur"",""0"",""522""
""focus"",""0"",""662""
""fullscreenenter"",""0"",""1977""
","""event"",""trial"",""time""
""blur"",""0"",""522""
","""event"",""trial"",""time""
""focus"",""0"",""662""
","""event"",""trial"",""time""
""fullscreenenter"",""0"",""1977""
","
","null","<p></p>","null","","","","","","","","","","","","","","","","","","","","","","","",""
"","do_trial","170","448901","0.0-94.0-0.0","""event"",""trial"",""time""
""blur"",""0"",""522""
""focus"",""0"",""662""
""fullscreenenter"",""0"",""1977""
","""event"",""trial"",""time""
""blur"",""0"",""522""
","""event"",""trial"",""time""
""focus"",""0"",""662""
","""event"",""trial"",""time""
""fullscreenenter"",""0"",""1977""
","
","305.7999999523163","","","","","","","","49","1,1,0","6","blank","305","null","0.6767885321499426","0.4223004605736525","0.12662207046892537","1","","","","","","","","",""
"","html-keyboard-response","171","449917","0.0-94.0-1.0","""event"",""trial"",""time""
""blur"",""0"",""522""
""focus"",""0"",""662""
""fullscreenenter"",""0"",""1977""
","""event"",""trial"",""time""
""blur"",""0"",""522""
","""event"",""trial"",""time""
""focus"",""0"",""662""
","""event"",""trial"",""time""
""fullscreenenter"",""0"",""1977""
","
","null","<p></p>","null","","","","","","","","","","","","","","","","","","","","","","","",""
"","do_recog","172","452617","0.0-95.0-0.0","""event"",""trial"",""time""
""blur"",""0"",""522""
""focus"",""0"",""662""
""fullscreenenter"",""0"",""1977""
","""event"",""trial"",""time""
""blur"",""0"",""522""
","""event"",""trial"",""time""
""focus"",""0"",""662""
","""event"",""trial"",""time""
""fullscreenenter"",""0"",""1977""
","
","1186.199999988079","","","","","","","","54","","","","306","probe-236","","","","","0","[object Object]","null","null","0","","","",""
"","html-keyboard-response","173","453632","0.0-95.0-1.0","""event"",""trial"",""time""
""blur"",""0"",""522""
""focus"",""0"",""662""
""fullscreenenter"",""0"",""1977""
","""event"",""trial"",""time""
""blur"",""0"",""522""
","""event"",""trial"",""time""
""focus"",""0"",""662""
","""event"",""trial"",""time""
""fullscreenenter"",""0"",""1977""
","
","null","<p></p>","null","","","","","","","","","","","","","","","","","","","","","","","",""
"","do_trial","174","456249","0.0-96.0-0.0","""event"",""trial"",""time""
""blur"",""0"",""522""
""focus"",""0"",""662""
""fullscreenenter"",""0"",""1977""
","""event"",""trial"",""time""
""blur"",""0"",""522""
","""event"",""trial"",""time""
""focus"",""0"",""662""
","""event"",""trial"",""time""
""fullscreenenter"",""0"",""1977""
","
","64.10000002384186","","","","","","","","49","1,0,0","6","blank","307","null","0.6540432633328962","0.401165944625938","0.18830174963823862","1","","","","","","","","",""
"","html-keyboard-response","175","457265","0.0-96.0-1.0","""event"",""trial"",""time""
""blur"",""0"",""522""
""focus"",""0"",""662""
""fullscreenenter"",""0"",""1977""
","""event"",""trial"",""time""
""blur"",""0"",""522""
","""event"",""trial"",""time""
""focus"",""0"",""662""
","""event"",""trial"",""time""
""fullscreenenter"",""0"",""1977""
","
","null","<p></p>","null","","","","","","","","","","","","","","","","","","","","","","","",""
"","do_recog","176","460102","0.0-97.0-0.0","""event"",""trial"",""time""
""blur"",""0"",""522""
""focus"",""0"",""662""
""fullscreenenter"",""0"",""1977""
","""event"",""trial"",""time""
""blur"",""0"",""522""
","""event"",""trial"",""time""
""focus"",""0"",""662""
","""event"",""trial"",""time""
""fullscreenenter"",""0"",""1977""
","
","1324.800000011921","","","","","","","","54","","","","308","probe-68","","","","","1","[object Object]","151","3","1","","","",""
"","html-keyboard-response","177","461115","0.0-97.0-1.0","""event"",""trial"",""time""
""blur"",""0"",""522""
""focus"",""0"",""662""
""fullscreenenter"",""0"",""1977""
","""event"",""trial"",""time""
""blur"",""0"",""522""
","""event"",""trial"",""time""
""focus"",""0"",""662""
","""event"",""trial"",""time""
""fullscreenenter"",""0"",""1977""
","
","null","<p></p>","null","","","","","","","","","","","","","","","","","","","","","","","",""
"","break","178","462616","0.0-98.0-0.0","""event"",""trial"",""time""
""blur"",""0"",""522""
""focus"",""0"",""662""
""fullscreenenter"",""0"",""1977""
","""event"",""trial"",""time""
""blur"",""0"",""522""
","""event"",""trial"",""time""
""focus"",""0"",""662""
","""event"",""trial"",""time""
""fullscreenenter"",""0"",""1977""
","
","1499","<div class='center'><p>Time to take a quick break! You have 2 minutes to rest, but you can move on sooner if you'd like.</p><p> Press the <b>space bar</b> to continue.</p></div>","32","","","","","","","","","","","","","","","","","","","","","","","",""
"","do_trial","179","465748","0.0-98.0-1.0","""event"",""trial"",""time""
""blur"",""0"",""522""
""focus"",""0"",""662""
""fullscreenenter"",""0"",""1977""
","""event"",""trial"",""time""
""blur"",""0"",""522""
","""event"",""trial"",""time""
""focus"",""0"",""662""
","""event"",""trial"",""time""
""fullscreenenter"",""0"",""1977""
","
","573.6000000238419","","","","","","","","49","0,0,0","6","blank","309","null","0.5703874404774925","0.43704260741354184","0.1806762248741706","0","","","","","","","","",""
"","html-keyboard-response","180","466764","0.0-98.0-2.0","""event"",""trial"",""time""
""blur"",""0"",""522""
""focus"",""0"",""662""
""fullscreenenter"",""0"",""1977""
","""event"",""trial"",""time""
""blur"",""0"",""522""
","""event"",""trial"",""time""
""focus"",""0"",""662""
","""event"",""trial"",""time""
""fullscreenenter"",""0"",""1977""
","
","null","<p></p>","null","","","","","","","","","","","","","","","","","","","","","","","",""
"","do_trial","181","469465","0.0-99.0-0.0","""event"",""trial"",""time""
""blur"",""0"",""522""
""focus"",""0"",""662""
""fullscreenenter"",""0"",""1977""
","""event"",""trial"",""time""
""blur"",""0"",""522""
","""event"",""trial"",""time""
""focus"",""0"",""662""
","""event"",""trial"",""time""
""fullscreenenter"",""0"",""1977""
","
","156.19999998807907","","","","","","","","51","1,1,0","6","blank","310","null","0.613147921382414","0.4397845810202159","0.08174469206391517","0","","","","","","","","",""
"","html-keyboard-response","182","470478","0.0-99.0-1.0","""event"",""trial"",""time""
""blur"",""0"",""522""
""focus"",""0"",""662""
""fullscreenenter"",""0"",""1977""
","""event"",""trial"",""time""
""blur"",""0"",""522""
","""event"",""trial"",""time""
""focus"",""0"",""662""
","""event"",""trial"",""time""
""fullscreenenter"",""0"",""1977""
","
","null","<p></p>","null","","","","","","","","","","","","","","","","","","","","","","","",""
"","do_recog","183","473113","0.0-100.0-0.0","""event"",""trial"",""time""
""blur"",""0"",""522""
""focus"",""0"",""662""
""fullscreenenter"",""0"",""1977""
","""event"",""trial"",""time""
""blur"",""0"",""522""
","""event"",""trial"",""time""
""focus"",""0"",""662""
","""event"",""trial"",""time""
""fullscreenenter"",""0"",""1977""
","
","1111.5999999642372","","","","","","","","53","","","","311","probe-36","","","","","1","[object Object]","118","2","1","","","",""
"","html-keyboard-response","184","474129","0.0-100.0-1.0","""event"",""trial"",""time""
""blur"",""0"",""522""
""focus"",""0"",""662""
""fullscreenenter"",""0"",""1977""
","""event"",""trial"",""time""
""blur"",""0"",""522""
","""event"",""trial"",""time""
""focus"",""0"",""662""
","""event"",""trial"",""time""
""fullscreenenter"",""0"",""1977""
","
","null","<p></p>","null","","","","","","","","","","","","","","","","","","","","","","","",""
"","do_trial","185","476879","0.0-101.0-0.0","""event"",""trial"",""time""
""blur"",""0"",""522""
""focus"",""0"",""662""
""fullscreenenter"",""0"",""1977""
","""event"",""trial"",""time""
""blur"",""0"",""522""
","""event"",""trial"",""time""
""focus"",""0"",""662""
","""event"",""trial"",""time""
""fullscreenenter"",""0"",""1977""
","
","193","","","","","","","","50","1,1,0","6","blank","312","null","0.6046690018532214","0.4016838695349156","0.16068590844371614","1","","","","","","","","",""
"","html-keyboard-response","186","477895","0.0-101.0-1.0","""event"",""trial"",""time""
""blur"",""0"",""522""
""focus"",""0"",""662""
""fullscreenenter"",""0"",""1977""
","""event"",""trial"",""time""
""blur"",""0"",""522""
","""event"",""trial"",""time""
""focus"",""0"",""662""
","""event"",""trial"",""time""
""fullscreenenter"",""0"",""1977""
","
","null","<p></p>","null","","","","","","","","","","","","","","","","","","","","","","","",""
"","do_recog","187","480628","0.0-102.0-0.0","""event"",""trial"",""time""
""blur"",""0"",""522""
""focus"",""0"",""662""
""fullscreenenter"",""0"",""1977""
","""event"",""trial"",""time""
""blur"",""0"",""522""
","""event"",""trial"",""time""
""focus"",""0"",""662""
","""event"",""trial"",""time""
""fullscreenenter"",""0"",""1977""
","
","1218.699999988079","","","","","","","","55","","","","313","probe-251","","","","","0","[object Object]","null","null","1","","","",""
"","html-keyboard-response","188","481633","0.0-102.0-1.0","""event"",""trial"",""time""
""blur"",""0"",""522""
""focus"",""0"",""662""
""fullscreenenter"",""0"",""1977""
","""event"",""trial"",""time""
""blur"",""0"",""522""
","""event"",""trial"",""time""
""focus"",""0"",""662""
","""event"",""trial"",""time""
""fullscreenenter"",""0"",""1977""
","
","null","<p></p>","null","","","","","","","","","","","","","","","","","","","","","","","",""
"","do_trial","189","484228","0.0-103.0-0.0","""event"",""trial"",""time""
""blur"",""0"",""522""
""focus"",""0"",""662""
""fullscreenenter"",""0"",""1977""
","""event"",""trial"",""time""
""blur"",""0"",""522""
","""event"",""trial"",""time""
""focus"",""0"",""662""
","""event"",""trial"",""time""
""fullscreenenter"",""0"",""1977""
","
","40.60000002384186","","","","","","","","51","1,1,1","6","blank","314","null","0.5676629867330528","0.3641516804360149","0.19103806347799157","1","","","","","","","","",""
"","html-keyboard-response","190","485244","0.0-103.0-1.0","""event"",""trial"",""time""
""blur"",""0"",""522""
""focus"",""0"",""662""
""fullscreenenter"",""0"",""1977""
","""event"",""trial"",""time""
""blur"",""0"",""522""
","""event"",""trial"",""time""
