"success","trial_type","trial_index","time_elapsed","internal_node_id","interactions","blur_events","focus_events","fullscreenenter_events","fullscreenexit_events","rt","stimulus","key_press","subject_id","participant_id","age","gender","prompt","response","choice_outcomes","context_n","context_img_id","trial_n","probe_img_id","pR_red","pR_white","pR_black","outcome","is_valid","image_to_show","probed_trial","probed_context","correct","probe","probed_trial_n","probed_context_n","context_im"
"true","fullscreen","0","3241","0.0-0.0","""event"",""trial"",""time""
""fullscreenenter"",""0"",""2252""
","
","
","""event"",""trial"",""time""
""fullscreenenter"",""0"",""2252""
","
","","","","","","","","","","","","","","","","","","","","","","","","","","",""
"","pavlovia","1","3244","0.0-1.0","""event"",""trial"",""time""
""fullscreenenter"",""0"",""2252""
","
","
","""event"",""trial"",""time""
""fullscreenenter"",""0"",""2252""
","
","","","","","","","","","","","","","","","","","","","","","","","","","","",""
"","welc_back","2","13008","0.0-2.0","""event"",""trial"",""time""
""fullscreenenter"",""0"",""2252""
","
","
","""event"",""trial"",""time""
""fullscreenenter"",""0"",""2252""
","
","null","run_exp/static/audio/clip_29_welcome_back.m4a","null","428","395","22","Female","<div class='center'><p>Welcome to day 2!</p><p> Yesterday, you were the head captain of a pirate ship. You asked your fellow pirates to rob other ships of their gold across six different islands.</p></div>","","","","","","","","","","","","","","","","","","",""
"","html-keyboard-response","3","15447","0.0-3.0","""event"",""trial"",""time""
""fullscreenenter"",""0"",""2252""
","
","
","""event"",""trial"",""time""
""fullscreenenter"",""0"",""2252""
","
","2438.100000023842","<div class='center'><p>Welcome to day 2!</p><p> Yesterday, you were the head captain of a pirate ship. You asked your fellow pirates to rob other ships of their gold across six different islands.</p><p><b>[Press the space bar to continue]</b></p></div>","32","","","","","","","","","","","","","","","","","","","","","","","",""
"","day_1_summary_goal","4","32648","0.0-4.0","""event"",""trial"",""time""
""fullscreenenter"",""0"",""2252""
","
","
","""event"",""trial"",""time""
""fullscreenenter"",""0"",""2252""
","
","null","run_exp/static/audio/clip_30_goal_of_game.m4a","null","","","","","<div class='center'><p>Today, like yesterday, you get to pick which pirate you want to rob the next ship.</p><p>If the pirate is successful in robbing a ship, you get gold coins that look like this: </p><p><img src='run_exp/static/images/tutorial/reward.png' height='150'></p><p> If they were not successful in robbing the ship, then you will get no gold coins and you'll see a big red x like this: </p><p><img src='run_exp/static/images/tutorial/reward_no.png' height='150'></p></div>","","","","","","","","","","","","","","","","","","",""
"","html-keyboard-response","5","33956","0.0-5.0","""event"",""trial"",""time""
""fullscreenenter"",""0"",""2252""
","
","
","""event"",""trial"",""time""
""fullscreenenter"",""0"",""2252""
","
","1306.199999988079","<div class='center'><p>Today, like yesterday, you get to pick which pirate you want to rob the next ship.</p><p>If the pirate is successful in robbing a ship, you get gold coins that look like this: </p><p><img src='run_exp/static/images/tutorial/reward.png' height='150'></p><p> If they were not successful in robbing the ship, then you will get no gold coins and you'll see a big red x like this: </p><p><img src='run_exp/static/images/tutorial/reward_no.png' height='150'></p><p><b>[Press the space bar to continue]</b></p></div>","32","","","","","","","","","","","","","","","","","","","","","","","",""
"","day_1_summary_pick","6","48649","0.0-6.0","""event"",""trial"",""time""
""fullscreenenter"",""0"",""2252""
","
","
","""event"",""trial"",""time""
""fullscreenenter"",""0"",""2252""
","
","null","run_exp/static/audio/clip_31_how_to_pick_a_pirate.m4a","null","","","","","<div class='center'><p>Also, just like yesterday, you will use the 1,2,3 keys on your keyboard to pick a pirate. Press '1' to choose red beard, '2' to choose white beard, and '3' to choose black beard . You only have 3 seconds to pick a pirate, so please make a choice quickly!</p></div>","","","","","","","","","","","","","","","","","","",""
"","html-keyboard-response","7","50148","0.0-7.0","""event"",""trial"",""time""
""fullscreenenter"",""0"",""2252""
","
","
","""event"",""trial"",""time""
""fullscreenenter"",""0"",""2252""
","
","1498.699999988079","<div class='center'><p>Also, just like yesterday, you will use the 1,2,3 keys on your keyboard to pick a pirate. Press '1' to choose red beard, '2' to choose white beard, and '3' to choose black beard . You only have 3 seconds to pick a pirate, so please make a choice quickly!</p><p><b>[Press the space bar to continue]</b></p></div>","32","","","","","","","","","","","","","","","","","","","","","","","",""
"","test_phase_begin","8","80529","0.0-8.0","""event"",""trial"",""time""
""fullscreenenter"",""0"",""2252""
","
","
","""event"",""trial"",""time""
""fullscreenenter"",""0"",""2252""
","
","null","run_exp/static/audio/clip_32_final_place.m4a","null","","","","","<div class='center'><p>You’ve arrived at the final island of your journey! Unfortunately, it’s very foggy out, so you won’t be able to see it in the distance like the other islands you've visited.</p><p>You’ll still be deciding which pirate you want to rob a ship like before. However, because of the fog, you also won’t be able to see the ship.</p><p>This means you do not have to remember the ships you rob on this island.</p><p>Unlike yesterday, you won't be visiting multiple islands today. You will stay on this island for the entire game. This game will last ~30 minutes.</p></div>","","","","","","","","","","","","","","","","","","",""
"","html-keyboard-response","9","81908","0.0-9.0","""event"",""trial"",""time""
""fullscreenenter"",""0"",""2252""
","
","
","""event"",""trial"",""time""
""fullscreenenter"",""0"",""2252""
","
","1377.9000000357628","<div class='center'><p>You’ve arrived at the final island of your journey! Unfortunately, it’s very foggy out, so you won’t be able to see it in the distance like the other islands you've visited.</p><p>You’ll still be deciding which pirate you want to rob a ship like before. However, because of the fog, you also won’t be able to see the ship.</p><p>This means you do not have to remember the ships you rob on this island.</p><p>Unlike yesterday, you won't be visiting multiple islands today. You will stay on this island for the entire game. This game will last ~30 minutes.</p><p><b>[Press the space bar to continue]</b></p></div>","32","","","","","","","","","","","","","","","","","","","","","","","",""
"","explain_probe_1","10","89609","0.0-10.0","""event"",""trial"",""time""
""fullscreenenter"",""0"",""2252""
","
","
","""event"",""trial"",""time""
""fullscreenenter"",""0"",""2252""
","
","null","run_exp/static/audio/clip_33_recognition_1.m4a","null","","","","","<div class='center'><p> Sometimes you’ll be shown a ship, and you will be asked if you saw this ship on a past island.</p><p> Here is an example of what you will see.</p><p><img src='run_exp/static/images/tutorial/example_recog_trial.png' height='500'></p></div>","","","","","","","","","","","","","","","","","","",""
"","html-keyboard-response","11","91252","0.0-11.0","""event"",""trial"",""time""
""fullscreenenter"",""0"",""2252""
","
","
","""event"",""trial"",""time""
""fullscreenenter"",""0"",""2252""
","
","1641.2000000476837","<div class='center'><p> Sometimes you’ll be shown a ship, and you will be asked if you saw this ship on a past island.</p><p> Here is an example of what you will see.</p><p><img src='run_exp/static/images/tutorial/example_recog_trial.png' height='500'></p><p><b>[Press the space bar to continue]</b></p></div>","32","","","","","","","","","","","","","","","","","","","","","","","",""
"","explain_probe_2","12","112950","0.0-12.0","""event"",""trial"",""time""
""fullscreenenter"",""0"",""2252""
","
","
","""event"",""trial"",""time""
""fullscreenenter"",""0"",""2252""
","
","null","run_exp/static/audio/clip_34_recognition_2.m4a","null","","","","","<div class='center'><p> You will press the 5, 6, 7, 8 keys on your keyboard to respond.</p><p>If you are sure you saw the ship, press <b>5</b> on your keyboard.</p><p> If you think you saw it before but aren't sure, then press <b>6</b>.</p><p> If you think you have <b>not</b> seen it before but aren't sure, then press <b>7</b>.</p><p> If you are sure you did <b>not</b> see the ship before, then press <b>8</b>.</p><p><img src='run_exp/static/images/tutorial/example_recog_trial.png' height='500'></p></div>","","","","","","","","","","","","","","","","","","",""
"","html-keyboard-response","13","114484","0.0-13.0","""event"",""trial"",""time""
""fullscreenenter"",""0"",""2252""
","
","
","""event"",""trial"",""time""
""fullscreenenter"",""0"",""2252""
","
","1533.199999988079","<div class='center'><p> You will press the 5, 6, 7, 8 keys on your keyboard to respond.</p><p>If you are sure you saw the ship, press <b>5</b> on your keyboard.</p><p> If you think you saw it before but aren't sure, then press <b>6</b>.</p><p> If you think you have <b>not</b> seen it before but aren't sure, then press <b>7</b>.</p><p> If you are sure you did <b>not</b> see the ship before, then press <b>8</b>.</p><p><img src='run_exp/static/images/tutorial/example_recog_trial.png' height='500'></p><p><b>[Press the space bar to continue]</b></p></div>","32","","","","","","","","","","","","","","","","","","","","","","","",""
"","explain_outcome","14","131670","0.0-14.0","""event"",""trial"",""time""
""fullscreenenter"",""0"",""2252""
","
","
","""event"",""trial"",""time""
""fullscreenenter"",""0"",""2252""
","
","null","run_exp/static/audio/clip_35_recognition_3.m4a","null","","","","","<div class='center'><p> If you remember correctly, then you’ll get a gold coin like this: </p><p><img src='run_exp/static/images/tutorial/reward_small.png' height='200'></p><p>If you do not remember correctly, then you'll see a red x like this: </p><p><img src='run_exp/static/images/tutorial/reward_no.png' height='200'></p><p>Importantly, when you are shown a ship, take the time to remind yourself which island you saw it on. This will help you in the next part of the study.</p></div>","","","","","","","","","","","","","","","","","","",""
"","html-keyboard-response","15","132404","0.0-15.0","""event"",""trial"",""time""
""fullscreenenter"",""0"",""2252""
","
","
","""event"",""trial"",""time""
""fullscreenenter"",""0"",""2252""
","
","732.5999999642372","<div class='center'><p> If you remember correctly, then you’ll get a gold coin like this: </p><p><img src='run_exp/static/images/tutorial/reward_small.png' height='200'></p><p>If you do not remember correctly, then you'll see a red x like this: </p><p><img src='run_exp/static/images/tutorial/reward_no.png' height='200'></p><p>Importantly, when you are shown a ship, take the time to remind yourself which island you saw it on. This will help you in the next part of the study.</p><p><b>[Press the space bar to continue]</b></p></div>","32","","","","","","","","","","","","","","","","","","","","","","","",""
"","begin_test_phase","16","148211","0.0-16.0","""event"",""trial"",""time""
""fullscreenenter"",""0"",""2252""
","
","
","""event"",""trial"",""time""
""fullscreenenter"",""0"",""2252""
","
","null","run_exp/static/audio/clip_36_begin_final.m4a","null","","","","","<div class='center'><p>Let's go over the important points again. Your job is to: </p><p>1. Pick the pirate who is best at robbing ships and will bring you back gold coins. </p><p>2. Correctly remember whether or not you saw a ship before. If you did see the ship before, remind yourself on which island you saw it. </p></div>","","","","","","","","","","","","","","","","","","",""
"","html-keyboard-response","17","149005","0.0-17.0","""event"",""trial"",""time""
""fullscreenenter"",""0"",""2252""
","
","
","""event"",""trial"",""time""
""fullscreenenter"",""0"",""2252""
","
","764.3999999761581","<div class='center'><p>Let's go over the important points again. Your job is to: </p><p>1. Pick the pirate who is best at robbing ships and will bring you back gold coins. </p><p>2. Correctly remember whether or not you saw a ship before. If you did see the ship before, remind yourself on which island you saw it. </p><p><b>[Press the space bar to continue]</b></p></div>","32","","","","","","","","","","","","","","","","","","","","","","","",""
"","do_welcome","18","153009","0.0-18.0","""event"",""trial"",""time""
""fullscreenenter"",""0"",""2252""
","
","
","""event"",""trial"",""time""
""fullscreenenter"",""0"",""2252""
","
","null","","","","","","","","null","","","","","","","","","","","","","","","","","",""
"","do_trial","19","157178","0.0-19.0-0.0","""event"",""trial"",""time""
""fullscreenenter"",""0"",""2252""
","
","
","""event"",""trial"",""time""
""fullscreenenter"",""0"",""2252""
","
","1635.5","","","","","","","","49","1,0,0","6","blank","230","null","0.5031039354712722","0.07683301833372477","0.23591135580768718","1","","","","","","","","",""
"","html-keyboard-response","20","158179","0.0-19.0-1.0","""event"",""trial"",""time""
""fullscreenenter"",""0"",""2252""
","
","
","""event"",""trial"",""time""
""fullscreenenter"",""0"",""2252""
","
","null","<p></p>","null","","","","","","","","","","","","","","","","","","","","","","","",""
"","do_trial","21","161242","0.0-20.0-0.0","""event"",""trial"",""time""
""fullscreenenter"",""0"",""2252""
","
","
","""event"",""trial"",""time""
""fullscreenenter"",""0"",""2252""
","
","531","","","","","","","","49","1,0,0","6","blank","231","null","0.47852856611715494","0.0767378193129923","0.08601224825550269","1","","","","","","","","",""
"","html-keyboard-response","22","162243","0.0-20.0-1.0","""event"",""trial"",""time""
""fullscreenenter"",""0"",""2252""
","
","
","""event"",""trial"",""time""
""fullscreenenter"",""0"",""2252""
","
","null","<p></p>","null","","","","","","","","","","","","","","","","","","","","","","","",""
"","do_trial","23","165113","0.0-21.0-0.0","""event"",""trial"",""time""
""fullscreenenter"",""0"",""2252""
","
","
","""event"",""trial"",""time""
""fullscreenenter"",""0"",""2252""
","
","338.19999998807907","","","","","","","","49","1,0,0","6","blank","232","null","0.6037776808214085","0.06540310815526235","0.24329721272148647","1","","","","","","","","",""
"","html-keyboard-response","24","166115","0.0-21.0-1.0","""event"",""trial"",""time""
""fullscreenenter"",""0"",""2252""
","
","
","""event"",""trial"",""time""
""fullscreenenter"",""0"",""2252""
","
","null","<p></p>","null","","","","","","","","","","","","","","","","","","","","","","","",""
"","do_trial","25","168946","0.0-22.0-0.0","""event"",""trial"",""time""
""fullscreenenter"",""0"",""2252""
","
","
","""event"",""trial"",""time""
""fullscreenenter"",""0"",""2252""
","
","298.80000001192093","","","","","","","","49","1,0,1","6","blank","233","null","0.5292771397579722","0.07333774092981245","0.23930389126018126","1","","","","","","","","",""
"","html-keyboard-response","26","169948","0.0-22.0-1.0","""event"",""trial"",""time""
""fullscreenenter"",""0"",""2252""
","
","
","""event"",""trial"",""time""
""fullscreenenter"",""0"",""2252""
","
","null","<p></p>","null","","","","","","","","","","","","","","","","","","","","","","","",""
"","do_trial","27","173361","0.0-23.0-0.0","""event"",""trial"",""time""
""fullscreenenter"",""0"",""2252""
","
","
","""event"",""trial"",""time""
""fullscreenenter"",""0"",""2252""
","
","881","","","","","","","","49","1,0,0","6","blank","234","null","0.5495391545691789","0.14238124386351625","0.3690368669275608","1","","","","","","","","",""
"","html-keyboard-response","28","174363","0.0-23.0-1.0","""event"",""trial"",""time""
""fullscreenenter"",""0"",""2252""
","
","
","""event"",""trial"",""time""
""fullscreenenter"",""0"",""2252""
","
","null","<p></p>","null","","","","","","","","","","","","","","","","","","","","","","","",""
"","do_trial","29","177226","0.0-24.0-0.0","""event"",""trial"",""time""
""fullscreenenter"",""0"",""2252""
","
","
","""event"",""trial"",""time""
""fullscreenenter"",""0"",""2252""
","
","331.80000001192093","","","","","","","","49","1,0,0","6","blank","235","null","0.6564938763257463","0.06911617658273406","0.44435113000060783","1","","","","","","","","",""
"","html-keyboard-response","30","178228","0.0-24.0-1.0","""event"",""trial"",""time""
""fullscreenenter"",""0"",""2252""
","
","
","""event"",""trial"",""time""
""fullscreenenter"",""0"",""2252""
","
","null","<p></p>","null","","","","","","","","","","","","","","","","","","","","","","","",""
"","do_trial","31","181186","0.0-25.0-0.0","""event"",""trial"",""time""
""fullscreenenter"",""0"",""2252""
","
","
","""event"",""trial"",""time""
""fullscreenenter"",""0"",""2252""
","
","426.19999998807907","","","","","","","","49","0,0,0","6","blank","236","null","0.6879665114319329","0.09451320720800244","0.26978902813485145","0","","","","","","","","",""
"","html-keyboard-response","32","182187","0.0-25.0-1.0","""event"",""trial"",""time""
""fullscreenenter"",""0"",""2252""
","
","
","""event"",""trial"",""time""
""fullscreenenter"",""0"",""2252""
","
","null","<p></p>","null","","","","","","","","","","","","","","","","","","","","","","","",""
"","do_trial","33","185042","0.0-26.0-0.0","""event"",""trial"",""time""
""fullscreenenter"",""0"",""2252""
","
","
","""event"",""trial"",""time""
""fullscreenenter"",""0"",""2252""
","
","322.89999997615814","","","","","","","","49","0,0,0","6","blank","237","null","0.8112959409606785","0.06087322840352201","0.19499582770587065","0","","","","","","","","",""
"","html-keyboard-response","34","186044","0.0-26.0-1.0","""event"",""trial"",""time""
""fullscreenenter"",""0"",""2252""
","
","
","""event"",""trial"",""time""
""fullscreenenter"",""0"",""2252""
","
","null","<p></p>","null","","","","","","","","","","","","","","","","","","","","","","","",""
"","do_trial","35","189050","0.0-27.0-0.0","""event"",""trial"",""time""
""fullscreenenter"",""0"",""2252""
","
","
","""event"",""trial"",""time""
""fullscreenenter"",""0"",""2252""
","
","474.5999999642372","","","","","","","","49","0,1,0","6","blank","238","null","0.7626767381246009","0.14957763012380507","0.23146837565728062","0","","","","","","","","",""
"","html-keyboard-response","36","190052","0.0-27.0-1.0","""event"",""trial"",""time""
""fullscreenenter"",""0"",""2252""
","
","
","""event"",""trial"",""time""
""fullscreenenter"",""0"",""2252""
","
","null","<p></p>","null","","","","","","","","","","","","","","","","","","","","","","","",""
"","do_trial","37","193097","0.0-28.0-0.0","""event"",""trial"",""time""
""fullscreenenter"",""0"",""2252""
","
","
","""event"",""trial"",""time""
""fullscreenenter"",""0"",""2252""
","
","513.9000000357628","","","","","","","","51","1,0,0","6","blank","239","null","0.7867221275050245","0.054832961423037625","0.2601468553644637","0","","","","","","","","",""
"","html-keyboard-response","38","194099","0.0-28.0-1.0","""event"",""trial"",""time""
""fullscreenenter"",""0"",""2252""
","
","
","""event"",""trial"",""time""
""fullscreenenter"",""0"",""2252""
","
","null","<p></p>","null","","","","","","","","","","","","","","","","","","","","","","","",""
"","do_trial","39","196898","0.0-29.0-0.0","""event"",""trial"",""time""
""fullscreenenter"",""0"",""2252""
","
","
","""event"",""trial"",""time""
""fullscreenenter"",""0"",""2252""
","
","267.30000001192093","","","","","","","","51","0,0,1","6","blank","240","null","0.6628889986111125","0.053326881875006706","0.21513706315501835","1","","","","","","","","",""
"","html-keyboard-response","40","197900","0.0-29.0-1.0","""event"",""trial"",""time""
""fullscreenenter"",""0"",""2252""
","
","
","""event"",""trial"",""time""
""fullscreenenter"",""0"",""2252""
","
","null","<p></p>","null","","","","","","","","","","","","","","","","","","","","","","","",""
"","do_trial","41","200754","0.0-30.0-0.0","""event"",""trial"",""time""
""fullscreenenter"",""0"",""2252""
","
","
","""event"",""trial"",""time""
""fullscreenenter"",""0"",""2252""
","
","323.30000001192093","","","","","","","","51","0,0,0","6","blank","241","null","0.7382709291760314","0.27586266623936084","0.3192691329192857","0","","","","","","","","",""
"","html-keyboard-response","42","201755","0.0-30.0-1.0","""event"",""trial"",""time""
""fullscreenenter"",""0"",""2252""
","
","
","""event"",""trial"",""time""
""fullscreenenter"",""0"",""2252""
","
","null","<p></p>","null","","","","","","","","","","","","","","","","","","","","","","","",""
"","do_trial","43","204561","0.0-31.0-0.0","""event"",""trial"",""time""
""fullscreenenter"",""0"",""2252""
","
","
","""event"",""trial"",""time""
""fullscreenenter"",""0"",""2252""
","
","274.69999998807907","","","","","","","","51","0,0,0","6","blank","242","null","0.36485552328505305","0.14543396414658216","0.428285504576709","0","","","","","","","","",""
"","html-keyboard-response","44","205564","0.0-31.0-1.0","""event"",""trial"",""time""
""fullscreenenter"",""0"",""2252""
","
","
","""event"",""trial"",""time""
""fullscreenenter"",""0"",""2252""
","
","null","<p></p>","null","","","","","","","","","","","","","","","","","","","","","","","",""
"","do_trial","45","208394","0.0-32.0-0.0","""event"",""trial"",""time""
""fullscreenenter"",""0"",""2252""
","
","
","""event"",""trial"",""time""
""fullscreenenter"",""0"",""2252""
","
","298.5","","","","","","","","49","0,0,1","6","blank","243","null","0.39055676954496593","0.18065287457416","0.5198116604687218","0","","","","","","","","",""
"","html-keyboard-response","46","209396","0.0-32.0-1.0","""event"",""trial"",""time""
""fullscreenenter"",""0"",""2252""
","
","
","""event"",""trial"",""time""
""fullscreenenter"",""0"",""2252""
","
","null","<p></p>","null","","","","","","","","","","","","","","","","","","","","","","","",""
"","do_trial","47","212289","0.0-33.0-0.0","""event"",""trial"",""time""
""fullscreenenter"",""0"",""2252""
","
","
","""event"",""trial"",""time""
""fullscreenenter"",""0"",""2252""
","
","362","","","","","","","","49","0,0,1","6","blank","244","null","0.2322546539353473","0.10671390387689515","0.4896268738045146","0","","","","","","","","",""
"","html-keyboard-response","48","213291","0.0-33.0-1.0","""event"",""trial"",""time""
""fullscreenenter"",""0"",""2252""
","
","
","""event"",""trial"",""time""
""fullscreenenter"",""0"",""2252""
","
","null","<p></p>","null","","","","","","","","","","","","","","","","","","","","","","","",""
"","do_trial","49","216226","0.0-34.0-0.0","""event"",""trial"",""time""
""fullscreenenter"",""0"",""2252""
","
","
","""event"",""trial"",""time""
""fullscreenenter"",""0"",""2252""
","
","402.80000001192093","","","","","","","","51","0,0,0","6","blank","245","null","0.11288585760230131","0.1734731007194061","0.5035060248812393","0","","","","","","","","",""
"","html-keyboard-response","50","217227","0.0-34.0-1.0","""event"",""trial"",""time""
""fullscreenenter"",""0"",""2252""
","
","
","""event"",""trial"",""time""
""fullscreenenter"",""0"",""2252""
","
","null","<p></p>","null","","","","","","","","","","","","","","","","","","","","","","","",""
"","do_trial","51","220178","0.0-35.0-0.0","""event"",""trial"",""time""
""fullscreenenter"",""0"",""2252""
","
","
","""event"",""trial"",""time""
""fullscreenenter"",""0"",""2252""
","
","419.60000002384186","","","","","","","","50","0,1,0","6","blank","246","null","0.050781141414697493","0.20252299603135612","0.5156732176824416","1","","","","","","","","",""
"","html-keyboard-response","52","221179","0.0-35.0-1.0","""event"",""trial"",""time""
""fullscreenenter"",""0"",""2252""
","
","
","""event"",""trial"",""time""
""fullscreenenter"",""0"",""2252""
","
","null","<p></p>","null","","","","","","","","","","","","","","","","","","","","","","","",""
"","do_recog","53","225602","0.0-36.0-0.0","""event"",""trial"",""time""
""fullscreenenter"",""0"",""2252""
","
","
","""event"",""trial"",""time""
""fullscreenenter"",""0"",""2252""
","
","2918.2999999523163","","","","","","","","56","","","","247","probe-241","","","","","0","[object Object]","null","null","1","","","",""
"","html-keyboard-response","54","226604","0.0-36.0-1.0","""event"",""trial"",""time""
""fullscreenenter"",""0"",""2252""
","
","
","""event"",""trial"",""time""
""fullscreenenter"",""0"",""2252""
","
","null","<p></p>","null","","","","","","","","","","","","","","","","","","","","","","","",""
"","do_trial","55","229721","0.0-37.0-0.0","""event"",""trial"",""time""
""fullscreenenter"",""0"",""2252""
","
","
","""event"",""trial"",""time""
""fullscreenenter"",""0"",""2252""
","
","586.3000000119209","","","","","","","","49","0,0,0","6","blank","248","null","0.07180612635861335","0.19300762676729297","0.7937752324368518","0","","","","","","","","",""
"","html-keyboard-response","56","230723","0.0-37.0-1.0","""event"",""trial"",""time""
""fullscreenenter"",""0"",""2252""
","
","
","""event"",""trial"",""time""
""fullscreenenter"",""0"",""2252""
","
","null","<p></p>","null","","","","","","","","","","","","","","","","","","","","","","","",""
"","do_trial","57","233634","0.0-38.0-0.0","""event"",""trial"",""time""
""fullscreenenter"",""0"",""2252""
","
","
","""event"",""trial"",""time""
""fullscreenenter"",""0"",""2252""
","
","379.5","","","","","","","","50","0,0,1","6","blank","249","null","0.10639490638139129","0.14032785464324535","0.7158296912817591","0","","","","","","","","",""
"","html-keyboard-response","58","234636","0.0-38.0-1.0","""event"",""trial"",""time""
""fullscreenenter"",""0"",""2252""
","
","
","""event"",""trial"",""time""
""fullscreenenter"",""0"",""2252""
","
","null","<p></p>","null","","","","","","","","","","","","","","","","","","","","","","","",""
"","do_recog","59","238242","0.0-39.0-0.0","""event"",""trial"",""time""
""fullscreenenter"",""0"",""2252""
","
","
","""event"",""trial"",""time""
""fullscreenenter"",""0"",""2252""
","
","2102.300000011921","","","","","","","","53","","","","250","probe-228","","","","","1","[object Object]","70","1","1","","","",""
"","html-keyboard-response","60","239243","0.0-39.0-1.0","""event"",""trial"",""time""
""fullscreenenter"",""0"",""2252""
","
","
","""event"",""trial"",""time""
""fullscreenenter"",""0"",""2252""
","
","null","<p></p>","null","","","","","","","","","","","","","","","","","","","","","","","",""
"","do_trial","61","242769","0.0-40.0-0.0","""event"",""trial"",""time""
""fullscreenenter"",""0"",""2252""
","
","
","""event"",""trial"",""time""
""fullscreenenter"",""0"",""2252""
","
","994.8000000119209","","","","","","","","49","0,1,1","6","blank","251","null","0.18763649587995374","0.24070074620430554","0.6282874843499967","0","","","","","","","","",""
"","html-keyboard-response","62","243771","0.0-40.0-1.0","""event"",""trial"",""time""
""fullscreenenter"",""0"",""2252""
","
","
","""event"",""trial"",""time""
""fullscreenenter"",""0"",""2252""
","
","null","<p></p>","null","","","","","","","","","","","","","","","","","","","","","","","",""
"","do_trial","63","246641","0.0-41.0-0.0","""event"",""trial"",""time""
""fullscreenenter"",""0"",""2252""
","
","
","""event"",""trial"",""time""
""fullscreenenter"",""0"",""2252""
","
","339.19999998807907","","","","","","","","49","1,0,0","6","blank","252","null","0.07093897234334869","0.37787686689842026","0.5674287822255443","1","","","","","","","","",""
"","html-keyboard-response","64","247643","0.0-41.0-1.0","""event"",""trial"",""time""
""fullscreenenter"",""0"",""2252""
","
","
","""event"",""trial"",""time""
""fullscreenenter"",""0"",""2252""
","
","null","<p></p>","null","","","","","","","","","","","","","","","","","","","","","","","",""
"","do_recog","65","251243","0.0-42.0-0.0","""event"",""trial"",""time""
""fullscreenenter"",""0"",""2252""
","
","
","""event"",""trial"",""time""
""fullscreenenter"",""0"",""2252""
","
","2095.199999988079","","","","","","","","53","","","","253","probe-48","","","","","1","[object Object]","33","0","1","","","",""
"","html-keyboard-response","66","252244","0.0-42.0-1.0","""event"",""trial"",""time""
""fullscreenenter"",""0"",""2252""
","
","
","""event"",""trial"",""time""
""fullscreenenter"",""0"",""2252""
","
","null","<p></p>","null","","","","","","","","","","","","","","","","","","","","","","","",""
"","do_trial","67","255313","0.0-43.0-0.0","""event"",""trial"",""time""
""fullscreenenter"",""0"",""2252""
","
","
","""event"",""trial"",""time""
""fullscreenenter"",""0"",""2252""
","
","538.3000000119209","","","","","","","","49","0,0,1","6","blank","254","null","0.06064020929182485","0.3796369071443951","0.4939663447419565","0","","","","","","","","",""
"","html-keyboard-response","68","256314","0.0-43.0-1.0","""event"",""trial"",""time""
""fullscreenenter"",""0"",""2252""
","
","
","""event"",""trial"",""time""
""fullscreenenter"",""0"",""2252""
","
","null","<p></p>","null","","","","","","","","","","","","","","","","","","","","","","","",""
"","do_trial","69","259115","0.0-44.0-0.0","""event"",""trial"",""time""
""fullscreenenter"",""0"",""2252""
","
","
","""event"",""trial"",""time""
""fullscreenenter"",""0"",""2252""
","
","267.60000002384186","","","","","","","","51","0,1,1","6","blank","255","null","0.08003082847343826","0.3383957196619289","0.5705967425360252","1","","","","","","","","",""
"","html-keyboard-response","70","260116","0.0-44.0-1.0","""event"",""trial"",""time""
""fullscreenenter"",""0"",""2252""
","
","
","""event"",""trial"",""time""
""fullscreenenter"",""0"",""2252""
","
","null","<p></p>","null","","","","","","","","","","","","","","","","","","","","","","","",""
"","do_trial","71","263074","0.0-45.0-0.0","""event"",""trial"",""time""
""fullscreenenter"",""0"",""2252""
","
","
","""event"",""trial"",""time""
""fullscreenenter"",""0"",""2252""
","
","426.89999997615814","","","","","","","","51","1,0,1","6","blank","256","null","0.13424896820647683","0.3387955254846565","0.5151628263098713","1","","","","","","","","",""
"","html-keyboard-response","72","264077","0.0-45.0-1.0","""event"",""trial"",""time""
""fullscreenenter"",""0"",""2252""
","
","
","""event"",""trial"",""time""
""fullscreenenter"",""0"",""2252""
","
","null","<p></p>","null","","","","","","","","","","","","","","","","","","","","","","","",""
"","do_recog","73","267538","0.0-46.0-0.0","""event"",""trial"",""time""
""fullscreenenter"",""0"",""2252""
","
","
","""event"",""trial"",""time""
""fullscreenenter"",""0"",""2252""
","
","1957.5","","","","","","","","53","","","","257","probe-33","","","","","1","[object Object]","152","3","1","","","",""
"","html-keyboard-response","74","268540","0.0-46.0-1.0","""event"",""trial"",""time""
""fullscreenenter"",""0"",""2252""
","
","
","""event"",""trial"",""time""
""fullscreenenter"",""0"",""2252""
","
","null","<p></p>","null","","","","","","","","","","","","","","","","","","","","","","","",""
"","do_trial","75","271825","0.0-47.0-0.0","""event"",""trial"",""time""
""fullscreenenter"",""0"",""2252""
","
","
","""event"",""trial"",""time""
""fullscreenenter"",""0"",""2252""
","
","754.4000000357628","","","","","","","","49","1,1,0","6","blank","258","null","0.06706054817965425","0.44953426018605736","0.5322987531799254","1","","","","","","","","",""
"","html-keyboard-response","76","272827","0.0-47.0-1.0","""event"",""trial"",""time""
""fullscreenenter"",""0"",""2252""
","
","
","""event"",""trial"",""time""
""fullscreenenter"",""0"",""2252""
","
","null","<p></p>","null","","","","","","","","","","","","","","","","","","","","","","","",""
"","do_recog","77","276002","0.0-48.0-0.0","""event"",""trial"",""time""
""fullscreenenter"",""0"",""2252""
","
","
","""event"",""trial"",""time""
""fullscreenenter"",""0"",""2252""
","
","1671.4000000357628","","","","","","","","53","","","","259","probe-150","","","","","1","[object Object]","194","4","1","","","",""
"","html-keyboard-response","78","277004","0.0-48.0-1.0","""event"",""trial"",""time""
""fullscreenenter"",""0"",""2252""
","
","
","""event"",""trial"",""time""
""fullscreenenter"",""0"",""2252""
","
","null","<p></p>","null","","","","","","","","","","","","","","","","","","","","","","","",""
"","do_trial","79","280025","0.0-49.0-0.0","""event"",""trial"",""time""
""fullscreenenter"",""0"",""2252""
","
","
","""event"",""trial"",""time""
""fullscreenenter"",""0"",""2252""
","
","489.89999997615814","","","","","","","","49","0,0,1","6","blank","260","null","0.07958196388732514","0.542229221425321","0.5160950082989976","0","","","","","","","","",""
"","html-keyboard-response","80","281027","0.0-49.0-1.0","""event"",""trial"",""time""
""fullscreenenter"",""0"",""2252""
","
","
","""event"",""trial"",""time""
""fullscreenenter"",""0"",""2252""
","
","null","<p></p>","null","","","","","","","","","","","","","","","","","","","","","","","",""
"","do_trial","81","284033","0.0-50.0-0.0","""event"",""trial"",""time""
""fullscreenenter"",""0"",""2252""
","
","
","""event"",""trial"",""time""
""fullscreenenter"",""0"",""2252""
","
","475.19999998807907","","","","","","","","50","0,0,0","6","blank","261","null","0.10636701839947116","0.37831608373108644","0.47670579433377186","0","","","","","","","","",""
"","html-keyboard-response","82","285035","0.0-50.0-1.0","""event"",""trial"",""time""
""fullscreenenter"",""0"",""2252""
","
","
","""event"",""trial"",""time""
""fullscreenenter"",""0"",""2252""
","
","null","<p></p>","null","","","","","","","","","","","","","","","","","","","","","","","",""
"","do_trial","83","287929","0.0-51.0-0.0","""event"",""trial"",""time""
""fullscreenenter"",""0"",""2252""
","
","
","""event"",""trial"",""time""
""fullscreenenter"",""0"",""2252""
","
","363.69999998807907","","","","","","","","51","0,0,1","6","blank","262","null","0.17767888919251001","0.46431842069944324","0.4957754002781755","1","","","","","","","","",""
"","html-keyboard-response","84","288931","0.0-51.0-1.0","""event"",""trial"",""time""
""fullscreenenter"",""0"",""2252""
","
","
","""event"",""trial"",""time""
""fullscreenenter"",""0"",""2252""
","
","null","<p></p>","null","","","","","","","","","","","","","","","","","","","","","","","",""
"","do_trial","85","291739","0.0-52.0-0.0","""event"",""trial"",""time""
""fullscreenenter"",""0"",""2252""
","
","
","""event"",""trial"",""time""
""fullscreenenter"",""0"",""2252""
","
","275.69999998807907","","","","","","","","49","0,1,1","6","blank","263","null","0.08883676154734443","0.4982435487058457","0.5548554835331856","0","","","","","","","","",""
"","html-keyboard-response","86","292740","0.0-52.0-1.0","""event"",""trial"",""time""
""fullscreenenter"",""0"",""2252""
","
","
","""event"",""trial"",""time""
""fullscreenenter"",""0"",""2252""
","
","null","<p></p>","null","","","","","","","","","","","","","","","","","","","","","","","",""
"","do_trial","87","295617","0.0-53.0-0.0","""event"",""trial"",""time""
""fullscreenenter"",""0"",""2252""
","
","
","""event"",""trial"",""time""
""fullscreenenter"",""0"",""2252""
","
","346.19999998807907","","","","","","","","51","1,0,1","6","blank","264","null","0.20527100930237516","0.46451252586305947","0.6202500427639417","1","","","","","","","","",""
"","html-keyboard-response","88","296618","0.0-53.0-1.0","""event"",""trial"",""time""
""fullscreenenter"",""0"",""2252""
","
","
","""event"",""trial"",""time""
""fullscreenenter"",""0"",""2252""
","
","null","<p></p>","null","","","","","","","","","","","","","","","","","","","","","","","",""
"","do_recog","89","300561","0.0-54.0-0.0","""event"",""trial"",""time""
""fullscreenenter"",""0"",""2252""
","
","
","""event"",""trial"",""time""
""fullscreenenter"",""0"",""2252""
","
","2439.300000011921","","","","","","","","53","","","","265","probe-71","","","","","1","[object Object]","115","2","1","","","",""
"","html-keyboard-response","90","301562","0.0-54.0-1.0","""event"",""trial"",""time""
""fullscreenenter"",""0"",""2252""
","
","
","""event"",""trial"",""time""
""fullscreenenter"",""0"",""2252""
","
","null","<p></p>","null","","","","","","","","","","","","","","","","","","","","","","","",""
"","do_trial","91","304560","0.0-55.0-0.0","""event"",""trial"",""time""
""fullscreenenter"",""0"",""2252""
","
","
","""event"",""trial"",""time""
""fullscreenenter"",""0"",""2252""
","
","467.0999999642372","","","","","","","","50","0,1,1","6","blank","266","null","0.09285735457379668","0.5281506376892888","0.5468397929427582","1","","","","","","","","",""
"","html-keyboard-response","92","305562","0.0-55.0-1.0","""event"",""trial"",""time""
""fullscreenenter"",""0"",""2252""
","
","
","""event"",""trial"",""time""
""fullscreenenter"",""0"",""2252""
","
","null","<p></p>","null","","","","","","","","","","","","","","","","","","","","","","","",""
"","do_trial","93","308370","0.0-56.0-0.0","""event"",""trial"",""time""
""fullscreenenter"",""0"",""2252""
","
","
","""event"",""trial"",""time""
""fullscreenenter"",""0"",""2252""
","
","275.10000002384186","","","","","","","","50","0,0,1","6","blank","267","null","0.21417217340725125","0.4757576728519093","0.5131852712816162","0","","","","","","","","",""
"","html-keyboard-response","94","309372","0.0-56.0-1.0","""event"",""trial"",""time""
""fullscreenenter"",""0"",""2252""
","
","
","""event"",""trial"",""time""
""fullscreenenter"",""0"",""2252""
","
","null","<p></p>","null","","","","","","","","","","","","","","","","","","","","","","","",""
"","do_recog","95","315376","0.0-57.0-0.0","""event"",""trial"",""time""
""fullscreenenter"",""0"",""2252""
","
","
","""event"",""trial"",""time""
""fullscreenenter"",""0"",""2252""
","
","null","","","","","","","","null","","","","268","probe-37","","","","","1","[object Object]","118","2","0","","","",""
"","html-keyboard-response","96","316377","0.0-57.0-1.0","""event"",""trial"",""time""
""fullscreenenter"",""0"",""2252""
","
","
","""event"",""trial"",""time""
""fullscreenenter"",""0"",""2252""
","
","null","<p></p>","null","","","","","","","","","","","","","","","","","","","","","","","",""
"","break","97","320085","0.0-58.0-0.0","""event"",""trial"",""time""
""fullscreenenter"",""0"",""2252""
","
","
","""event"",""trial"",""time""
""fullscreenenter"",""0"",""2252""
","
","3707","<div class='center'><p>Time to take a quick break! You have 2 minutes to rest, but you can move on sooner if you'd like.</p><p> Press the <b>space bar</b> to continue.</p></div>","32","","","","","","","","","","","","","","","","","","","","","","","",""
"","do_trial","98","323746","0.0-58.0-1.0","""event"",""trial"",""time""
""fullscreenenter"",""0"",""2252""
","
","
","""event"",""trial"",""time""
""fullscreenenter"",""0"",""2252""
","
","1129.8999999761581","","","","","","","","49","1,0,1","6","blank","269","null","0.22243191776057433","0.326242095449156","0.5614870057331649","1","","","","","","","","",""
"","html-keyboard-response","99","324748","0.0-58.0-2.0","""event"",""trial"",""time""
""fullscreenenter"",""0"",""2252""
","
","
","""event"",""trial"",""time""
""fullscreenenter"",""0"",""2252""
","
","null","<p></p>","null","","","","","","","","","","","","","","","","","","","","","","","",""
"","do_trial","100","327777","0.0-59.0-0.0","""event"",""trial"",""time""
""fullscreenenter"",""0"",""2252""
","
","
","""event"",""trial"",""time""
""fullscreenenter"",""0"",""2252""
","
","498.19999998807907","","","","","","","","49","0,0,0","6","blank","270","null","0.2503592298395254","0.24850140218245417","0.5061969386082613","0","","","","","","","","",""
"","html-keyboard-response","101","328779","0.0-59.0-1.0","""event"",""trial"",""time""
""fullscreenenter"",""0"",""2252""
","
","
","""event"",""trial"",""time""
""fullscreenenter"",""0"",""2252""
","
","null","<p></p>","null","","","","","","","","","","","","","","","","","","","","","","","",""
"","do_trial","102","331690","0.0-60.0-0.0","""event"",""trial"",""time""
""fullscreenenter"",""0"",""2252""
","
","
","""event"",""trial"",""time""
""fullscreenenter"",""0"",""2252""
","
","379.5","","","","","","","","49","0,1,1","6","blank","271","null","0.25213019878886817","0.34831134632630656","0.4743490744782925","0","","","","","","","","",""
"","html-keyboard-response","103","332691","0.0-60.0-1.0","""event"",""trial"",""time""
""fullscreenenter"",""0"",""2252""
","
","
","""event"",""trial"",""time""
""fullscreenenter"",""0"",""2252""
","
","null","<p></p>","null","","","","","","","","","","","","","","","","","","","","","","","",""
"","do_trial","104","335754","0.0-61.0-0.0","""event"",""trial"",""time""
""fullscreenenter"",""0"",""2252""
","
","
","""event"",""trial"",""time""
""fullscreenenter"",""0"",""2252""
","
","531.5","","","","","","","","50","0,0,0","6","blank","272","null","0.24445520819669253","0.43074474090788223","0.6596314880589118","0","","","","","","","","",""
"","html-keyboard-response","105","336755","0.0-61.0-1.0","""event"",""trial"",""time""
""fullscreenenter"",""0"",""2252""
","
","
","""event"",""trial"",""time""
""fullscreenenter"",""0"",""2252""
","
","null","<p></p>","null","","","","","","","","","","","","","","","","","","","","","","","",""
"","do_trial","106","339642","0.0-62.0-0.0","""event"",""trial"",""time""
""fullscreenenter"",""0"",""2252""
","
","
","""event"",""trial"",""time""
""fullscreenenter"",""0"",""2252""
","
","353.7999999523163","","","","","","","","50","0,0,0","6","blank","273","null","0.1111723693710584","0.1660612859754125","0.6318530120062998","0","","","","","","","","",""
"","html-keyboard-response","107","340644","0.0-62.0-1.0","""event"",""trial"",""time""
""fullscreenenter"",""0"",""2252""
","
","
","""event"",""trial"",""time""
""fullscreenenter"",""0"",""2252""
","
","null","<p></p>","null","","","","","","","","","","","","","","","","","","","","","","","",""
"","do_recog","108","343681","0.0-63.0-0.0","""event"",""trial"",""time""
""fullscreenenter"",""0"",""2252""
","
","
","""event"",""trial"",""time""
""fullscreenenter"",""0"",""2252""
","
","1533.8999999761581","","","","","","","","53","","","","274","probe-136","","","","","1","[object Object]","31","0","1","","","",""
"","html-keyboard-response","109","344682","0.0-63.0-1.0","""event"",""trial"",""time""
""fullscreenenter"",""0"",""2252""
","
","
","""event"",""trial"",""time""
""fullscreenenter"",""0"",""2252""
","
","null","<p></p>","null","","","","","","","","","","","","","","","","","","","","","","","",""
"","do_trial","110","348034","0.0-64.0-0.0","""event"",""trial"",""time""
""fullscreenenter"",""0"",""2252""
","
","
","""event"",""trial"",""time""
""fullscreenenter"",""0"",""2252""
","
","819.8999999761581","","","","","","","","49","0,0,1","6","blank","275","null","0.164456689518539","0.19799777364598853","0.6423548651227869","0","","","","","","","","",""
"","html-keyboard-response","111","349037","0.0-64.0-1.0","""event"",""trial"",""time""
""fullscreenenter"",""0"",""2252""
","
","
","""event"",""trial"",""time""
""fullscreenenter"",""0"",""2252""
","
","null","<p></p>","null","","","","","","","","","","","","","","","","","","","","","","","",""
"","do_recog","112","352434","0.0-65.0-0.0","""event"",""trial"",""time""
""fullscreenenter"",""0"",""2252""
","
","
","""event"",""trial"",""time""
""fullscreenenter"",""0"",""2252""
","
","1893.7000000476837","","","","","","","","56","","","","276","probe-238","","","","","0","[object Object]","null","null","1","","","",""
"","html-keyboard-response","113","353435","0.0-65.0-1.0","""event"",""trial"",""time""
""fullscreenenter"",""0"",""2252""
","
","
","""event"",""trial"",""time""
""fullscreenenter"",""0"",""2252""
","
","null","<p></p>","null","","","","","","","","","","","","","","","","","","","","","","","",""
"","do_trial","114","356345","0.0-66.0-0.0","""event"",""trial"",""time""
""fullscreenenter"",""0"",""2252""
","
","
","""event"",""trial"",""time""
""fullscreenenter"",""0"",""2252""
","
","378.60000002384186","","","","","","","","50","0,0,1","6","blank","277","null","0.06915443383785853","0.2625458800288881","0.596880084753143","0","","","","","","","","",""
"","html-keyboard-response","115","357347","0.0-66.0-1.0","""event"",""trial"",""time""
""fullscreenenter"",""0"",""2252""
","
","
","""event"",""trial"",""time""
""fullscreenenter"",""0"",""2252""
","
","null","<p></p>","null","","","","","","","","","","","","","","","","","","","","","","","",""
"","do_trial","116","360193","0.0-67.0-0.0","""event"",""trial"",""time""
""fullscreenenter"",""0"",""2252""
","
","
","""event"",""trial"",""time""
""fullscreenenter"",""0"",""2252""
","
","315.5","","","","","","","","49","0,0,1","6","blank","278","null","0.0654856215587861","0.26132702653106743","0.4574977905497535","0","","","","","","","","",""
"","html-keyboard-response","117","361194","0.0-67.0-1.0","""event"",""trial"",""time""
""fullscreenenter"",""0"",""2252""
","
","
","""event"",""trial"",""time""
""fullscreenenter"",""0"",""2252""
","
","null","<p></p>","null","","","","","","","","","","","","","","","","","","","","","","","",""
"","do_trial","118","364225","0.0-68.0-0.0","""event"",""trial"",""time""
""fullscreenenter"",""0"",""2252""
","
","
","""event"",""trial"",""time""
""fullscreenenter"",""0"",""2252""
","
","500.2000000476837","","","","","","","","51","0,1,0","6","blank","279","null","0.0834131316111448","0.32904899975825963","0.5482371320433775","0","","","","","","","","",""
"","html-keyboard-response","119","365226","0.0-68.0-1.0","""event"",""trial"",""time""
""fullscreenenter"",""0"",""2252""
","
","
","""event"",""trial"",""time""
""fullscreenenter"",""0"",""2252""
","
","null","<p></p>","null","","","","","","","","","","","","","","","","","","","","","","","",""
"","do_trial","120","368266","0.0-69.0-0.0","""event"",""trial"",""time""
""fullscreenenter"",""0"",""2252""
","
","
","""event"",""trial"",""time""
""fullscreenenter"",""0"",""2252""
","
","508.80000001192093","","","","","","","","50","0,0,0","6","blank","280","null","0.2033743132589497","0.30136920249167015","0.5225189916519024","0","","","","","","","","",""
"","html-keyboard-response","121","369268","0.0-69.0-1.0","""event"",""trial"",""time""
""fullscreenenter"",""0"",""2252""
","
","
","""event"",""trial"",""time""
""fullscreenenter"",""0"",""2252""
","
","null","<p></p>","null","","","","","","","","","","","","","","","","","","","","","","","",""
"","do_trial","122","372146","0.0-70.0-0.0","""event"",""trial"",""time""
""fullscreenenter"",""0"",""2252""
","
","
","""event"",""trial"",""time""
""fullscreenenter"",""0"",""2252""
","
","345.60000002384186","","","","","","","","50","0,0,1","6","blank","281","null","0.2628321146125683","0.2587997525183645","0.5585165192061909","0","","","","","","","","",""
"","html-keyboard-response","123","373147","0.0-70.0-1.0","""event"",""trial"",""time""
""fullscreenenter"",""0"",""2252""
","
","
","""event"",""trial"",""time""
""fullscreenenter"",""0"",""2252""
","
","null","<p></p>","null","","","","","","","","","","","","","","","","","","","","","","","",""
"","do_trial","124","375978","0.0-71.0-0.0","""event"",""trial"",""time""
""fullscreenenter"",""0"",""2252""
","
","
","""event"",""trial"",""time""
""fullscreenenter"",""0"",""2252""
","
","298.5","","","","","","","","49","1,0,1","6","blank","282","null","0.1959735374533744","0.49993370881441257","0.690089261894318","1","","","","","","","","",""
"","html-keyboard-response","125","376979","0.0-71.0-1.0","""event"",""trial"",""time""
""fullscreenenter"",""0"",""2252""
","
","
","""event"",""trial"",""time""
""fullscreenenter"",""0"",""2252""
","
","null","<p></p>","null","","","","","","","","","","","","","","","","","","","","","","","",""
"","do_recog","126","380666","0.0-72.0-0.0","""event"",""trial"",""time""
""fullscreenenter"",""0"",""2252""
","
","
","""event"",""trial"",""time""
""fullscreenenter"",""0"",""2252""
","
","2182.699999988079","","","","","","","","53","","","","283","probe-13","","","","","1","[object Object]","193","4","1","","","",""
"","html-keyboard-response","127","381668","0.0-72.0-1.0","""event"",""trial"",""time""
""fullscreenenter"",""0"",""2252""
","
","
","""event"",""trial"",""time""
""fullscreenenter"",""0"",""2252""
","
","null","<p></p>","null","","","","","","","","","","","","","","","","","","","","","","","",""
"","do_trial","128","384665","0.0-73.0-0.0","""event"",""trial"",""time""
""fullscreenenter"",""0"",""2252""
","
","
","""event"",""trial"",""time""
""fullscreenenter"",""0"",""2252""
","
","466","","","","","","","","49","1,1,1","6","blank","284","null","0.05644152535641347","0.4062083916990078","0.518746476966062","1","","","","","","","","",""
"","html-keyboard-response","129","385666","0.0-73.0-1.0","""event"",""trial"",""time""
""fullscreenenter"",""0"",""2252""
","
","
","""event"",""trial"",""time""
""fullscreenenter"",""0"",""2252""
","
","null","<p></p>","null","","","","","","","","","","","","","","","","","","","","","","","",""
"","do_trial","130","388498","0.0-74.0-0.0","""event"",""trial"",""time""
""fullscreenenter"",""0"",""2252""
","
","
","""event"",""trial"",""time""
""fullscreenenter"",""0"",""2252""
","
","298.89999997615814","","","","","","","","51","0,0,0","6","blank","285","null","0.18738308273462817","0.16769395847710303","0.48649298145267417","0","","","","","","","","",""
"","html-keyboard-response","131","389500","0.0-74.0-1.0","""event"",""trial"",""time""
""fullscreenenter"",""0"",""2252""
","
","
","""event"",""trial"",""time""
""fullscreenenter"",""0"",""2252""
","
","null","<p></p>","null","","","","","","","","","","","","","","","","","","","","","","","",""
"","do_trial","132","392427","0.0-75.0-0.0","""event"",""trial"",""time""
""fullscreenenter"",""0"",""2252""
","
","
","""event"",""trial"",""time""
""fullscreenenter"",""0"",""2252""
","
","395","","","","","","","","50","1,0,0","6","blank","286","null","0.05988958403608724","0.23066349094947863","0.6121696137015594","0","","","","","","","","",""
"","html-keyboard-response","133","393428","0.0-75.0-1.0","""event"",""trial"",""time""
""fullscreenenter"",""0"",""2252""
","
","
","""event"",""trial"",""time""
""fullscreenenter"",""0"",""2252""
","
","null","<p></p>","null","","","","","","","","","","","","","","","","","","","","","","","",""
"","do_trial","134","396281","0.0-76.0-0.0","""event"",""trial"",""time""
""fullscreenenter"",""0"",""2252""
","
","
","""event"",""trial"",""time""
""fullscreenenter"",""0"",""2252""
","
","322.30000001192093","","","","","","","","49","1,0,0","6","blank","287","null","0.12098651186449608","0.2953940155670637","0.5574861924832457","1","","","","","","","","",""
"","html-keyboard-response","135","397283","0.0-76.0-1.0","""event"",""trial"",""time""
""fullscreenenter"",""0"",""2252""
","
","
","""event"",""trial"",""time""
""fullscreenenter"",""0"",""2252""
","
","null","<p></p>","null","","","","","","","","","","","","","","","","","","","","","","","",""
"","do_trial","136","400138","0.0-77.0-0.0","""event"",""trial"",""time""
""fullscreenenter"",""0"",""2252""
","
","
","""event"",""trial"",""time""
""fullscreenenter"",""0"",""2252""
","
","322.80000001192093","","","","","","","","50","0,0,1","6","blank","288","null","0.057218278823405584","0.5159795324107104","0.5751337680443733","0","","","","","","","","",""
"","html-keyboard-response","137","401140","0.0-77.0-1.0","""event"",""trial"",""time""
""fullscreenenter"",""0"",""2252""
","
","
","""event"",""trial"",""time""
""fullscreenenter"",""0"",""2252""
","
","null","<p></p>","null","","","","","","","","","","","","","","","","","","","","","","","",""
"","do_recog","138","404945","0.0-78.0-0.0","""event"",""trial"",""time""
""fullscreenenter"",""0"",""2252""
","
","
","""event"",""trial"",""time""
""fullscreenenter"",""0"",""2252""
","
","2301.800000011921","","","","","","","","56","","","","289","probe-166","","","","","1","[object Object]","197","4","0","","","",""
"","html-keyboard-response","139","405946","0.0-78.0-1.0","""event"",""trial"",""time""
""fullscreenenter"",""0"",""2252""
","
","
","""event"",""trial"",""time""
""fullscreenenter"",""0"",""2252""
","
","null","<p></p>","null","","","","","","","","","","","","","","","","","","","","","","","",""
"","do_trial","140","409001","0.0-79.0-0.0","""event"",""trial"",""time""
""fullscreenenter"",""0"",""2252""
","
","
","""event"",""trial"",""time""
""fullscreenenter"",""0"",""2252""
","
","523.3999999761581","","","","","","","","49","0,0,1","6","blank","290","null","0.10715637433783996","0.47206921027109944","0.6628603205373493","0","","","","","","","","",""
"","html-keyboard-response","141","410002","0.0-79.0-1.0","""event"",""trial"",""time""
""fullscreenenter"",""0"",""2252""
","
","
","""event"",""trial"",""time""
""fullscreenenter"",""0"",""2252""
","
","null","<p></p>","null","","","","","","","","","","","","","","","","","","","","","","","",""
"","do_trial","142","412849","0.0-80.0-0.0","""event"",""trial"",""time""
""fullscreenenter"",""0"",""2252""
","
","
","""event"",""trial"",""time""
""fullscreenenter"",""0"",""2252""
","
","316.5","","","","","","","","49","0,1,1","6","blank","291","null","0.172310177726987","0.4152307509677808","0.641385398241887","0","","","","","","","","",""
"","html-keyboard-response","143","413850","0.0-80.0-1.0","""event"",""trial"",""time""
""fullscreenenter"",""0"",""2252""
","
","
","""event"",""trial"",""time""
""fullscreenenter"",""0"",""2252""
","
","null","<p></p>","null","","","","","","","","","","","","","","","","","","","","","","","",""
"","do_trial","144","416657","0.0-81.0-0.0","""event"",""trial"",""time""
""fullscreenenter"",""0"",""2252""
","
","
","""event"",""trial"",""time""
""fullscreenenter"",""0"",""2252""
","
","275.4000000357628","","","","","","","","51","0,1,1","6","blank","292","null","0.050894050915743776","0.33728140840736764","0.5533659483861227","1","","","","","","","","",""
"","html-keyboard-response","145","417658","0.0-81.0-1.0","""event"",""trial"",""time""
""fullscreenenter"",""0"",""2252""
","
","
","""event"",""trial"",""time""
""fullscreenenter"",""0"",""2252""
","
","null","<p></p>","null","","","","","","","","","","","","","","","","","","","","","","","",""
"","do_trial","146","420586","0.0-82.0-0.0","""event"",""trial"",""time""
""fullscreenenter"",""0"",""2252""
","
","
","""event"",""trial"",""time""
""fullscreenenter"",""0"",""2252""
","
","395.2999999523163","","","","","","","","51","0,1,0","6","blank","293","null","0.3332893787120541","0.2977554795308606","0.48778076682073696","0","","","","","","","","",""
"","html-keyboard-response","147","421587","0.0-82.0-1.0","""event"",""trial"",""time""
""fullscreenenter"",""0"",""2252""
","
","
","""event"",""trial"",""time""
""fullscreenenter"",""0"",""2252""
","
","null","<p></p>","null","","","","","","","","","","","","","","","","","","","","","","","",""
"","do_trial","148","424506","0.0-83.0-0.0","""event"",""trial"",""time""
""fullscreenenter"",""0"",""2252""
","
","
","""event"",""trial"",""time""
""fullscreenenter"",""0"",""2252""
","
","387.19999998807907","","","","","","","","50","1,1,0","6","blank","294","null","0.5211383590470097","0.198340255324023","0.43905891215946347","1","","","","","","","","",""
"","html-keyboard-response","149","425508","0.0-83.0-1.0","""event"",""trial"",""time""
""fullscreenenter"",""0"",""2252""
","
","
","""event"",""trial"",""time""
""fullscreenenter"",""0"",""2252""
","
","null","<p></p>","null","","","","","","","","","","","","","","","","","","","","","","","",""
"","do_trial","150","428593","0.0-84.0-0.0","""event"",""trial"",""time""
""fullscreenenter"",""0"",""2252""
","
","
","""event"",""trial"",""time""
""fullscreenenter"",""0"",""2252""
","
","554.5999999642372","","","","","","","","49","1,1,1","6","blank","295","null","0.5681032742567984","0.2288893941392228","0.3384318739122526","1","","","","","","","","",""
"","html-keyboard-response","151","429594","0.0-84.0-1.0","""event"",""trial"",""time""
""fullscreenenter"",""0"",""2252""
","
","
","""event"",""trial"",""time""
""fullscreenenter"",""0"",""2252""
","
","null","<p></p>","null","","","","","","","","","","","","","","","","","","","","","","","",""
"","do_recog","152","432898","0.0-85.0-0.0","""event"",""trial"",""time""
""fullscreenenter"",""0"",""2252""
","
","
","""event"",""trial"",""time""
""fullscreenenter"",""0"",""2252""
","
","1799.4000000357628","","","","","","","","53","","","","296","probe-223","","","","","1","[object Object]","79","1","1","","","",""
"","html-keyboard-response","153","433899","0.0-85.0-1.0","""event"",""trial"",""time""
""fullscreenenter"",""0"",""2252""
","
","
","""event"",""trial"",""time""
""fullscreenenter"",""0"",""2252""
","
","null","<p></p>","null","","","","","","","","","","","","","","","","","","","","","","","",""
"","do_trial","154","436827","0.0-86.0-0.0","""event"",""trial"",""time""
""fullscreenenter"",""0"",""2252""
","
","
","""event"",""trial"",""time""
""fullscreenenter"",""0"",""2252""
","
","395.60000002384186","","","","","","","","51","1,0,0","6","blank","297","null","0.5369139591774572","0.14942616964864536","0.2431971238890937","0","","","","","","","","",""
"","html-keyboard-response","155","437828","0.0-86.0-1.0","""event"",""trial"",""time""
""fullscreenenter"",""0"",""2252""
","
","
","""event"",""trial"",""time""
""fullscreenenter"",""0"",""2252""
","
","null","<p></p>","null","","","","","","","","","","","","","","","","","","","","","","","",""
"","do_recog","156","440849","0.0-87.0-0.0","""event"",""trial"",""time""
""fullscreenenter"",""0"",""2252""
","
","
","""event"",""trial"",""time""
""fullscreenenter"",""0"",""2252""
","
","1517.199999988079","","","","","","","","53","","","","298","probe-49","","","","","1","[object Object]","71","1","1","","","",""
"","html-keyboard-response","157","441851","0.0-87.0-1.0","""event"",""trial"",""time""
""fullscreenenter"",""0"",""2252""
","
","
","""event"",""trial"",""time""
""fullscreenenter"",""0"",""2252""
","
","null","<p></p>","null","","","","","","","","","","","","","","","","","","","","","","","",""
"","do_trial","158","444786","0.0-88.0-0.0","""event"",""trial"",""time""
""fullscreenenter"",""0"",""2252""
","
","
","""event"",""trial"",""time""
""fullscreenenter"",""0"",""2252""
","
","402.19999998807907","","","","","","","","49","1,0,0","6","blank","299","null","0.6505550650782417","0.13235173801099825","0.18678392375954952","1","","","","","","","","",""
"","html-keyboard-response","159","445786","0.0-88.0-1.0","""event"",""trial"",""time""
""fullscreenenter"",""0"",""2252""
","
","
","""event"",""trial"",""time""
""fullscreenenter"",""0"",""2252""
","
","null","<p></p>","null","","","","","","","","","","","","","","","","","","","","","","","",""
"","do_trial","160","448658","0.0-89.0-0.0","""event"",""trial"",""time""
""fullscreenenter"",""0"",""2252""
","
","
","""event"",""trial"",""time""
""fullscreenenter"",""0"",""2252""
","
","340.30000001192093","","","","","","","","51","1,0,0","6","blank","300","null","0.6287728764571171","0.1331100814079828","0.19933298556114248","0","","","","","","","","",""
"","html-keyboard-response","161","449659","0.0-89.0-1.0","""event"",""trial"",""time""
""fullscreenenter"",""0"",""2252""
","
","
","""event"",""trial"",""time""
""fullscreenenter"",""0"",""2252""
","
","null","<p></p>","null","","","","","","","","","","","","","","","","","","","","","","","",""
"","do_trial","162","452442","0.0-90.0-0.0","""event"",""trial"",""time""
""fullscreenenter"",""0"",""2252""
","
","
","""event"",""trial"",""time""
""fullscreenenter"",""0"",""2252""
","
","251","","","","","","","","50","0,0,0","6","blank","301","null","0.6231071813631902","0.07250475657041965","0.20644248704611276","0","","","","","","","","",""
"","html-keyboard-response","163","453443","0.0-90.0-1.0","""event"",""trial"",""time""
""fullscreenenter"",""0"",""2252""
","
","
","""event"",""trial"",""time""
""fullscreenenter"",""0"",""2252""
","
","null","<p></p>","null","","","","","","","","","","","","","","","","","","","","","","","",""
"","do_trial","164","456313","0.0-91.0-0.0","""event"",""trial"",""time""
""fullscreenenter"",""0"",""2252""
","
","
","""event"",""trial"",""time""
""fullscreenenter"",""0"",""2252""
","
","338.19999998807907","","","","","","","","49","0,0,0","6","blank","302","null","0.6210855703553542","0.0804951802135226","0.24317024584905483","0","","","","","","","","",""
"","html-keyboard-response","165","457314","0.0-91.0-1.0","""event"",""trial"",""time""
""fullscreenenter"",""0"",""2252""
","
","
","""event"",""trial"",""time""
""fullscreenenter"",""0"",""2252""
","
","null","<p></p>","null","","","","","","","","","","","","","","","","","","","","","","","",""
"","do_recog","166","460665","0.0-92.0-0.0","""event"",""trial"",""time""
""fullscreenenter"",""0"",""2252""
","
","
","""event"",""trial"",""time""
""fullscreenenter"",""0"",""2252""
","
","1847.699999988079","","","","","","","","54","","","","303","probe-14","","","","","1","[object Object]","78","1","1","","","",""
"","html-keyboard-response","167","461666","0.0-92.0-1.0","""event"",""trial"",""time""
""fullscreenenter"",""0"",""2252""
","
","
","""event"",""trial"",""time""
""fullscreenenter"",""0"",""2252""
","
","null","<p></p>","null","","","","","","","","","","","","","","","","","","","","","","","",""
"","do_trial","168","464601","0.0-93.0-0.0","""event"",""trial"",""time""
""fullscreenenter"",""0"",""2252""
","
","
","""event"",""trial"",""time""
""fullscreenenter"",""0"",""2252""
","
","403.5","","","","","","","","49","1,0,0","6","blank","304","null","0.7632930218421886","0.0940625861289004","0.19289099721289282","1","","","","","","","","",""
"","html-keyboard-response","169","465603","0.0-93.0-1.0","""event"",""trial"",""time""
""fullscreenenter"",""0"",""2252""
","
","
","""event"",""trial"",""time""
""fullscreenenter"",""0"",""2252""
","
","null","<p></p>","null","","","","","","","","","","","","","","","","","","","","","","","",""
"","do_recog","170","468578","0.0-94.0-0.0","""event"",""trial"",""time""
""fullscreenenter"",""0"",""2252""
","
","
","""event"",""trial"",""time""
""fullscreenenter"",""0"",""2252""
","
","1470.4000000357628","","","","","","","","53","","","","305","probe-177","","","","","1","[object Object]","156","3","1","","","",""
"","html-keyboard-response","171","469580","0.0-94.0-1.0","""event"",""trial"",""time""
""fullscreenenter"",""0"",""2252""
","
","
","""event"",""trial"",""time""
""fullscreenenter"",""0"",""2252""
","
","null","<p></p>","null","","","","","","","","","","","","","","","","","","","","","","","",""
"","do_trial","172","472522","0.0-95.0-0.0","""event"",""trial"",""time""
""fullscreenenter"",""0"",""2252""
","
","
","""event"",""trial"",""time""
""fullscreenenter"",""0"",""2252""
","
","410.69999998807907","","","","","","","","49","0,0,1","6","blank","306","null","0.7560548070317649","0.13918010910234135","0.25835604850629784","0","","","","","","","","",""
"","html-keyboard-response","173","473524","0.0-95.0-1.0","""event"",""trial"",""time""
""fullscreenenter"",""0"",""2252""
","
","
","""event"",""trial"",""time""
""fullscreenenter"",""0"",""2252""
","
","null","<p></p>","null","","","","","","","","","","","","","","","","","","","","","","","",""
"","do_recog","174","476586","0.0-96.0-0.0","""event"",""trial"",""time""
""fullscreenenter"",""0"",""2252""
","
","
","""event"",""trial"",""time""
""fullscreenenter"",""0"",""2252""
","
","1557.4000000357628","","","","","","","","56","","","","307","probe-218","","","","","1","[object Object]","37","0","0","","","",""
"","html-keyboard-response","175","477589","0.0-96.0-1.0","""event"",""trial"",""time""
""fullscreenenter"",""0"",""2252""
","
","
","""event"",""trial"",""time""
""fullscreenenter"",""0"",""2252""
","
","null","<p></p>","null","","","","","","","","","","","","","","","","","","","","","","","",""
"","do_trial","176","480562","0.0-97.0-0.0","""event"",""trial"",""time""
""fullscreenenter"",""0"",""2252""
","
","
","""event"",""trial"",""time""
""fullscreenenter"",""0"",""2252""
","
","442.5","","","","","","","","51","1,0,0","6","blank","308","null","0.47717186275985163","0.08693757430699471","0.18898061237633934","0","","","","","","","","",""
"","html-keyboard-response","177","481565","0.0-97.0-1.0","""event"",""trial"",""time""
""fullscreenenter"",""0"",""2252""
","
","
","""event"",""trial"",""time""
""fullscreenenter"",""0"",""2252""
","
","null","<p></p>","null","","","","","","","","","","","","","","","","","","","","","","","",""
"","break","178","483486","0.0-98.0-0.0","""event"",""trial"",""time""
""fullscreenenter"",""0"",""2252""
","
","
","""event"",""trial"",""time""
""fullscreenenter"",""0"",""2252""
","
","1920.6000000238419","<div class='center'><p>Time to take a quick break! You have 2 minutes to rest, but you can move on sooner if you'd like.</p><p> Press the <b>space bar</b> to continue.</p></div>","32","","","","","","","","","","","","","","","","","","","","","","","",""
"","do_trial","179","486763","0.0-98.0-1.0","""event"",""trial"",""time""
""fullscreenenter"",""0"",""2252""
","
","
","""event"",""trial"",""time""
""fullscreenenter"",""0"",""2252""
","
","745.3000000119209","","","","","","","","49","0,1,0","6","blank","309","null","0.47847675976293796","0.25577240454022565","0.2680489639713424","0","","","","","","","","",""
"","html-keyboard-response","180","487764","0.0-98.0-2.0","""event"",""trial"",""time""
""fullscreenenter"",""0"",""2252""
","
","
","""event"",""trial"",""time""
""fullscreenenter"",""0"",""2252""
","
","null","<p></p>","null","","","","","","","","","","","","","","","","","","","","","","","",""
"","do_trial","181","490595","0.0-99.0-0.0","""event"",""trial"",""time""
""fullscreenenter"",""0"",""2252""
","
","
","""event"",""trial"",""time""
""fullscreenenter"",""0"",""2252""
","
","298.5","","","","","","","","50","0,0,0","6","blank","310","null","0.6097698110460774","0.09694046280563853","0.4011011571584501","0","","","","","","","","",""
"","html-keyboard-response","182","491596","0.0-99.0-1.0","""event"",""trial"",""time""
""fullscreenenter"",""0"",""2252""
","
","
","""event"",""trial"",""time""
""fullscreenenter"",""0"",""2252""
","
","null","<p></p>","null","","","","","","","","","","","","","","","","","","","","","","","",""
"","do_recog","183","494618","0.0-100.0-0.0","""event"",""trial"",""time""
""fullscreenenter"",""0"",""2252""
","
","
","""event"",""trial"",""time""
""fullscreenenter"",""0"",""2252""
","
","1517.5999999642372","","","","","","","","53","","","","311","probe-156","","","","","1","[object Object]","116","2","1","","","",""
"","html-keyboard-response","184","495619","0.0-100.0-1.0","""event"",""trial"",""time""
""fullscreenenter"",""0"",""2252""
","
","
","""event"",""trial"",""time""
""fullscreenenter"",""0"",""2252""
","
","null","<p></p>","null","","","","","","","","","","","","","","","","","","","","","","","",""
"","do_trial","185","498595","0.0-101.0-0.0","""event"",""trial"",""time""
""fullscreenenter"",""0"",""2252""
","
","
","""event"",""trial"",""time""
""fullscreenenter"",""0"",""2252""
","
","443.19999998807907","","","","","","","","49","1,0,1","6","blank","312","null","0.6494961275599439","0.2948237561907361","0.4374652342223641","1","","","","","","","","",""
"","html-keyboard-response","186","499596","0.0-101.0-1.0","""event"",""trial"",""time""
""fullscreenenter"",""0"",""2252""
","
","
","""event"",""trial"",""time""
""fullscreenenter"",""0"",""2252""
","
","null","<p></p>","null","","","","","","","","","","","","","","","","","","","","","","","",""
"","do_recog","187","502682","0.0-102.0-0.0","""event"",""trial"",""time""
""fullscreenenter"",""0"",""2252""
","
","
","""event"",""trial"",""time""
""fullscreenenter"",""0"",""2252""
","
","1581.8999999761581","","","","","","","","56","","","","313","probe-239","","","","","0","[object Object]","null","null","1","","","",""
"","html-keyboard-response","188","503683","0.0-102.0-1.0","""event"",""trial"",""time""
""fullscreenenter"",""0"",""2252""
","
","
","""event"",""trial"",""time""
""fullscreenenter"",""0"",""2252""
","
","null","<p></p>","null","","","","","","","","","","","","","","","","","","","","","","","",""
"","do_trial","189","506555","0.0-103.0-0.0","""event"",""trial"",""time""
""fullscreenenter"",""0"",""2252""
","
","
","""event"",""trial"",""time""
""fullscreenenter"",""0"",""2252""
","
","339.80000001192093","","","","","","","","49","1,0,1","6","blank","314","null","0.5884846098435033","0.2126271944500679","0.2919756009407913","1","","","","","","","","",""
"","html-keyboard-response","190","507557","0.0-103.0-1.0","""event"",""trial"",""time""
""fullscreenenter"",""0"",""2252""
","
","
","""event"",""trial"",""time""
""fullscreenenter"",""0"",""2252""
","
","null","<p></p>","null","","","","","","","","","","","","","","","","","","","","","","","",""
"","do_trial","191","510490","0.0-104.0-0.0","""event"",""trial"",""time""
""fullscreenenter"",""0"",""2252""
","
","
","""event"",""trial"",""time""
""fullscreenenter"",""0"",""2252""
","
","402.0999999642372","","","","","","","","50","0,0,0","6","blank","315","null","0.5876299992539332","0.25676548441457614","0.2322582343292522","0","","","","","","","","",""
"","html-keyboard-response","192","511493","0.0-104.0-1.0","""event"",""trial"",""time""
""fullscreenenter"",""0"",""2252""
","
","
","""event"",""trial"",""time""
""fullscreenenter"",""0"",""2252""
","
","null","<p></p>","null","","","","","","","","","","","","","","","","","","","","","","","",""
"","do_trial","193","514323","0.0-105.0-0.0","""event"",""trial"",""time""
""fullscreenenter"",""0"",""2252""
","
","
","""event"",""trial"",""time""
""fullscreenenter"",""0"",""2252""
","
","298.4000000357628","","","","","","","","49","0,0,0","6","blank","316","null","0.6634114982497772","0.22333613810929134","0.2268334028949851","0","","","","","","","","",""
"","html-keyboard-response","194","515325","0.0-105.0-1.0","""event"",""trial"",""time""
""fullscreenenter"",""0"",""2252""
","
","
","""event"",""trial"",""time""
""fullscreenenter"",""0"",""2252""
","
","null","<p></p>","null","","","","","","","","","","","","","","","","","","","","","","","",""
"","do_recog","195","518970","0.0-106.0-0.0","""event"",""trial"",""time""
""fullscreenenter"",""0"",""2252""
","
","
","""event"",""trial"",""time""
""fullscreenenter"",""0"",""2252""
","
","2141.399999976158","","","","","","","","53","","","","317","probe-61","","","","","1","[object Object]","157","3","1","","","",""
"","html-keyboard-response","196","519972","0.0-106.0-1.0","""event"",""trial"",""time""
""fullscreenenter"",""0"",""2252""
","
","
","""event"",""trial"",""time""
""fullscreenenter"",""0"",""2252""
","
","null","<p></p>","null","","","","","","","","","","","","","","","","","","","","","","","",""
"","do_trial","197","522891","0.0-107.0-0.0","""event"",""trial"",""time""
""fullscreenenter"",""0"",""2252""
","
","
","""event"",""trial"",""time""
""fullscreenenter"",""0"",""2252""
","
","385.89999997615814","","","","","","","","50","1,0,0","6","blank","318","null","0.5325877140582566","0.28246663532169464","0.31687649104360355","0","","","","","","","","",""
"","html-keyboard-response","198","523892","0.0-107.0-1.0","""event"",""trial"",""time""
""fullscreenenter"",""0"",""2252""
","
","
","""event"",""trial"",""time""
""fullscreenenter"",""0"",""2252""
","
","null","<p></p>","null","","","","","","","","","","","","","","","","","","","","","","","",""
"","do_trial","199","526754","0.0-108.0-0.0","""event"",""trial"",""time""
""fullscreenenter"",""0"",""2252""
","
","
","""event"",""trial"",""time""
""fullscreenenter"",""0"",""2252""
","
","331","","","","","","","","51","1,0,0","6","blank","319","null","0.48556698763797956","0.21116038133793213","0.34307967991730176","0","","","","","","","","",""
"","html-keyboard-response","200","527756","0.0-108.0-1.0","""event"",""trial"",""time""
""fullscreenenter"",""0"",""2252""
","
","
","""event"",""trial"",""time""
""fullscreenenter"",""0"",""2252""
","
","null","<p></p>","null","","","","","","","","","","","","","","","","","","","","","","","",""
"","do_trial","201","530715","0.0-109.0-0.0","""event"",""trial"",""time""
""fullscreenenter"",""0"",""2252""
","
","
","""event"",""trial"",""time""
""fullscreenenter"",""0"",""2252""
","
","427.30000001192093","","","","","","","","49","0,1,0","6","blank","320","null","0.4717122681951374","0.25640487848670057","0.2513013415980586","0","","","","","","","","",""
"","html-keyboard-response","202","531716","0.0-109.0-1.0","""event"",""trial"",""time""
""fullscreenenter"",""0"",""2252""
","
","
","""event"",""trial"",""time""
""fullscreenenter"",""0"",""2252""
","
","null","<p></p>","null","","","","","","","","","","","","","","","","","","","","","","","",""
"","do_trial","203","534612","0.0-110.0-0.0","""event"",""trial"",""time""
""fullscreenenter"",""0"",""2252""
","
","
","""event"",""trial"",""time""
""fullscreenenter"",""0"",""2252""
","
","363.69999998807907","","","","","","","","49","1,0,0","6","blank","321","null","0.46255559982951555","0.0772378620468419","0.344900319703785","1","","","","","","","","",""
"","html-keyboard-response","204","535612","0.0-110.0-1.0","""event"",""trial"",""time""
""fullscreenenter"",""0"",""2252""
","
","
","""event"",""trial"",""time""
""fullscreenenter"",""0"",""2252""
","
","null","<p></p>","null","","","","","","","","","","","","","","","","","","","","","","","",""
"","do_trial","205","538490","0.0-111.0-0.0","""event"",""trial"",""time""
""fullscreenenter"",""0"",""2252""
","
","
","""event"",""trial"",""time""
""fullscreenenter"",""0"",""2252""
","
","345.80000001192093","","","","","","","","49","0,0,0","6","blank","322","null","0.46806700269996493","0.1265508988970593","0.3870922262365221","0","","","","","","","","",""
"","html-keyboard-response","206","539492","0.0-111.0-1.0","""event"",""trial"",""time""
""fullscreenenter"",""0"",""2252""
","
","
","""event"",""trial"",""time""
""fullscreenenter"",""0"",""2252""
","
","null","<p></p>","null","","","","","","","","","","","","","","","","","","","","","","","",""
"","do_trial","207","542354","0.0-112.0-0.0","""event"",""trial"",""time""
""fullscreenenter"",""0"",""2252""
","
","
","""event"",""trial"",""time""
""fullscreenenter"",""0"",""2252""
","
","329.7000000476837","","","","","","","","50","0,1,1","6","blank","323","null","0.4057289907401422","0.1400380588232816","0.3104240604785588","1","","","","","","","","",""
"","html-keyboard-response","208","543356","0.0-112.0-1.0","""event"",""trial"",""time""
""fullscreenenter"",""0"",""2252""
","
","
","""event"",""trial"",""time""
""fullscreenenter"",""0"",""2252""
","
","null","<p></p>","null","","","","","","","","","","","","","","","","","","","","","","","",""
"","do_trial","209","546242","0.0-113.0-0.0","""event"",""trial"",""time""
""fullscreenenter"",""0"",""2252""
","
","
","""event"",""trial"",""time""
""fullscreenenter"",""0"",""2252""
","
","354.9000000357628","","","","","","","","50","1,0,0","6","blank","324","null","0.4826502203938711","0.10576390519157113","0.21573643488310942","0","","","","","","","","",""
"","html-keyboard-response","210","547244","0.0-113.0-1.0","""event"",""trial"",""time""
""fullscreenenter"",""0"",""2252""
","
","
","""event"",""trial"",""time""
""fullscreenenter"",""0"",""2252""
","
","null","<p></p>","null","","","","","","","","","","","","","","","","","","","","","","","",""
"","do_recog","211","550115","0.0-114.0-0.0","""event"",""trial"",""time""
""fullscreenenter"",""0"",""2252""
","
","
","""event"",""trial"",""time""
""fullscreenenter"",""0"",""2252""
","
","1365.7000000476837","","","","","","","","53","","","","325","probe-207","","","","","1","[object Object]","36","0","1","","","",""
"","html-keyboard-response","212","551116","0.0-114.0-1.0","""event"",""trial"",""time""
""fullscreenenter"",""0"",""2252""
","
","
","""event"",""trial"",""time""
""fullscreenenter"",""0"",""2252""
","
","null","<p></p>","null","","","","","","","","","","","","","","","","","","","","","","","",""
"","do_trial","213","554185","0.0-115.0-0.0","""event"",""trial"",""time""
""fullscreenenter"",""0"",""2252""
","
","
","""event"",""trial"",""time""
""fullscreenenter"",""0"",""2252""
","
","538","","","","","","","","51","0,0,0","6","blank","326","null","0.5247407919021374","0.11331594988089633","0.2795730637598575","0","","","","","","","","",""
"","html-keyboard-response","214","555187","0.0-115.0-1.0","""event"",""trial"",""time""
""fullscreenenter"",""0"",""2252""
","
","
","""event"",""trial"",""time""
""fullscreenenter"",""0"",""2252""
","
","null","<p></p>","null","","","","","","","","","","","","","","","","","","","","","","","",""
"","do_recog","215","558361","0.0-116.0-0.0","""event"",""trial"",""time""
""fullscreenenter"",""0"",""2252""
","
","
","""event"",""trial"",""time""
""fullscreenenter"",""0"",""2252""
","
","1671.1000000238419","","","","","","","","53","","","","327","probe-128","","","","","1","[object Object]","153","3","1","","","",""
"","html-keyboard-response","216","559362","0.0-116.0-1.0","""event"",""trial"",""time""
""fullscreenenter"",""0"",""2252""
","
","
","""event"",""trial"",""time""
""fullscreenenter"",""0"",""2252""
","
","null","<p></p>","null","","","","","","","","","","","","","","","","","","","","","","","",""
"","do_trial","217","562234","0.0-117.0-0.0","""event"",""trial"",""time""
""fullscreenenter"",""0"",""2252""
","
","
","""event"",""trial"",""time""
""fullscreenenter"",""0"",""2252""
","
","340.19999998807907","","","","","","","","49","1,0,0","6","blank","328","null","0.6805579152477891","0.1523444494613738","0.2916193143000904","1","","","","","","","","",""
"","html-keyboard-response","218","563235","0.0-117.0-1.0","""event"",""trial"",""time""
""fullscreenenter"",""0"",""2252""
","
","
","""event"",""trial"",""time""
""fullscreenenter"",""0"",""2252""
","
","null","<p></p>","null","","","","","","","","","","","","","","","","","","","","","","","",""
"","do_trial","219","566066","0.0-118.0-0.0","""event"",""trial"",""time""
""fullscreenenter"",""0"",""2252""
","
","
","""event"",""trial"",""time""
""fullscreenenter"",""0"",""2252""
","
","299","","","","","","","","51","1,0,0","6","blank","329","null","0.6971222604485573","0.09470050716139586","0.32032172566829653","0","","","","","","","","",""
"","html-keyboard-response","220","567068","0.0-118.0-1.0","""event"",""trial"",""time""
""fullscreenenter"",""0"",""2252""
","
","
","""event"",""trial"",""time""
""fullscreenenter"",""0"",""2252""
","
","null","<p></p>","null","","","","","","","","","","","","","","","","","","","","","","","",""
"","do_recog","221","570098","0.0-119.0-0.0","""event"",""trial"",""time""
""fullscreenenter"",""0"",""2252""
","
","
","""event"",""trial"",""time""
""fullscreenenter"",""0"",""2252""
","
","1526.199999988079","","","","","","","","53","","","","330","probe-176","","","","","1","[object Object]","77","1","1","","","",""
"","html-keyboard-response","222","571100","0.0-119.0-1.0","""event"",""trial"",""time""
""fullscreenenter"",""0"",""2252""
","
","
","""event"",""trial"",""time""
""fullscreenenter"",""0"",""2252""
","
","null","<p></p>","null","","","","","","","","","","","","","","","","","","","","","","","",""
"","do_trial","223","574018","0.0-120.0-0.0","""event"",""trial"",""time""
""fullscreenenter"",""0"",""2252""
","
","
","""event"",""trial"",""time""
""fullscreenenter"",""0"",""2252""
","
","385.80000001192093","","","","","","","","51","0,0,0","6","blank","331","null","0.6746386303776583","0.10417226429982453","0.4172316682193917","0","","","","","","","","",""
"","html-keyboard-response","224","575020","0.0-120.0-1.0","""event"",""trial"",""time""
""fullscreenenter"",""0"",""2252""
","
","
","""event"",""trial"",""time""
""fullscreenenter"",""0"",""2252""
","
","null","<p></p>","null","","","","","","","","","","","","","","","","","","","","","","","",""
"","do_trial","225","577977","0.0-121.0-0.0","""event"",""trial"",""time""
""fullscreenenter"",""0"",""2252""
","
","
","""event"",""trial"",""time""
""fullscreenenter"",""0"",""2252""
","
","426.80000001192093","","","","","","","","51","0,0,0","6","blank","332","null","0.6820966572010513","0.050124298105937014","0.41442505960501164","0","","","","","","","","",""
"","html-keyboard-response","226","578979","0.0-121.0-1.0","""event"",""trial"",""time""
""fullscreenenter"",""0"",""2252""
","
","
","""event"",""trial"",""time""
""fullscreenenter"",""0"",""2252""
","
","null","<p></p>","null","","","","","","","","","","","","","","","","","","","","","","","",""
"","do_trial","227","581858","0.0-122.0-0.0","""event"",""trial"",""time""
""fullscreenenter"",""0"",""2252""
","
","
","""event"",""trial"",""time""
""fullscreenenter"",""0"",""2252""
","
","347.39999997615814","","","","","","","","49","0,0,0","6","blank","333","null","0.6001172099178783","0.09695989227033659","0.6368028892276079","0","","","","","","","","",""
"","html-keyboard-response","228","582861","0.0-122.0-1.0","""event"",""trial"",""time""
""fullscreenenter"",""0"",""2252""
","
","
","""event"",""trial"",""time""
""fullscreenenter"",""0"",""2252""
","
","null","<p></p>","null","","","","","","","","","","","","","","","","","","","","","","","",""
"","do_trial","229","585706","0.0-123.0-0.0","""event"",""trial"",""time""
""fullscreenenter"",""0"",""2252""
","
","
","""event"",""trial"",""time""
""fullscreenenter"",""0"",""2252""
","
","312.5","","","","","","","","50","0,0,1","6","blank","334","null","0.5562963540186133","0.11173408518594367","0.5404052843565695","0","","","","","","","","",""
"","html-keyboard-response","230","586708","0.0-123.0-1.0","""event"",""trial"",""time""
""fullscreenenter"",""0"",""2252""
","
","
","""event"",""trial"",""time""
""fullscreenenter"",""0"",""2252""
","
","null","<p></p>","null","","","","","","","","","","","","","","","","","","","","","","","",""
"","do_trial","231","589650","0.0-124.0-0.0","""event"",""trial"",""time""
""fullscreenenter"",""0"",""2252""
","
","
","""event"",""trial"",""time""
""fullscreenenter"",""0"",""2252""
","
","410.5999999642372","","","","","","","","49","1,0,0","6","blank","335","null","0.5358582923903559","0.05977305325351748","0.4080402484315737","1","","","","","","","","",""
"","html-keyboard-response","232","590651","0.0-124.0-1.0","""event"",""trial"",""time""
""fullscreenenter"",""0"",""2252""
","
","
","""event"",""trial"",""time""
""fullscreenenter"",""0"",""2252""
","
","null","<p></p>","null","","","","","","","","","","","","","","","","","","","","","","","",""
"","do_trial","233","593610","0.0-125.0-0.0","""event"",""trial"",""time""
""fullscreenenter"",""0"",""2252""
","
","
","""event"",""trial"",""time""
""fullscreenenter"",""0"",""2252""
","
","426.5","","","","","","","","51","0,0,0","6","blank","336","null","0.5676546532345093","0.07446271154205661","0.247941626531471","0","","","","","","","","",""
"","html-keyboard-response","234","594612","0.0-125.0-1.0","""event"",""trial"",""time""
""fullscreenenter"",""0"",""2252""
","
","
","""event"",""trial"",""time""
""fullscreenenter"",""0"",""2252""
","
","null","<p></p>","null","","","","","","","","","","","","","","","","","","","","","","","",""
"","do_recog","235","597874","0.0-126.0-0.0","""event"",""trial"",""time""
""fullscreenenter"",""0"",""2252""
","
","
","""event"",""trial"",""time""
""fullscreenenter"",""0"",""2252""
","
","1758.199999988079","","","","","","","","53","","","","337","probe-36","","","","","1","[object Object]","159","3","1","","","",""
"","html-keyboard-response","236","598875","0.0-126.0-1.0","""event"",""trial"",""time""
""fullscreenenter"",""0"",""2252""
","
","
","""event"",""trial"",""time""
""fullscreenenter"",""0"",""2252""
","
","null","<p></p>","null","","","","","","","","","","","","","","","","","","","","","","","",""
"","do_trial","237","601883","0.0-127.0-0.0","""event"",""trial"",""time""
""fullscreenenter"",""0"",""2252""
","
","
","""event"",""trial"",""time""
""fullscreenenter"",""0"",""2252""
","
","475.19999998807907","","","","","","","","50","1,0,1","6","blank","338","null","0.5894702298973491","0.10066483399204192","0.26212269220488366","0","","","","","","","","",""
"","html-keyboard-response","238","602884","0.0-127.0-1.0","""event"",""trial"",""time""
""fullscreenenter"",""0"",""2252""
","
","
","""event"",""trial"",""time""
""fullscreenenter"",""0"",""2252""
","
","null","<p></p>","null","","","","","","","","","","","","","","","","","","","","","","","",""
"","do_trial","239","605826","0.0-128.0-0.0","""event"",""trial"",""time""
""fullscreenenter"",""0"",""2252""
","
","
","""event"",""trial"",""time""
""fullscreenenter"",""0"",""2252""
","
","410.5","","","","","","","","49","1,1,0","6","blank","339","null","0.5873939788964154","0.10219330245625619","0.21819894701764092","1","","","","","","","","",""
"","html-keyboard-response","240","606829","0.0-128.0-1.0","""event"",""trial"",""time""
""fullscreenenter"",""0"",""2252""
","
","
","""event"",""trial"",""time""
""fullscreenenter"",""0"",""2252""
","
","null","<p></p>","null","","","","","","","","","","","","","","","","","","","","","","","",""
"","do_recog","241","609730","0.0-129.0-0.0","""event"",""trial"",""time""
""fullscreenenter"",""0"",""2252""
","
","
","""event"",""trial"",""time""
""fullscreenenter"",""0"",""2252""
","
","1397.2999999523163","","","","","","","","53","","","","340","probe-222","","","","","1","[object Object]","39","0","1","","","",""
"","html-keyboard-response","242","610732","0.0-129.0-1.0","""event"",""trial"",""time""
""fullscreenenter"",""0"",""2252""
","
","
","""event"",""trial"",""time""
""fullscreenenter"",""0"",""2252""
","
","null","<p></p>","null","","","","","","","","","","","","","","","","","","","","","","","",""
"","do_trial","243","613770","0.0-130.0-0.0","""event"",""trial"",""time""
""fullscreenenter"",""0"",""2252""
","
","
","""event"",""trial"",""time""
""fullscreenenter"",""0"",""2252""
","
","506.19999998807907","","","","","","","","49","1,0,1","6","blank","341","null","0.599200911764285","0.23052818630506974","0.2124161774034512","1","","","","","","","","",""
"","html-keyboard-response","244","614772","0.0-130.0-1.0","""event"",""trial"",""time""
""fullscreenenter"",""0"",""2252""
","
","
","""event"",""trial"",""time""
""fullscreenenter"",""0"",""2252""
","
","null","<p></p>","null","","","","","","","","","","","","","","","","","","","","","","","",""
"","do_trial","245","617634","0.0-131.0-0.0","""event"",""trial"",""time""
""fullscreenenter"",""0"",""2252""
","
","
","""event"",""trial"",""time""
""fullscreenenter"",""0"",""2252""
","
","331","","","","","","","","51","1,1,0","6","blank","342","null","0.616784225138495","0.14150635423402866","0.27418734493132124","0","","","","","","","","",""
"","html-keyboard-response","246","618636","0.0-131.0-1.0","""event"",""trial"",""time""
""fullscreenenter"",""0"",""2252""
","
","
","""event"",""trial"",""time""
""fullscreenenter"",""0"",""2252""
","
","null","<p></p>","null","","","","","","","","","","","","","","","","","","","","","","","",""
"","do_recog","247","621690","0.0-132.0-0.0","""event"",""trial"",""time""
""fullscreenenter"",""0"",""2252""
","
","
","""event"",""trial"",""time""
""fullscreenenter"",""0"",""2252""
","
","1550.300000011921","","","","","","","","53","","","","343","probe-95","","","","","1","[object Object]","75","1","1","","","",""
"","html-keyboard-response","248","622691","0.0-132.0-1.0","""event"",""trial"",""time""
""fullscreenenter"",""0"",""2252""
","
","
","""event"",""trial"",""time""
""fullscreenenter"",""0"",""2252""
","
","null","<p></p>","null","","","","","","","","","","","","","","","","","","","","","","","",""
"","do_trial","249","625690","0.0-133.0-0.0","""event"",""trial"",""time""
""fullscreenenter"",""0"",""2252""
","
","
","""event"",""trial"",""time""
""fullscreenenter"",""0"",""2252""
","
","467.19999998807907","","","","","","","","49","1,0,0","6","blank","344","null","0.4578750938015772","0.31915483031353176","0.37377533948983527","1","","","","","","","","",""
"","html-keyboard-response","250","626692","0.0-133.0-1.0","""event"",""trial"",""time""
""fullscreenenter"",""0"",""2252""
","
","
","""event"",""trial"",""time""
""fullscreenenter"",""0"",""2252""
","
","null","<p></p>","null","","","","","","","","","","","","","","","","","","","","","","","",""
"","do_trial","251","629618","0.0-134.0-0.0","""event"",""trial"",""time""
""fullscreenenter"",""0"",""2252""
","
","
","""event"",""trial"",""time""
""fullscreenenter"",""0"",""2252""
","
","394.80000001192093","","","","","","","","49","1,0,0","6","blank","345","null","0.41643829568322704","0.21903242172915519","0.28021011308116633","1","","","","","","","","",""
"","html-keyboard-response","252","630619","0.0-134.0-1.0","""event"",""trial"",""time""
""fullscreenenter"",""0"",""2252""
","
","
","""event"",""trial"",""time""
""fullscreenenter"",""0"",""2252""
","
","null","<p></p>","null","","","","","","","","","","","","","","","","","","","","","","","",""
"","do_recog","253","633402","0.0-135.0-0.0","""event"",""trial"",""time""
""fullscreenenter"",""0"",""2252""
","
","
","""event"",""trial"",""time""
""fullscreenenter"",""0"",""2252""
","
","1278.3999999761581","","","","","","","","53","","","","346","probe-214","","","","","1","[object Object]","158","3","1","","","",""
"","html-keyboard-response","254","634403","0.0-135.0-1.0","""event"",""trial"",""time""
""fullscreenenter"",""0"",""2252""
","
","
","""event"",""trial"",""time""
""fullscreenenter"",""0"",""2252""
","
","null","<p></p>","null","","","","","","","","","","","","","","","","","","","","","","","",""
"","do_trial","255","637378","0.0-136.0-0.0","""event"",""trial"",""time""
""fullscreenenter"",""0"",""2252""
","
","
","""event"",""trial"",""time""
""fullscreenenter"",""0"",""2252""
","
","443.4000000357628","","","","","","","","49","1,0,1","6","blank","347","null","0.4855846623582494","0.20884359988146572","0.5178968271041414","1","","","","","","","","",""
"","html-keyboard-response","256","638379","0.0-136.0-1.0","""event"",""trial"",""time""
""fullscreenenter"",""0"",""2252""
","
","
","""event"",""trial"",""time""
""fullscreenenter"",""0"",""2252""
","
","null","<p></p>","null","","","","","","","","","","","","","","","","","","","","","","","",""
"","do_trial","257","641258","0.0-137.0-0.0","""event"",""trial"",""time""
""fullscreenenter"",""0"",""2252""
","
","
","""event"",""trial"",""time""
""fullscreenenter"",""0"",""2252""
","
","347.80000001192093","","","","","","","","49","0,1,1","6","blank","348","null","0.3600609431795369","0.2560895542963356","0.4586216379477709","0","","","","","","","","",""
"","html-keyboard-response","258","642260","0.0-137.0-1.0","""event"",""trial"",""time""
""fullscreenenter"",""0"",""2252""
","
","
","""event"",""trial"",""time""
""fullscreenenter"",""0"",""2252""
","
","null","<p></p>","null","","","","","","","","","","","","","","","","","","","","","","","",""
"","break","259","643349","0.0-138.0-0.0","""event"",""trial"",""time""
""fullscreenenter"",""0"",""2252""
","
","
","""event"",""trial"",""time""
""fullscreenenter"",""0"",""2252""
","
","1088.5","<div class='center'><p>Time to take a quick break! You have 2 minutes to rest, but you can move on sooner if you'd like.</p><p> Press the <b>space bar</b> to continue.</p></div>","32","","","","","","","","","","","","","","","","","","","","","","","",""
"","do_trial","260","646627","0.0-138.0-1.0","""event"",""trial"",""time""
""fullscreenenter"",""0"",""2252""
","
","
","""event"",""trial"",""time""
""fullscreenenter"",""0"",""2252""
","
","745.6000000238419","","","","","","","","49","0,1,0","6","blank","349","null","0.3023528634703667","0.29973073512270304","0.44418825979015025","0","","","","","","","","",""
"","html-keyboard-response","261","647628","0.0-138.0-2.0","""event"",""trial"",""time""
""fullscreenenter"",""0"",""2252""
","
","
","""event"",""trial"",""time""
""fullscreenenter"",""0"",""2252""
","
","null","<p></p>","null","","","","","","","","","","","","","","","","","","","","","","","",""
"","do_trial","262","650618","0.0-139.0-0.0","""event"",""trial"",""time""
""fullscreenenter"",""0"",""2252""
","
","
","""event"",""trial"",""time""
""fullscreenenter"",""0"",""2252""
","
","458.4000000357628","","","","","","","","49","1,0,0","6","blank","350","null","0.49514814386169503","0.09755361669363133","0.4154361970322493","1","","","","","","","","",""
"","html-keyboard-response","263","651619","0.0-139.0-1.0","""event"",""trial"",""time""
""fullscreenenter"",""0"",""2252""
","
","
","""event"",""trial"",""time""
""fullscreenenter"",""0"",""2252""
","
","null","<p></p>","null","","","","","","","","","","","","","","","","","","","","","","","",""
"","do_trial","264","654522","0.0-140.0-0.0","""event"",""trial"",""time""
""fullscreenenter"",""0"",""2252""
","
","
","""event"",""trial"",""time""
""fullscreenenter"",""0"",""2252""
","
","372.2999999523163","","","","","","","","49","1,0,1","6","blank","351","null","0.5507823868800442","0.13326331489494828","0.36990802568673004","1","","","","","","","","",""
"","html-keyboard-response","265","655523","0.0-140.0-1.0","""event"",""trial"",""time""
""fullscreenenter"",""0"",""2252""
","
","
","""event"",""trial"",""time""
""fullscreenenter"",""0"",""2252""
","
","null","<p></p>","null","","","","","","","","","","","","","","","","","","","","","","","",""
"","do_trial","266","658363","0.0-141.0-0.0","""event"",""trial"",""time""
""fullscreenenter"",""0"",""2252""
","
","
","""event"",""trial"",""time""
""fullscreenenter"",""0"",""2252""
","
","307.30000001192093","","","","","","","","51","0,0,0","6","blank","352","null","0.48855270467854256","0.05905668085487003","0.3379504982469529","0","","","","","","","","",""
"","html-keyboard-response","267","659364","0.0-141.0-1.0","""event"",""trial"",""time""
""fullscreenenter"",""0"",""2252""
","
","
","""event"",""trial"",""time""
""fullscreenenter"",""0"",""2252""
","
","null","<p></p>","null","","","","","","","","","","","","","","","","","","","","","","","",""
"","do_recog","268","662234","0.0-142.0-0.0","""event"",""trial"",""time""
""fullscreenenter"",""0"",""2252""
","
","
","""event"",""trial"",""time""
""fullscreenenter"",""0"",""2252""
","
","1366.800000011921","","","","","","","","53","","","","353","probe-148","","","","","1","[object Object]","198","4","1","","","",""
"","html-keyboard-response","269","663235","0.0-142.0-1.0","""event"",""trial"",""time""
""fullscreenenter"",""0"",""2252""
","
","
","""event"",""trial"",""time""
""fullscreenenter"",""0"",""2252""
","
","null","<p></p>","null","","","","","","","","","","","","","","","","","","","","","","","",""
"","do_trial","270","666211","0.0-143.0-0.0","""event"",""trial"",""time""
""fullscreenenter"",""0"",""2252""
","
","
","""event"",""trial"",""time""
""fullscreenenter"",""0"",""2252""
","
","442.7999999523163","","","","","","","","49","1,0,1","6","blank","354","null","0.4908343586264382","0.1667462445910822","0.4437384260304754","1","","","","","","","","",""
"","html-keyboard-response","271","667212","0.0-143.0-1.0","""event"",""trial"",""time""
""fullscreenenter"",""0"",""2252""
","
","
","""event"",""trial"",""time""
""fullscreenenter"",""0"",""2252""
","
","null","<p></p>","null","","","","","","","","","","","","","","","","","","","","","","","",""
"","do_trial","272","670082","0.0-144.0-0.0","""event"",""trial"",""time""
""fullscreenenter"",""0"",""2252""
","
","
","""event"",""trial"",""time""
""fullscreenenter"",""0"",""2252""
","
","338.69999998807907","","","","","","","","49","0,0,1","6","blank","355","null","0.42790904681752523","0.17386417582513047","0.4456505123835152","0","","","","","","","","",""
"","html-keyboard-response","273","671084","0.0-144.0-1.0","""event"",""trial"",""time""
""fullscreenenter"",""0"",""2252""
","
","
","""event"",""trial"",""time""
""fullscreenenter"",""0"",""2252""
","
","null","<p></p>","null","","","","","","","","","","","","","","","","","","","","","","","",""
"","do_trial","274","674137","0.0-145.0-0.0","""event"",""trial"",""time""
""fullscreenenter"",""0"",""2252""
","
","
","""event"",""trial"",""time""
""fullscreenenter"",""0"",""2252""
","
","522.5","","","","","","","","50","0,0,1","6","blank","356","null","0.3998023805593334","0.2623194157386082","0.42375418563823736","0","","","","","","","","",""
"","html-keyboard-response","275","675145","0.0-145.0-1.0","""event"",""trial"",""time""
""fullscreenenter"",""0"",""2252""
","
","
","""event"",""trial"",""time""
""fullscreenenter"",""0"",""2252""
","
","null","<p></p>","null","","","","","","","","","","","","","","","","","","","","","","","",""
"","do_recog","276","678427","0.0-146.0-0.0","""event"",""trial"",""time""
""fullscreenenter"",""0"",""2252""
","
","
","""event"",""trial"",""time""
""fullscreenenter"",""0"",""2252""
","
","1778.199999988079","","","","","","","","56","","","","357","probe-248","","","","","0","[object Object]","null","null","1","","","",""
"","html-keyboard-response","277","679428","0.0-146.0-1.0","""event"",""trial"",""time""
""fullscreenenter"",""0"",""2252""
","
","