success,trial_type,trial_index,time_elapsed,internal_node_id,rt,stimulus,subject_id,key_press,response,choice_outcomes,context_n,context_img_id,trial_n,probe_img_id,pR_red,pR_white,pR_black,outcome,is_valid,image_to_show,probed_trial,probed_context,correct,context_id
TRUE,fullscreen,0,3353,0.0-0.0,,,,,,,,,,,,,,,,,,,,
,pavlovia,1,3358,0.0-1.0,,,,,,,,,,,,,,,,,,,,
,html-keyboard-response,2,44714,0.0-2.0,41354.3,"<div class='center'><p>Like yesterday,as the head captain of the ship, you have one important things to do: </p><b><p> Pick the pirate who you think will be most successful at robbing the next ship.</p></b><p>This is important in determining how much bonus money you’ll win.</p><br><p>The game will start by showing you the pirates. First pick a pirate using the <b> 1, 2, 3 </b> buttons on your keyboard. </p><p> Press <b>'1'</b> to choose red beard, <b>'2'</b> to choose white beard, and <b>'3'</b> to choose black beard</p><p> You only have 3 seconds to pick a pirate, so please make a choice quickly! If you are too slow, you’ll have to wait a bit during the time out.</p><p> Don’t feel rushed, but please do try to make a choice every time.</p><p>How good a pirate is at robbing a ship will change depending on the place they are in and how good the defenses are of the ship.</p><p><b>[Press the space bar to begin the practice game]</b></p></div>",60fe218f65aecf42f45aaecf,32,,,,,,,,,,,,,,,,
,html-keyboard-response,3,62125,0.0-3.0,17410.6,"<div class='center'><p>You’ve arrived at the final island of your journey! Unfortunately, it’s very foggy out, so you won’t be able to see it in the distance like the previous islands you've visited.</p><p>You’ll still be deciding which pirate you want to rob a ship like before. However, because of the fog, you also won’t be able to see the ship.</p><p>This means you do not have to remember the ships you rob on this island.</p><p><b>[Press the space bar to continue]</b></p></div>",,32,,,,,,,,,,,,,,,,
,html-keyboard-response,4,71714,0.0-4.0,9588.3,"<div class='center'><p> Sometimes you’ll be shown a ship, and you will be asked if you saw this ship on a past island.</p><p> Here is an example of what you will see.</p><p><b>[Press the space bar to continue]</b></p><p><img src='run_exp/static/images/tutorial/example_recog_trial.png' height='500'></p></div>",,32,,,,,,,,,,,,,,,,
,html-keyboard-response,5,87528,0.0-5.0,15813.6,"<div class='center'><p> You will press the 5, 6, 7, 8 buttons on your keyboard to respond.</p><p>If you are very sure saw the ship, press <b>5</b> on your keyboard.</p><p> If you think you  saw it before but are not sure, then press <b>6</b>.</p><p> If you think you have not seen it before but are not sure, then press <b>7</b>.</p><p> If you are sure you did not see the ship before, then press <b>8</b>.</p><p><b>[Press the space bar to continue]</b></p><p><img src='run_exp/static/images/tutorial/example_recog_trial.png' height='500'></p></div>",,32,,,,,,,,,,,,,,,,
,html-keyboard-response,6,95006,0.0-6.0,7477.2,"<div class='center'><p> If you remember correctly, then you’ll get a gold coin like this: </p><p><img src='run_exp/static/images/tutorial/reward_small.png' height='200'></p><p>If you do not remember correctly, then you'll see a red x like this: </p><p><img src='run_exp/static/images/tutorial/reward_no.png' height='200'></p><p>Importantly, when you are shown a ship, take the time to remind yourself which island you saw it on. This will help you in the next part of the study.</p><p><b>[Press the space bar to continue]</b></p></div>",,32,,,,,,,,,,,,,,,,
,html-keyboard-response,7,102749,0.0-7.0,7742.2,"<div class='center'><p>Let's go over the important points again. Your job is to: </p><p>1. Pick the pirate who is best at robbing ships and will bring you back gold coins. </p><p>2. Correctly remember whether or not you saw a ship before. If you did see the ship before, remind yourself on which island you saw the ship. </p><p><b>[Press the space bar to begin the next part of the study]</b></p></div>",,32,,,,,,,,,,,,,,,,
,do_welcome,8,104258,0.0-8.0,null,,,,null,,,,,,,,,,,,,,,
,do_trial,9,107712,0.0-9.0-0.0,912.1,,,,50,"1,0,0",6,blank,230,null,0.543508749,0.360707921,0.05752005,0,,,,,,
,html-keyboard-response,10,108728,0.0-9.0-1.0,null,<p></p>,,null,,,,,,,,,,,,,,,,
,do_trial,11,111890,0.0-10.0-0.0,615.5,,,,50,"1,0,0",6,blank,231,null,0.525427997,0.319482402,0.150705821,0,,,,,,
,html-keyboard-response,12,112901,0.0-10.0-1.0,null,<p></p>,,null,,,,,,,,,,,,,,,,
,do_trial,13,115690,0.0-11.0-0.0,241,,,,49,"1,1,0",6,blank,232,null,0.554457319,0.302409756,0.152799481,1,,,,,,
,html-keyboard-response,14,116705,0.0-11.0-1.0,null,<p></p>,,null,,,,,,,,,,,,,,,,
,do_trial,15,120369,0.0-12.0-0.0,1112.9,,,,49,"1,0,0",6,blank,233,null,0.537346094,0.232555482,0.068788306,1,,,,,,
,html-keyboard-response,16,121385,0.0-12.0-1.0,null,<p></p>,,null,,,,,,,,,,,,,,,,
,do_trial,17,124266,0.0-13.0-0.0,341.8,,,,49,"0,0,0",6,blank,234,null,0.436496094,0.146272312,0.133048374,0,,,,,,
,html-keyboard-response,18,125281,0.0-13.0-1.0,null,<p></p>,,null,,,,,,,,,,,,,,,,
,do_trial,19,128084,0.0-14.0-0.0,251.3,,,,49,"0,0,0",6,blank,235,null,0.466815997,0.191947283,0.212863331,0,,,,,,
,html-keyboard-response,20,129096,0.0-14.0-1.0,null,<p></p>,,null,,,,,,,,,,,,,,,,
,do_trial,21,132150,0.0-15.0-0.0,507.2,,,,51,"1,1,1",6,blank,236,null,0.641413612,0.262312449,0.278063534,1,,,,,,
,html-keyboard-response,22,133155,0.0-15.0-1.0,null,<p></p>,,null,,,,,,,,,,,,,,,,
,do_trial,23,136206,0.0-16.0-0.0,503.2,,,,51,"0,0,0",6,blank,237,null,0.749664753,0.295240498,0.382758794,0,,,,,,
,html-keyboard-response,24,137219,0.0-16.0-1.0,null,<p></p>,,null,,,,,,,,,,,,,,,,
,do_trial,25,139977,0.0-17.0-0.0,215.6,,,,49,"1,0,0",6,blank,238,null,0.872645312,0.206976815,0.259908716,1,,,,,,
,html-keyboard-response,26,140989,0.0-17.0-1.0,null,<p></p>,,null,,,,,,,,,,,,,,,,
,do_trial,27,143775,0.0-18.0-0.0,245.1999999,,,,49,"0,0,0",6,blank,239,null,0.834103057,0.096120609,0.168485452,0,,,,,,
,html-keyboard-response,28,144792,0.0-18.0-1.0,null,<p></p>,,null,,,,,,,,,,,,,,,,
,do_trial,29,147550,0.0-19.0-0.0,218.9,,,,51,"1,0,0",6,blank,240,null,0.921668049,0.08848034,0.205143816,0,,,,,,
,html-keyboard-response,30,148556,0.0-19.0-1.0,null,<p></p>,,null,,,,,,,,,,,,,,,,
,do_recog,31,154577,0.0-20.0-0.0,null,,,,null,,,,241,probe-41,,,,,1,[object Object],122,3,0,
,html-keyboard-response,32,155578,0.0-20.0-1.0,null,<p></p>,,null,,,,,,,,,,,,,,,,
,do_trial,33,158929,0.0-21.0-0.0,805.9,,,,51,"1,1,0",6,blank,242,null,0.916729633,0.221116102,0.169612226,0,,,,,,
,html-keyboard-response,34,159943,0.0-21.0-1.0,null,<p></p>,,null,,,,,,,,,,,,,,,,
,do_trial,35,163000,0.0-22.0-0.0,522.6,,,,51,"1,0,0",6,blank,243,null,0.352880532,0.32531169,0.069468092,0,,,,,,
,html-keyboard-response,36,164003,0.0-22.0-1.0,null,<p></p>,,null,,,,,,,,,,,,,,,,
,do_trial,37,166908,0.0-23.0-0.0,357.8,,,,49,"0,1,0",6,blank,244,null,0.262390678,0.361332578,0.108631117,0,,,,,,
,html-keyboard-response,38,167920,0.0-23.0-1.0,null,<p></p>,,null,,,,,,,,,,,,,,,,
,do_trial,39,170779,0.0-24.0-0.0,323,,,,49,"1,0,0",6,blank,245,null,0.255817927,0.411008177,0.300923255,1,,,,,,
,html-keyboard-response,40,171793,0.0-24.0-1.0,null,<p></p>,,null,,,,,,,,,,,,,,,,
,do_recog,41,174191,0.0-25.0-0.0,888.3,,,,56,,,,246,probe-194,,,,,1,[object Object],88,2,0,
,html-keyboard-response,42,175202,0.0-25.0-1.0,null,<p></p>,,null,,,,,,,,,,,,,,,,
,do_trial,43,178306,0.0-26.0-0.0,550.3,,,,49,"0,1,0",6,blank,247,null,0.204374712,0.504489963,0.34536843,0,,,,,,
,html-keyboard-response,44,179309,0.0-26.0-1.0,null,<p></p>,,null,,,,,,,,,,,,,,,,
,do_trial,45,182123,0.0-27.0-0.0,274.6,,,,50,"0,1,1",6,blank,248,null,0.109805101,0.558028598,0.412333159,1,,,,,,
,html-keyboard-response,46,183129,0.0-27.0-1.0,null,<p></p>,,null,,,,,,,,,,,,,,,,
,do_trial,47,185971,0.0-28.0-0.0,304.4,,,,51,"1,0,0",6,blank,249,null,0.251040553,0.661732591,0.432836899,0,,,,,,
,html-keyboard-response,48,186982,0.0-28.0-1.0,null,<p></p>,,null,,,,,,,,,,,,,,,,
,do_trial,49,189846,0.0-29.0-0.0,314,,,,49,"1,0,1",6,blank,250,null,0.39064063,0.614942364,0.476178458,1,,,,,,
,html-keyboard-response,50,190861,0.0-29.0-1.0,null,<p></p>,,null,,,,,,,,,,,,,,,,
,do_recog,51,193471,0.0-30.0-0.0,1096.3,,,,56,,,,251,probe-242,,,,,0,[object Object],null,null,1,
,html-keyboard-response,52,194485,0.0-30.0-1.0,null,<p></p>,,null,,,,,,,,,,,,,,,,
,do_trial,53,197496,0.0-31.0-0.0,467.9000001,,,,49,"0,1,0",6,blank,252,null,0.114465829,0.621007535,0.407137252,0,,,,,,
,html-keyboard-response,54,198497,0.0-31.0-1.0,null,<p></p>,,null,,,,,,,,,,,,,,,,
,do_trial,55,201707,0.0-32.0-0.0,663.0999999,,,,51,"1,0,0",6,blank,253,null,0.280031925,0.467792452,0.283061325,0,,,,,,
,html-keyboard-response,56,202721,0.0-32.0-1.0,null,<p></p>,,null,,,,,,,,,,,,,,,,
,do_trial,57,205581,0.0-33.0-0.0,324.5,,,,50,"0,0,0",6,blank,254,null,0.26224747,0.506545088,0.14525181,0,,,,,,
,html-keyboard-response,58,206597,0.0-33.0-1.0,null,<p></p>,,null,,,,,,,,,,,,,,,,
,do_recog,59,209076,0.0-34.0-0.0,962.5,,,,56,,,,255,probe-225,,,,,1,[object Object],89,2,0,
,html-keyboard-response,60,210090,0.0-34.0-1.0,null,<p></p>,,null,,,,,,,,,,,,,,,,
,do_trial,61,213267,0.0-35.0-0.0,641.9,,,,49,"0,1,0",6,blank,256,null,0.306628969,0.704438537,0.137602269,0,,,,,,
,html-keyboard-response,62,214269,0.0-35.0-1.0,null,<p></p>,,null,,,,,,,,,,,,,,,,
,do_recog,63,217292,0.0-36.0-0.0,1508.9,,,,53,,,,257,probe-06,,,,,1,[object Object],41,1,1,
,html-keyboard-response,64,218297,0.0-36.0-1.0,null,<p></p>,,null,,,,,,,,,,,,,,,,
,do_trial,65,221393,0.0-37.0-0.0,559.1,,,,49,"0,1,0",6,blank,258,null,0.145184139,0.606833946,0.305321951,0,,,,,,
,html-keyboard-response,66,222399,0.0-37.0-1.0,null,<p></p>,,null,,,,,,,,,,,,,,,,
,do_recog,67,225268,0.0-38.0-0.0,1359.2,,,,56,,,,259,probe-104,,,,,1,[object Object],40,1,0,
,html-keyboard-response,68,226269,0.0-38.0-1.0,null,<p></p>,,null,,,,,,,,,,,,,,,,
,do_trial,69,229844,0.0-39.0-0.0,1033.3,,,,51,"0,0,0",6,blank,260,null,0.075625132,0.401362821,0.38919928,0,,,,,,
,html-keyboard-response,70,230849,0.0-39.0-1.0,null,<p></p>,,null,,,,,,,,,,,,,,,,
,do_recog,71,233367,0.0-40.0-0.0,1002.2,,,,53,,,,261,probe-86,,,,,1,[object Object],169,4,1,
,html-keyboard-response,72,234368,0.0-40.0-1.0,null,<p></p>,,null,,,,,,,,,,,,,,,,
,do_trial,73,237639,0.0-41.0-0.0,732.4000001,,,,49,"1,1,0",6,blank,262,null,0.172025598,0.587013955,0.318711592,1,,,,,,
,html-keyboard-response,74,238656,0.0-41.0-1.0,null,<p></p>,,null,,,,,,,,,,,,,,,,
,do_recog,75,240993,0.0-42.0-0.0,827.9,,,,56,,,,263,probe-205,,,,,1,[object Object],82,2,0,
,html-keyboard-response,76,242007,0.0-42.0-1.0,null,<p></p>,,null,,,,,,,,,,,,,,,,
,do_trial,77,244896,0.0-43.0-0.0,338.1999999,,,,49,"0,0,0",6,blank,264,null,0.139221843,0.553150781,0.335433092,0,,,,,,
,html-keyboard-response,78,245912,0.0-43.0-1.0,null,<p></p>,,null,,,,,,,,,,,,,,,,
,do_trial,79,248801,0.0-44.0-0.0,345.4,,,,51,"0,0,1",6,blank,265,null,0.061390369,0.531425033,0.393723938,1,,,,,,
,html-keyboard-response,80,249811,0.0-44.0-1.0,null,<p></p>,,null,,,,,,,,,,,,,,,,
,do_trial,81,252808,0.0-45.0-0.0,449.5,,,,50,"0,1,0",6,blank,266,null,0.068959506,0.499573256,0.457172197,1,,,,,,
,html-keyboard-response,82,253818,0.0-45.0-1.0,null,<p></p>,,null,,,,,,,,,,,,,,,,
,do_trial,83,256640,0.0-46.0-0.0,280.4,,,,49,"0,1,0",6,blank,267,null,0.116372713,0.422048496,0.413058789,0,,,,,,
,html-keyboard-response,84,257653,0.0-46.0-1.0,null,<p></p>,,null,,,,,,,,,,,,,,,,
,do_trial,85,260574,0.0-47.0-0.0,377.6,,,,51,"0,0,0",6,blank,268,null,0.056953348,0.645914129,0.288529427,0,,,,,,
,html-keyboard-response,86,261590,0.0-47.0-1.0,null,<p></p>,,null,,,,,,,,,,,,,,,,
,do_recog,87,263965,0.0-48.0-0.0,855.1999999,,,,56,,,,269,probe-178,,,,,1,[object Object],200,5,0,
,html-keyboard-response,88,264976,0.0-48.0-1.0,null,<p></p>,,null,,,,,,,,,,,,,,,,
,do_trial,89,268213,0.0-49.0-0.0,698.1,,,,51,"0,1,0",6,blank,270,null,0.11207968,0.49540021,0.404061926,0,,,,,,
,html-keyboard-response,90,269229,0.0-49.0-1.0,null,<p></p>,,null,,,,,,,,,,,,,,,,
,do_recog,91,272038,0.0-50.0-0.0,1296.8,,,,56,,,,271,probe-141,,,,,1,[object Object],124,3,0,
,html-keyboard-response,92,273051,0.0-50.0-1.0,null,<p></p>,,null,,,,,,,,,,,,,,,,
,do_trial,93,276077,0.0-51.0-0.0,482.0999999,,,,50,"0,1,0",6,blank,272,null,0.149652587,0.471798226,0.34440772,1,,,,,,
,html-keyboard-response,94,277081,0.0-51.0-1.0,null,<p></p>,,null,,,,,,,,,,,,,,,,
,do_recog,95,279913,0.0-52.0-0.0,1314.5,,,,53,,,,273,probe-117,,,,,1,[object Object],49,1,1,
,html-keyboard-response,96,280925,0.0-52.0-1.0,null,<p></p>,,null,,,,,,,,,,,,,,,,
,do_trial,97,284766,0.0-53.0-0.0,1305.2,,,,51,"1,0,0",6,blank,274,null,0.128592914,0.439392221,0.308808504,0,,,,,,
,html-keyboard-response,98,285778,0.0-53.0-1.0,null,<p></p>,,null,,,,,,,,,,,,,,,,
,do_trial,99,288714,0.0-54.0-0.0,395.0999999,,,,50,"0,1,0",6,blank,275,null,0.284746114,0.532258922,0.222133976,1,,,,,,
,html-keyboard-response,100,289727,0.0-54.0-1.0,null,<p></p>,,null,,,,,,,,,,,,,,,,
,do_trial,101,292770,0.0-55.0-0.0,506.6,,,,50,"0,1,0",6,blank,276,null,0.299189986,0.557445216,0.282054128,1,,,,,,
,html-keyboard-response,102,293773,0.0-55.0-1.0,null,<p></p>,,null,,,,,,,,,,,,,,,,
,do_recog,103,296302,0.0-56.0-0.0,1019.7,,,,56,,,,277,probe-56,,,,,1,[object Object],127,3,0,
,html-keyboard-response,104,297307,0.0-56.0-1.0,null,<p></p>,,null,,,,,,,,,,,,,,,,
,do_trial,105,300306,0.0-57.0-0.0,454.5,,,,50,"1,1,0",6,blank,278,null,0.269488086,0.618208262,0.263696408,1,,,,,,
,html-keyboard-response,106,301308,0.0-57.0-1.0,null,<p></p>,,null,,,,,,,,,,,,,,,,
,do_trial,107,304489,0.0-58.0-0.0,640.4,,,,51,"0,1,0",6,blank,279,null,0.118618966,0.683797451,0.269771369,0,,,,,,
,html-keyboard-response,108,305503,0.0-58.0-1.0,null,<p></p>,,null,,,,,,,,,,,,,,,,
,do_trial,109,308442,0.0-59.0-0.0,396.4,,,,50,"0,0,0",6,blank,280,null,0.215373004,0.796006057,0.391235206,0,,,,,,
,html-keyboard-response,110,309455,0.0-59.0-1.0,null,<p></p>,,null,,,,,,,,,,,,,,,,
,do_trial,111,312307,0.0-60.0-0.0,314.3,,,,49,"0,1,0",6,blank,281,null,0.110386459,0.707795064,0.487628591,0,,,,,,
,html-keyboard-response,112,313321,0.0-60.0-1.0,null,<p></p>,,null,,,,,,,,,,,,,,,,
,do_trial,113,315998,0.0-61.0-0.0,125.6,,,,50,"0,0,0",6,blank,282,null,0.163188617,0.707711202,0.422343131,0,,,,,,
,html-keyboard-response,114,317001,0.0-61.0-1.0,null,<p></p>,,null,,,,,,,,,,,,,,,,
,do_trial,115,319897,0.0-62.0-0.0,357.6999999,,,,51,"0,1,0",6,blank,283,null,0.072453002,0.692862289,0.439266104,0,,,,,,
,html-keyboard-response,116,320904,0.0-62.0-1.0,null,<p></p>,,null,,,,,,,,,,,,,,,,
,do_trial,117,323851,0.0-63.0-0.0,406,,,,49,"0,1,0",6,blank,284,null,0.158822052,0.472665159,0.413674462,0,,,,,,
,html-keyboard-response,118,324857,0.0-63.0-1.0,null,<p></p>,,null,,,,,,,,,,,,,,,,
,do_recog,119,327747,0.0-64.0-0.0,1375.2,,,,53,,,,285,probe-129,,,,,1,[object Object],162,4,1,
,html-keyboard-response,120,328761,0.0-64.0-1.0,null,<p></p>,,null,,,,,,,,,,,,,,,,
,do_trial,121,331692,0.0-65.0-0.0,395.6999999,,,,51,"0,0,0",6,blank,286,null,0.061991371,0.623867264,0.393489527,0,,,,,,
,html-keyboard-response,122,332696,0.0-65.0-1.0,null,<p></p>,,null,,,,,,,,,,,,,,,,
,do_trial,123,335588,0.0-66.0-0.0,347.4,,,,50,"0,0,0",6,blank,287,null,0.189236978,0.672262209,0.379685759,0,,,,,,
,html-keyboard-response,124,336601,0.0-66.0-1.0,null,<p></p>,,null,,,,,,,,,,,,,,,,
,do_trial,125,339589,0.0-67.0-0.0,443.3000001,,,,50,"0,0,1",6,blank,288,null,0.160620297,0.548343726,0.335772393,0,,,,,,
,html-keyboard-response,126,340604,0.0-67.0-1.0,null,<p></p>,,null,,,,,,,,,,,,,,,,
,do_trial,127,343396,0.0-68.0-0.0,246.8,,,,49,"0,0,0",6,blank,289,null,0.089739601,0.556138809,0.34138475,0,,,,,,
,html-keyboard-response,128,344411,0.0-68.0-1.0,null,<p></p>,,null,,,,,,,,,,,,,,,,
,do_trial,129,347303,0.0-69.0-0.0,355.5,,,,50,"0,0,0",6,blank,290,null,0.109567085,0.461816786,0.285228497,0,,,,,,
,html-keyboard-response,130,348309,0.0-69.0-1.0,null,<p></p>,,null,,,,,,,,,,,,,,,,
,do_trial,131,351201,0.0-70.0-0.0,340.6999999,,,,51,"1,1,1",6,blank,291,null,0.207584227,0.423788415,0.488836597,1,,,,,,
,html-keyboard-response,132,352205,0.0-70.0-1.0,null,<p></p>,,null,,,,,,,,,,,,,,,,
,do_trial,133,355441,0.0-71.0-0.0,687.3,,,,51,"0,0,1",6,blank,292,null,0.151792401,0.428582284,0.344372091,1,,,,,,
,html-keyboard-response,134,356444,0.0-71.0-1.0,null,<p></p>,,null,,,,,,,,,,,,,,,,
,do_recog,135,358737,0.0-72.0-0.0,778.1,,,,53,,,,293,probe-159,,,,,1,[object Object],209,5,1,
,html-keyboard-response,136,359747,0.0-72.0-1.0,null,<p></p>,,null,,,,,,,,,,,,,,,,
,do_trial,137,362851,0.0-73.0-0.0,559.8,,,,51,"0,1,0",6,blank,294,null,0.149686721,0.411905905,0.391945461,0,,,,,,
,html-keyboard-response,138,363865,0.0-73.0-1.0,null,<p></p>,,null,,,,,,,,,,,,,,,,
,do_trial,139,366683,0.0-74.0-0.0,268.1,,,,51,"1,0,0",6,blank,295,null,0.224555361,0.256950153,0.40175703,0,,,,,,
,html-keyboard-response,140,367686,0.0-74.0-1.0,null,<p></p>,,null,,,,,,,,,,,,,,,,
,do_recog,141,370361,0.0-75.0-0.0,1163,,,,54,,,,296,probe-61,,,,,1,[object Object],125,3,1,
,html-keyboard-response,142,371374,0.0-75.0-1.0,null,<p></p>,,null,,,,,,,,,,,,,,,,
,do_trial,143,374452,0.0-76.0-0.0,538.1999999,,,,51,"0,0,0",6,blank,297,null,0.331625887,0.293051307,0.089150077,0,,,,,,
,html-keyboard-response,144,375468,0.0-76.0-1.0,null,<p></p>,,null,,,,,,,,,,,,,,,,
,do_trial,145,378278,0.0-77.0-0.0,271.8000001,,,,50,"0,0,0",6,blank,298,null,0.425090515,0.286096555,0.067061171,0,,,,,,
,html-keyboard-response,146,379289,0.0-77.0-1.0,null,<p></p>,,null,,,,,,,,,,,,,,,,
,do_trial,147,382124,0.0-78.0-0.0,293.5,,,,49,"1,1,0",6,blank,299,null,0.524352941,0.286051656,0.115616662,1,,,,,,
,html-keyboard-response,148,383138,0.0-78.0-1.0,null,<p></p>,,null,,,,,,,,,,,,,,,,
,do_trial,149,386046,0.0-79.0-0.0,367.9,,,,49,"0,1,0",6,blank,300,null,0.547497579,0.273696656,0.058181408,0,,,,,,
,html-keyboard-response,150,387058,0.0-79.0-1.0,null,<p></p>,,null,,,,,,,,,,,,,,,,
,do_trial,151,389880,0.0-80.0-0.0,278.1,,,,50,"0,0,0",6,blank,301,null,0.531478287,0.167482627,0.076330521,0,,,,,,
,html-keyboard-response,152,390892,0.0-80.0-1.0,null,<p></p>,,null,,,,,,,,,,,,,,,,
,do_recog,153,393518,0.0-81.0-0.0,1118.1,,,,53,,,,302,probe-31,,,,,1,[object Object],201,5,1,
,html-keyboard-response,154,394524,0.0-81.0-1.0,null,<p></p>,,null,,,,,,,,,,,,,,,,
,do_trial,155,397436,0.0-82.0-0.0,362.6,,,,49,"1,0,0",6,blank,303,null,0.542561301,0.238256683,0.199797023,1,,,,,,
,html-keyboard-response,156,398451,0.0-82.0-1.0,null,<p></p>,,null,,,,,,,,,,,,,,,,
,do_recog,157,400915,0.0-83.0-0.0,959,,,,56,,,,304,probe-182,,,,,1,[object Object],129,3,0,
,html-keyboard-response,158,401930,0.0-83.0-1.0,null,<p></p>,,null,,,,,,,,,,,,,,,,
,do_trial,159,405121,0.0-84.0-0.0,643.6,,,,50,"1,1,1",6,blank,305,null,0.577622924,0.243646975,0.172515312,1,,,,,,
,html-keyboard-response,160,406136,0.0-84.0-1.0,null,<p></p>,,null,,,,,,,,,,,,,,,,
,do_trial,161,409086,0.0-85.0-0.0,400.6,,,,50,"0,1,1",6,blank,306,null,0.670673407,0.247094982,0.085853753,1,,,,,,
,html-keyboard-response,162,410090,0.0-85.0-1.0,null,<p></p>,,null,,,,,,,,,,,,,,,,
,do_trial,163,413224,0.0-86.0-0.0,584.7,,,,51,"0,0,0",6,blank,307,null,0.562561408,0.354054447,0.086275264,0,,,,,,
,html-keyboard-response,164,414235,0.0-86.0-1.0,null,<p></p>,,null,,,,,,,,,,,,,,,,
,do_trial,165,417046,0.0-87.0-0.0,271.1,,,,51,"0,0,0",6,blank,308,null,0.73370174,0.318421752,0.138485717,0,,,,,,
,html-keyboard-response,166,418057,0.0-87.0-1.0,null,<p></p>,,null,,,,,,,,,,,,,,,,
,do_trial,167,420854,0.0-88.0-0.0,250.6,,,,49,"1,1,0",6,blank,309,null,0.699068214,0.29983065,0.146225911,1,,,,,,
,html-keyboard-response,168,421866,0.0-88.0-1.0,null,<p></p>,,null,,,,,,,,,,,,,,,,
,do_trial,169,424686,0.0-89.0-0.0,276.8,,,,49,"1,0,0",6,blank,310,null,0.716410215,0.10508104,0.067796386,1,,,,,,
,html-keyboard-response,170,425701,0.0-89.0-1.0,null,<p></p>,,null,,,,,,,,,,,,,,,,
,do_recog,171,428343,0.0-90.0-0.0,1127.4,,,,56,,,,311,probe-208,,,,,1,[object Object],120,3,0,
,html-keyboard-response,172,429352,0.0-90.0-1.0,null,<p></p>,,null,,,,,,,,,,,,,,,,
,do_trial,173,432639,0.0-91.0-0.0,736.5999999,,,,51,"1,0,1",6,blank,312,null,0.671230289,0.103717507,0.141287811,1,,,,,,
,html-keyboard-response,174,433645,0.0-91.0-1.0,null,<p></p>,,null,,,,,,,,,,,,,,,,
,do_trial,175,436232,0.0-92.0-0.0,38.60000002,,,,51,"1,0,0",6,blank,313,null,0.659452748,0.166290054,0.232238394,0,,,,,,
,html-keyboard-response,176,437243,0.0-92.0-1.0,null,<p></p>,,null,,,,,,,,,,,,,,,,
,do_trial,177,440129,0.0-93.0-0.0,338.6999999,,,,50,"1,0,0",6,blank,314,null,0.64896936,0.156525324,0.128874643,0,,,,,,
,html-keyboard-response,178,441138,0.0-93.0-1.0,null,<p></p>,,null,,,,,,,,,,,,,,,,
,do_recog,179,443553,0.0-94.0-0.0,910.1,,,,53,,,,315,probe-145,,,,,1,[object Object],161,4,1,
,html-keyboard-response,180,444556,0.0-94.0-1.0,null,<p></p>,,null,,,,,,,,,,,,,,,,
,do_trial,181,447613,0.0-95.0-0.0,513.4,,,,49,"1,0,0",6,blank,316,null,0.632479846,0.265501998,0.086269621,1,,,,,,
,html-keyboard-response,182,448620,0.0-95.0-1.0,null,<p></p>,,null,,,,,,,,,,,,,,,,
,do_recog,183,450895,0.0-96.0-0.0,758.9,,,,53,,,,317,probe-180,,,,,1,[object Object],80,2,1,
,html-keyboard-response,184,451899,0.0-96.0-1.0,null,<p></p>,,null,,,,,,,,,,,,,,,,
,do_trial,185,454695,0.0-97.0-0.0,254.5999999,,,,49,"1,0,0",6,blank,318,null,0.720898543,0.214669232,0.150365129,1,,,,,,
,html-keyboard-response,186,455700,0.0-97.0-1.0,null,<p></p>,,null,,,,,,,,,,,,,,,,
,do_trial,187,458624,0.0-98.0-0.0,376.8000001,,,,49,"0,1,1",6,blank,319,null,0.775875286,0.138312669,0.178014091,0,,,,,,
,html-keyboard-response,188,459637,0.0-98.0-1.0,null,<p></p>,,null,,,,,,,,,,,,,,,,
,do_trial,189,462492,0.0-99.0-0.0,304,,,,50,"1,1,0",6,blank,320,null,0.722177835,0.149710787,0.196179651,1,,,,,,
,html-keyboard-response,190,463501,0.0-99.0-1.0,null,<p></p>,,null,,,,,,,,,,,,,,,,
,do_trial,191,466291,0.0-100.0-0.0,241.5,,,,50,"1,0,0",6,blank,321,null,0.652282064,0.108372182,0.143242275,0,,,,,,
,html-keyboard-response,192,467306,0.0-100.0-1.0,null,<p></p>,,null,,,,,,,,,,,,,,,,
,do_trial,193,470090,0.0-101.0-0.0,240.4,,,,49,"0,0,0",6,blank,322,null,0.59662571,0.055570733,0.204252757,0,,,,,,
,html-keyboard-response,194,471096,0.0-101.0-1.0,null,<p></p>,,null,,,,,,,,,,,,,,,,
,do_trial,195,473951,0.0-102.0-0.0,308.5,,,,51,"1,0,1",6,blank,323,null,0.687515742,0.185414107,0.158049004,1,,,,,,
,html-keyboard-response,196,474967,0.0-102.0-1.0,null,<p></p>,,null,,,,,,,,,,,,,,,,
,do_trial,197,477917,0.0-103.0-0.0,401.5,,,,51,"0,0,0",6,blank,324,null,0.622564312,0.317038874,0.188277248,0,,,,,,
,html-keyboard-response,198,478932,0.0-103.0-1.0,null,<p></p>,,null,,,,,,,,,,,,,,,,
,do_recog,199,481837,0.0-104.0-0.0,1396,,,,53,,,,325,probe-91,,,,,1,[object Object],83,2,1,
,html-keyboard-response,200,482853,0.0-104.0-1.0,null,<p></p>,,null,,,,,,,,,,,,,,,,
,do_trial,201,485747,0.0-105.0-0.0,354.9,,,,49,"0,0,1",6,blank,326,null,0.641563982,0.332788182,0.128455005,0,,,,,,
,html-keyboard-response,202,486754,0.0-105.0-1.0,null,<p></p>,,null,,,,,,,,,,,,,,,,
,do_recog,203,488919,0.0-106.0-0.0,649.4,,,,53,,,,327,probe-203,,,,,1,[object Object],202,5,1,
,html-keyboard-response,204,489923,0.0-106.0-1.0,null,<p></p>,,null,,,,,,,,,,,,,,,,
,do_trial,205,492801,0.0-107.0-0.0,342.2,,,,51,"0,0,0",6,blank,328,null,0.505042114,0.348045327,0.218613553,0,,,,,,
,html-keyboard-response,206,493812,0.0-107.0-1.0,null,<p></p>,,null,,,,,,,,,,,,,,,,
,do_trial,207,496661,0.0-108.0-0.0,306,,,,50,"1,1,0",6,blank,329,null,0.442116061,0.403987232,0.359712004,1,,,,,,
,html-keyboard-response,208,497674,0.0-108.0-1.0,null,<p></p>,,null,,,,,,,,,,,,,,,,
,do_trial,209,500683,0.0-109.0-0.0,460.9,,,,49,"1,0,0",6,blank,330,null,0.553581819,0.388134948,0.243527623,1,,,,,,
,html-keyboard-response,210,501687,0.0-109.0-1.0,null,<p></p>,,null,,,,,,,,,,,,,,,,
,do_trial,211,504490,0.0-110.0-0.0,267.4000001,,,,50,"1,0,0",6,blank,331,null,0.497336133,0.271921023,0.350828495,0,,,,,,
,html-keyboard-response,212,505503,0.0-110.0-1.0,null,<p></p>,,null,,,,,,,,,,,,,,,,
,do_trial,213,508334,0.0-111.0-0.0,277.6999999,,,,49,"1,0,0",6,blank,332,null,0.604964465,0.213813599,0.286480706,1,,,,,,
,html-keyboard-response,214,509351,0.0-111.0-1.0,null,<p></p>,,null,,,,,,,,,,,,,,,,
,do_recog,215,511581,0.0-112.0-0.0,713,,,,53,,,,333,probe-198,,,,,1,[object Object],48,1,1,
,html-keyboard-response,216,512590,0.0-112.0-1.0,null,<p></p>,,null,,,,,,,,,,,,,,,,
,do_trial,217,515580,0.0-113.0-0.0,447.9,,,,49,"0,1,0",6,blank,334,null,0.473864745,0.379847295,0.188483345,0,,,,,,
,html-keyboard-response,218,516581,0.0-113.0-1.0,null,<p></p>,,null,,,,,,,,,,,,,,,,
,do_recog,219,519271,0.0-114.0-0.0,1184.8,,,,56,,,,335,probe-65,,,,,1,[object Object],42,1,0,
,html-keyboard-response,220,520279,0.0-114.0-1.0,null,<p></p>,,null,,,,,,,,,,,,,,,,
,do_trial,221,523546,0.0-115.0-0.0,717.6999999,,,,50,"1,0,0",6,blank,336,null,0.425678185,0.348127471,0.129633404,0,,,,,,
,html-keyboard-response,222,524561,0.0-115.0-1.0,null,<p></p>,,null,,,,,,,,,,,,,,,,
,do_recog,223,526688,0.0-116.0-0.0,614.5,,,,53,,,,337,probe-243,,,,,0,[object Object],null,null,0,
,html-keyboard-response,224,527691,0.0-116.0-1.0,null,<p></p>,,null,,,,,,,,,,,,,,,,
,do_trial,225,530615,0.0-117.0-0.0,367.1999999,,,,51,"1,0,1",6,blank,338,null,0.567144567,0.24549539,0.21637656,1,,,,,,
,html-keyboard-response,226,531630,0.0-117.0-1.0,null,<p></p>,,null,,,,,,,,,,,,,,,,
,do_recog,227,533764,0.0-118.0-0.0,618.1,,,,53,,,,339,probe-197,,,,,1,[object Object],121,3,1,
,html-keyboard-response,228,534767,0.0-118.0-1.0,null,<p></p>,,null,,,,,,,,,,,,,,,,
,do_trial,229,537657,0.0-119.0-0.0,352.5,,,,50,"1,0,0",6,blank,340,null,0.625674874,0.368349656,0.112900669,0,,,,,,
,html-keyboard-response,230,538672,0.0-119.0-1.0,null,<p></p>,,null,,,,,,,,,,,,,,,,
,do_trial,231,541662,0.0-120.0-0.0,449.5,,,,49,"1,1,1",6,blank,341,null,0.5827518,0.321220675,0.19460143,1,,,,,,
,html-keyboard-response,232,542677,0.0-120.0-1.0,null,<p></p>,,null,,,,,,,,,,,,,,,,
,do_trial,233,545579,0.0-121.0-0.0,362.6999999,,,,49,"1,0,1",6,blank,342,null,0.546698479,0.327877307,0.164709971,1,,,,,,
,html-keyboard-response,234,546595,0.0-121.0-1.0,null,<p></p>,,null,,,,,,,,,,,,,,,,
,do_trial,235,549502,0.0-122.0-0.0,354.6,,,,49,"1,0,0",6,blank,343,null,0.560293804,0.485663418,0.212396346,1,,,,,,
,html-keyboard-response,236,550507,0.0-122.0-1.0,null,<p></p>,,null,,,,,,,,,,,,,,,,
,do_trial,237,553386,0.0-123.0-0.0,337.3,,,,49,"1,0,1",6,blank,344,null,0.634346803,0.401661458,0.147838599,1,,,,,,
,html-keyboard-response,238,554389,0.0-123.0-1.0,null,<p></p>,,null,,,,,,,,,,,,,,,,
,do_trial,239,557279,0.0-124.0-0.0,353.5,,,,49,"0,0,0",6,blank,345,null,0.641361545,0.232920911,0.130311774,0,,,,,,
,html-keyboard-response,240,558294,0.0-124.0-1.0,null,<p></p>,,null,,,,,,,,,,,,,,,,
,do_recog,241,560565,0.0-125.0-0.0,760,,,,53,,,,346,probe-32,,,,,1,[object Object],86,2,1,
,html-keyboard-response,242,561569,0.0-125.0-1.0,null,<p></p>,,null,,,,,,,,,,,,,,,,
,do_trial,243,564623,0.0-126.0-0.0,504.4,,,,51,"1,0,0",6,blank,347,null,0.602086462,0.306110033,0.151385151,0,,,,,,
,html-keyboard-response,244,565637,0.0-126.0-1.0,null,<p></p>,,null,,,,,,,,,,,,,,,,
,do_trial,245,568440,0.0-127.0-0.0,260,,,,49,"1,0,0",6,blank,348,null,0.589831719,0.256622689,0.060428529,1,,,,,,
,html-keyboard-response,246,569452,0.0-127.0-1.0,null,<p></p>,,null,,,,,,,,,,,,,,,,
,do_trial,247,572555,0.0-128.0-0.0,551.9,,,,49,"1,0,0",6,blank,349,null,0.433784616,0.396790385,0.201219583,1,,,,,,
,html-keyboard-response,248,573557,0.0-128.0-1.0,null,<p></p>,,null,,,,,,,,,,,,,,,,
,do_trial,249,576504,0.0-129.0-0.0,404.8,,,,49,"0,0,0",6,blank,350,null,0.314462439,0.458506907,0.226779488,0,,,,,,
,html-keyboard-response,250,577506,0.0-129.0-1.0,null,<p></p>,,null,,,,,,,,,,,,,,,,
,do_trial,251,580306,0.0-130.0-0.0,256.6999999,,,,49,"0,0,0",6,blank,351,null,0.090925282,0.374667853,0.159949103,0,,,,,,
,html-keyboard-response,252,581321,0.0-130.0-1.0,null,<p></p>,,null,,,,,,,,,,,,,,,,
,do_trial,253,584182,0.0-131.0-0.0,311.2,,,,49,"0,1,1",6,blank,352,null,0.054187558,0.542688612,0.431247405,0,,,,,,
,html-keyboard-response,254,585195,0.0-131.0-1.0,null,<p></p>,,null,,,,,,,,,,,,,,,,
,do_trial,255,587999,0.0-132.0-0.0,267,,,,50,"0,0,0",6,blank,353,null,0.072658194,0.586611276,0.387860037,0,,,,,,
,html-keyboard-response,256,589011,0.0-132.0-1.0,null,<p></p>,,null,,,,,,,,,,,,,,,,
,do_recog,257,591277,0.0-133.0-0.0,760.5,,,,53,,,,354,probe-64,,,,,1,[object Object],163,4,1,
,html-keyboard-response,258,592291,0.0-133.0-1.0,null,<p></p>,,null,,,,,,,,,,,,,,,,
,do_trial,259,595304,0.0-134.0-0.0,470.9,,,,51,"0,1,0",6,blank,355,null,0.073315507,0.632958368,0.287976385,0,,,,,,
,html-keyboard-response,260,596310,0.0-134.0-1.0,null,<p></p>,,null,,,,,,,,,,,,,,,,
,do_trial,261,599873,0.0-135.0-0.0,1014.8,,,,50,"0,1,0",6,blank,356,null,0.069377478,0.504729598,0.324631322,1,,,,,,
,html-keyboard-response,262,600875,0.0-135.0-1.0,null,<p></p>,,null,,,,,,,,,,,,,,,,
,do_trial,263,603631,0.0-136.0-0.0,213.9,,,,49,"0,0,0",6,blank,357,null,0.104625848,0.512906646,0.261820993,0,,,,,,
,html-keyboard-response,264,604637,0.0-136.0-1.0,null,<p></p>,,null,,,,,,,,,,,,,,,,
,do_trial,265,608152,0.0-137.0-0.0,979.8,,,,51,"0,1,0",6,blank,358,null,0.192499929,0.50546665,0.104623176,0,,,,,,
,html-keyboard-response,266,609158,0.0-137.0-1.0,null,<p></p>,,null,,,,,,,,,,,,,,,,
,do_trial,267,612140,0.0-138.0-0.0,438.8,,,,51,"1,1,0",6,blank,359,null,0.204119946,0.398765926,0.125033109,0,,,,,,
,html-keyboard-response,268,613150,0.0-138.0-1.0,null,<p></p>,,null,,,,,,,,,,,,,,,,
,do_trial,269,616141,0.0-139.0-0.0,442.3,,,,50,"0,1,0",6,blank,360,null,0.192324456,0.51071896,0.100890884,1,,,,,,
,html-keyboard-response,270,617151,0.0-139.0-1.0,null,<p></p>,,null,,,,,,,,,,,,,,,,
,do_trial,271,620382,0.0-140.0-0.0,690.8,,,,50,"0,1,0",6,blank,361,null,0.093451361,0.713270874,0.069173205,1,,,,,,
,html-keyboard-response,272,621395,0.0-140.0-1.0,null,<p></p>,,null,,,,,,,,,,,,,,,,
,do_recog,273,623732,0.0-141.0-0.0,817.5,,,,53,,,,362,probe-15,,,,,1,[object Object],164,4,1,
,html-keyboard-response,274,624734,0.0-141.0-1.0,null,<p></p>,,null,,,,,,,,,,,,,,,,
,do_trial,275,627766,0.0-142.0-0.0,486.6,,,,50,"0,1,0",6,blank,363,null,0.073890562,0.774186066,0.114846049,1,,,,,,
,html-keyboard-response,276,628776,0.0-142.0-1.0,null,<p></p>,,null,,,,,,,,,,,,,,,,
,do_trial,277,631603,0.0-143.0-0.0,286.1,,,,50,"0,1,0",6,blank,364,null,0.24126123,0.708402032,0.271713866,1,,,,,,
,html-keyboard-response,278,632618,0.0-143.0-1.0,null,<p></p>,,null,,,,,,,,,,,,,,,,
,do_recog,279,635297,0.0-144.0-0.0,1166.6,,,,56,,,,365,probe-190,,,,,1,[object Object],165,4,0,
,html-keyboard-response,280,636312,0.0-144.0-1.0,null,<p></p>,,null,,,,,,,,,,,,,,,,
,do_trial,281,639201,0.0-145.0-0.0,345.7,,,,50,"0,1,0",6,blank,366,null,0.067399466,0.642439791,0.231752111,1,,,,,,
,html-keyboard-response,282,640217,0.0-145.0-1.0,null,<p></p>,,null,,,,,,,,,,,,,,,,
,do_trial,283,643169,0.0-146.0-0.0,412.0999999,,,,50,"0,1,0",6,blank,367,null,0.11110939,0.551454865,0.227022898,1,,,,,,
,html-keyboard-response,284,644183,0.0-146.0-1.0,null,<p></p>,,null,,,,,,,,,,,,,,,,
,do_trial,285,647549,0.0-147.0-0.0,819.8,,,,50,"0,1,0",6,blank,368,null,0.092012429,0.613017846,0.257551017,1,,,,,,
,html-keyboard-response,286,648564,0.0-147.0-1.0,null,<p></p>,,null,,,,,,,,,,,,,,,,
,do_trial,287,651668,0.0-148.0-0.0,562.5999999,,,,51,"0,1,0",6,blank,369,null,0.097714312,0.496523092,0.280492634,0,,,,,,
,html-keyboard-response,288,652673,0.0-148.0-1.0,null,<p></p>,,null,,,,,,,,,,,,,,,,
,do_trial,289,655506,0.0-149.0-0.0,295.5,,,,50,"0,0,1",6,blank,370,null,0.076851126,0.458825966,0.316986007,0,,,,,,
,html-keyboard-response,290,656517,0.0-149.0-1.0,null,<p></p>,,null,,,,,,,,,,,,,,,,
,do_recog,291,660615,0.0-150.0-0.0,2583.9,,,,53,,,,371,probe-67,,,,,1,[object Object],87,2,1,
,html-keyboard-response,292,661630,0.0-150.0-1.0,null,<p></p>,,null,,,,,,,,,,,,,,,,
,do_trial,293,665015,0.0-151.0-0.0,842.9,,,,49,"0,1,1",6,blank,372,null,0.169564428,0.518844735,0.239084898,0,,,,,,
,html-keyboard-response,294,666025,0.0-151.0-1.0,null,<p></p>,,null,,,,,,,,,,,,,,,,
,do_recog,295,672041,0.0-152.0-0.0,null,,,,null,,,,373,probe-38,,,,,1,[object Object],85,2,0,
,html-keyboard-response,296,673051,0.0-152.0-1.0,null,<p></p>,,null,,,,,,,,,,,,,,,,
,do_trial,297,675923,0.0-153.0-0.0,336.1999999,,,,50,"0,0,0",6,blank,374,null,0.232635172,0.444368357,0.310331207,0,,,,,,
,html-keyboard-response,298,676933,0.0-153.0-1.0,null,<p></p>,,null,,,,,,,,,,,,,,,,
,do_trial,299,680779,0.0-154.0-0.0,1301.8,,,,50,"1,1,0",6,blank,375,null,0.304339882,0.542655356,0.160360629,1,,,,,,
,html-keyboard-response,300,681785,0.0-154.0-1.0,null,<p></p>,,null,,,,,,,,,,,,,,,,
,do_recog,301,685016,0.0-155.0-0.0,1716.9,,,,53,,,,376,probe-71,,,,,1,[object Object],205,5,1,
,html-keyboard-response,302,686031,0.0-155.0-1.0,null,<p></p>,,null,,,,,,,,,,,,,,,,
,do_trial,303,689623,0.0-156.0-0.0,1048.1,,,,50,"0,1,0",6,blank,377,null,0.172923792,0.547857909,0.089307289,1,,,,,,
,html-keyboard-response,304,690639,0.0-156.0-1.0,null,<p></p>,,null,,,,,,,,,,,,,,,,
,do_trial,305,693681,0.0-157.0-0.0,495.5,,,,51,"0,1,0",6,blank,378,null,0.128600617,0.695662524,0.173591324,0,,,,,,
,html-keyboard-response,306,694696,0.0-157.0-1.0,null,<p></p>,,null,,,,,,,,,,,,,,,,
,do_trial,307,697510,0.0-158.0-0.0,276.1,,,,50,"1,1,0",6,blank,379,null,0.105649743,0.659932314,0.177695157,1,,,,,,
,html-keyboard-response,308,698523,0.0-158.0-1.0,null,<p></p>,,null,,,,,,,,,,,,,,,,
,do_recog,309,700616,0.0-159.0-0.0,588.9,,,,53,,,,380,probe-171,,,,,1,[object Object],126,3,1,
,html-keyboard-response,310,701630,0.0-159.0-1.0,null,<p></p>,,null,,,,,,,,,,,,,,,,
,do_trial,311,704717,0.0-160.0-0.0,551.6,,,,50,"0,1,0",6,blank,381,null,0.081747206,0.637474303,0.278798682,1,,,,,,
,html-keyboard-response,312,705727,0.0-160.0-1.0,null,<p></p>,,null,,,,,,,,,,,,,,,,
,do_recog,313,708166,0.0-161.0-0.0,920.8,,,,53,,,,382,probe-57,,,,,1,[object Object],208,5,1,
,html-keyboard-response,314,709178,0.0-161.0-1.0,null,<p></p>,,null,,,,,,,,,,,,,,,,
,do_trial,315,712316,0.0-162.0-0.0,596,,,,50,"0,1,0",6,blank,383,null,0.086973208,0.796631169,0.285099652,1,,,,,,
,html-keyboard-response,316,713329,0.0-162.0-1.0,null,<p></p>,,null,,,,,,,,,,,,,,,,
,do_trial,317,716715,0.0-163.0-0.0,840.5,,,,49,"0,1,0",6,blank,384,null,0.118021967,0.706544424,0.34217287,0,,,,,,
,html-keyboard-response,318,717729,0.0-163.0-1.0,null,<p></p>,,null,,,,,,,,,,,,,,,,
,do_trial,319,720649,0.0-164.0-0.0,376.6999999,,,,50,"0,1,1",6,blank,385,null,0.130806414,0.694621167,0.361233759,1,,,,,,
,html-keyboard-response,320,721653,0.0-164.0-1.0,null,<p></p>,,null,,,,,,,,,,,,,,,,
,do_trial,321,724517,0.0-165.0-0.0,328.7,,,,50,"0,1,0",6,blank,386,null,0.057463617,0.597594835,0.557455237,1,,,,,,
,html-keyboard-response,322,725525,0.0-165.0-1.0,null,<p></p>,,null,,,,,,,,,,,,,,,,
,do_trial,323,728408,0.0-166.0-0.0,344.8000001,,,,50,"0,1,0",6,blank,387,null,0.103185858,0.655980701,0.356604288,1,,,,,,
,html-keyboard-response,324,729411,0.0-166.0-1.0,null,<p></p>,,null,,,,,,,,,,,,,,,,
,do_trial,325,732221,0.0-167.0-0.0,267.5999999,,,,50,"0,1,0",6,blank,388,null,0.102951004,0.653525611,0.191378072,1,,,,,,
,html-keyboard-response,326,733232,0.0-167.0-1.0,null,<p></p>,,null,,,,,,,,,,,,,,,,
,do_trial,327,736193,0.0-168.0-0.0,417.4,,,,50,"0,0,1",6,blank,389,null,0.220050882,0.563079769,0.202213628,0,,,,,,
,html-keyboard-response,328,737201,0.0-168.0-1.0,null,<p></p>,,null,,,,,,,,,,,,,,,,
,do_recog,329,739518,0.0-169.0-0.0,801.9,,,,53,,,,390,probe-100,,,,,1,[object Object],123,3,1,
,html-keyboard-response,330,740521,0.0-169.0-1.0,null,<p></p>,,null,,,,,,,,,,,,,,,,
,do_trial,331,743533,0.0-170.0-0.0,471,,,,50,"0,0,0",6,blank,391,null,0.384786227,0.605311886,0.32268,0,,,,,,
,html-keyboard-response,332,744542,0.0-170.0-1.0,null,<p></p>,,null,,,,,,,,,,,,,,,,
,do_recog,333,746877,0.0-171.0-0.0,823.1,,,,53,,,,392,probe-153,,,,,1,[object Object],43,1,1,
,html-keyboard-response,334,747892,0.0-171.0-1.0,null,<p></p>,,null,,,,,,,,,,,,,,,,
,do_trial,335,750736,0.0-172.0-0.0,301.3,,,,50,"0,0,0",6,blank,393,null,0.445868979,0.533796484,0.402238443,0,,,,,,
,html-keyboard-response,336,751745,0.0-172.0-1.0,null,<p></p>,,null,,,,,,,,,,,,,,,,
,do_recog,337,753907,0.0-173.0-0.0,657.9,,,,53,,,,394,probe-53,,,,,1,[object Object],44,1,1,
,html-keyboard-response,338,754920,0.0-173.0-1.0,null,<p></p>,,null,,,,,,,,,,,,,,,,
,do_trial,339,758831,0.0-174.0-0.0,1363.7,,,,50,"1,0,1",6,blank,395,null,0.417385831,0.540751727,0.388387244,0,,,,,,
,html-keyboard-response,340,759845,0.0-174.0-1.0,null,<p></p>,,null,,,,,,,,,,,,,,,,
,do_recog,341,762201,0.0-175.0-0.0,845.9,,,,53,,,,396,probe-12,,,,,1,[object Object],203,5,1,
,html-keyboard-response,342,763215,0.0-175.0-1.0,null,<p></p>,,null,,,,,,,,,,,,,,,,
,do_trial,343,766488,0.0-176.0-0.0,727.6,,,,49,"0,1,1",6,blank,397,null,0.370335552,0.477174838,0.38872038,0,,,,,,
,html-keyboard-response,344,767504,0.0-176.0-1.0,null,<p></p>,,null,,,,,,,,,,,,,,,,
,do_trial,345,770438,0.0-177.0-0.0,402.5,,,,50,"1,1,0",6,blank,398,null,0.22839111,0.464781751,0.334944428,1,,,,,,
,html-keyboard-response,346,771450,0.0-177.0-1.0,null,<p></p>,,null,,,,,,,,,,,,,,,,
,do_trial,347,774842,0.0-178.0-0.0,842.7,,,,50,"1,0,1",6,blank,399,null,0.204957695,0.474191697,0.289847565,0,,,,,,
,html-keyboard-response,348,775854,0.0-178.0-1.0,null,<p></p>,,null,,,,,,,,,,,,,,,,
,do_trial,349,779275,0.0-179.0-0.0,874.1,,,,50,"0,1,0",6,blank,400,null,0.203810794,0.690823385,0.290636337,1,,,,,,
,html-keyboard-response,350,780290,0.0-179.0-1.0,null,<p></p>,,null,,,,,,,,,,,,,,,,
,do_trial,351,783186,0.0-180.0-0.0,344.6,,,,50,"0,1,0",6,blank,401,null,0.129631253,0.564912379,0.486424952,1,,,,,,
,html-keyboard-response,352,784198,0.0-180.0-1.0,null,<p></p>,,null,,,,,,,,,,,,,,,,
,do_trial,353,787026,0.0-181.0-0.0,279,,,,50,"0,0,1",6,blank,402,null,0.121114668,0.464289932,0.468289021,0,,,,,,
,html-keyboard-response,354,788029,0.0-181.0-1.0,null,<p></p>,,null,,,,,,,,,,,,,,,,
,do_trial,355,790935,0.0-182.0-0.0,361.4,,,,50,"0,1,0",6,blank,403,null,0.104276617,0.448474435,0.540947954,1,,,,,,
,html-keyboard-response,356,791949,0.0-182.0-1.0,null,<p></p>,,null,,,,,,,,,,,,,,,,
,do_recog,357,794080,0.0-183.0-0.0,619,,,,53,,,,404,probe-63,,,,,1,[object Object],128,3,1,
,html-keyboard-response,358,795094,0.0-183.0-1.0,null,<p></p>,,null,,,,,,,,,,,,,,,,
,do_trial,359,798123,0.0-184.0-0.0,478.4,,,,50,"0,0,0",6,blank,405,null,0.140979533,0.352384693,0.540333649,0,,,,,,
,html-keyboard-response,360,799125,0.0-184.0-1.0,null,<p></p>,,null,,,,,,,,,,,,,,,,
,do_recog,361,801184,0.0-185.0-0.0,549.1,,,,53,,,,406,probe-05,,,,,1,[object Object],166,4,1,
,html-keyboard-response,362,802194,0.0-185.0-1.0,null,<p></p>,,null,,,,,,,,,,,,,,,,
,do_trial,363,805396,0.0-186.0-0.0,660.3,,,,50,"0,0,1",6,blank,407,null,0.244181206,0.493748902,0.539566517,0,,,,,,
,html-keyboard-response,364,806410,0.0-186.0-1.0,null,<p></p>,,null,,,,,,,,,,,,,,,,
,do_recog,365,808615,0.0-187.0-0.0,693.4,,,,53,,,,408,probe-142,,,,,1,[object Object],46,1,1,
,html-keyboard-response,366,809629,0.0-187.0-1.0,null,<p></p>,,null,,,,,,,,,,,,,,,,
,do_trial,367,812623,0.0-188.0-0.0,454.1,,,,50,"0,1,1",6,blank,409,null,0.124528541,0.378098611,0.606191376,1,,,,,,
,html-keyboard-response,368,813634,0.0-188.0-1.0,null,<p></p>,,null,,,,,,,,,,,,,,,,
,do_trial,369,816501,0.0-189.0-0.0,320.2,,,,50,"0,0,1",6,blank,410,null,0.174000091,0.382745807,0.440710113,0,,,,,,
,html-keyboard-response,370,817514,0.0-189.0-1.0,null,<p></p>,,null,,,,,,,,,,,,,,,,
,do_trial,371,820393,0.0-190.0-0.0,340.8000001,,,,50,"1,0,1",6,blank,411,null,0.059733779,0.400740473,0.419484796,0,,,,,,
,html-keyboard-response,372,821408,0.0-190.0-1.0,null,<p></p>,,null,,,,,,,,,,,,,,,,
,do_recog,373,823659,0.0-191.0-0.0,734,,,,53,,,,412,probe-137,,,,,1,[object Object],84,2,1,
,html-keyboard-response,374,824670,0.0-191.0-1.0,null,<p></p>,,null,,,,,,,,,,,,,,,,
,do_trial,375,827584,0.0-192.0-0.0,366.5,,,,49,"0,0,1",6,blank,413,null,0.187629161,0.420602964,0.470082702,0,,,,,,
,html-keyboard-response,376,828595,0.0-192.0-1.0,null,<p></p>,,null,,,,,,,,,,,,,,,,
,do_trial,377,831634,0.0-193.0-0.0,490.9,,,,50,"1,1,1",6,blank,414,null,0.17914605,0.53131937,0.508552745,1,,,,,,
,html-keyboard-response,378,832645,0.0-193.0-1.0,null,<p></p>,,null,,,,,,,,,,,,,,,,
,do_recog,379,834844,0.0-194.0-0.0,681.4,,,,53,,,,415,probe-09,,,,,1,[object Object],81,2,1,
,html-keyboard-response,380,835857,0.0-194.0-1.0,null,<p></p>,,null,,,,,,,,,,,,,,,,
,do_trial,381,838825,0.0-195.0-0.0,426,,,,50,"0,1,0",6,blank,416,null,0.055865543,0.572771284,0.610268824,1,,,,,,
,html-keyboard-response,382,839833,0.0-195.0-1.0,null,<p></p>,,null,,,,,,,,,,,,,,,,
,do_trial,383,843097,0.0-196.0-0.0,724.4,,,,50,"0,0,0",6,blank,417,null,0.070404267,0.323797047,0.731421853,0,,,,,,
,html-keyboard-response,384,844106,0.0-196.0-1.0,null,<p></p>,,null,,,,,,,,,,,,,,,,
,do_trial,385,847224,0.0-197.0-0.0,581.3000001,,,,50,"0,0,1",6,blank,418,null,0.070746686,0.37190694,0.756190576,0,,,,,,
,html-keyboard-response,386,848239,0.0-197.0-1.0,null,<p></p>,,null,,,,,,,,,,,,,,,,
,do_trial,387,851244,0.0-198.0-0.0,461.5,,,,50,"0,1,0",6,blank,419,null,0.133527375,0.375869615,0.561538501,1,,,,,,
,html-keyboard-response,388,852258,0.0-198.0-1.0,null,<p></p>,,null,,,,,,,,,,,,,,,,
,do_trial,389,855319,0.0-199.0-0.0,521.5,,,,50,"0,0,0",6,blank,420,null,0.059615084,0.307238888,0.644239948,0,,,,,,
,html-keyboard-response,390,856332,0.0-199.0-1.0,null,<p></p>,,null,,,,,,,,,,,,,,,,
,do_trial,391,860363,0.0-200.0-0.0,1487.9,,,,50,"0,0,0",6,blank,421,null,0.083036089,0.240647567,0.677988964,0,,,,,,
,html-keyboard-response,392,861376,0.0-200.0-1.0,null,<p></p>,,null,,,,,,,,,,,,,,,,
,do_recog,393,863736,0.0-201.0-0.0,843.4,,,,53,,,,422,probe-192,,,,,1,[object Object],45,1,1,
,html-keyboard-response,394,864750,0.0-201.0-1.0,null,<p></p>,,null,,,,,,,,,,,,,,,,
,do_trial,395,867650,0.0-202.0-0.0,352.5999999,,,,50,"0,0,0",6,blank,423,null,0.144641245,0.272906757,0.53766541,0,,,,,,
,html-keyboard-response,396,868665,0.0-202.0-1.0,null,<p></p>,,null,,,,,,,,,,,,,,,,
,do_recog,397,870864,0.0-203.0-0.0,683.5999999,,,,53,,,,424,probe-183,,,,,1,[object Object],207,5,1,
,html-keyboard-response,398,871866,0.0-203.0-1.0,null,<p></p>,,null,,,,,,,,,,,,,,,,
,do_trial,399,874966,0.0-204.0-0.0,551.8000001,,,,50,"0,1,1",6,blank,425,null,0.166724365,0.330108399,0.444249268,1,,,,,,
,html-keyboard-response,400,875980,0.0-204.0-1.0,null,<p></p>,,null,,,,,,,,,,,,,,,,
,do_recog,401,878404,0.0-205.0-0.0,915.5,,,,53,,,,426,probe-10,,,,,1,[object Object],204,5,1,
,html-keyboard-response,402,879416,0.0-205.0-1.0,null,<p></p>,,null,,,,,,,,,,,,,,,,
,do_trial,403,882380,0.0-206.0-0.0,423.3,,,,50,"1,0,1",6,blank,427,null,0.138821826,0.256501927,0.503048334,0,,,,,,
,html-keyboard-response,404,883385,0.0-206.0-1.0,null,<p></p>,,null,,,,,,,,,,,,,,,,
,do_trial,405,886294,0.0-207.0-0.0,370.0999999,,,,50,"0,1,1",6,blank,428,null,0.056775112,0.305263171,0.65776178,1,,,,,,
,html-keyboard-response,406,887298,0.0-207.0-1.0,null,<p></p>,,null,,,,,,,,,,,,,,,,
,do_trial,407,890335,0.0-208.0-0.0,494,,,,50,"0,1,1",6,blank,429,null,0.08119662,0.383273428,0.599883951,1,,,,,,
,html-keyboard-response,408,891341,0.0-208.0-1.0,null,<p></p>,,null,,,,,,,,,,,,,,,,
,do_trial,409,894182,0.0-209.0-0.0,300.3,,,,50,"0,0,0",6,blank,430,null,0.162392024,0.315455629,0.545756142,0,,,,,,
,html-keyboard-response,410,895198,0.0-209.0-1.0,null,<p></p>,,null,,,,,,,,,,,,,,,,
,do_trial,411,898079,0.0-210.0-0.0,339.1,,,,50,"0,0,0",6,blank,431,null,0.113120937,0.255830065,0.708267485,0,,,,,,
,html-keyboard-response,412,899083,0.0-210.0-1.0,null,<p></p>,,null,,,,,,,,,,,,,,,,
,do_trial,413,901933,0.0-211.0-0.0,310.1,,,,49,"0,0,1",6,blank,432,null,0.179925923,0.154648172,0.618494855,0,,,,,,
,html-keyboard-response,414,902946,0.0-211.0-1.0,null,<p></p>,,null,,,,,,,,,,,,,,,,
,do_recog,415,905236,0.0-212.0-0.0,779.5,,,,53,,,,433,probe-70,,,,,1,[object Object],47,1,1,
,html-keyboard-response,416,906251,0.0-212.0-1.0,null,<p></p>,,null,,,,,,,,,,,,,,,,
,do_trial,417,909686,0.0-213.0-0.0,890.4,,,,50,"0,0,1",6,blank,434,null,0.161355311,0.140309955,0.578206701,0,,,,,,
,html-keyboard-response,418,910689,0.0-213.0-1.0,null,<p></p>,,null,,,,,,,,,,,,,,,,
,do_recog,419,913435,0.0-214.0-0.0,1227.9,,,,53,,,,435,probe-76,,,,,1,[object Object],206,5,1,
,html-keyboard-response,420,914451,0.0-214.0-1.0,null,<p></p>,,null,,,,,,,,,,,,,,,,
,do_trial,421,917624,0.0-215.0-0.0,637.1999999,,,,51,"0,0,1",6,blank,436,null,0.150576705,0.205097915,0.504712584,1,,,,,,
,html-keyboard-response,422,918640,0.0-215.0-1.0,null,<p></p>,,null,,,,,,,,,,,,,,,,
,do_trial,423,921518,0.0-216.0-0.0,333.6999999,,,,50,"0,0,0",6,blank,437,null,0.066015547,0.245586355,0.445149606,0,,,,,,
,html-keyboard-response,424,922531,0.0-216.0-1.0,null,<p></p>,,null,,,,,,,,,,,,,,,,
,do_trial,425,925381,0.0-217.0-0.0,308.9,,,,51,"0,0,0",6,blank,438,null,0.118551203,0.210916681,0.524176844,0,,,,,,
,html-keyboard-response,426,926391,0.0-217.0-1.0,null,<p></p>,,null,,,,,,,,,,,,,,,,
,do_trial,427,929163,0.0-218.0-0.0,234.3,,,,50,"0,0,0",6,blank,439,null,0.194914182,0.264250083,0.651902885,0,,,,,,
,html-keyboard-response,428,930175,0.0-218.0-1.0,null,<p></p>,,null,,,,,,,,,,,,,,,,
,do_trial,429,932992,0.0-219.0-0.0,267.2,,,,49,"0,0,1",6,blank,440,null,0.204257934,0.278381446,0.621259809,0,,,,,,
,html-keyboard-response,430,933995,0.0-219.0-1.0,null,<p></p>,,null,,,,,,,,,,,,,,,,
,do_recog,431,936136,0.0-220.0-0.0,635.4000001,,,,53,,,,441,probe-109,,,,,1,[object Object],160,4,1,
,html-keyboard-response,432,937141,0.0-220.0-1.0,null,<p></p>,,null,,,,,,,,,,,,,,,,
,do_trial,433,939929,0.0-221.0-0.0,239.8000001,,,,50,"1,0,1",6,blank,442,null,0.313088223,0.313313563,0.745211999,0,,,,,,
,html-keyboard-response,434,940939,0.0-221.0-1.0,null,<p></p>,,null,,,,,,,,,,,,,,,,
,do_recog,435,943420,0.0-222.0-0.0,971,,,,53,,,,443,probe-136,,,,,1,[object Object],168,4,1,
,html-keyboard-response,436,944422,0.0-222.0-1.0,null,<p></p>,,null,,,,,,,,,,,,,,,,
,do_trial,437,947286,0.0-223.0-0.0,323.2,,,,50,"1,1,0",6,blank,444,null,0.209298737,0.292384667,0.724766499,1,,,,,,
,html-keyboard-response,438,948298,0.0-223.0-1.0,null,<p></p>,,null,,,,,,,,,,,,,,,,
,do_recog,439,950651,0.0-224.0-0.0,848.2,,,,53,,,,445,probe-50,,,,,1,[object Object],167,4,1,
,html-keyboard-response,440,951662,0.0-224.0-1.0,null,<p></p>,,null,,,,,,,,,,,,,,,,
,do_trial,441,954720,0.0-225.0-0.0,513.2,,,,50,"0,0,1",6,blank,446,null,0.091868916,0.286023839,0.536005279,0,,,,,,
,html-keyboard-response,442,955733,0.0-225.0-1.0,null,<p></p>,,null,,,,,,,,,,,,,,,,
,do_trial,443,958744,0.0-226.0-0.0,473,,,,50,"0,0,1",6,blank,447,null,0.138083384,0.276012124,0.578943788,0,,,,,,
,html-keyboard-response,444,959759,0.0-226.0-1.0,null,<p></p>,,null,,,,,,,,,,,,,,,,
,do_trial,445,962669,0.0-227.0-0.0,366.3000001,,,,50,"0,0,1",6,blank,448,null,0.132608422,0.291816016,0.569813672,0,,,,,,
,html-keyboard-response,446,963683,0.0-227.0-1.0,null,<p></p>,,null,,,,,,,,,,,,,,,,
,do_recog,447,965889,0.0-228.0-0.0,695.4,,,,53,,,,449,probe-232,,,,,0,[object Object],null,null,0,
,html-keyboard-response,448,966901,0.0-228.0-1.0,null,<p></p>,,null,,,,,,,,,,,,,,,,
,do_trial,449,969801,0.0-229.0-0.0,359.2,,,,50,"0,0,1",6,blank,450,null,0.20056945,0.447720423,0.659230194,0,,,,,,
,html-keyboard-response,450,970813,0.0-229.0-1.0,null,<p></p>,,null,,,,,,,,,,,,,,,,
,do_recog,451,973208,0.0-230.0-0.0,883.1,,,,53,,,,451,probe-231,,,,,0,[object Object],null,null,0,
,html-keyboard-response,452,974216,0.0-230.0-1.0,null,<p></p>,,null,,,,,,,,,,,,,,,,
,do_trial,453,977039,0.0-231.0-0.0,267.4,,,,50,"0,1,1",6,blank,452,null,0.080131333,0.466064234,0.630123199,1,,,,,,
,html-keyboard-response,454,978044,0.0-231.0-1.0,null,<p></p>,,null,,,,,,,,,,,,,,,,
,do_trial,455,981022,0.0-232.0-0.0,429.2,,,,50,"0,0,1",6,blank,453,null,0.07097829,0.258947522,0.595965601,0,,,,,,
,html-keyboard-response,456,982035,0.0-232.0-1.0,null,<p></p>,,null,,,,,,,,,,,,,,,,
,do_trial,457,984972,0.0-233.0-0.0,389.8,,,,49,"0,1,1",6,blank,454,null,0.056849412,0.303703822,0.525860824,0,,,,,,
,html-keyboard-response,458,985986,0.0-233.0-1.0,null,<p></p>,,null,,,,,,,,,,,,,,,,
,do_trial,459,988913,0.0-234.0-0.0,373.5,,,,50,"0,0,0",6,blank,455,null,0.065401769,0.18030243,0.457726791,0,,,,,,
,html-keyboard-response,460,989914,0.0-234.0-1.0,null,<p></p>,,null,,,,,,,,,,,,,,,,
,do_trial,461,992726,0.0-235.0-0.0,269.4,,,,50,"1,0,1",6,blank,456,null,0.380722917,0.145276414,0.444185857,0,,,,,,
,html-keyboard-response,462,993735,0.0-235.0-1.0,null,<p></p>,,null,,,,,,,,,,,,,,,,
,do_trial,463,996353,0.0-236.0-0.0,77.19999993,,,,51,"0,1,1",6,blank,457,null,0.570077528,0.167673105,0.28479873,1,,,,,,
,html-keyboard-response,464,997363,0.0-236.0-1.0,null,<p></p>,,null,,,,,,,,,,,,,,,,
,do_recog,465,999835,0.0-237.0-0.0,959.2,,,,55,,,,458,probe-235,,,,,0,[object Object],null,null,1,
,html-keyboard-response,466,1000845,0.0-237.0-1.0,null,<p></p>,,null,,,,,,,,,,,,,,,,
,do_trial,467,1003836,0.0-238.0-0.0,449.4,,,,50,"0,0,1",6,blank,459,null,0.494154581,0.199848748,0.275049262,0,,,,,,
,html-keyboard-response,468,1004848,0.0-238.0-1.0,null,<p></p>,,null,,,,,,,,,,,,,,,,
,do_trial,469,1007776,0.0-239.0-0.0,376.5,,,,51,"1,0,1",6,blank,460,null,0.531756424,0.283246497,0.215342213,1,,,,,,
,html-keyboard-response,470,1008790,0.0-239.0-1.0,null,<p></p>,,null,,,,,,,,,,,,,,,,
,do_trial,471,1011802,0.0-240.0-0.0,459.4,,,,51,"1,0,1",6,blank,461,null,0.504209007,0.312377175,0.274010003,1,,,,,,
,html-keyboard-response,472,1012803,0.0-240.0-1.0,null,<p></p>,,null,,,,,,,,,,,,,,,,
,do_recog,473,1015357,0.0-241.0-0.0,1044.8,,,,53,,,,462,probe-248,,,,,0,[object Object],null,null,0,
,html-keyboard-response,474,1016373,0.0-241.0-1.0,null,<p></p>,,null,,,,,,,,,,,,,,,,
,do_trial,475,1019291,0.0-242.0-0.0,372.5,,,,51,"0,1,0",6,blank,463,null,0.481612,0.305176036,0.09409508,0,,,,,,
,html-keyboard-response,476,1020301,0.0-242.0-1.0,null,<p></p>,,null,,,,,,,,,,,,,,,,
,do_recog,477,1022910,0.0-243.0-0.0,1096.1,,,,53,,,,464,probe-250,,,,,0,[object Object],null,null,0,
,html-keyboard-response,478,1023922,0.0-243.0-1.0,null,<p></p>,,null,,,,,,,,,,,,,,,,
,do_trial,479,1026793,0.0-244.0-0.0,324.9000001,,,,50,"1,1,0",6,blank,465,null,0.499608907,0.350855286,0.07619331,1,,,,,,
,html-keyboard-response,480,1027806,0.0-244.0-1.0,null,<p></p>,,null,,,,,,,,,,,,,,,,
,do_trial,481,1030749,0.0-245.0-0.0,407.1,,,,50,"1,1,0",6,blank,466,null,0.576918824,0.369080549,0.075845858,1,,,,,,
,html-keyboard-response,482,1031756,0.0-245.0-1.0,null,<p></p>,,null,,,,,,,,,,,,,,,,
,do_trial,483,1034665,0.0-246.0-0.0,368.1,,,,50,"0,0,0",6,blank,467,null,0.492703503,0.442212004,0.133956637,0,,,,,,
,html-keyboard-response,484,1035669,0.0-246.0-1.0,null,<p></p>,,null,,,,,,,,,,,,,,,,
,do_recog,485,1038135,0.0-247.0-0.0,963.1,,,,55,,,,468,probe-252,,,,,0,[object Object],null,null,1,
,html-keyboard-response,486,1039151,0.0-247.0-1.0,null,<p></p>,,null,,,,,,,,,,,,,,,,
,do_trial,487,1043071,0.0-248.0-0.0,1380.3,,,,51,"0,1,0",6,blank,469,null,0.623419099,0.413946708,0.176716189,0,,,,,,
,html-keyboard-response,488,1044078,0.0-248.0-1.0,null,<p></p>,,null,,,,,,,,,,,,,,,,
,do_trial,489,1046903,0.0-249.0-0.0,278,,,,49,"1,1,1",6,blank,470,null,0.524991514,0.285813404,0.150821191,1,,,,,,
,html-keyboard-response,490,1047918,0.0-249.0-1.0,null,<p></p>,,null,,,,,,,,,,,,,,,,
,do_trial,491,1050746,0.0-250.0-0.0,290.2,,,,50,"0,1,0",6,blank,471,null,0.536855648,0.4048765,0.071678909,1,,,,,,
,html-keyboard-response,492,1051761,0.0-250.0-1.0,null,<p></p>,,null,,,,,,,,,,,,,,,,
,do_trial,493,1054567,0.0-251.0-0.0,257.8,,,,50,"1,0,0",6,blank,472,null,0.647512548,0.39778163,0.090034479,0,,,,,,
,html-keyboard-response,494,1055581,0.0-251.0-1.0,null,<p></p>,,null,,,,,,,,,,,,,,,,
,do_recog,495,1058774,0.0-252.0-0.0,1680.2,,,,56,,,,473,probe-251,,,,,0,[object Object],null,null,1,
,html-keyboard-response,496,1059776,0.0-252.0-1.0,null,<p></p>,,null,,,,,,,,,,,,,,,,
,do_trial,497,1062823,0.0-253.0-0.0,511.8,,,,51,"0,0,0",6,blank,474,null,0.554287859,0.425000523,0.137409144,0,,,,,,
,html-keyboard-response,498,1063836,0.0-253.0-1.0,null,<p></p>,,null,,,,,,,,,,,,,,,,
,do_trial,499,1066612,0.0-254.0-0.0,236.7,,,,50,"1,1,0",6,blank,475,null,0.456148183,0.423135435,0.147618371,1,,,,,,
,html-keyboard-response,500,1067626,0.0-254.0-1.0,null,<p></p>,,null,,,,,,,,,,,,,,,,
,do_trial,501,1070482,0.0-255.0-0.0,308.5,,,,50,"0,1,0",6,blank,476,null,0.445754809,0.334241662,0.068712357,1,,,,,,
,html-keyboard-response,502,1071491,0.0-255.0-1.0,null,<p></p>,,null,,,,,,,,,,,,,,,,
,do_trial,503,1074310,0.0-256.0-0.0,273.5999999,,,,49,"1,0,0",6,blank,477,null,0.46246482,0.264483545,0.053773162,1,,,,,,
,html-keyboard-response,504,1075316,0.0-256.0-1.0,null,<p></p>,,null,,,,,,,,,,,,,,,,
,do_trial,505,1078143,0.0-257.0-0.0,275.9,,,,51,"0,1,0",6,blank,478,null,0.507277378,0.416828165,0.053052367,0,,,,,,
,html-keyboard-response,506,1079159,0.0-257.0-1.0,null,<p></p>,,null,,,,,,,,,,,,,,,,
,do_recog,507,1081472,0.0-258.0-0.0,804.5999999,,,,55,,,,479,probe-236,,,,,0,[object Object],null,null,1,
,html-keyboard-response,508,1082486,0.0-258.0-1.0,null,<p></p>,,null,,,,,,,,,,,,,,,,
,do_pick_best_pirate,509,1087965,0.0-259.0-0.0,4464.8,,,,50,,,,,,,,,,,,,,,
,do_pick_best_pirate,510,1091306,0.0-260.0-0.0,2333,,,,50,,,,,,,,,,,,,,,
,do_pick_best_pirate,511,1094377,0.0-261.0-0.0,2053.5,,,,50,,,,,,,,,,,,,,,
,do_pick_best_pirate,512,1096813,0.0-262.0-0.0,1423.5,,,,49,,,,,,,,,,,,,,,
,do_pick_best_pirate,513,1098892,0.0-263.0-0.0,1062.3,,,,50,,,,,,,,,,,,,,,
,do_pick_best_pirate,514,1100817,0.0-264.0-0.0,921,,,,50,,,,,,,,,,,,,,,
,html-keyboard-response,515,1106411,0.0-265.0-0.0,5593.4,<p>You are all done with the experiment!</p><p> You made $15 plus $2 in bonus payment!</p><p>Thank you for participating. You will recieve your payment within 3 days.<p><b>[Press the space bar to end the experiment]</b></p></div>,,32,,,,,,,,,,,,,,,,