"success","trial_type","trial_index","time_elapsed","internal_node_id","rt","stimulus","key_press","subject_id","participant_id","age","gender","prompt","response","choice_outcomes","context_n","context_img_id","trial_n","probe_img_id","pR_red","pR_white","pR_black","outcome","is_valid","image_to_show","probed_trial","probed_context","correct","probe","probed_trial_n","probed_context_n","context_im"
"true","fullscreen","0","10959","0.0-0.0","","","","","","","","","","","","","","","","","","","","","","","","","","",""
"","pavlovia","1","10966","0.0-1.0","","","","","","","","","","","","","","","","","","","","","","","","","","",""
"","welc_back","2","23727","0.0-2.0","null","run_exp/static/audio/clip_29_welcome_back.m4a","null","54","46","8","male","<div class='center'><p>Welcome to day 2!</p><p> Yesterday, you were the head captain of a pirate ship. You and your fellow pirates robbed ships for their gold and traveled to six different islands .</p></div>","","","","","","","","","","","","","","","","","","",""
"","html-keyboard-response","3","25318","0.0-3.0","1589","<div class='center'><p>Welcome to day 2!</p><p> Yesterday, you were the head captain of a pirate ship. You and your fellow pirates robbed ships for their gold and traveled to six different islands .</p><p><b>[Press the space bar to continue]</b></p></div>","32","","","","","","","","","","","","","","","","","","","","","","","",""
"","day_1_summary_goal","4","45342","0.0-4.0","null","run_exp/static/audio/clip_30_goal_of_game.m4a","null","","","","","<div class='center'><p>Today, like yesterday, you get to pick which pirate you want to rob the next ship.</p><p>If the pirate is successful in robbing a ship, you get gold coins that look like this: </p><p><img src='run_exp/static/images/tutorial/reward.png' height='150'></p><p> If they were not successful in robbing the ship, then you will get no gold coins and you'll see a big red x like this: </p><p><img src='run_exp/static/images/tutorial/reward_no.png' height='150'></p></div>","","","","","","","","","","","","","","","","","","",""
"","html-keyboard-response","5","46215","0.0-5.0","870.1000000238419","<div class='center'><p>Today, like yesterday, you get to pick which pirate you want to rob the next ship.</p><p>If the pirate is successful in robbing a ship, you get gold coins that look like this: </p><p><img src='run_exp/static/images/tutorial/reward.png' height='150'></p><p> If they were not successful in robbing the ship, then you will get no gold coins and you'll see a big red x like this: </p><p><img src='run_exp/static/images/tutorial/reward_no.png' height='150'></p><p><b>[Press the space bar to continue]</b></p></div>","32","","","","","","","","","","","","","","","","","","","","","","","",""
"","day_1_summary_pick","6","64145","0.0-6.0","null","run_exp/static/audio/clip_31_how_to_pick_a_pirate.m4a","null","","","","","<div class='center'><p>Also, just like yesterday, you will use the 1,2,3 keys on your keyboard to pick a pirate. Press '1' to choose red beard, '2' to choose white beard, and '3' to choose black beard . You only have 3 seconds to pick a pirate, so please make a choice quickly!</p></div>","","","","","","","","","","","","","","","","","","",""
"","html-keyboard-response","7","65497","0.0-7.0","1350.5","<div class='center'><p>Also, just like yesterday, you will use the 1,2,3 keys on your keyboard to pick a pirate. Press '1' to choose red beard, '2' to choose white beard, and '3' to choose black beard . You only have 3 seconds to pick a pirate, so please make a choice quickly!</p><p><b>[Press the space bar to continue]</b></p></div>","32","","","","","","","","","","","","","","","","","","","","","","","",""
"","test_phase_begin","8","89964","0.0-8.0","null","run_exp/static/audio/clip_32_final_place.m4a","null","","","","","<div class='center'><p>You’ve arrived at the final island of your journey! Unfortunately, it’s very foggy out, so you won’t be able to see it in the distance like the other islands you've visited.</p><p>You’ll still be deciding which pirate you want to rob a ship like before. However, because of the fog, you also won’t be able to see the ship.</p><p>This means you do not have to remember the ships you rob on this island.</p></p></div>","","","","","","","","","","","","","","","","","","",""
"","html-keyboard-response","9","91093","0.0-9.0","1128.300000011921","<div class='center'><p>You’ve arrived at the final island of your journey! Unfortunately, it’s very foggy out, so you won’t be able to see it in the distance like the other islands you've visited.</p><p>You’ll still be deciding which pirate you want to rob a ship like before. However, because of the fog, you also won’t be able to see the ship.</p><p>This means you do not have to remember the ships you rob on this island.</p></p><p><b>[Press the space bar to continue]</b></p></div>","32","","","","","","","","","","","","","","","","","","","","","","","",""
"","explain_probe_1","10","100598","0.0-10.0","null","run_exp/static/audio/clip_33_recognition_1.m4a","null","","","","","<div class='center'><p> Sometimes you’ll be shown a ship, and you will be asked if you saw this ship on a past island.</p><p> Here is an example of what you will see.</p><p><img src='run_exp/static/images/tutorial/example_recog_trial.png' height='500'></p></div>","","","","","","","","","","","","","","","","","","",""
"","html-keyboard-response","11","102264","0.0-11.0","1664.9000000059605","<div class='center'><p> Sometimes you’ll be shown a ship, and you will be asked if you saw this ship on a past island.</p><p> Here is an example of what you will see.</p><p><img src='run_exp/static/images/tutorial/example_recog_trial.png' height='500'></p><p><b>[Press the space bar to continue]</b></p></div>","32","","","","","","","","","","","","","","","","","","","","","","","",""
"","explain_probe_2","12","129154","0.0-12.0","null","run_exp/static/audio/clip_34_recognition_2.m4a","null","","","","","<div class='center'><p> You will press the 5, 6, 7, 8 keys on your keyboard to respond.</p><p>If you are very sure saw the ship, press <b>5</b> on your keyboard.</p><p> If you think you  saw it before but are not sure, then press <b>6</b>.</p><p> If you think you have <b>not</b> seen it before but are not sure, then press <b>7</b>.</p><p> If you are sure you did <b>not</b> see the ship before, then press <b>8</b>.</p><p><img src='run_exp/static/images/tutorial/example_recog_trial.png' height='500'></p></div>","","","","","","","","","","","","","","","","","","",""
"","html-keyboard-response","13","130535","0.0-13.0","1379.199999988079","<div class='center'><p> You will press the 5, 6, 7, 8 keys on your keyboard to respond.</p><p>If you are very sure saw the ship, press <b>5</b> on your keyboard.</p><p> If you think you  saw it before but are not sure, then press <b>6</b>.</p><p> If you think you have <b>not</b> seen it before but are not sure, then press <b>7</b>.</p><p> If you are sure you did <b>not</b> see the ship before, then press <b>8</b>.</p><p><img src='run_exp/static/images/tutorial/example_recog_trial.png' height='500'></p><p><b>[Press the space bar to continue]</b></p></div>","32","","","","","","","","","","","","","","","","","","","","","","","",""
"","explain_outcome","14","152118","0.0-14.0","null","run_exp/static/audio/clip_35_recognition_3.m4a","null","","","","","<div class='center'><p> If you remember correctly, then you’ll get a gold coin like this: </p><p><img src='run_exp/static/images/tutorial/reward_small.png' height='200'></p><p>If you do not remember correctly, then you'll see a red x like this: </p><p><img src='run_exp/static/images/tutorial/reward_no.png' height='200'></p><p>Importantly, when you are shown a ship, take the time to remind yourself which island you saw it on. This will help you in the next part of the study.</p></div>","","","","","","","","","","","","","","","","","","",""
"","html-keyboard-response","15","152846","0.0-15.0","726.9000000059605","<div class='center'><p> If you remember correctly, then you’ll get a gold coin like this: </p><p><img src='run_exp/static/images/tutorial/reward_small.png' height='200'></p><p>If you do not remember correctly, then you'll see a red x like this: </p><p><img src='run_exp/static/images/tutorial/reward_no.png' height='200'></p><p>Importantly, when you are shown a ship, take the time to remind yourself which island you saw it on. This will help you in the next part of the study.</p><p><b>[Press the space bar to continue]</b></p></div>","32","","","","","","","","","","","","","","","","","","","","","","","",""
"","begin_test_phase","16","177425","0.0-16.0","null","run_exp/static/audio/clip_36_begin_final.m4a","null","","","","","<div class='center'><p>Let's go over the important points again. Your job is to: </p><p>1. Pick the pirate who is best at robbing ships and will bring you back gold coins. </p><p>2. Correctly remember whether or not you saw a ship before. If you did see the ship before, remind yourself on which island you saw the ship. </p></div>","","","","","","","","","","","","","","","","","","",""
"","html-keyboard-response","17","177492","0.0-17.0","0.20000001788139343","<div class='center'><p>Let's go over the important points again. Your job is to: </p><p>1. Pick the pirate who is best at robbing ships and will bring you back gold coins. </p><p>2. Correctly remember whether or not you saw a ship before. If you did see the ship before, remind yourself on which island you saw the ship. </p><p><b>[Press the space bar to continue]</b></p></div>","32","","","","","","","","","","","","","","","","","","","","","","","",""
"","do_welcome","18","178998","0.0-18.0","null","","","","","","","","null","","","","","","","","","","","","","","","","","",""
"","do_trial","19","182822","0.0-19.0-0.0","1258.5999999940395","","","","","","","","49","0,0,0","6","blank","230","null","0.20267999878780465","0.3172711107483555","0.5476574353841127","0","","","","","","","","",""
"","html-keyboard-response","20","183825","0.0-19.0-1.0","null","<p></p>","null","","","","","","","","","","","","","","","","","","","","","","","",""
"","do_trial","21","186987","0.0-20.0-0.0","617.9000000059605","","","","","","","","50","0,1,1","6","blank","231","null","0.07353553575487494","0.25135999947241094","0.6508642768998639","1","","","","","","","","",""
"","html-keyboard-response","22","187996","0.0-20.0-1.0","null","<p></p>","null","","","","","","","","","","","","","","","","","","","","","","","",""
"","do_trial","23","191208","0.0-21.0-0.0","648.4000000059605","","","","","","","","51","0,0,0","6","blank","232","null","0.12495930216973333","0.23802880897670126","0.5800411040992425","0","","","","","","","","",""
"","html-keyboard-response","24","192214","0.0-21.0-1.0","null","<p></p>","null","","","","","","","","","","","","","","","","","","","","","","","",""
"","do_trial","25","195110","0.0-22.0-0.0","319.7000000178814","","","","","","","","50","0,0,0","6","blank","233","null","0.15125553690408727","0.2282018841122829","0.7332934669293747","0","","","","","","","","",""
"","html-keyboard-response","26","196118","0.0-22.0-1.0","null","<p></p>","null","","","","","","","","","","","","","","","","","","","","","","","",""
"","do_trial","27","199258","0.0-23.0-0.0","562.3999999761581","","","","","","","","49","0,0,1","6","blank","234","null","0.17724989807670785","0.23775870180927305","0.7291919573794072","0","","","","","","","","",""
"","html-keyboard-response","28","200264","0.0-23.0-1.0","null","<p></p>","null","","","","","","","","","","","","","","","","","","","","","","","",""
"","do_trial","29","203579","0.0-24.0-0.0","759.1999999880791","","","","","","","","50","1,0,1","6","blank","235","null","0.270390606345965","0.19004828612248886","0.6616104391591402","0","","","","","","","","",""
"","html-keyboard-response","30","204584","0.0-24.0-1.0","null","<p></p>","null","","","","","","","","","","","","","","","","","","","","","","","",""
"","do_trial","31","207458","0.0-25.0-0.0","307.40000000596046","","","","","","","","51","1,1,1","6","blank","236","null","0.33685693563049257","0.2902291331575523","0.6972844688333438","1","","","","","","","","",""
"","html-keyboard-response","32","208463","0.0-25.0-1.0","null","<p></p>","null","","","","","","","","","","","","","","","","","","","","","","","",""
"","do_trial","33","211376","0.0-26.0-0.0","347.39999997615814","","","","","","","","51","1,0,1","6","blank","237","null","0.22436260158218602","0.22082253213888856","0.5577880209309393","1","","","","","","","","",""
"","html-keyboard-response","34","212384","0.0-26.0-1.0","null","<p></p>","null","","","","","","","","","","","","","","","","","","","","","","","",""
"","do_trial","35","215272","0.0-27.0-0.0","323.7000000178814","","","","","","","","51","0,0,0","6","blank","238","null","0.11635694142604297","0.2160214919365901","0.5947179700267371","0","","","","","","","","",""
"","html-keyboard-response","36","216279","0.0-27.0-1.0","null","<p></p>","null","","","","","","","","","","","","","","","","","","","","","","","",""
"","do_trial","37","219616","0.0-28.0-0.0","756.1999999880791","","","","","","","","51","0,0,1","6","blank","239","null","0.22907748684390916","0.23264715439470735","0.6427566913982272","1","","","","","","","","",""
"","html-keyboard-response","38","220622","0.0-28.0-1.0","null","<p></p>","null","","","","","","","","","","","","","","","","","","","","","","","",""
"","do_trial","39","223792","0.0-29.0-0.0","605","","","","","","","","51","0,0,1","6","blank","240","null","0.21970675373689022","0.2246911464517143","0.7377777452919806","1","","","","","","","","",""
"","html-keyboard-response","40","224797","0.0-29.0-1.0","null","<p></p>","null","","","","","","","","","","","","","","","","","","","","","","","",""
"","do_trial","41","227817","0.0-30.0-0.0","453.10000002384186","","","","","","","","51","0,1,1","6","blank","241","null","0.19218504158947713","0.25333905505223425","0.7827716957189058","1","","","","","","","","",""
"","html-keyboard-response","42","228824","0.0-30.0-1.0","null","<p></p>","null","","","","","","","","","","","","","","","","","","","","","","","",""
"","do_trial","43","231762","0.0-31.0-0.0","371.30000001192093","","","","","","","","51","0,0,1","6","blank","242","null","0.08054277277756164","0.2071039595057168","0.7147534059613004","1","","","","","","","","",""
"","html-keyboard-response","44","232770","0.0-31.0-1.0","null","<p></p>","null","","","","","","","","","","","","","","","","","","","","","","","",""
"","do_trial","45","235673","0.0-32.0-0.0","335.80000001192093","","","","","","","","51","0,1,0","6","blank","243","null","0.13391172101691848","0.5274108344786296","0.5106252049292206","0","","","","","","","","",""
"","html-keyboard-response","46","236681","0.0-32.0-1.0","null","<p></p>","null","","","","","","","","","","","","","","","","","","","","","","","",""
"","do_trial","47","239893","0.0-33.0-0.0","647.0999999940395","","","","","","","","51","0,1,1","6","blank","244","null","0.28653222380211063","0.5556572704579285","0.47719259385784385","1","","","","","","","","",""
"","html-keyboard-response","48","240901","0.0-33.0-1.0","null","<p></p>","null","","","","","","","","","","","","","","","","","","","","","","","",""
"","do_recog","49","246923","0.0-34.0-0.0","null","","","","","","","","null","","","","245","probe-15","","","","","1","[object Object]","89","2","0","","","",""
"","html-keyboard-response","50","247931","0.0-34.0-1.0","null","<p></p>","null","","","","","","","","","","","","","","","","","","","","","","","",""
"","do_trial","51","251884","0.0-35.0-0.0","1387","","","","","","","","51","0,0,1","6","blank","246","null","0.06925655916960434","0.48205238949733153","0.450974200196875","1","","","","","","","","",""
"","html-keyboard-response","52","252888","0.0-35.0-1.0","null","<p></p>","null","","","","","","","","","","","","","","","","","","","","","","","",""
"","do_recog","53","256501","0.0-36.0-0.0","2102.2000000178814","","","","","","","","54","","","","247","probe-217","","","","","1","[object Object]","122","3","1","","","",""
"","html-keyboard-response","54","257505","0.0-36.0-1.0","null","<p></p>","null","","","","","","","","","","","","","","","","","","","","","","","",""
"","do_trial","55","261718","0.0-37.0-0.0","1644.199999988079","","","","","","","","51","0,1,0","6","blank","248","null","0.18182766284735521","0.4973361939192411","0.2753014387638396","0","","","","","","","","",""
"","html-keyboard-response","56","262726","0.0-37.0-1.0","null","<p></p>","null","","","","","","","","","","","","","","","","","","","","","","","",""
"","do_recog","57","265922","0.0-38.0-0.0","1680.699999988079","","","","","","","","53","","","","249","probe-01","","","","","1","[object Object]","125","3","1","","","",""
"","html-keyboard-response","58","266931","0.0-38.0-1.0","null","<p></p>","null","","","","","","","","","","","","","","","","","","","","","","","",""
"","do_trial","59","270555","0.0-39.0-0.0","1057.4000000059605","","","","","","","","51","1,1,0","6","blank","250","null","0.1298357896920795","0.5825886751746225","0.17986722798509064","0","","","","","","","","",""
"","html-keyboard-response","60","271557","0.0-39.0-1.0","null","<p></p>","null","","","","","","","","","","","","","","","","","","","","","","","",""
"","do_trial","61","275443","0.0-40.0-0.0","1320.4000000059605","","","","","","","","51","0,0,0","6","blank","251","null","0.1397644519191146","0.49246730869315786","0.3153569397324714","0","","","","","","","","",""
"","html-keyboard-response","62","276449","0.0-40.0-1.0","null","<p></p>","null","","","","","","","","","","","","","","","","","","","","","","","",""
"","do_trial","63","279591","0.0-41.0-0.0","578.6999999880791","","","","","","","","51","0,0,0","6","blank","252","null","0.1012562913357176","0.6414847062697103","0.23274278891021274","0","","","","","","","","",""
"","html-keyboard-response","64","280596","0.0-41.0-1.0","null","<p></p>","null","","","","","","","","","","","","","","","","","","","","","","","",""
"","do_trial","65","283691","0.0-42.0-0.0","529","","","","","","","","51","0,0,1","6","blank","253","null","0.13669014093341508","0.5290749980028681","0.20342810438694103","1","","","","","","","","",""
"","html-keyboard-response","66","284698","0.0-42.0-1.0","null","<p></p>","null","","","","","","","","","","","","","","","","","","","","","","","",""
"","do_trial","67","287594","0.0-43.0-0.0","330.7000000178814","","","","","","","","51","0,0,0","6","blank","254","null","0.11945340285022436","0.6445782886136983","0.20535502990611076","0","","","","","","","","",""
"","html-keyboard-response","68","288602","0.0-43.0-1.0","null","<p></p>","null","","","","","","","","","","","","","","","","","","","","","","","",""
"","do_recog","69","291632","0.0-44.0-0.0","1517","","","","","","","","53","","","","255","probe-53","","","","","1","[object Object]","49","1","1","","","",""
"","html-keyboard-response","70","292636","0.0-44.0-1.0","null","<p></p>","null","","","","","","","","","","","","","","","","","","","","","","","",""
"","do_trial","71","295844","0.0-45.0-0.0","642.9000000059605","","","","","","","","51","0,1,0","6","blank","256","null","0.09589750005160111","0.7444091646101865","0.2119488904557558","0","","","","","","","","",""
"","html-keyboard-response","72","296850","0.0-45.0-1.0","null","<p></p>","null","","","","","","","","","","","","","","","","","","","","","","","",""
"","do_trial","73","300107","0.0-46.0-0.0","686.1000000238419","","","","","","","","51","0,1,0","6","blank","257","null","0.07550042187544893","0.6337257984941909","0.21196128810909673","0","","","","","","","","",""
"","html-keyboard-response","74","301114","0.0-46.0-1.0","null","<p></p>","null","","","","","","","","","","","","","","","","","","","","","","","",""
"","do_trial","75","304014","0.0-47.0-0.0","337.90000000596046","","","","","","","","51","0,1,1","6","blank","258","null","0.0626971376740482","0.6783540532944871","0.2573753306414271","1","","","","","","","","",""
"","html-keyboard-response","76","305017","0.0-47.0-1.0","null","<p></p>","null","","","","","","","","","","","","","","","","","","","","","","","",""
"","do_recog","77","308864","0.0-48.0-0.0","2331.399999976158","","","","","","","","56","","","","259","probe-243","","","","","0","[object Object]","null","null","1","","","",""
"","html-keyboard-response","78","309870","0.0-48.0-1.0","null","<p></p>","null","","","","","","","","","","","","","","","","","","","","","","","",""
"","do_trial","79","313341","0.0-49.0-0.0","908.5","","","","","","","","51","0,1,0","6","blank","260","null","0.16950264563940878","0.6805522099599829","0.25883783624513224","0","","","","","","","","",""
"","html-keyboard-response","80","314348","0.0-49.0-1.0","null","<p></p>","null","","","","","","","","","","","","","","","","","","","","","","","",""
"","do_recog","81","317682","0.0-50.0-0.0","1820.0999999940395","","","","","","","","56","","","","261","probe-146","","","","","1","[object Object]","208","5","0","","","",""
"","html-keyboard-response","82","318686","0.0-50.0-1.0","null","<p></p>","null","","","","","","","","","","","","","","","","","","","","","","","",""
"","do_trial","83","322141","0.0-51.0-0.0","886.5999999940395","","","","","","","","51","0,1,0","6","blank","262","null","0.1294685175912794","0.5678660998537413","0.31571087083124755","0","","","","","","","","",""
"","html-keyboard-response","84","323146","0.0-51.0-1.0","null","<p></p>","null","","","","","","","","","","","","","","","","","","","","","","","",""
"","do_recog","85","325697","0.0-52.0-0.0","1039","","","","","","","","56","","","","263","probe-115","","","","","1","[object Object]","84","2","0","","","",""
"","html-keyboard-response","86","326704","0.0-52.0-1.0","null","<p></p>","null","","","","","","","","","","","","","","","","","","","","","","","",""
"","do_trial","87","330549","0.0-53.0-0.0","1283.5999999940395","","","","","","","","51","0,1,0","6","blank","264","null","0.075524168165901","0.5863810909839381","0.4161593616692884","0","","","","","","","","",""
"","html-keyboard-response","88","331556","0.0-53.0-1.0","null","<p></p>","null","","","","","","","","","","","","","","","","","","","","","","","",""
"","do_trial","89","335189","0.0-54.0-0.0","1066.5","","","","","","","","51","0,1,0","6","blank","265","null","0.0986450111767991","0.5547183022474084","0.4920867102493331","0","","","","","","","","",""
"","html-keyboard-response","90","336191","0.0-54.0-1.0","null","<p></p>","null","","","","","","","","","","","","","","","","","","","","","","","",""
"","do_trial","91","339534","0.0-55.0-0.0","778","","","","","","","","51","0,1,0","6","blank","266","null","0.0688882677846972","0.6404045950601777","0.4107508532255074","0","","","","","","","","",""
"","html-keyboard-response","92","340541","0.0-55.0-1.0","null","<p></p>","null","","","","","","","","","","","","","","","","","","","","","","","",""
"","do_trial","93","343557","0.0-56.0-0.0","446.90000000596046","","","","","","","","51","0,0,0","6","blank","267","null","0.09778274547061534","0.49151729803566296","0.27476942283515643","0","","","","","","","","",""
"","html-keyboard-response","94","344563","0.0-56.0-1.0","null","<p></p>","null","","","","","","","","","","","","","","","","","","","","","","","",""
"","do_recog","95","347072","0.0-57.0-0.0","993.5999999940395","","","","","","","","53","","","","268","probe-124","","","","","1","[object Object]","85","2","1","","","",""
"","html-keyboard-response","96","348077","0.0-57.0-1.0","null","<p></p>","null","","","","","","","","","","","","","","","","","","","","","","","",""
"","do_trial","97","351137","0.0-58.0-0.0","486.80000001192093","","","","","","","","51","1,1,0","6","blank","269","null","0.143830729323261","0.5932352010402508","0.2851110308869446","0","","","","","","","","",""
"","html-keyboard-response","98","352143","0.0-58.0-1.0","null","<p></p>","null","","","","","","","","","","","","","","","","","","","","","","","",""
"","do_trial","99","355247","0.0-59.0-0.0","543.5","","","","","","","","51","1,0,0","6","blank","270","null","0.21085490199784418","0.5087795813936785","0.236871147745115","0","","","","","","","","",""
"","html-keyboard-response","100","356254","0.0-59.0-1.0","null","<p></p>","null","","","","","","","","","","","","","","","","","","","","","","","",""
"","do_trial","101","359194","0.0-60.0-0.0","377.90000000596046","","","","","","","","51","0,1,0","6","blank","271","null","0.12158360101716849","0.5306471774298493","0.31638653777646125","0","","","","","","","","",""
"","html-keyboard-response","102","360200","0.0-60.0-1.0","null","<p></p>","null","","","","","","","","","","","","","","","","","","","","","","","",""
"","do_trial","103","363456","0.0-61.0-0.0","692.0999999940395","","","","","","","","51","0,0,0","6","blank","272","null","0.15214779114596247","0.4424803857948744","0.22241617905658792","0","","","","","","","","",""
"","html-keyboard-response","104","364461","0.0-61.0-1.0","null","<p></p>","null","","","","","","","","","","","","","","","","","","","","","","","",""
"","do_trial","105","367412","0.0-62.0-0.0","383.40000000596046","","","","","","","","51","0,1,1","6","blank","273","null","0.20055565996958533","0.46961379435230094","0.21362513652301118","1","","","","","","","","",""
"","html-keyboard-response","106","368420","0.0-62.0-1.0","null","<p></p>","null","","","","","","","","","","","","","","","","","","","","","","","",""
"","do_trial","107","371608","0.0-63.0-0.0","624.2000000178814","","","","","","","","51","1,1,1","6","blank","274","null","0.2686789088210509","0.6172613171358109","0.4101295064230931","1","","","","","","","","",""
"","html-keyboard-response","108","372614","0.0-63.0-1.0","null","<p></p>","null","","","","","","","","","","","","","","","","","","","","","","","",""
"","do_recog","109","375874","0.0-64.0-0.0","1742.9000000059605","","","","","","","","56","","","","275","probe-183","","","","","1","[object Object]","209","5","0","","","",""
"","html-keyboard-response","110","376880","0.0-64.0-1.0","null","<p></p>","null","","","","","","","","","","","","","","","","","","","","","","","",""
"","do_trial","111","380546","0.0-65.0-0.0","1101.800000011921","","","","","","","","51","1,1,0","6","blank","276","null","0.2508684764623995","0.7123731266527068","0.41079141626408744","0","","","","","","","","",""
"","html-keyboard-response","112","381553","0.0-65.0-1.0","null","<p></p>","null","","","","","","","","","","","","","","","","","","","","","","","",""
"","do_trial","113","384598","0.0-66.0-0.0","479.09999999403954","","","","","","","","50","0,1,0","6","blank","277","null","0.22522672494552537","0.6772238372992838","0.29027827855283755","1","","","","","","","","",""
"","html-keyboard-response","114","385603","0.0-66.0-1.0","null","<p></p>","null","","","","","","","","","","","","","","","","","","","","","","","",""
"","do_trial","115","388626","0.0-67.0-0.0","454.19999998807907","","","","","","","","50","0,1,0","6","blank","278","null","0.16106155962974109","0.8190790493395923","0.2925034816720497","1","","","","","","","","",""
"","html-keyboard-response","116","389634","0.0-67.0-1.0","null","<p></p>","null","","","","","","","","","","","","","","","","","","","","","","","",""
"","do_trial","117","392539","0.0-68.0-0.0","339.30000001192093","","","","","","","","50","0,1,0","6","blank","279","null","0.19269896331926514","0.7690848984244917","0.2762819105262434","1","","","","","","","","",""
"","html-keyboard-response","118","393546","0.0-68.0-1.0","null","<p></p>","null","","","","","","","","","","","","","","","","","","","","","","","",""
"","do_trial","119","396466","0.0-69.0-0.0","350.5","","","","","","","","50","1,1,1","6","blank","280","null","0.203655656221707","0.7777880666282494","0.3855657499251994","1","","","","","","","","",""
"","html-keyboard-response","120","397472","0.0-69.0-1.0","null","<p></p>","null","","","","","","","","","","","","","","","","","","","","","","","",""
"","do_trial","121","400386","0.0-70.0-0.0","348.59999999403954","","","","","","","","51","0,1,0","6","blank","281","null","0.12283925120406144","0.7381298721397701","0.3201655636997008","0","","","","","","","","",""
"","html-keyboard-response","122","401391","0.0-70.0-1.0","null","<p></p>","null","","","","","","","","","","","","","","","","","","","","","","","",""
"","do_recog","123","404579","0.0-71.0-0.0","1676.5999999940395","","","","","","","","56","","","","282","probe-104","","","","","1","[object Object]","200","5","0","","","",""
"","html-keyboard-response","124","405584","0.0-71.0-1.0","null","<p></p>","null","","","","","","","","","","","","","","","","","","","","","","","",""
"","do_trial","125","409499","0.0-72.0-0.0","1348.4000000059605","","","","","","","","51","0,1,0","6","blank","283","null","0.08639403964035229","0.6209493149279035","0.25011283639011384","0","","","","","","","","",""
"","html-keyboard-response","126","410506","0.0-72.0-1.0","null","<p></p>","null","","","","","","","","","","","","","","","","","","","","","","","",""
"","do_recog","127","413393","0.0-73.0-0.0","1373.3999999761581","","","","","","","","55","","","","284","probe-250","","","","","0","[object Object]","null","null","1","","","",""
"","html-keyboard-response","128","414400","0.0-73.0-1.0","null","<p></p>","null","","","","","","","","","","","","","","","","","","","","","","","",""
"","do_trial","129","417663","0.0-74.0-0.0","700.3999999761581","","","","","","","","50","1,1,1","6","blank","285","null","0.1807295692653792","0.6342304998096786","0.3193358124232596","1","","","","","","","","",""
"","html-keyboard-response","130","418671","0.0-74.0-1.0","null","<p></p>","null","","","","","","","","","","","","","","","","","","","","","","","",""
"","do_trial","131","421992","0.0-75.0-0.0","759.1999999880791","","","","","","","","50","1,1,0","6","blank","286","null","0.11993563866799203","0.5061839889671587","0.2722624961366346","1","","","","","","","","",""
"","html-keyboard-response","132","422997","0.0-75.0-1.0","null","<p></p>","null","","","","","","","","","","","","","","","","","","","","","","","",""
"","do_trial","133","426344","0.0-76.0-0.0","660","","","","","","","","50","0,0,1","6","blank","287","null","0.06502700111830302","0.4922925068174077","0.29745942860334984","0","","","","","","","","",""
"","html-keyboard-response","134","427351","0.0-76.0-1.0","null","<p></p>","null","","","","","","","","","","","","","","","","","","","","","","","",""
"","do_trial","135","430319","0.0-77.0-0.0","406","","","","","","","","50","0,1,0","6","blank","288","null","0.13481690657371687","0.4683168069621465","0.47001666591017277","1","","","","","","","","",""
"","html-keyboard-response","136","431325","0.0-77.0-1.0","null","<p></p>","null","","","","","","","","","","","","","","","","","","","","","","","",""
"","do_trial","137","434492","0.0-78.0-0.0","605.0999999940395","","","","","","","","50","0,1,0","6","blank","289","null","0.06204436507977255","0.5352734014205419","0.4819947857186706","1","","","","","","","","",""
"","html-keyboard-response","138","435501","0.0-78.0-1.0","null","<p></p>","null","","","","","","","","","","","","","","","","","","","","","","","",""
"","do_recog","139","437433","0.0-79.0-0.0","416.39999997615814","","","","","","","","54","","","","290","probe-176","","","","","1","[object Object]","204","5","1","","","",""
"","html-keyboard-response","140","438442","0.0-79.0-1.0","null","<p></p>","null","","","","","","","","","","","","","","","","","","","","","","","",""
"","do_trial","141","441826","0.0-80.0-0.0","815.9000000059605","","","","","","","","50","0,0,1","6","blank","291","null","0.1358930402724014","0.5430230079751547","0.2823753125196049","0","","","","","","","","",""
"","html-keyboard-response","142","442834","0.0-80.0-1.0","null","<p></p>","null","","","","","","","","","","","","","","","","","","","","","","","",""
"","do_trial","143","446028","0.0-81.0-0.0","632.5","","","","","","","","50","0,1,0","6","blank","292","null","0.11427676359668684","0.5403711758005487","0.4221547545107472","1","","","","","","","","",""
"","html-keyboard-response","144","447035","0.0-81.0-1.0","null","<p></p>","null","","","","","","","","","","","","","","","","","","","","","","","",""
"","do_trial","145","450044","0.0-82.0-0.0","444.2999999821186","","","","","","","","50","0,0,0","6","blank","293","null","0.3414476754701191","0.5601892661904272","0.27696069163020215","0","","","","","","","","",""
"","html-keyboard-response","146","451053","0.0-82.0-1.0","null","<p></p>","null","","","","","","","","","","","","","","","","","","","","","","","",""
"","do_trial","147","453914","0.0-83.0-0.0","300.59999999403954","","","","","","","","50","0,0,0","6","blank","294","null","0.3803650812794292","0.3973188339303135","0.24414985241659862","0","","","","","","","","",""
"","html-keyboard-response","148","454922","0.0-83.0-1.0","null","<p></p>","null","","","","","","","","","","","","","","","","","","","","","","","",""
"","do_trial","149","457806","0.0-84.0-0.0","321.80000001192093","","","","","","","","50","1,0,0","6","blank","295","null","0.48157342397237324","0.13391513875020672","0.29348331959026547","0","","","","","","","","",""
"","html-keyboard-response","150","458812","0.0-84.0-1.0","null","<p></p>","null","","","","","","","","","","","","","","","","","","","","","","","",""
"","do_recog","151","461193","0.0-85.0-0.0","866.9000000059605","","","","","","","","53","","","","296","probe-106","","","","","1","[object Object]","127","3","1","","","",""
"","html-keyboard-response","152","462199","0.0-85.0-1.0","null","<p></p>","null","","","","","","","","","","","","","","","","","","","","","","","",""
"","do_trial","153","466143","0.0-86.0-0.0","1377.699999988079","","","","","","","","50","1,1,0","6","blank","297","null","0.5562093628014174","0.20542761597848536","0.25753610537259564","1","","","","","","","","",""
"","html-keyboard-response","154","467146","0.0-86.0-1.0","null","<p></p>","null","","","","","","","","","","","","","","","","","","","","","","","",""
"","do_trial","155","470207","0.0-87.0-0.0","495.59999999403954","","","","","","","","50","1,0,0","6","blank","298","null","0.7462385624026393","0.20804269846333714","0.4811817374075979","0","","","","","","","","",""
"","html-keyboard-response","156","471213","0.0-87.0-1.0","null","<p></p>","null","","","","","","","","","","","","","","","","","","","","","","","",""
"","do_recog","157","473320","0.0-88.0-0.0","593.9000000059605","","","","","","","","53","","","","299","probe-195","","","","","1","[object Object]","44","1","1","","","",""
"","html-keyboard-response","158","474327","0.0-88.0-1.0","null","<p></p>","null","","","","","","","","","","","","","","","","","","","","","","","",""
"","do_trial","159","477922","0.0-89.0-0.0","1027.0999999940395","","","","","","","","50","0,0,1","6","blank","300","null","0.6082234965362282","0.13445831951842127","0.3404688173826677","0","","","","","","","","",""
"","html-keyboard-response","160","478928","0.0-89.0-1.0","null","<p></p>","null","","","","","","","","","","","","","","","","","","","","","","","",""
"","do_recog","161","481340","0.0-90.0-0.0","897.1999999880791","","","","","","","","53","","","","301","probe-85","","","","","1","[object Object]","126","3","1","","","",""
"","html-keyboard-response","162","482346","0.0-90.0-1.0","null","<p></p>","null","","","","","","","","","","","","","","","","","","","","","","","",""
"","do_trial","163","485381","0.0-91.0-0.0","464","","","","","","","","50","0,0,0","6","blank","302","null","0.6462732558587286","0.05011065735229467","0.3735767691375048","0","","","","","","","","",""
"","html-keyboard-response","164","486390","0.0-91.0-1.0","null","<p></p>","null","","","","","","","","","","","","","","","","","","","","","","","",""
"","do_recog","165","489596","0.0-92.0-0.0","1696.4000000059605","","","","","","","","55","","","","303","probe-135","","","","","1","[object Object]","42","1","0","","","",""
"","html-keyboard-response","166","490599","0.0-92.0-1.0","null","<p></p>","null","","","","","","","","","","","","","","","","","","","","","","","",""
"","do_trial","167","493853","0.0-93.0-0.0","688.9000000059605","","","","","","","","50","1,0,0","6","blank","304","null","0.5902905954801575","0.11673228771217772","0.43542464462054936","0","","","","","","","","",""
"","html-keyboard-response","168","494860","0.0-93.0-1.0","null","<p></p>","null","","","","","","","","","","","","","","","","","","","","","","","",""
"","do_trial","169","497760","0.0-94.0-0.0","333.19999998807907","","","","","","","","50","0,0,0","6","blank","305","null","0.5790571525469135","0.07590899628991428","0.43985840635620066","0","","","","","","","","",""
"","html-keyboard-response","170","498767","0.0-94.0-1.0","null","<p></p>","null","","","","","","","","","","","","","","","","","","","","","","","",""
"","do_recog","171","501462","0.0-95.0-0.0","1184","","","","","","","","54","","","","306","probe-218","","","","","1","[object Object]","87","2","1","","","",""
"","html-keyboard-response","172","502467","0.0-95.0-1.0","null","<p></p>","null","","","","","","","","","","","","","","","","","","","","","","","",""
"","do_trial","173","506312","0.0-96.0-0.0","1280.9000000059605","","","","","","","","51","1,0,1","6","blank","307","null","0.6032189469828215","0.18560748383675993","0.5284047230220339","1","","","","","","","","",""
"","html-keyboard-response","174","507316","0.0-96.0-1.0","null","<p></p>","null","","","","","","","","","","","","","","","","","","","","","","","",""
"","do_trial","175","510439","0.0-97.0-0.0","559.9000000059605","","","","","","","","51","0,1,1","6","blank","308","null","0.591583870438781","0.19452893230869378","0.47178079200879625","1","","","","","","","","",""
"","html-keyboard-response","176","511446","0.0-97.0-1.0","null","<p></p>","null","","","","","","","","","","","","","","","","","","","","","","","",""
"","do_trial","177","514377","0.0-98.0-0.0","366.69999998807907","","","","","","","","51","0,0,1","6","blank","309","null","0.5785737249427814","0.1889338531975161","0.2322249300894813","1","","","","","","","","",""
"","html-keyboard-response","178","515382","0.0-98.0-1.0","null","<p></p>","null","","","","","","","","","","","","","","","","","","","","","","","",""
"","do_recog","179","517735","0.0-99.0-0.0","841.9000000059605","","","","","","","","54","","","","310","probe-107","","","","","1","[object Object]","88","2","1","","","",""
"","html-keyboard-response","180","518741","0.0-99.0-1.0","null","<p></p>","null","","","","","","","","","","","","","","","","","","","","","","","",""
"","do_trial","181","522477","0.0-100.0-0.0","1167.4000000059605","","","","","","","","51","0,0,1","6","blank","311","null","0.5937002842984361","0.253908684812388","0.22909298065579775","1","","","","","","","","",""
"","html-keyboard-response","182","523482","0.0-100.0-1.0","null","<p></p>","null","","","","","","","","","","","","","","","","","","","","","","","",""
"","do_trial","183","527138","0.0-101.0-0.0","1088.0999999940395","","","","","","","","51","1,1,0","6","blank","312","null","0.5614331380420279","0.11622189336289435","0.26645667606731843","0","","","","","","","","",""
"","html-keyboard-response","184","528144","0.0-101.0-1.0","null","<p></p>","null","","","","","","","","","","","","","","","","","","","","","","","",""
"","do_trial","185","531080","0.0-102.0-0.0","369.2999999821186","","","","","","","","51","1,0,0","6","blank","313","null","0.5927937603288554","0.13050646512781316","0.2597002089893109","0","","","","","","","","",""
"","html-keyboard-response","186","532089","0.0-102.0-1.0","null","<p></p>","null","","","","","","","","","","","","","","","","","","","","","","","",""
"","do_trial","187","534962","0.0-103.0-0.0","311.7999999821186","","","","","","","","50","0,0,0","6","blank","314","null","0.608714548483295","0.17099910985368766","0.3334814150099734","0","","","","","","","","",""
"","html-keyboard-response","188","535970","0.0-103.0-1.0","null","<p></p>","null","","","","","","","","","","","","","","","","","","","","","","","",""
"","do_trial","189","538581","0.0-104.0-0.0","41.80000001192093","","","","","","","","49","1,0,1","6","blank","315","null","0.6258290232372982","0.13777215703386486","0.390945569045975","1","","","","","","","","",""
"","html-keyboard-response","190","539586","0.0-104.0-1.0","null","<p></p>","null","","","","","","","","","","","","","","","","","","","","","","","",""
"","do_trial","191","542559","0.0-105.0-0.0","405.69999998807907","","","","","","","","49","1,0,0","6","blank","316","null","0.5291037037868274","0.23225879687540152","0.3334522120160834","1","","","","","","","","",""
"","html-keyboard-response","192","543564","0.0-105.0-1.0","null","<p></p>","null","","","","","","","","","","","","","","","","","","","","","","","",""
"","do_trial","193","546796","0.0-106.0-0.0","668.8000000119209","","","","","","","","50","1,0,1","6","blank","317","null","0.5753109972026037","0.09942084538376701","0.2440602787168765","0","","","","","","","","",""
"","html-keyboard-response","194","547803","0.0-106.0-1.0","null","<p></p>","null","","","","","","","","","","","","","","","","","","","","","","","",""
"","do_recog","195","550025","0.0-107.0-0.0","707.7000000178814","","","","","","","","54","","","","318","probe-177","","","","","1","[object Object]","80","2","1","","","",""
"","html-keyboard-response","196","551035","0.0-107.0-1.0","null","<p></p>","null","","","","","","","","","","","","","","","","","","","","","","","",""
"","do_trial","197","554086","0.0-108.0-0.0","487.59999999403954","","","","","","","","49","0,1,0","6","blank","319","null","0.5338585109197661","0.06598677808938111","0.20515349455277893","0","","","","","","","","",""
"","html-keyboard-response","198","555092","0.0-108.0-1.0","null","<p></p>","null","","","","","","","","","","","","","","","","","","","","","","","",""
"","do_recog","199","557684","0.0-109.0-0.0","1078.699999988079","","","","","","","","54","","","","320","probe-208","","","","","1","[object Object]","123","3","1","","","",""
"","html-keyboard-response","200","558687","0.0-109.0-1.0","null","<p></p>","null","","","","","","","","","","","","","","","","","","","","","","","",""
"","do_trial","201","562024","0.0-110.0-0.0","766.7000000178814","","","","","","","","50","1,0,0","6","blank","321","null","0.4724672711010918","0.0987869606381693","0.20218471148015751","0","","","","","","","","",""
"","html-keyboard-response","202","563030","0.0-110.0-1.0","null","<p></p>","null","","","","","","","","","","","","","","","","","","","","","","","",""
"","do_recog","203","565435","0.0-111.0-0.0","893.1999999880791","","","","","","","","54","","","","322","probe-235","","","","","0","[object Object]","null","null","0","","","",""
"","html-keyboard-response","204","566437","0.0-111.0-1.0","null","<p></p>","null","","","","","","","","","","","","","","","","","","","","","","","",""
"","do_trial","205","569897","0.0-112.0-0.0","893.8000000119209","","","","","","","","51","1,0,0","6","blank","323","null","0.38618566113013714","0.07785874421795136","0.2630811585059543","0","","","","","","","","",""
"","html-keyboard-response","206","570902","0.0-112.0-1.0","null","<p></p>","null","","","","","","","","","","","","","","","","","","","","","","","",""
"","do_trial","207","574156","0.0-113.0-0.0","683.4000000059605","","","","","","","","49","1,0,0","6","blank","324","null","0.40810022802893103","0.12386425371044806","0.2617606869002735","1","","","","","","","","",""
"","html-keyboard-response","208","575162","0.0-113.0-1.0","null","<p></p>","null","","","","","","","","","","","","","","","","","","","","","","","",""
"","do_trial","209","578282","0.0-114.0-0.0","555.0999999940395","","","","","","","","49","1,0,0","6","blank","325","null","0.6645747967458249","0.08060496597958547","0.3595818038640236","1","","","","","","","","",""
"","html-keyboard-response","210","579285","0.0-114.0-1.0","null","<p></p>","null","","","","","","","","","","","","","","","","","","","","","","","",""
"","do_recog","211","581642","0.0-115.0-0.0","840.6000000238419","","","","","","","","54","","","","326","probe-190","","","","","1","[object Object]","86","2","1","","","",""
"","html-keyboard-response","212","582651","0.0-115.0-1.0","null","<p></p>","null","","","","","","","","","","","","","","","","","","","","","","","",""
"","do_trial","213","586147","0.0-116.0-0.0","927.0999999940395","","","","","","","","49","0,1,0","6","blank","327","null","0.6083893348833626","0.14075231827394377","0.3432032971803614","0","","","","","","","","",""
"","html-keyboard-response","214","587155","0.0-116.0-1.0","null","<p></p>","null","","","","","","","","","","","","","","","","","","","","","","","",""
"","do_trial","215","590796","0.0-117.0-0.0","1070.300000011921","","","","","","","","51","1,0,0","6","blank","328","null","0.6015193861194373","0.05980633065987897","0.3810809935358762","0","","","","","","","","",""
"","html-keyboard-response","216","591805","0.0-117.0-1.0","null","<p></p>","null","","","","","","","","","","","","","","","","","","","","","","","",""
"","do_recog","217","593755","0.0-118.0-0.0","441.89999997615814","","","","","","","","54","","","","329","probe-164","","","","","1","[object Object]","206","5","1","","","",""
"","html-keyboard-response","218","594757","0.0-118.0-1.0","null","<p></p>","null","","","","","","","","","","","","","","","","","","","","","","","",""
"","do_trial","219","598087","0.0-119.0-0.0","765.8000000119209","","","","","","","","51","0,0,0","6","blank","330","null","0.5748593591653147","0.1010316709914325","0.48843800939578275","0","","","","","","","","",""
"","html-keyboard-response","220","599094","0.0-119.0-1.0","null","<p></p>","null","","","","","","","","","","","","","","","","","","","","","","","",""
"","do_trial","221","602224","0.0-120.0-0.0","559.0999999940395","","","","","","","","49","0,0,0","6","blank","331","null","0.5356671104618653","0.13426292368539583","0.36470804865984785","0","","","","","","","","",""
"","html-keyboard-response","222","603226","0.0-120.0-1.0","null","<p></p>","null","","","","","","","","","","","","","","","","","","","","","","","",""
"","do_trial","223","607878","0.0-121.0-0.0","2083.2999999821186","","","","","","","","51","0,0,0","6","blank","332","null","0.4439195151555184","0.06989526536771139","0.3409900782621062","0","","","","","","","","",""
"","html-keyboard-response","224","608883","0.0-121.0-1.0","null","<p></p>","null","","","","","","","","","","","","","","","","","","","","","","","",""
"","do_trial","225","612074","0.0-122.0-0.0","624.0999999940395","","","","","","","","49","1,0,0","6","blank","333","null","0.6354228927763975","0.1756250429603203","0.2670702725294919","1","","","","","","","","",""
"","html-keyboard-response","226","613077","0.0-122.0-1.0","null","<p></p>","null","","","","","","","","","","","","","","","","","","","","","","","",""
"","do_recog","227","615463","0.0-123.0-0.0","869","","","","","","","","54","","","","334","probe-37","","","","","1","[object Object]","82","2","1","","","",""
"","html-keyboard-response","228","616470","0.0-123.0-1.0","null","<p></p>","null","","","","","","","","","","","","","","","","","","","","","","","",""
"","do_trial","229","619524","0.0-124.0-0.0","488.5","","","","","","","","51","1,0,0","6","blank","335","null","0.5098758008306229","0.11538916069595574","0.2237275978868246","0","","","","","","","","",""
"","html-keyboard-response","230","620529","0.0-124.0-1.0","null","<p></p>","null","","","","","","","","","","","","","","","","","","","","","","","",""
"","do_recog","231","623599","0.0-125.0-0.0","1553.7999999821186","","","","","","","","53","","","","336","probe-252","","","","","0","[object Object]","null","null","0","","","",""
"","html-keyboard-response","232","624605","0.0-125.0-1.0","null","<p></p>","null","","","","","","","","","","","","","","","","","","","","","","","",""
"","do_trial","233","628223","0.0-126.0-0.0","1052.9000000059605","","","","","","","","51","0,1,0","6","blank","337","null","0.5333331762249683","0.11479584518553287","0.28259456412484113","0","","","","","","","","",""
"","html-keyboard-response","234","629232","0.0-126.0-1.0","null","<p></p>","null","","","","","","","","","","","","","","","","","","","","","","","",""
"","do_trial","235","632231","0.0-127.0-0.0","427.59999999403954","","","","","","","","51","1,0,0","6","blank","338","null","0.5514527569840937","0.06309313598853337","0.2447642952749222","0","","","","","","","","",""
"","html-keyboard-response","236","633237","0.0-127.0-1.0","null","<p></p>","null","","","","","","","","","","","","","","","","","","","","","","","",""
"","do_trial","237","637166","0.0-128.0-0.0","1360.4000000059605","","","","","","","","49","1,0,0","6","blank","339","null","0.587760306537837","0.15325080343146602","0.43896447752447115","1","","","","","","","","",""
"","html-keyboard-response","238","638172","0.0-128.0-1.0","null","<p></p>","null","","","","","","","","","","","","","","","","","","","","","","","",""
"","do_recog","239","641077","0.0-129.0-0.0","1395.300000011921","","","","","","","","56","","","","340","probe-58","","","","","1","[object Object]","169","4","0","","","",""
"","html-keyboard-response","240","642087","0.0-129.0-1.0","null","<p></p>","null","","","","","","","","","","","","","","","","","","","","","","","",""
"","do_trial","241","645334","0.0-130.0-0.0","679.8000000119209","","","","","","","","49","1,0,0","6","blank","341","null","0.5951304992754479","0.05869235057341534","0.40997380106236186","1","","","","","","","","",""
"","html-keyboard-response","242","646336","0.0-130.0-1.0","null","<p></p>","null","","","","","","","","","","","","","","","","","","","","","","","",""
"","do_trial","243","649311","0.0-131.0-0.0","406.5","","","","","","","","49","1,0,0","6","blank","342","null","0.6057880281540359","0.16981409727136224","0.42808393269678585","1","","","","","","","","",""
"","html-keyboard-response","244","650316","0.0-131.0-1.0","null","<p></p>","null","","","","","","","","","","","","","","","","","","","","","","","",""
"","do_trial","245","653874","0.0-132.0-0.0","993.3000000119209","","","","","","","","49","0,0,1","6","blank","343","null","0.6582951384938499","0.22210635935497627","0.5235394666729429","0","","","","","","","","",""
"","html-keyboard-response","246","654883","0.0-132.0-1.0","null","<p></p>","null","","","","","","","","","","","","","","","","","","","","","","","",""
"","do_trial","247","657932","0.0-133.0-0.0","480.59999999403954","","","","","","","","51","1,0,1","6","blank","344","null","0.6746940585912793","0.05056424182095613","0.3670339099173465","1","","","","","","","","",""
"","html-keyboard-response","248","658938","0.0-133.0-1.0","null","<p></p>","null","","","","","","","","","","","","","","","","","","","","","","","",""
"","do_trial","249","661870","0.0-134.0-0.0","364.80000001192093","","","","","","","","50","0,1,1","6","blank","345","null","0.6293210716889676","0.0963043232471448","0.49150927953398327","1","","","","","","","","",""
"","html-keyboard-response","250","662876","0.0-134.0-1.0","null","<p></p>","null","","","","","","","","","","","","","","","","","","","","","","","",""
"","do_recog","251","665399","0.0-135.0-0.0","1008.2999999821186","","","","","","","","54","","","","346","probe-39","","","","","1","[object Object]","164","4","1","","","",""
"","html-keyboard-response","252","666405","0.0-135.0-1.0","null","<p></p>","null","","","","","","","","","","","","","","","","","","","","","","","",""
"","do_trial","253","669490","0.0-136.0-0.0","520.0999999940395","","","","","","","","50","1,0,1","6","blank","347","null","0.4889986267512578","0.19035862911165005","0.5582131412046172","0","","","","","","","","",""
"","html-keyboard-response","254","670498","0.0-136.0-1.0","null","<p></p>","null","","","","","","","","","","","","","","","","","","","","","","","",""
"","do_recog","255","674341","0.0-137.0-0.0","2334.199999988079","","","","","","","","56","","","","348","probe-245","","","","","0","[object Object]","null","null","1","","","",""
"","html-keyboard-response","256","675346","0.0-137.0-1.0","null","<p></p>","null","","","","","","","","","","","","","","","","","","","","","","","",""
"","do_trial","257","678663","0.0-138.0-0.0","751","","","","","","","","50","0,0,1","6","blank","349","null","0.4848962283304305","0.2124113221453507","0.6050292762526616","0","","","","","","","","",""
"","html-keyboard-response","258","679672","0.0-138.0-1.0","null","<p></p>","null","","","","","","","","","","","","","","","","","","","","","","","",""
"","do_trial","259","682746","0.0-139.0-0.0","512.6000000238419","","","","","","","","51","0,1,0","6","blank","350","null","0.4329302332803196","0.4792000632529322","0.5232081827779199","0","","","","","","","","",""
"","html-keyboard-response","260","683751","0.0-139.0-1.0","null","<p></p>","null","","","","","","","","","","","","","","","","","","","","","","","",""
"","do_trial","261","686796","0.0-140.0-0.0","480.80000001192093","","","","","","","","49","0,0,0","6","blank","351","null","0.3028196087233931","0.4695655266028205","0.3471448750066386","0","","","","","","","","",""
"","html-keyboard-response","262","687801","0.0-140.0-1.0","null","<p></p>","null","","","","","","","","","","","","","","","","","","","","","","","",""
"","do_trial","263","690918","0.0-141.0-0.0","547.2000000178814","","","","","","","","51","1,0,1","6","blank","352","null","0.35847888327633853","0.5583372953216921","0.3131682067133302","1","","","","","","","","",""
"","html-keyboard-response","264","691924","0.0-141.0-1.0","null","<p></p>","null","","","","","","","","","","","","","","","","","","","","","","","",""
"","do_recog","265","695771","0.0-142.0-0.0","2336.7999999821186","","","","","","","","54","","","","353","probe-230","","","","","1","[object Object]","83","2","1","","","",""
"","html-keyboard-response","266","696779","0.0-142.0-1.0","null","<p></p>","null","","","","","","","","","","","","","","","","","","","","","","","",""
"","do_trial","267","700058","0.0-143.0-0.0","712.1999999880791","","","","","","","","51","0,0,0","6","blank","354","null","0.32294039745859054","0.624173855317026","0.21218211236602627","0","","","","","","","","",""
"","html-keyboard-response","268","701064","0.0-143.0-1.0","null","<p></p>","null","","","","","","","","","","","","","","","","","","","","","","","",""
"","do_recog","269","703843","0.0-144.0-0.0","1268.9000000059605","","","","","","","","56","","","","355","probe-144","","","","","1","[object Object]","203","5","0","","","",""
"","html-keyboard-response","270","704848","0.0-144.0-1.0","null","<p></p>","null","","","","","","","","","","","","","","","","","","","","","","","",""
"","do_trial","271","708205","0.0-145.0-0.0","791.5","","","","","","","","49","1,1,1","6","blank","356","null","0.2270639386071725","0.5618355848349035","0.2119625132201927","1","","","","","","","","",""
"","html-keyboard-response","272","709211","0.0-145.0-1.0","null","<p></p>","null","","","","","","","","","","","","","","","","","","","","","","","",""
"","do_recog","273","712211","0.0-146.0-0.0","1485.9000000059605","","","","","","","","56","","","","357","probe-101","","","","","1","[object Object]","129","3","0","","","",""
"","html-keyboard-response","274","713220","0.0-146.0-1.0","null","<p></p>","null","","","","","","","","","","","","","","","","","","","","","","","",""
"","do_trial","275","716822","0.0-147.0-0.0","1038.5999999940395","","","","","","","","50","0,1,0","6","blank","358","null","0.19391825246827618","0.6975443358576231","0.18837414864489663","1","","","","","","","","",""
"","html-keyboard-response","276","717829","0.0-147.0-1.0","null","<p></p>","null","","","","","","","","","","","","","","","","","","","","","","","",""
"","do_recog","277","720497","0.0-148.0-0.0","1157.9000000059605","","","","","","","","53","","","","359","probe-99","","","","","1","[object Object]","163","4","1","","","",""
"","html-keyboard-response","278","721504","0.0-148.0-1.0","null","<p></p>","null","","","","","","","","","","","","","","","","","","","","","","","",""
"","do_trial","279","724753","0.0-149.0-0.0","679.3999999761581","","","","","","","","50","0,1,0","6","blank","360","null","0.14163753519720543","0.626583409867906","0.21452362556438864","1","","","","","","","","",""
"","html-keyboard-response","280","725759","0.0-149.0-1.0","null","<p></p>","null","","","","","","","","","","","","","","","","","","","","","","","",""
"","do_recog","281","728544","0.0-150.0-0.0","1273.7000000178814","","","","","","","","53","","","","361","probe-197","","","","","1","[object Object]","121","3","1","","","",""
"","html-keyboard-response","282","729550","0.0-150.0-1.0","null","<p></p>","null","","","","","","","","","","","","","","","","","","","","","","","",""
"","do_trial","283","732668","0.0-151.0-0.0","546.8000000119209","","","","","","","","51","0,1,1","6","blank","362","null","0.22262871712397916","0.7751483998570787","0.24848822834827997","1","","","","","","","","",""
"","html-keyboard-response","284","733673","0.0-151.0-1.0","null","<p></p>","null","","","","","","","","","","","","","","","","","","","","","","","",""
"","do_trial","285","737368","0.0-152.0-0.0","1132.7000000178814","","","","","","","","51","0,1,0","6","blank","363","null","0.2490083529882368","0.6889482819397431","0.3056907555020513","0","","","","","","","","",""
"","html-keyboard-response","286","738374","0.0-152.0-1.0","null","<p></p>","null","","","","","","","","","","","","","","","","","","","","","","","",""
"","do_trial","287","741295","0.0-153.0-0.0","352.80000001192093","","","","","","","","49","0,1,0","6","blank","364","null","0.11804991241089166","0.6566517436335301","0.21644771211955555","0","","","","","","","","",""
"","html-keyboard-response","288","742304","0.0-153.0-1.0","null","<p></p>","null","","","","","","","","","","","","","","","","","","","","","","","",""
"","do_trial","289","745234","0.0-154.0-0.0","367","","","","","","","","50","0,1,0","6","blank","365","null","0.1359398881940441","0.6123438192181702","0.14443040773195595","1","","","","","","","","",""
"","html-keyboard-response","290","746243","0.0-154.0-1.0","null","<p></p>","null","","","","","","","","","","","","","","","","","","","","","","","",""
"","do_recog","291","749082","0.0-155.0-0.0","1328.800000011921","","","","","","","","53","","","","366","probe-114","","","","","1","[object Object]","128","3","1","","","",""
"","html-keyboard-response","292","750089","0.0-155.0-1.0","null","<p></p>","null","","","","","","","","","","","","","","","","","","","","","","","",""
"","do_trial","293","753501","0.0-156.0-0.0","848.8000000119209","","","","","","","","51","0,0,0","6","blank","367","null","0.1332423609563945","0.6699718238144641","0.2070101983447726","0","","","","","","","","",""
"","html-keyboard-response","294","754509","0.0-156.0-1.0","null","<p></p>","null","","","","","","","","","","","","","","","","","","","","","","","",""
"","do_recog","295","757722","0.0-157.0-0.0","1703.5999999940395","","","","","","","","55","","","","368","probe-248","","","","","0","[object Object]","null","null","1","","","",""
"","html-keyboard-response","296","758725","0.0-157.0-1.0","null","<p></p>","null","","","","","","","","","","","","","","","","","","","","","","","",""
"","do_trial","297","762073","0.0-158.0-0.0","777.4000000059605","","","","","","","","49","0,0,0","6","blank","369","null","0.21267258107942688","0.5891632623661279","0.2893672429655768","0","","","","","","","","",""
"","html-keyboard-response","298","763081","0.0-158.0-1.0","null","<p></p>","null","","","","","","","","","","","","","","","","","","","","","","","",""
"","do_recog","299","766745","0.0-159.0-0.0","2152.5","","","","","","","","55","","","","370","probe-24","","","","","1","[object Object]","167","4","0","","","",""
"","html-keyboard-response","300","767751","0.0-159.0-1.0","null","<p></p>","null","","","","","","","","","","","","","","","","","","","","","","","",""
"","do_trial","301","771980","0.0-160.0-0.0","1666","","","","","","","","51","1,0,0","6","blank","371","null","0.24062890005945697","0.6422269798812228","0.23158725880963096","0","","","","","","","","",""
"","html-keyboard-response","302","772987","0.0-160.0-1.0","null","<p></p>","null","","","","","","","","","","","","","","","","","","","","","","","",""
"","do_trial","303","776538","0.0-161.0-0.0","980.8000000119209","","","","","","","","51","0,0,1","6","blank","372","null","0.2962434191942817","0.6711465881168438","0.4132107351330877","1","","","","","","","","",""
"","html-keyboard-response","304","777547","0.0-161.0-1.0","null","<p></p>","null","","","","","","","","","","","","","","","","","","","","","","","",""
"","do_trial","305","780985","0.0-162.0-0.0","874.7000000178814","","","","","","","","51","0,0,0","6","blank","373","null","0.107400567995207","0.5074511122238947","0.28838862030254503","0","","","","","","","","",""
"","html-keyboard-response","306","781988","0.0-162.0-1.0","null","<p></p>","null","","","","","","","","","","","","","","","","","","","","","","","",""
"","do_trial","307","785331","0.0-163.0-0.0","774.5","","","","","","","","51","0,1,0","6","blank","374","null","0.08405469778886226","0.6985156692896277","0.289779470758828","0","","","","","","","","",""
"","html-keyboard-response","308","786337","0.0-163.0-1.0","null","<p></p>","null","","","","","","","","","","","","","","","","","","","","","","","",""
"","do_trial","309","789980","0.0-164.0-0.0","1078.9000000059605","","","","","","","","51","0,0,1","6","blank","375","null","0.06617477047553845","0.6555523798012999","0.3428717192256673","1","","","","","","","","",""
"","html-keyboard-response","310","790986","0.0-164.0-1.0","null","<p></p>","null","","","","","","","","","","","","","","","","","","","","","","","",""
"","do_trial","311","794011","0.0-165.0-0.0","458.19999998807907","","","","","","","","51","0,1,0","6","blank","376","null","0.06173498814180599","0.6752856957497321","0.2882361861698245","0","","","","","","","","",""
"","html-keyboard-response","312","795017","0.0-165.0-1.0","null","<p></p>","null","","","","","","","","","","","","","","","","","","","","","","","",""
"","do_trial","313","798044","0.0-166.0-0.0","464.89999997615814","","","","","","","","50","0,1,0","6","blank","377","null","0.06905101328566655","0.5967829399440103","0.2557954972293064","1","","","","","","","","",""
"","html-keyboard-response","314","799052","0.0-166.0-1.0","null","<p></p>","null","","","","","","","","","","","","","","","","","","","","","","","",""
"","do_recog","315","802658","0.0-167.0-0.0","2094.9000000059605","","","","","","","","53","","","","378","probe-84","","","","","1","[object Object]","161","4","1","","","",""
"","html-keyboard-response","316","803662","0.0-167.0-1.0","null","<p></p>","null","","","","","","","","","","","","","","","","","","","","","","","",""
"","do_trial","317","806749","0.0-168.0-0.0","522.8000000119209","","","","","","","","50","0,1,1","6","blank","379","null","0.09645550145306787","0.7414412143790547","0.09728970972092203","1","","","","","","","","",""
"","html-keyboard-response","318","807755","0.0-168.0-1.0","null","<p></p>","null","","","","","","","","","","","","","","","","","","","","","","","",""
"","do_trial","319","810944","0.0-169.0-0.0","627.8000000119209","","","","","","","","51","0,1,0","6","blank","380","null","0.08388325226936166","0.7567062898975491","0.11081518060427961","0","","","","","","","","",""
"","html-keyboard-response","320","811951","0.0-169.0-1.0","null","<p></p>","null","","","","","","","","","","","","","","","","","","","","","","","",""
"","do_trial","321","814819","0.0-170.0-0.0","305.80000001192093","","","","","","","","50","0,1,0","6","blank","381","null","0.07315965212853448","0.6754988170900929","0.16582238810503483","1","","","","","","","","",""
"","html-keyboard-response","322","815827","0.0-170.0-1.0","null","<p></p>","null","","","","","","","","","","","","","","","","","","","","","","","",""
"","do_trial","323","819212","0.0-171.0-0.0","818.6999999880791","","","","","","","","50","0,1,0","6","blank","382","null","0.05250235595752761","0.8772721812653691","0.15189825140772734","1","","","","","","","","",""
"","html-keyboard-response","324","820214","0.0-171.0-1.0","null","<p></p>","null","","","","","","","","","","","","","","","","","","","","","","","",""
"","do_trial","325","823323","0.0-172.0-0.0","543.0999999940395","","","","","","","","51","0,1,0","6","blank","383","null","0.13009702948397556","0.7636405857512041","0.1629303824981451","0","","","","","","","","",""
"","html-keyboard-response","326","824329","0.0-172.0-1.0","null","<p></p>","null","","","","","","","","","","","","","","","","","","","","","","","",""
"","do_recog","327","827498","0.0-173.0-0.0","1654.5999999940395","","","","","","","","55","","","","384","probe-171","","","","","1","[object Object]","46","1","0","","","",""
"","html-keyboard-response","328","828508","0.0-173.0-1.0","null","<p></p>","null","","","","","","","","","","","","","","","","","","","","","","","",""
"","do_trial","329","832750","0.0-174.0-0.0","1671.5999999940395","","","","","","","","51","0,1,0","6","blank","385","null","0.23285710386382502","0.6198669176431196","0.2681719018653571","0","","","","","","","","",""
"","html-keyboard-response","330","833756","0.0-174.0-1.0","null","<p></p>","null","","","","","","","","","","","","","","","","","","","","","","","",""
"","do_recog","331","836734","0.0-175.0-0.0","1467.2999999821186","","","","","","","","55","","","","386","probe-187","","","","","1","[object Object]","205","5","0","","","",""
"","html-keyboard-response","332","837743","0.0-175.0-1.0","null","<p></p>","null","","","","","","","","","","","","","","","","","","","","","","","",""
"","do_trial","333","840835","0.0-176.0-0.0","526.5","","","","","","","","50","0,1,0","6","blank","387","null","0.1864174856093321","0.6753009345496386","0.2806029215228396","1","","","","","","","","",""
"","html-keyboard-response","334","841842","0.0-176.0-1.0","null","<p></p>","null","","","","","","","","","","","","","","","","","","","","","","","",""
"","do_recog","335","844787","0.0-177.0-0.0","1428.199999988079","","","","","","","","53","","","","388","probe-188","","","","","1","[object Object]","124","3","1","","","",""
"","html-keyboard-response","336","845795","0.0-177.0-1.0","null","<p></p>","null","","","","","","","","","","","","","","","","","","","","","","","",""
"","do_trial","337","848979","0.0-178.0-0.0","619","","","","","","","","51","0,1,1","6","blank","389","null","0.35581210099545735","0.6385356631850941","0.2451892151473503","1","","","","","","","","",""
"","html-keyboard-response","338","849985","0.0-178.0-1.0","null","<p></p>","null","","","","","","","","","","","","","","","","","","","","","","","",""
"","do_trial","339","853198","0.0-179.0-0.0","644.5","","","","","","","","51","0,1,0","6","blank","390","null","0.09708691602701114","0.6833318717672953","0.35417782225024896","0","","","","","","","","",""
"","html-keyboard-response","340","854202","0.0-179.0-1.0","null","<p></p>","null","","","","","","","","","","","","","","","","","","","","","","","",""
"","do_trial","341","857234","0.0-180.0-0.0","463.90000000596046","","","","","","","","51","0,1,0","6","blank","391","null","0.06009312662510618","0.7923660363425659","0.27799855338022517","0","","","","","","","","",""
"","html-keyboard-response","342","858240","0.0-180.0-1.0","null","<p></p>","null","","","","","","","","","","","","","","","","","","","","","","","",""
"","do_trial","343","861297","0.0-181.0-0.0","488.59999999403954","","","","","","","","51","0,1,0","6","blank","392","null","0.08569915879257003","0.7342106455289014","0.22364622753113167","0","","","","","","","","",""
"","html-keyboard-response","344","862306","0.0-181.0-1.0","null","<p></p>","null","","","","","","","","","","","","","","","","","","","","","","","",""
"","do_recog","345","864790","0.0-182.0-0.0","975.3999999761581","","","","","","","","53","","","","393","probe-159","","","","","1","[object Object]","47","1","1","","","",""
"","html-keyboard-response","346","865796","0.0-182.0-1.0","null","<p></p>","null","","","","","","","","","","","","","","","","","","","","","","","",""
"","do_trial","347","869097","0.0-183.0-0.0","729","","","","","","","","50","0,1,0","6","blank","394","null","0.08589074356154384","0.6886392888833044","0.15133786611945468","1","","","","","","","","",""
"","html-keyboard-response","348","870105","0.0-183.0-1.0","null","<p></p>","null","","","","","","","","","","","","","","","","","","","","","","","",""
"","do_trial","349","873342","0.0-184.0-0.0","660.3000000119209","","","","","","","","50","0,0,0","6","blank","395","null","0.14040422789026855","0.5991001346469975","0.172370076240992","0","","","","","","","","",""
"","html-keyboard-response","350","874351","0.0-184.0-1.0","null","<p></p>","null","","","","","","","","","","","","","","","","","","","","","","","",""
"","do_trial","351","877248","0.0-185.0-0.0","333","","","","","","","","49","0,1,0","6","blank","396","null","0.06792017662696878","0.6525806233211293","0.17794181776453805","0","","","","","","","","",""
"","html-keyboard-response","352","878255","0.0-185.0-1.0","null","<p></p>","null","","","","","","","","","","","","","","","","","","","","","","","",""
"","do_trial","353","881379","0.0-186.0-0.0","555","","","","","","","","51","0,0,1","6","blank","397","null","0.08166129296092627","0.6523375933516306","0.2607351701354558","1","","","","","","","","",""
"","html-keyboard-response","354","882385","0.0-186.0-1.0","null","<p></p>","null","","","","","","","","","","","","","","","","","","","","","","","",""
"","do_trial","355","885825","0.0-187.0-0.0","878.9000000059605","","","","","","","","49","0,1,0","6","blank","398","null","0.13452012324057883","0.6358125382906237","0.351676473454244","0","","","","","","","","",""
"","html-keyboard-response","356","886831","0.0-187.0-1.0","null","<p></p>","null","","","","","","","","","","","","","","","","","","","","","","","",""
"","do_recog","357","889716","0.0-188.0-0.0","1370.0999999940395","","","","","","","","53","","","","399","probe-118","","","","","1","[object Object]","162","4","1","","","",""
"","html-keyboard-response","358","890719","0.0-188.0-1.0","null","<p></p>","null","","","","","","","","","","","","","","","","","","","","","","","",""
"","do_trial","359","893901","0.0-189.0-0.0","613.2000000178814","","","","","","","","51","0,1,0","6","blank","400","null","0.12288389929085718","0.6944440515001011","0.29527033573302314","0","","","","","","","","",""
"","html-keyboard-response","360","894905","0.0-189.0-1.0","null","<p></p>","null","","","","","","","","","","","","","","","","","","","","","","","",""
"","do_trial","361","897970","0.0-190.0-0.0","502.19999998807907","","","","","","","","49","0,1,0","6","blank","401","null","0.17710716034106633","0.6853149933886291","0.09889161634137217","0","","","","","","","","",""
"","html-keyboard-response","362","898976","0.0-190.0-1.0","null","<p></p>","null","","","","","","","","","","","","","","","","","","","","","","","",""
"","do_trial","363","901969","0.0-191.0-0.0","424.40000000596046","","","","","","","","50","0,1,0","6","blank","402","null","0.173479340370541","0.5921468280072902","0.10939109329042043","1","","","","","","","","",""
"","html-keyboard-response","364","902978","0.0-191.0-1.0","null","<p></p>","null","","","","","","","","","","","","","","","","","","","","","","","",""
"","do_trial","365","905845","0.0-192.0-0.0","297.2000000178814","","","","","","","","50","1,1,0","6","blank","403","null","0.13196156695786915","0.4789683343311028","0.0725775574497159","1","","","","","","","","",""
"","html-keyboard-response","366","906853","0.0-192.0-1.0","null","<p></p>","null","","","","","","","","","","","","","","","","","","","","","","","",""
"","do_trial","367","909793","0.0-193.0-0.0","373.19999998807907","","","","","","","","50","0,0,0","6","blank","404","null","0.2705914065977004","0.411501719611211","0.2941019418040217","0","","","","","","","","",""
"","html-keyboard-response","368","910799","0.0-193.0-1.0","null","<p></p>","null","","","","","","","","","","","","","","","","","","","","","","","",""
"","do_recog","369","913592","0.0-194.0-0.0","1278","","","","","","","","53","","","","405","probe-223","","","","","1","[object Object]","43","1","1","","","",""
"","html-keyboard-response","370","914600","0.0-194.0-1.0","null","<p></p>","null","","","","","","","","","","","","","","","","","","","","","","","",""
"","do_trial","371","917711","0.0-195.0-0.0","545.5","","","","","","","","51","0,0,1","6","blank","406","null","0.13781482875532583","0.48419331000119803","0.4306683009496567","1","","","","","","","","",""
"","html-keyboard-response","372","918720","0.0-195.0-1.0","null","<p></p>","null","","","","","","","","","","","","","","","","","","","","","","","",""
"","do_trial","373","922282","0.0-196.0-0.0","997.7000000178814","","","","","","","","51","0,1,0","6","blank","407","null","0.14456985186535165","0.36032715690678435","0.4621350641338657","0","","","","","","","","",""
"","html-keyboard-response","374","923285","0.0-196.0-1.0","null","<p></p>","null","","","","","","","","","","","","","","","","","","","","","","","",""
"","do_trial","375","926397","0.0-197.0-0.0","548.9000000059605","","","","","","","","50","0,0,1","6","blank","408","null","0.23195105215824","0.29414854857700784","0.5074484317716521","0","","","","","","","","",""
"","html-keyboard-response","376","927403","0.0-197.0-1.0","null","<p></p>","null","","","","","","","","","","","","","","","","","","","","","","","",""
"","do_trial","377","930413","0.0-198.0-0.0","441","","","","","","","","49","0,0,1","6","blank","409","null","0.1816338454453858","0.2112190735625945","0.666466560234478","0","","","","","","","","",""
"","html-keyboard-response","378","931420","0.0-198.0-1.0","null","<p></p>","null","","","","","","","","","","","","","","","","","","","","","","","",""
"","do_trial","379","934790","0.0-199.0-0.0","803.9000000059605","","","","","","","","50","0,0,1","6","blank","410","null","0.12057362494614966","0.143297482584209","0.6541105799974377","0","","","","","","","","",""
"","html-keyboard-response","380","935797","0.0-199.0-1.0","null","<p></p>","null","","","","","","","","","","","","","","","","","","","","","","","",""
"","do_trial","381","938914","0.0-200.0-0.0","547.7999999821186","","","","","","","","51","0,0,0","6","blank","411","null","0.06988799959243217","0.37260261313821885","0.6135753678027086","0","","","","","","","","",""
"","html-keyboard-response","382","939918","0.0-200.0-1.0","null","<p></p>","null","","","","","","","","","","","","","","","","","","","","","","","",""
"","do_recog","383","942474","0.0-201.0-0.0","1045.699999988079","","","","","","","","53","","","","412","probe-73","","","","","1","[object Object]","201","5","1","","","",""
"","html-keyboard-response","384","943482","0.0-201.0-1.0","null","<p></p>","null","","","","","","","","","","","","","","","","","","","","","","","",""
"","do_trial","385","946483","0.0-202.0-0.0","433.80000001192093","","","","","","","","51","0,0,0","6","blank","413","null","0.13559321592010815","0.290422677809456","0.6584433282459172","0","","","","","","","","",""
"","html-keyboard-response","386","947489","0.0-202.0-1.0","null","<p></p>","null","","","","","","","","","","","","","","","","","","","","","","","",""
"","do_recog","387","951866","0.0-203.0-0.0","2860.7999999821186","","","","","","","","55","","","","414","probe-132","","","","","1","[object Object]","168","4","0","","","",""
"","html-keyboard-response","388","952872","0.0-203.0-1.0","null","<p></p>","null","","","","","","","","","","","","","","","","","","","","","","","",""
"","do_trial","389","956608","0.0-204.0-0.0","1167.2999999821186","","","","","","","","51","0,1,0","6","blank","415","null","0.11805896163933832","0.18876166377481235","0.48884577489906533","0","","","","","","","","",""
"","html-keyboard-response","390","957616","0.0-204.0-1.0","null","<p></p>","null","","","","","","","","","","","","","","","","","","","","","","","",""
"","do_trial","391","961498","0.0-205.0-0.0","1312","","","","","","","","51","0,1,1","6","blank","416","null","0.19224119246114169","0.16606351037303385","0.5440993665681574","1","","","","","","","","",""
"","html-keyboard-response","392","962504","0.0-205.0-1.0","null","<p></p>","null","","","","","","","","","","","","","","","","","","","","","","","",""
"","do_recog","393","964608","0.0-206.0-0.0","587.5999999940395","","","","","","","","54","","","","417","probe-43","","","","","1","[object Object]","166","4","1","","","",""
"","html-keyboard-response","394","965616","0.0-206.0-1.0","null","<p></p>","null","","","","","","","","","","","","","","","","","","","","","","","",""
"","do_trial","395","968770","0.0-207.0-0.0","585.5","","","","","","","","51","0,0,1","6","blank","418","null","0.31967070915627704","0.1454463443215613","0.734881077874405","1","","","","","","","","",""
"","html-keyboard-response","396","969776","0.0-207.0-1.0","null","<p></p>","null","","","","","","","","","","","","","","","","","","","","","","","",""
"","do_trial","397","972847","0.0-208.0-0.0","502.7999999821186","","","","","","","","51","0,0,0","6","blank","419","null","0.29787277704727966","0.18106727137301795","0.575828121434281","0","","","","","","","","",""
"","html-keyboard-response","398","973852","0.0-208.0-1.0","null","<p></p>","null","","","","","","","","","","","","","","","","","","","","","","","",""
"","do_trial","399","977268","0.0-209.0-0.0","851.7999999821186","","","","","","","","51","1,0,1","6","blank","420","null","0.31756733430826034","0.22388147526245064","0.6345900233425522","1","","","","","","","","",""
"","html-keyboard-response","400","978273","0.0-209.0-1.0","null","<p></p>","null","","","","","","","","","","","","","","","","","","","","","","","",""
"","do_recog","401","981508","0.0-210.0-0.0","1720.800000011921","","","","","","","","53","","","","421","probe-225","","","","","1","[object Object]","45","1","1","","","",""
"","html-keyboard-response","402","982514","0.0-210.0-1.0","null","<p></p>","null","","","","","","","","","","","","","","","","","","","","","","","",""
"","do_trial","403","985675","0.0-211.0-0.0","595","","","","","","","","51","0,0,0","6","blank","422","null","0.11680396171496035","0.16316921885126648","0.6343792763668483","0","","","","","","","","",""
"","html-keyboard-response","404","986680","0.0-211.0-1.0","null","<p></p>","null","","","","","","","","","","","","","","","","","","","","","","","",""
"","do_trial","405","989750","0.0-212.0-0.0","507.40000000596046","","","","","","","","51","0,0,1","6","blank","423","null","0.10911130224419237","0.22224047528393936","0.5444750596779188","1","","","","","","","","",""
"","html-keyboard-response","406","990758","0.0-212.0-1.0","null","<p></p>","null","","","","","","","","","","","","","","","","","","","","","","","",""
"","do_trial","407","993942","0.0-213.0-0.0","620.4000000059605","","","","","","","","51","0,0,0","6","blank","424","null","0.07315467995831963","0.2750772486748091","0.6100971430904116","0","","","","","","","","",""
"","html-keyboard-response","408","994951","0.0-213.0-1.0","null","<p></p>","null","","","","","","","","","","","","","","","","","","","","","","","",""
"","do_recog","409","1000972","0.0-214.0-0.0","null","","","","","","","","null","","","","425","probe-49","","","","","1","[object Object]","202","5","0","","","",""
"","html-keyboard-response","410","1001980","0.0-214.0-1.0","null","<p></p>","null","","","","","","","","","","","","","","","","","","","","","","","",""
"","do_trial","411","1005170","0.0-215.0-0.0","623.4000000059605","","","","","","","","51","0,0,1","6","blank","426","null","0.14782681313910995","0.28727943965373276","0.5978591868203641","1","","","","","","","","",""
"","html-keyboard-response","412","1006175","0.0-215.0-1.0","null","<p></p>","null","","","","","","","","","","","","","","","","","","","","","","","",""
"","do_trial","413","1009424","0.0-216.0-0.0","678.8999999761581","","","","","","","","51","0,0,1","6","blank","427","null","0.0658761554833342","0.4363342739995328","0.604521318218858","1","","","","","","","","",""
"","html-keyboard-response","414","1010430","0.0-216.0-1.0","null","<p></p>","null","","","","","","","","","","","","","","","","","","","","","","","",""
"","do_trial","415","1013611","0.0-217.0-0.0","620.2999999821186","","","","","","","","51","0,1,1","6","blank","428","null","0.06118776549032259","0.42786614074485857","0.6824858570598434","1","","","","","","","","",""
"","html-keyboard-response","416","1014619","0.0-217.0-1.0","null","<p></p>","null","","","","","","","","","","","","","","","","","","","","","","","",""
"","do_recog","417","1017272","0.0-218.0-0.0","1140.9000000059605","","","","","","","","53","","","","429","probe-80","","","","","1","[object Object]","120","3","1","","","",""
"","html-keyboard-response","418","1018279","0.0-218.0-1.0","null","<p></p>","null","","","","","","","","","","","","","","","","","","","","","","","",""
"","do_trial","419","1021735","0.0-219.0-0.0","888.7999999821186","","","","","","","","50","0,0,1","6","blank","430","null","0.12127285467464603","0.34093715929717894","0.7118872730554007","0","","","","","","","","",""
"","html-keyboard-response","420","1022743","0.0-219.0-1.0","null","<p></p>","null","","","","","","","","","","","","","","","","","","","","","","","",""
"","do_trial","421","1025944","0.0-220.0-0.0","629.6999999880791","","","","","","","","51","0,0,0","6","blank","431","null","0.1267341177489038","0.33975399680439056","0.817884316731213","0","","","","","","","","",""
"","html-keyboard-response","422","1026953","0.0-220.0-1.0","null","<p></p>","null","","","","","","","","","","","","","","","","","","","","","","","",""
"","do_trial","423","1030150","0.0-221.0-0.0","628.0999999940395","","","","","","","","49","0,1,1","6","blank","432","null","0.16348813747034502","0.3630087691529533","0.6664065898937557","0","","","","","","","","",""
"","html-keyboard-response","424","1031159","0.0-221.0-1.0","null","<p></p>","null","","","","","","","","","","","","","","","","","","","","","","","",""
"","do_trial","425","1034464","0.0-222.0-0.0","737.2999999821186","","","","","","","","50","0,0,1","6","blank","433","null","0.17112030794283928","0.39555579751120995","0.520902817501496","0","","","","","","","","",""
"","html-keyboard-response","426","1035473","0.0-222.0-1.0","null","<p></p>","null","","","","","","","","","","","","","","","","","","","","","","","",""
"","do_recog","427","1038716","0.0-223.0-0.0","1734","","","","","","","","53","","","","434","probe-209","","","","","1","[object Object]","165","4","1","","","",""
"","html-keyboard-response","428","1039723","0.0-223.0-1.0","null","<p></p>","null","","","","","","","","","","","","","","","","","","","","","","","",""
"","do_trial","429","1043271","0.0-224.0-0.0","982.5","","","","","","","","51","0,1,1","6","blank","435","null","0.2279871725315744","0.3747978435997735","0.5089076655462267","1","","","","","","","","",""
"","html-keyboard-response","430","1044277","0.0-224.0-1.0","null","<p></p>","null","","","","","","","","","","","","","","","","","","","","","","","",""
"","do_recog","431","1050290","0.0-225.0-0.0","null","","","","","","","","null","","","","436","probe-108","","","","","1","[object Object]","81","2","0","","","",""
"","html-keyboard-response","432","1051296","0.0-225.0-1.0","null","<p></p>","null","","","","","","","","","","","","","","","","","","","","","","","",""
"","do_trial","433","1054445","0.0-226.0-0.0","585.3000000119209","","","","","","","","51","0,1,1","6","blank","437","null","0.068168234866756","0.3115777939092864","0.48511536594601445","1","","","","","","","","",""
"","html-keyboard-response","434","1055450","0.0-226.0-1.0","null","<p></p>","null","","","","","","","","","","","","","","","","","","","","","","","",""
"","do_trial","435","1058618","0.0-227.0-0.0","601.4000000059605","","","","","","","","51","0,0,1","6","blank","438","null","0.09282818814975752","0.3974573779496055","0.4881891613025544","1","","","","","","","","",""
"","html-keyboard-response","436","1059624","0.0-227.0-1.0","null","<p></p>","null","","","","","","","","","","","","","","","","","","","","","","","",""
"","do_trial","437","1062652","0.0-228.0-0.0","461.7999999821186","","","","","","","","51","0,1,0","6","blank","439","null","0.2942668053650984","0.4533397012056487","0.5334178950771947","0","","","","","","","","",""
"","html-keyboard-response","438","1063659","0.0-228.0-1.0","null","<p></p>","null","","","","","","","","","","","","","","","","","","","","","","","",""
"","do_trial","439","1066574","0.0-229.0-0.0","344.80000001192093","","","","","","","","50","0,0,1","6","blank","440","null","0.12184993522194276","0.39747016305167926","0.5575844664808314","0","","","","","","","","",""
"","html-keyboard-response","440","1067580","0.0-229.0-1.0","null","<p></p>","null","","","","","","","","","","","","","","","","","","","","","","","",""
"","do_trial","441","1070860","0.0-230.0-0.0","713.5","","","","","","","","51","0,0,0","6","blank","441","null","0.10677972887311094","0.248971113471721","0.6109959925304305","0","","","","","","","","",""
"","html-keyboard-response","442","1071870","0.0-230.0-1.0","null","<p></p>","null","","","","","","","","","","","","","","","","","","","","","","","",""
"","do_trial","443","1075113","0.0-231.0-0.0","677.9000000059605","","","","","","","","50","0,0,0","6","blank","442","null","0.06872586662395358","0.09493530238745773","0.4609939544692658","0","","","","","","","","",""
"","html-keyboard-response","444","1076120","0.0-231.0-1.0","null","<p></p>","null","","","","","","","","","","","","","","","","","","","","","","","",""
"","do_trial","445","1079179","0.0-232.0-0.0","486.7999999821186","","","","","","","","51","0,1,1","6","blank","443","null","0.05755077210157869","0.2819850167329791","0.6034137343702043","1","","","","","","","","",""
"","html-keyboard-response","446","1080186","0.0-232.0-1.0","null","<p></p>","null","","","","","","","","","","","","","","","","","","","","","","","",""
"","do_recog","447","1083672","0.0-233.0-0.0","1973.699999988079","","","","","","","","53","","","","444","probe-127","","","","","1","[object Object]","48","1","1","","","",""
"","html-keyboard-response","448","1084680","0.0-233.0-1.0","null","<p></p>","null","","","","","","","","","","","","","","","","","","","","","","","",""
"","do_trial","449","1088217","0.0-234.0-0.0","973.5","","","","","","","","51","0,1,0","6","blank","445","null","0.12308702733599933","0.25776694397943284","0.5854812545036674","0","","","","","","","","",""
"","html-keyboard-response","450","1089223","0.0-234.0-1.0","null","<p></p>","null","","","","","","","","","","","","","","","","","","","","","","","",""
"","do_recog","451","1091801","0.0-235.0-0.0","1063.7999999821186","","","","","","","","53","","","","446","probe-74","","","","","1","[object Object]","207","5","1","","","",""
"","html-keyboard-response","452","1092808","0.0-235.0-1.0","null","<p></p>","null","","","","","","","","","","","","","","","","","","","","","","","",""
"","do_trial","453","1095915","0.0-236.0-0.0","538.2000000178814","","","","","","","","51","0,0,0","6","blank","447","null","0.12177613179643022","0.1410039629250236","0.5153278644750374","0","","","","","","","","",""
"","html-keyboard-response","454","1096924","0.0-236.0-1.0","null","<p></p>","null","","","","","","","","","","","","","","","","","","","","","","","",""
"","do_recog","455","1100262","0.0-237.0-0.0","1823.3999999761581","","","","","","","","53","","","","448","probe-79","","","","","1","[object Object]","40","1","1","","","",""
"","html-keyboard-response","456","1101269","0.0-237.0-1.0","null","<p></p>","null","","","","","","","","","","","","","","","","","","","","","","","",""
"","do_trial","457","1104696","0.0-238.0-0.0","862.3000000119209","","","","","","","","51","0,0,0","6","blank","449","null","0.054046056138877446","0.14711950131057833","0.3906752086698668","0","","","","","","","","",""
"","html-keyboard-response","458","1105701","0.0-238.0-1.0","null","<p></p>","null","","","","","","","","","","","","","","","","","","","","","","","",""
"","do_trial","459","1108950","0.0-239.0-0.0","677.2000000178814","","","","","","","","51","0,0,1","6","blank","450","null","0.05781527418932555","0.21386071281909957","0.6218192278565096","1","","","","","","","","",""
"","html-keyboard-response","460","1109959","0.0-239.0-1.0","null","<p></p>","null","","","","","","","","","","","","","","","","","","","","","","","",""
"","do_trial","461","1113355","0.0-240.0-0.0","827.1000000238419","","","","","","","","51","0,1,1","6","blank","451","null","0.06828628162618176","0.2391926218802101","0.5924070502670857","1","","","","","","","","",""
"","html-keyboard-response","462","1114357","0.0-240.0-1.0","null","<p></p>","null","","","","","","","","","","","","","","","","","","","","","","","",""
"","do_trial","463","1117966","0.0-241.0-0.0","1038.300000011921","","","","","","","","51","0,0,1","6","blank","452","null","0.12933139636643984","0.227521293674349","0.694894489331059","1","","","","","","","","",""
"","html-keyboard-response","464","1118971","0.0-241.0-1.0","null","<p></p>","null","","","","","","","","","","","","","","","","","","","","","","","",""
"","do_trial","465","1123004","0.0-242.0-0.0","1463","","","","","","","","51","0,0,1","6","blank","453","null","0.13523575924069223","0.26148078997071633","0.7159119171021125","1","","","","","","","","",""
"","html-keyboard-response","466","1124012","0.0-242.0-1.0","null","<p></p>","null","","","","","","","","","","","","","","","","","","","","","","","",""
"","do_trial","467","1127231","0.0-243.0-0.0","655.1999999880791","","","","","","","","51","0,0,1","6","blank","454","null","0.07957082367871228","0.1687923538265369","0.7491462711418917","1","","","","","","","","",""
"","html-keyboard-response","468","1128237","0.0-243.0-1.0","null","<p></p>","null","","","","","","","","","","","","","","","","","","","","","","","",""
"","do_trial","469","1131424","0.0-244.0-0.0","620.2999999821186","","","","","","","","51","0,1,1","6","blank","455","null","0.06325136002084579","0.1581250671193149","0.6836454984078509","1","","","","","","","","",""
"","html-keyboard-response","470","1132431","0.0-244.0-1.0","null","<p></p>","null","","","","","","","","","","","","","","","","","","","","","","","",""
"","do_recog","471","1135225","0.0-245.0-0.0","1279.699999988079","","","","","","","","53","","","","456","probe-212","","","","","1","[object Object]","41","1","1","","","",""
"","html-keyboard-response","472","1136234","0.0-245.0-1.0","null","<p></p>","null","","","","","","","","","","","","","","","","","","","","","","","",""
"","do_trial","473","1139342","0.0-246.0-0.0","544.5","","","","","","","","51","0,0,1","6","blank","457","null","0.14311080832368864","0.06060612012318989","0.5117989038950825","1","","","","","","","","",""
"","html-keyboard-response","474","1140349","0.0-246.0-1.0","null","<p></p>","null","","","","","","","","","","","","","","","","","","","","","","","",""
"","do_trial","475","1143277","0.0-247.0-0.0","363.09999999403954","","","","","","","","51","1,0,0","6","blank","458","null","0.3658308573060082","0.19785901461559072","0.39774948657671766","0","","","","","","","","",""
"","html-keyboard-response","476","1144286","0.0-247.0-1.0","null","<p></p>","null","","","","","","","","","","","","","","","","","","","","","","","",""
"","do_trial","477","1147973","0.0-248.0-0.0","1124.7999999821186","","","","","","","","51","1,0,1","6","blank","459","null","0.537990086857924","0.29484980489893536","0.29058253420610675","1","","","","","","","","",""
"","html-keyboard-response","478","1148980","0.0-248.0-1.0","null","<p></p>","null","","","","","","","","","","","","","","","","","","","","","","","",""
"","do_trial","479","1151906","0.0-249.0-0.0","357.59999999403954","","","","","","","","51","1,0,1","6","blank","460","null","0.4867830045070373","0.17305689940760072","0.42709427462485544","1","","","","","","","","",""
"","html-keyboard-response","480","1152914","0.0-249.0-1.0","null","<p></p>","null","","","","","","","","","","","","","","","","","","","","","","","",""
"","do_trial","481","1156322","0.0-250.0-0.0","840.6999999880791","","","","","","","","51","0,0,0","6","blank","461","null","0.627327926025284","0.17046430795571568","0.24958023589866307","0","","","","","","","","",""
"","html-keyboard-response","482","1157329","0.0-250.0-1.0","null","<p></p>","null","","","","","","","","","","","","","","","","","","","","","","","",""
"","do_recog","483","1161458","0.0-251.0-0.0","2618.7000000178814","","","","","","","","54","","","","462","probe-244","","","","","0","[object Object]","null","null","0","","","",""
"","html-keyboard-response","484","1162465","0.0-251.0-1.0","null","<p></p>","null","","","","","","","","","","","","","","","","","","","","","","","",""
"","do_trial","485","1165822","0.0-252.0-0.0","790.3000000119209","","","","","","","","51","1,0,0","6","blank","463","null","0.6152941598463836","0.13522623142779175","0.1494474785882442","0","","","","","","","","",""
"","html-keyboard-response","486","1166830","0.0-252.0-1.0","null","<p></p>","null","","","","","","","","","","","","","","","","","","","","","","","",""
"","do_recog","487","1169007","0.0-253.0-0.0","667.2999999821186","","","","","","","","53","","","","464","probe-249","","","","","0","[object Object]","null","null","0","","","",""
"","html-keyboard-response","488","1170010","0.0-253.0-1.0","null","<p></p>","null","","","","","","","","","","","","","","","","","","","","","","","",""
"","do_trial","489","1173241","0.0-254.0-0.0","664","","","","","","","","51","1,0,0","6","blank","465","null","0.5283588182551264","0.13295521909550861","0.09391735174581872","0","","","","","","","","",""
"","html-keyboard-response","490","1174246","0.0-254.0-1.0","null","<p></p>","null","","","","","","","","","","","","","","","","","","","","","","","",""
"","do_trial","491","1180318","0.0-255.0-0.0","null","","","","","","","","null","1,1,1","6","blank","466","null","0.6265490898183974","0.055924740941095674","0.34975964289426187","","","","","","","","","",""
"","html-keyboard-response","492","1181325","0.0-255.0-1.0","null","<p></p>","null","","","","","","","","","","","","","","","","","","","","","","","",""
"","do_trial","493","1184427","0.0-256.0-0.0","535","","","","","","","","51","1,0,0","6","blank","467","null","0.5072456910690258","0.088175828031121","0.36196641563704746","0","","","","","","","","",""
"","html-keyboard-response","494","1185435","0.0-256.0-1.0","null","<p></p>","null","","","","","","","","","","","","","","","","","","","","","","","",""
"","do_recog","495","1188989","0.0-257.0-0.0","2044.9000000059605","","","","","","","","55","","","","468","probe-239","","","","","0","[object Object]","null","null","1","","","",""
"","html-keyboard-response","496","1189995","0.0-257.0-1.0","null","<p></p>","null","","","","","","","","","","","","","","","","","","","","","","","",""
"","do_trial","497","1195444","0.0-258.0-0.0","2884.4000000059605","","","","","","","","51","0,0,0","6","blank","469","null","0.47735895739266904","0.1572140004460783","0.20033806954103056","0","","","","","","","","",""
"","html-keyboard-response","498","1196450","0.0-258.0-1.0","null","<p></p>","null","","","","","","","","","","","","","","","","","","","","","","","",""
"","do_trial","499","1199604","0.0-259.0-0.0","585.7000000178814","","","","","","","","51","0,0,0","6","blank","470","null","0.5456590884380306","0.05706726188896269","0.18799310381254125","0","","","","","","","","",""
"","html-keyboard-response","500","1200612","0.0-259.0-1.0","null","<p></p>","null","","","","","","","","","","","","","","","","","","","","","","","",""
"","do_trial","501","1203927","0.0-260.0-0.0","746.5","","","","","","","","51","1,0,0","6","blank","471","null","0.5699104474937634","0.10855716193487429","0.324602930659022","0","","","","","","","","",""
"","html-keyboard-response","502","1204935","0.0-260.0-1.0","null","<p></p>","null","","","","","","","","","","","","","","","","","","","","","","","",""
"","do_trial","503","1208035","0.0-261.0-0.0","523.1000000238419","","","","","","","","51","1,1,0","6","blank","472","null","0.6739576970618809","0.14139978780520687","0.3959482122033405","0","","","","","","","","",""
"","html-keyboard-response","504","1209044","0.0-261.0-1.0","null","<p></p>","null","","","","","","","","","","","","","","","","","","","","","","","",""
"","do_trial","505","1212588","0.0-262.0-0.0","982.4000000059605","","","","","","","","51","0,0,0","6","blank","473","null","0.6138825378421482","0.07561551917692226","0.469862158491172","0","","","","","","","","",""
"","html-keyboard-response","506","1213597","0.0-262.0-1.0","null","<p></p>","null","","","","","","","","","","","","","","","","","","","","","","","",""
"","do_recog","507","1216765","0.0-263.0-0.0","1652","","","","","","","","55","","","","474","probe-232","","","","","0","[object Object]","null","null","1","","","",""
"","html-keyboard-response","508","1217771","0.0-263.0-1.0","null","<p></p>","null","","","","","","","","","","","","","","","","","","","","","","","",""
"","do_trial","509","1221000","0.0-264.0-0.0","662.4000000059605","","","","","","","","51","1,1,0","6","blank","475","null","0.6248887258998195","0.22652358982772938","0.3572540027740545","0","","","","","","","","",""
"","html-keyboard-response","510","1222009","0.0-264.0-1.0","null","<p></p>","null","","","","","","","","","","","","","","","","","","","","","","","",""
"","do_trial","511","1225845","0.0-265.0-0.0","1274.699999988079","","","","","","","","51","1,1,1","6","blank","476","null","0.6641939899929625","0.1408077533669798","0.46909679831582646","1","","","","","","","","",""
"","html-keyboard-response","512","1226851","0.0-265.0-1.0","null","<p></p>","null","","","","","","","","","","","","","","","","","","","","","","","",""
"","do_trial","513","1229749","0.0-266.0-0.0","325.7999999821186","","","","","","","","51","1,0,0","6","blank","477","null","0.6801802703716666","0.11963775160369787","0.3569832035396325","0","","","","","","","","",""
"","html-keyboard-response","514","1230754","0.0-266.0-1.0","null","<p></p>","null","","","","","","","","","","","","","","","","","","","","","","","",""
