"success","trial_type","trial_index","time_elapsed","internal_node_id","interactions","blur_events","focus_events","fullscreenenter_events","fullscreenexit_events","rt","stimulus","key_press","subject_id","participant_id","age","gender","prompt","response","choice_outcomes","context_n","context_img_id","trial_n","probe_img_id","pR_red","pR_white","pR_black","outcome","is_valid","image_to_show","probed_trial","probed_context","correct","probe","probed_trial_n","probed_context_n","context_im"
"true","fullscreen","0","5679","0.0-0.0","""event"",""trial"",""time""
""blur"",""0"",""0""
""focus"",""0"",""0""
""blur"",""0"",""1808""
""focus"",""0"",""3510""
""fullscreenenter"",""0"",""4743""
","""event"",""trial"",""time""
""blur"",""0"",""0""
""blur"",""0"",""1808""
","""event"",""trial"",""time""
""focus"",""0"",""0""
""focus"",""0"",""3510""
","""event"",""trial"",""time""
""fullscreenenter"",""0"",""4743""
","
","","","","","","","","","","","","","","","","","","","","","","","","","","",""
"","pavlovia","1","5685","0.0-1.0","""event"",""trial"",""time""
""blur"",""0"",""0""
""focus"",""0"",""0""
""blur"",""0"",""1808""
""focus"",""0"",""3510""
""fullscreenenter"",""0"",""4743""
""fullscreenexit"",""2"",""6054""
""blur"",""2"",""7513""
""focus"",""2"",""10533""
""blur"",""2"",""12550""
","""event"",""trial"",""time""
""blur"",""0"",""0""
""blur"",""0"",""1808""
""blur"",""2"",""7513""
""blur"",""2"",""12550""
","""event"",""trial"",""time""
""focus"",""0"",""0""
""focus"",""0"",""3510""
""focus"",""2"",""10533""
","""event"",""trial"",""time""
""fullscreenenter"",""0"",""4743""
","""event"",""trial"",""time""
""fullscreenexit"",""2"",""6054""
","","","","","","","","","","","","","","","","","","","","","","","","","","",""
"","welc_back","2","15637","0.0-2.0","""event"",""trial"",""time""
""blur"",""0"",""0""
""focus"",""0"",""0""
""blur"",""0"",""1808""
""focus"",""0"",""3510""
""fullscreenenter"",""0"",""4743""
""fullscreenexit"",""2"",""6054""
""blur"",""2"",""7513""
""focus"",""2"",""10533""
""blur"",""2"",""12550""
""focus"",""3"",""19626""
","""event"",""trial"",""time""
""blur"",""0"",""0""
""blur"",""0"",""1808""
""blur"",""2"",""7513""
""blur"",""2"",""12550""
","""event"",""trial"",""time""
""focus"",""0"",""0""
""focus"",""0"",""3510""
""focus"",""2"",""10533""
""focus"",""3"",""19626""
","""event"",""trial"",""time""
""fullscreenenter"",""0"",""4743""
","""event"",""trial"",""time""
""fullscreenexit"",""2"",""6054""
","null","run_exp/static/audio/clip_29_welcome_back.m4a","null","1055","1225","19","Female","<div class='center'><p>Welcome to day 2!</p><p> Yesterday, you were the head captain of a pirate ship. You asked your fellow pirates to rob other ships of their gold across six different islands.</p></div>","","","","","","","","","","","","","","","","","","",""
"","html-keyboard-response","3","20446","0.0-3.0","""event"",""trial"",""time""
""blur"",""0"",""0""
""focus"",""0"",""0""
""blur"",""0"",""1808""
""focus"",""0"",""3510""
""fullscreenenter"",""0"",""4743""
""fullscreenexit"",""2"",""6054""
""blur"",""2"",""7513""
""focus"",""2"",""10533""
""blur"",""2"",""12550""
""focus"",""3"",""19626""
""blur"",""4"",""23212""
""focus"",""4"",""31995""
""blur"",""4"",""32781""
","""event"",""trial"",""time""
""blur"",""0"",""0""
""blur"",""0"",""1808""
""blur"",""2"",""7513""
""blur"",""2"",""12550""
""blur"",""4"",""23212""
""blur"",""4"",""32781""
","""event"",""trial"",""time""
""focus"",""0"",""0""
""focus"",""0"",""3510""
""focus"",""2"",""10533""
""focus"",""3"",""19626""
""focus"",""4"",""31995""
","""event"",""trial"",""time""
""fullscreenenter"",""0"",""4743""
","""event"",""trial"",""time""
""fullscreenexit"",""2"",""6054""
","4807","<div class='center'><p>Welcome to day 2!</p><p> Yesterday, you were the head captain of a pirate ship. You asked your fellow pirates to rob other ships of their gold across six different islands.</p><p><b>[Press the space bar to continue]</b></p></div>","32","","","","","","","","","","","","","","","","","","","","","","","",""
"","day_1_summary_goal","4","37657","0.0-4.0","""event"",""trial"",""time""
""blur"",""0"",""0""
""focus"",""0"",""0""
""blur"",""0"",""1808""
""focus"",""0"",""3510""
""fullscreenenter"",""0"",""4743""
""fullscreenexit"",""2"",""6054""
""blur"",""2"",""7513""
""focus"",""2"",""10533""
""blur"",""2"",""12550""
""focus"",""3"",""19626""
""blur"",""4"",""23212""
""focus"",""4"",""31995""
""blur"",""4"",""32781""
""focus"",""5"",""42884""
","""event"",""trial"",""time""
""blur"",""0"",""0""
""blur"",""0"",""1808""
""blur"",""2"",""7513""
""blur"",""2"",""12550""
""blur"",""4"",""23212""
""blur"",""4"",""32781""
","""event"",""trial"",""time""
""focus"",""0"",""0""
""focus"",""0"",""3510""
""focus"",""2"",""10533""
""focus"",""3"",""19626""
""focus"",""4"",""31995""
""focus"",""5"",""42884""
","""event"",""trial"",""time""
""fullscreenenter"",""0"",""4743""
","""event"",""trial"",""time""
""fullscreenexit"",""2"",""6054""
","null","run_exp/static/audio/clip_30_goal_of_game.m4a","null","","","","","<div class='center'><p>Today, like yesterday, you get to pick which pirate you want to rob the next ship.</p><p>If the pirate is successful in robbing a ship, you get gold coins that look like this: </p><p><img src='run_exp/static/images/tutorial/reward.png' height='150'></p><p> If they were not successful in robbing the ship, then you will get no gold coins and you'll see a big red x like this: </p><p><img src='run_exp/static/images/tutorial/reward_no.png' height='150'></p></div>","","","","","","","","","","","","","","","","","","",""
"","html-keyboard-response","5","43766","0.0-5.0","""event"",""trial"",""time""
""blur"",""0"",""0""
""focus"",""0"",""0""
""blur"",""0"",""1808""
""focus"",""0"",""3510""
""fullscreenenter"",""0"",""4743""
""fullscreenexit"",""2"",""6054""
""blur"",""2"",""7513""
""focus"",""2"",""10533""
""blur"",""2"",""12550""
""focus"",""3"",""19626""
""blur"",""4"",""23212""
""focus"",""4"",""31995""
""blur"",""4"",""32781""
""focus"",""5"",""42884""
""blur"",""6"",""46442""
","""event"",""trial"",""time""
""blur"",""0"",""0""
""blur"",""0"",""1808""
""blur"",""2"",""7513""
""blur"",""2"",""12550""
""blur"",""4"",""23212""
""blur"",""4"",""32781""
""blur"",""6"",""46442""
","""event"",""trial"",""time""
""focus"",""0"",""0""
""focus"",""0"",""3510""
""focus"",""2"",""10533""
""focus"",""3"",""19626""
""focus"",""4"",""31995""
""focus"",""5"",""42884""
","""event"",""trial"",""time""
""fullscreenenter"",""0"",""4743""
","""event"",""trial"",""time""
""fullscreenexit"",""2"",""6054""
","6105.399999976158","<div class='center'><p>Today, like yesterday, you get to pick which pirate you want to rob the next ship.</p><p>If the pirate is successful in robbing a ship, you get gold coins that look like this: </p><p><img src='run_exp/static/images/tutorial/reward.png' height='150'></p><p> If they were not successful in robbing the ship, then you will get no gold coins and you'll see a big red x like this: </p><p><img src='run_exp/static/images/tutorial/reward_no.png' height='150'></p><p><b>[Press the space bar to continue]</b></p></div>","32","","","","","","","","","","","","","","","","","","","","","","","",""
"","day_1_summary_pick","6","58476","0.0-6.0","""event"",""trial"",""time""
""blur"",""0"",""0""
""focus"",""0"",""0""
""blur"",""0"",""1808""
""focus"",""0"",""3510""
""fullscreenenter"",""0"",""4743""
""fullscreenexit"",""2"",""6054""
""blur"",""2"",""7513""
""focus"",""2"",""10533""
""blur"",""2"",""12550""
""focus"",""3"",""19626""
""blur"",""4"",""23212""
""focus"",""4"",""31995""
""blur"",""4"",""32781""
""focus"",""5"",""42884""
""blur"",""6"",""46442""
""focus"",""7"",""62883""
","""event"",""trial"",""time""
""blur"",""0"",""0""
""blur"",""0"",""1808""
""blur"",""2"",""7513""
""blur"",""2"",""12550""
""blur"",""4"",""23212""
""blur"",""4"",""32781""
""blur"",""6"",""46442""
","""event"",""trial"",""time""
""focus"",""0"",""0""
""focus"",""0"",""3510""
""focus"",""2"",""10533""
""focus"",""3"",""19626""
""focus"",""4"",""31995""
""focus"",""5"",""42884""
""focus"",""7"",""62883""
","""event"",""trial"",""time""
""fullscreenenter"",""0"",""4743""
","""event"",""trial"",""time""
""fullscreenexit"",""2"",""6054""
","null","run_exp/static/audio/clip_31_how_to_pick_a_pirate.m4a","null","","","","","<div class='center'><p>Also, just like yesterday, you will use the 1,2,3 keys on your keyboard to pick a pirate. Press '1' to choose red beard, '2' to choose white beard, and '3' to choose black beard . You only have 3 seconds to pick a pirate, so please make a choice quickly!</p></div>","","","","","","","","","","","","","","","","","","",""
"","html-keyboard-response","7","63659","0.0-7.0","""event"",""trial"",""time""
""blur"",""0"",""0""
""focus"",""0"",""0""
""blur"",""0"",""1808""
""focus"",""0"",""3510""
""fullscreenenter"",""0"",""4743""
""fullscreenexit"",""2"",""6054""
""blur"",""2"",""7513""
""focus"",""2"",""10533""
""blur"",""2"",""12550""
""focus"",""3"",""19626""
""blur"",""4"",""23212""
""focus"",""4"",""31995""
""blur"",""4"",""32781""
""focus"",""5"",""42884""
""blur"",""6"",""46442""
""focus"",""7"",""62883""
""blur"",""8"",""65428""
","""event"",""trial"",""time""
""blur"",""0"",""0""
""blur"",""0"",""1808""
""blur"",""2"",""7513""
""blur"",""2"",""12550""
""blur"",""4"",""23212""
""blur"",""4"",""32781""
""blur"",""6"",""46442""
""blur"",""8"",""65428""
","""event"",""trial"",""time""
""focus"",""0"",""0""
""focus"",""0"",""3510""
""focus"",""2"",""10533""
""focus"",""3"",""19626""
""focus"",""4"",""31995""
""focus"",""5"",""42884""
""focus"",""7"",""62883""
","""event"",""trial"",""time""
""fullscreenenter"",""0"",""4743""
","""event"",""trial"",""time""
""fullscreenexit"",""2"",""6054""
","5185.899999976158","<div class='center'><p>Also, just like yesterday, you will use the 1,2,3 keys on your keyboard to pick a pirate. Press '1' to choose red beard, '2' to choose white beard, and '3' to choose black beard . You only have 3 seconds to pick a pirate, so please make a choice quickly!</p><p><b>[Press the space bar to continue]</b></p></div>","32","","","","","","","","","","","","","","","","","","","","","","","",""
"","test_phase_begin","8","94072","0.0-8.0","""event"",""trial"",""time""
""blur"",""0"",""0""
""focus"",""0"",""0""
""blur"",""0"",""1808""
""focus"",""0"",""3510""
""fullscreenenter"",""0"",""4743""
""fullscreenexit"",""2"",""6054""
""blur"",""2"",""7513""
""focus"",""2"",""10533""
""blur"",""2"",""12550""
""focus"",""3"",""19626""
""blur"",""4"",""23212""
""focus"",""4"",""31995""
""blur"",""4"",""32781""
""focus"",""5"",""42884""
""blur"",""6"",""46442""
""focus"",""7"",""62883""
""blur"",""8"",""65428""
""focus"",""9"",""100322""
","""event"",""trial"",""time""
""blur"",""0"",""0""
""blur"",""0"",""1808""
""blur"",""2"",""7513""
""blur"",""2"",""12550""
""blur"",""4"",""23212""
""blur"",""4"",""32781""
""blur"",""6"",""46442""
""blur"",""8"",""65428""
","""event"",""trial"",""time""
""focus"",""0"",""0""
""focus"",""0"",""3510""
""focus"",""2"",""10533""
""focus"",""3"",""19626""
""focus"",""4"",""31995""
""focus"",""5"",""42884""
""focus"",""7"",""62883""
""focus"",""9"",""100322""
","""event"",""trial"",""time""
""fullscreenenter"",""0"",""4743""
","""event"",""trial"",""time""
""fullscreenexit"",""2"",""6054""
","null","run_exp/static/audio/clip_32_final_place.m4a","null","","","","","<div class='center'><p>You’ve arrived at the final island of your journey! Unfortunately, it’s very foggy out, so you won’t be able to see it in the distance like the other islands you've visited.</p><p>You’ll still be deciding which pirate you want to rob a ship like before. However, because of the fog, you also won’t be able to see the ship.</p><p>This means you do not have to remember the ships you rob on this island.</p><p>Unlike yesterday, you won't be visiting multiple islands today. You will stay on this island for the entire game. This game will last ~30 minutes.</p></div>","","","","","","","","","","","","","","","","","","",""
"","html-keyboard-response","9","101092","0.0-9.0","""event"",""trial"",""time""
""blur"",""0"",""0""
""focus"",""0"",""0""
""blur"",""0"",""1808""
""focus"",""0"",""3510""
""fullscreenenter"",""0"",""4743""
""fullscreenexit"",""2"",""6054""
""blur"",""2"",""7513""
""focus"",""2"",""10533""
""blur"",""2"",""12550""
""focus"",""3"",""19626""
""blur"",""4"",""23212""
""focus"",""4"",""31995""
""blur"",""4"",""32781""
""focus"",""5"",""42884""
""blur"",""6"",""46442""
""focus"",""7"",""62883""
""blur"",""8"",""65428""
""focus"",""9"",""100322""
""blur"",""10"",""104626""
","""event"",""trial"",""time""
""blur"",""0"",""0""
""blur"",""0"",""1808""
""blur"",""2"",""7513""
""blur"",""2"",""12550""
""blur"",""4"",""23212""
""blur"",""4"",""32781""
""blur"",""6"",""46442""
""blur"",""8"",""65428""
""blur"",""10"",""104626""
","""event"",""trial"",""time""
""focus"",""0"",""0""
""focus"",""0"",""3510""
""focus"",""2"",""10533""
""focus"",""3"",""19626""
""focus"",""4"",""31995""
""focus"",""5"",""42884""
""focus"",""7"",""62883""
""focus"",""9"",""100322""
","""event"",""trial"",""time""
""fullscreenenter"",""0"",""4743""
","""event"",""trial"",""time""
""fullscreenexit"",""2"",""6054""
","7018.100000023842","<div class='center'><p>You’ve arrived at the final island of your journey! Unfortunately, it’s very foggy out, so you won’t be able to see it in the distance like the other islands you've visited.</p><p>You’ll still be deciding which pirate you want to rob a ship like before. However, because of the fog, you also won’t be able to see the ship.</p><p>This means you do not have to remember the ships you rob on this island.</p><p>Unlike yesterday, you won't be visiting multiple islands today. You will stay on this island for the entire game. This game will last ~30 minutes.</p><p><b>[Press the space bar to continue]</b></p></div>","32","","","","","","","","","","","","","","","","","","","","","","","",""
"","explain_probe_1","10","108813","0.0-10.0","""event"",""trial"",""time""
""blur"",""0"",""0""
""focus"",""0"",""0""
""blur"",""0"",""1808""
""focus"",""0"",""3510""
""fullscreenenter"",""0"",""4743""
""fullscreenexit"",""2"",""6054""
""blur"",""2"",""7513""
""focus"",""2"",""10533""
""blur"",""2"",""12550""
""focus"",""3"",""19626""
""blur"",""4"",""23212""
""focus"",""4"",""31995""
""blur"",""4"",""32781""
""focus"",""5"",""42884""
""blur"",""6"",""46442""
""focus"",""7"",""62883""
""blur"",""8"",""65428""
""focus"",""9"",""100322""
""blur"",""10"",""104626""
""focus"",""11"",""127945""
","""event"",""trial"",""time""
""blur"",""0"",""0""
""blur"",""0"",""1808""
""blur"",""2"",""7513""
""blur"",""2"",""12550""
""blur"",""4"",""23212""
""blur"",""4"",""32781""
""blur"",""6"",""46442""
""blur"",""8"",""65428""
""blur"",""10"",""104626""
","""event"",""trial"",""time""
""focus"",""0"",""0""
""focus"",""0"",""3510""
""focus"",""2"",""10533""
""focus"",""3"",""19626""
""focus"",""4"",""31995""
""focus"",""5"",""42884""
""focus"",""7"",""62883""
""focus"",""9"",""100322""
""focus"",""11"",""127945""
","""event"",""trial"",""time""
""fullscreenenter"",""0"",""4743""
","""event"",""trial"",""time""
""fullscreenexit"",""2"",""6054""
","null","run_exp/static/audio/clip_33_recognition_1.m4a","null","","","","","<div class='center'><p> Sometimes you’ll be shown a ship, and you will be asked if you saw this ship on a past island.</p><p> Here is an example of what you will see.</p><p><img src='run_exp/static/images/tutorial/example_recog_trial.png' height='500'></p></div>","","","","","","","","","","","","","","","","","","",""
"","html-keyboard-response","11","132482","0.0-11.0","""event"",""trial"",""time""
""blur"",""0"",""0""
""focus"",""0"",""0""
""blur"",""0"",""1808""
""focus"",""0"",""3510""
""fullscreenenter"",""0"",""4743""
""fullscreenexit"",""2"",""6054""
""blur"",""2"",""7513""
""focus"",""2"",""10533""
""blur"",""2"",""12550""
""focus"",""3"",""19626""
""blur"",""4"",""23212""
""focus"",""4"",""31995""
""blur"",""4"",""32781""
""focus"",""5"",""42884""
""blur"",""6"",""46442""
""focus"",""7"",""62883""
""blur"",""8"",""65428""
""focus"",""9"",""100322""
""blur"",""10"",""104626""
""focus"",""11"",""127945""
""blur"",""12"",""142101""
""focus"",""12"",""152160""
","""event"",""trial"",""time""
""blur"",""0"",""0""
""blur"",""0"",""1808""
""blur"",""2"",""7513""
""blur"",""2"",""12550""
""blur"",""4"",""23212""
""blur"",""4"",""32781""
""blur"",""6"",""46442""
""blur"",""8"",""65428""
""blur"",""10"",""104626""
""blur"",""12"",""142101""
","""event"",""trial"",""time""
""focus"",""0"",""0""
""focus"",""0"",""3510""
""focus"",""2"",""10533""
""focus"",""3"",""19626""
""focus"",""4"",""31995""
""focus"",""5"",""42884""
""focus"",""7"",""62883""
""focus"",""9"",""100322""
""focus"",""11"",""127945""
""focus"",""12"",""152160""
","""event"",""trial"",""time""
""fullscreenenter"",""0"",""4743""
","""event"",""trial"",""time""
""fullscreenexit"",""2"",""6054""
","23668","<div class='center'><p> Sometimes you’ll be shown a ship, and you will be asked if you saw this ship on a past island.</p><p> Here is an example of what you will see.</p><p><img src='run_exp/static/images/tutorial/example_recog_trial.png' height='500'></p><p><b>[Press the space bar to continue]</b></p></div>","32","","","","","","","","","","","","","","","","","","","","","","","",""
"","explain_probe_2","12","154482","0.0-12.0","""event"",""trial"",""time""
""blur"",""0"",""0""
""focus"",""0"",""0""
""blur"",""0"",""1808""
""focus"",""0"",""3510""
""fullscreenenter"",""0"",""4743""
""fullscreenexit"",""2"",""6054""
""blur"",""2"",""7513""
""focus"",""2"",""10533""
""blur"",""2"",""12550""
""focus"",""3"",""19626""
""blur"",""4"",""23212""
""focus"",""4"",""31995""
""blur"",""4"",""32781""
""focus"",""5"",""42884""
""blur"",""6"",""46442""
""focus"",""7"",""62883""
""blur"",""8"",""65428""
""focus"",""9"",""100322""
""blur"",""10"",""104626""
""focus"",""11"",""127945""
""blur"",""12"",""142101""
""focus"",""12"",""152160""
","""event"",""trial"",""time""
""blur"",""0"",""0""
""blur"",""0"",""1808""
""blur"",""2"",""7513""
""blur"",""2"",""12550""
""blur"",""4"",""23212""
""blur"",""4"",""32781""
""blur"",""6"",""46442""
""blur"",""8"",""65428""
""blur"",""10"",""104626""
""blur"",""12"",""142101""
","""event"",""trial"",""time""
""focus"",""0"",""0""
""focus"",""0"",""3510""
""focus"",""2"",""10533""
""focus"",""3"",""19626""
""focus"",""4"",""31995""
""focus"",""5"",""42884""
""focus"",""7"",""62883""
""focus"",""9"",""100322""
""focus"",""11"",""127945""
""focus"",""12"",""152160""
","""event"",""trial"",""time""
""fullscreenenter"",""0"",""4743""
","""event"",""trial"",""time""
""fullscreenexit"",""2"",""6054""
","null","run_exp/static/audio/clip_34_recognition_2.m4a","null","","","","","<div class='center'><p> You will press the 5, 6, 7, 8 keys on your keyboard to respond.</p><p>If you are sure you saw the ship, press <b>5</b> on your keyboard.</p><p> If you think you saw it before but aren't sure, then press <b>6</b>.</p><p> If you think you have <b>not</b> seen it before but aren't sure, then press <b>7</b>.</p><p> If you are sure you did <b>not</b> see the ship before, then press <b>8</b>.</p><p><img src='run_exp/static/images/tutorial/example_recog_trial.png' height='500'></p></div>","","","","","","","","","","","","","","","","","","",""
"","html-keyboard-response","13","155352","0.0-13.0","""event"",""trial"",""time""
""blur"",""0"",""0""
""focus"",""0"",""0""
""blur"",""0"",""1808""
""focus"",""0"",""3510""
""fullscreenenter"",""0"",""4743""
""fullscreenexit"",""2"",""6054""
""blur"",""2"",""7513""
""focus"",""2"",""10533""
""blur"",""2"",""12550""
""focus"",""3"",""19626""
""blur"",""4"",""23212""
""focus"",""4"",""31995""
""blur"",""4"",""32781""
""focus"",""5"",""42884""
""blur"",""6"",""46442""
""focus"",""7"",""62883""
""blur"",""8"",""65428""
""focus"",""9"",""100322""
""blur"",""10"",""104626""
""focus"",""11"",""127945""
""blur"",""12"",""142101""
""focus"",""12"",""152160""
""blur"",""14"",""156613""
","""event"",""trial"",""time""
""blur"",""0"",""0""
""blur"",""0"",""1808""
""blur"",""2"",""7513""
""blur"",""2"",""12550""
""blur"",""4"",""23212""
""blur"",""4"",""32781""
""blur"",""6"",""46442""
""blur"",""8"",""65428""
""blur"",""10"",""104626""
""blur"",""12"",""142101""
""blur"",""14"",""156613""
","""event"",""trial"",""time""
""focus"",""0"",""0""
""focus"",""0"",""3510""
""focus"",""2"",""10533""
""focus"",""3"",""19626""
""focus"",""4"",""31995""
""focus"",""5"",""42884""
""focus"",""7"",""62883""
""focus"",""9"",""100322""
""focus"",""11"",""127945""
""focus"",""12"",""152160""
","""event"",""trial"",""time""
""fullscreenenter"",""0"",""4743""
","""event"",""trial"",""time""
""fullscreenexit"",""2"",""6054""
","868.2000000476837","<div class='center'><p> You will press the 5, 6, 7, 8 keys on your keyboard to respond.</p><p>If you are sure you saw the ship, press <b>5</b> on your keyboard.</p><p> If you think you saw it before but aren't sure, then press <b>6</b>.</p><p> If you think you have <b>not</b> seen it before but aren't sure, then press <b>7</b>.</p><p> If you are sure you did <b>not</b> see the ship before, then press <b>8</b>.</p><p><img src='run_exp/static/images/tutorial/example_recog_trial.png' height='500'></p><p><b>[Press the space bar to continue]</b></p></div>","32","","","","","","","","","","","","","","","","","","","","","","","",""
"","explain_outcome","14","172583","0.0-14.0","""event"",""trial"",""time""
""blur"",""0"",""0""
""focus"",""0"",""0""
""blur"",""0"",""1808""
""focus"",""0"",""3510""
""fullscreenenter"",""0"",""4743""
""fullscreenexit"",""2"",""6054""
""blur"",""2"",""7513""
""focus"",""2"",""10533""
""blur"",""2"",""12550""
""focus"",""3"",""19626""
""blur"",""4"",""23212""
""focus"",""4"",""31995""
""blur"",""4"",""32781""
""focus"",""5"",""42884""
""blur"",""6"",""46442""
""focus"",""7"",""62883""
""blur"",""8"",""65428""
""focus"",""9"",""100322""
""blur"",""10"",""104626""
""focus"",""11"",""127945""
""blur"",""12"",""142101""
""focus"",""12"",""152160""
""blur"",""14"",""156613""
""focus"",""15"",""197003""
","""event"",""trial"",""time""
""blur"",""0"",""0""
""blur"",""0"",""1808""
""blur"",""2"",""7513""
""blur"",""2"",""12550""
""blur"",""4"",""23212""
""blur"",""4"",""32781""
""blur"",""6"",""46442""
""blur"",""8"",""65428""
""blur"",""10"",""104626""
""blur"",""12"",""142101""
""blur"",""14"",""156613""
","""event"",""trial"",""time""
""focus"",""0"",""0""
""focus"",""0"",""3510""
""focus"",""2"",""10533""
""focus"",""3"",""19626""
""focus"",""4"",""31995""
""focus"",""5"",""42884""
""focus"",""7"",""62883""
""focus"",""9"",""100322""
""focus"",""11"",""127945""
""focus"",""12"",""152160""
""focus"",""15"",""197003""
","""event"",""trial"",""time""
""fullscreenenter"",""0"",""4743""
","""event"",""trial"",""time""
""fullscreenexit"",""2"",""6054""
","null","run_exp/static/audio/clip_35_recognition_3.m4a","null","","","","","<div class='center'><p> If you remember correctly, then you’ll get a gold coin like this: </p><p><img src='run_exp/static/images/tutorial/reward_small.png' height='200'></p><p>If you do not remember correctly, then you'll see a red x like this: </p><p><img src='run_exp/static/images/tutorial/reward_no.png' height='200'></p><p>Importantly, when you are shown a ship, take the time to remind yourself which island you saw it on. This will help you in the next part of the study.</p></div>","","","","","","","","","","","","","","","","","","",""
"","html-keyboard-response","15","197725","0.0-15.0","""event"",""trial"",""time""
""blur"",""0"",""0""
""focus"",""0"",""0""
""blur"",""0"",""1808""
""focus"",""0"",""3510""
""fullscreenenter"",""0"",""4743""
""fullscreenexit"",""2"",""6054""
""blur"",""2"",""7513""
""focus"",""2"",""10533""
""blur"",""2"",""12550""
""focus"",""3"",""19626""
""blur"",""4"",""23212""
""focus"",""4"",""31995""
""blur"",""4"",""32781""
""focus"",""5"",""42884""
""blur"",""6"",""46442""
""focus"",""7"",""62883""
""blur"",""8"",""65428""
""focus"",""9"",""100322""
""blur"",""10"",""104626""
""focus"",""11"",""127945""
""blur"",""12"",""142101""
""focus"",""12"",""152160""
""blur"",""14"",""156613""
""focus"",""15"",""197003""
""blur"",""16"",""200328""
""focus"",""16"",""206052""
","""event"",""trial"",""time""
""blur"",""0"",""0""
""blur"",""0"",""1808""
""blur"",""2"",""7513""
""blur"",""2"",""12550""
""blur"",""4"",""23212""
""blur"",""4"",""32781""
""blur"",""6"",""46442""
""blur"",""8"",""65428""
""blur"",""10"",""104626""
""blur"",""12"",""142101""
""blur"",""14"",""156613""
""blur"",""16"",""200328""
","""event"",""trial"",""time""
""focus"",""0"",""0""
""focus"",""0"",""3510""
""focus"",""2"",""10533""
""focus"",""3"",""19626""
""focus"",""4"",""31995""
""focus"",""5"",""42884""
""focus"",""7"",""62883""
""focus"",""9"",""100322""
""focus"",""11"",""127945""
""focus"",""12"",""152160""
""focus"",""15"",""197003""
""focus"",""16"",""206052""
","""event"",""trial"",""time""
""fullscreenenter"",""0"",""4743""
","""event"",""trial"",""time""
""fullscreenexit"",""2"",""6054""
","25138.399999976158","<div class='center'><p> If you remember correctly, then you’ll get a gold coin like this: </p><p><img src='run_exp/static/images/tutorial/reward_small.png' height='200'></p><p>If you do not remember correctly, then you'll see a red x like this: </p><p><img src='run_exp/static/images/tutorial/reward_no.png' height='200'></p><p>Importantly, when you are shown a ship, take the time to remind yourself which island you saw it on. This will help you in the next part of the study.</p><p><b>[Press the space bar to continue]</b></p></div>","32","","","","","","","","","","","","","","","","","","","","","","","",""
"","begin_test_phase","16","213826","0.0-16.0","""event"",""trial"",""time""
""blur"",""0"",""0""
""focus"",""0"",""0""
""blur"",""0"",""1808""
""focus"",""0"",""3510""
""fullscreenenter"",""0"",""4743""
""fullscreenexit"",""2"",""6054""
""blur"",""2"",""7513""
""focus"",""2"",""10533""
""blur"",""2"",""12550""
""focus"",""3"",""19626""
""blur"",""4"",""23212""
""focus"",""4"",""31995""
""blur"",""4"",""32781""
""focus"",""5"",""42884""
""blur"",""6"",""46442""
""focus"",""7"",""62883""
""blur"",""8"",""65428""
""focus"",""9"",""100322""
""blur"",""10"",""104626""
""focus"",""11"",""127945""
""blur"",""12"",""142101""
""focus"",""12"",""152160""
""blur"",""14"",""156613""
""focus"",""15"",""197003""
""blur"",""16"",""200328""
""focus"",""16"",""206052""
""blur"",""17"",""216814""
""focus"",""17"",""218842""
","""event"",""trial"",""time""
""blur"",""0"",""0""
""blur"",""0"",""1808""
""blur"",""2"",""7513""
""blur"",""2"",""12550""
""blur"",""4"",""23212""
""blur"",""4"",""32781""
""blur"",""6"",""46442""
""blur"",""8"",""65428""
""blur"",""10"",""104626""
""blur"",""12"",""142101""
""blur"",""14"",""156613""
""blur"",""16"",""200328""
""blur"",""17"",""216814""
","""event"",""trial"",""time""
""focus"",""0"",""0""
""focus"",""0"",""3510""
""focus"",""2"",""10533""
""focus"",""3"",""19626""
""focus"",""4"",""31995""
""focus"",""5"",""42884""
""focus"",""7"",""62883""
""focus"",""9"",""100322""
""focus"",""11"",""127945""
""focus"",""12"",""152160""
""focus"",""15"",""197003""
""focus"",""16"",""206052""
""focus"",""17"",""218842""
","""event"",""trial"",""time""
""fullscreenenter"",""0"",""4743""
","""event"",""trial"",""time""
""fullscreenexit"",""2"",""6054""
","null","run_exp/static/audio/clip_36_begin_final.m4a","null","","","","","<div class='center'><p>Let's go over the important points again. Your job is to: </p><p>1. Pick the pirate who is best at robbing ships and will bring you back gold coins. </p><p>2. Correctly remember whether or not you saw a ship before. If you did see the ship before, remind yourself on which island you saw it. </p></div>","","","","","","","","","","","","","","","","","","",""
"","html-keyboard-response","17","226287","0.0-17.0","""event"",""trial"",""time""
""blur"",""0"",""0""
""focus"",""0"",""0""
""blur"",""0"",""1808""
""focus"",""0"",""3510""
""fullscreenenter"",""0"",""4743""
""fullscreenexit"",""2"",""6054""
""blur"",""2"",""7513""
""focus"",""2"",""10533""
""blur"",""2"",""12550""
""focus"",""3"",""19626""
""blur"",""4"",""23212""
""focus"",""4"",""31995""
""blur"",""4"",""32781""
""focus"",""5"",""42884""
""blur"",""6"",""46442""
""focus"",""7"",""62883""
""blur"",""8"",""65428""
""focus"",""9"",""100322""
""blur"",""10"",""104626""
""focus"",""11"",""127945""
""blur"",""12"",""142101""
""focus"",""12"",""152160""
""blur"",""14"",""156613""
""focus"",""15"",""197003""
""blur"",""16"",""200328""
""focus"",""16"",""206052""
""blur"",""17"",""216814""
""focus"",""17"",""218842""
""blur"",""18"",""229346""
","""event"",""trial"",""time""
""blur"",""0"",""0""
""blur"",""0"",""1808""
""blur"",""2"",""7513""
""blur"",""2"",""12550""
""blur"",""4"",""23212""
""blur"",""4"",""32781""
""blur"",""6"",""46442""
""blur"",""8"",""65428""
""blur"",""10"",""104626""
""blur"",""12"",""142101""
""blur"",""14"",""156613""
""blur"",""16"",""200328""
""blur"",""17"",""216814""
""blur"",""18"",""229346""
","""event"",""trial"",""time""
""focus"",""0"",""0""
""focus"",""0"",""3510""
""focus"",""2"",""10533""
""focus"",""3"",""19626""
""focus"",""4"",""31995""
""focus"",""5"",""42884""
""focus"",""7"",""62883""
""focus"",""9"",""100322""
""focus"",""11"",""127945""
""focus"",""12"",""152160""
""focus"",""15"",""197003""
""focus"",""16"",""206052""
""focus"",""17"",""218842""
","""event"",""trial"",""time""
""fullscreenenter"",""0"",""4743""
","""event"",""trial"",""time""
""fullscreenexit"",""2"",""6054""
","12393.699999988079","<div class='center'><p>Let's go over the important points again. Your job is to: </p><p>1. Pick the pirate who is best at robbing ships and will bring you back gold coins. </p><p>2. Correctly remember whether or not you saw a ship before. If you did see the ship before, remind yourself on which island you saw it. </p><p><b>[Press the space bar to continue]</b></p></div>","32","","","","","","","","","","","","","","","","","","","","","","","",""
"","do_welcome","18","230300","0.0-18.0","""event"",""trial"",""time""
""blur"",""0"",""0""
""focus"",""0"",""0""
""blur"",""0"",""1808""
""focus"",""0"",""3510""
""fullscreenenter"",""0"",""4743""
""fullscreenexit"",""2"",""6054""
""blur"",""2"",""7513""
""focus"",""2"",""10533""
""blur"",""2"",""12550""
""focus"",""3"",""19626""
""blur"",""4"",""23212""
""focus"",""4"",""31995""
""blur"",""4"",""32781""
""focus"",""5"",""42884""
""blur"",""6"",""46442""
""focus"",""7"",""62883""
""blur"",""8"",""65428""
""focus"",""9"",""100322""
""blur"",""10"",""104626""
""focus"",""11"",""127945""
""blur"",""12"",""142101""
""focus"",""12"",""152160""
""blur"",""14"",""156613""
""focus"",""15"",""197003""
""blur"",""16"",""200328""
""focus"",""16"",""206052""
""blur"",""17"",""216814""
""focus"",""17"",""218842""
""blur"",""18"",""229346""
""focus"",""19"",""231061""
""blur"",""19"",""235244""
""focus"",""19"",""235968""
","""event"",""trial"",""time""
""blur"",""0"",""0""
""blur"",""0"",""1808""
""blur"",""2"",""7513""
""blur"",""2"",""12550""
""blur"",""4"",""23212""
""blur"",""4"",""32781""
""blur"",""6"",""46442""
""blur"",""8"",""65428""
""blur"",""10"",""104626""
""blur"",""12"",""142101""
""blur"",""14"",""156613""
""blur"",""16"",""200328""
""blur"",""17"",""216814""
""blur"",""18"",""229346""
""blur"",""19"",""235244""
","""event"",""trial"",""time""
""focus"",""0"",""0""
""focus"",""0"",""3510""
""focus"",""2"",""10533""
""focus"",""3"",""19626""
""focus"",""4"",""31995""
""focus"",""5"",""42884""
""focus"",""7"",""62883""
""focus"",""9"",""100322""
""focus"",""11"",""127945""
""focus"",""12"",""152160""
""focus"",""15"",""197003""
""focus"",""16"",""206052""
""focus"",""17"",""218842""
""focus"",""19"",""231061""
""focus"",""19"",""235968""
","""event"",""trial"",""time""
""fullscreenenter"",""0"",""4743""
","""event"",""trial"",""time""
""fullscreenexit"",""2"",""6054""
","null","","","","","","","","null","","","","","","","","","","","","","","","","","",""
"","do_trial","19","236386","0.0-19.0-0.0","""event"",""trial"",""time""
""blur"",""0"",""0""
""focus"",""0"",""0""
""blur"",""0"",""1808""
""focus"",""0"",""3510""
""fullscreenenter"",""0"",""4743""
""fullscreenexit"",""2"",""6054""
""blur"",""2"",""7513""
""focus"",""2"",""10533""
""blur"",""2"",""12550""
""focus"",""3"",""19626""
""blur"",""4"",""23212""
""focus"",""4"",""31995""
""blur"",""4"",""32781""
""focus"",""5"",""42884""
""blur"",""6"",""46442""
""focus"",""7"",""62883""
""blur"",""8"",""65428""
""focus"",""9"",""100322""
""blur"",""10"",""104626""
""focus"",""11"",""127945""
""blur"",""12"",""142101""
""focus"",""12"",""152160""
""blur"",""14"",""156613""
""focus"",""15"",""197003""
""blur"",""16"",""200328""
""focus"",""16"",""206052""
""blur"",""17"",""216814""
""focus"",""17"",""218842""
""blur"",""18"",""229346""
""focus"",""19"",""231061""
""blur"",""19"",""235244""
""focus"",""19"",""235968""
","""event"",""trial"",""time""
""blur"",""0"",""0""
""blur"",""0"",""1808""
""blur"",""2"",""7513""
""blur"",""2"",""12550""
""blur"",""4"",""23212""
""blur"",""4"",""32781""
""blur"",""6"",""46442""
""blur"",""8"",""65428""
""blur"",""10"",""104626""
""blur"",""12"",""142101""
""blur"",""14"",""156613""
""blur"",""16"",""200328""
""blur"",""17"",""216814""
""blur"",""18"",""229346""
""blur"",""19"",""235244""
","""event"",""trial"",""time""
""focus"",""0"",""0""
""focus"",""0"",""3510""
""focus"",""2"",""10533""
""focus"",""3"",""19626""
""focus"",""4"",""31995""
""focus"",""5"",""42884""
""focus"",""7"",""62883""
""focus"",""9"",""100322""
""focus"",""11"",""127945""
""focus"",""12"",""152160""
""focus"",""15"",""197003""
""focus"",""16"",""206052""
""focus"",""17"",""218842""
""focus"",""19"",""231061""
""focus"",""19"",""235968""
","""event"",""trial"",""time""
""fullscreenenter"",""0"",""4743""
","""event"",""trial"",""time""
""fullscreenexit"",""2"",""6054""
","null","","","","","","","","null","1,0,0","6","blank","230","null","0.6514362302857756","0.23579437378488957","0.13496052605887848","","","","","","","","","",""
"","html-keyboard-response","20","237390","0.0-19.0-1.0","""event"",""trial"",""time""
""blur"",""0"",""0""
""focus"",""0"",""0""
""blur"",""0"",""1808""
""focus"",""0"",""3510""
""fullscreenenter"",""0"",""4743""
""fullscreenexit"",""2"",""6054""
""blur"",""2"",""7513""
""focus"",""2"",""10533""
""blur"",""2"",""12550""
""focus"",""3"",""19626""
""blur"",""4"",""23212""
""focus"",""4"",""31995""
""blur"",""4"",""32781""
""focus"",""5"",""42884""
""blur"",""6"",""46442""
""focus"",""7"",""62883""
""blur"",""8"",""65428""
""focus"",""9"",""100322""
""blur"",""10"",""104626""
""focus"",""11"",""127945""
""blur"",""12"",""142101""
""focus"",""12"",""152160""
""blur"",""14"",""156613""
""focus"",""15"",""197003""
""blur"",""16"",""200328""
""focus"",""16"",""206052""
""blur"",""17"",""216814""
""focus"",""17"",""218842""
""blur"",""18"",""229346""
""focus"",""19"",""231061""
""blur"",""19"",""235244""
""focus"",""19"",""235968""
","""event"",""trial"",""time""
""blur"",""0"",""0""
""blur"",""0"",""1808""
""blur"",""2"",""7513""
""blur"",""2"",""12550""
""blur"",""4"",""23212""
""blur"",""4"",""32781""
""blur"",""6"",""46442""
""blur"",""8"",""65428""
""blur"",""10"",""104626""
""blur"",""12"",""142101""
""blur"",""14"",""156613""
""blur"",""16"",""200328""
""blur"",""17"",""216814""
""blur"",""18"",""229346""
""blur"",""19"",""235244""
","""event"",""trial"",""time""
""focus"",""0"",""0""
""focus"",""0"",""3510""
""focus"",""2"",""10533""
""focus"",""3"",""19626""
""focus"",""4"",""31995""
""focus"",""5"",""42884""
""focus"",""7"",""62883""
""focus"",""9"",""100322""
""focus"",""11"",""127945""
""focus"",""12"",""152160""
""focus"",""15"",""197003""
""focus"",""16"",""206052""
""focus"",""17"",""218842""
""focus"",""19"",""231061""
""focus"",""19"",""235968""
","""event"",""trial"",""time""
""fullscreenenter"",""0"",""4743""
","""event"",""trial"",""time""
""fullscreenexit"",""2"",""6054""
","null","<p></p>","null","","","","","","","","","","","","","","","","","","","","","","","",""
"","do_trial","21","240421","0.0-20.0-0.0","""event"",""trial"",""time""
""blur"",""0"",""0""
""focus"",""0"",""0""
""blur"",""0"",""1808""
""focus"",""0"",""3510""
""fullscreenenter"",""0"",""4743""
""fullscreenexit"",""2"",""6054""
""blur"",""2"",""7513""
""focus"",""2"",""10533""
""blur"",""2"",""12550""
""focus"",""3"",""19626""
""blur"",""4"",""23212""
""focus"",""4"",""31995""
""blur"",""4"",""32781""
""focus"",""5"",""42884""
""blur"",""6"",""46442""
""focus"",""7"",""62883""
""blur"",""8"",""65428""
""focus"",""9"",""100322""
""blur"",""10"",""104626""
""focus"",""11"",""127945""
""blur"",""12"",""142101""
""focus"",""12"",""152160""
""blur"",""14"",""156613""
""focus"",""15"",""197003""
""blur"",""16"",""200328""
""focus"",""16"",""206052""
""blur"",""17"",""216814""
""focus"",""17"",""218842""
""blur"",""18"",""229346""
""focus"",""19"",""231061""
""blur"",""19"",""235244""
""focus"",""19"",""235968""
","""event"",""trial"",""time""
""blur"",""0"",""0""
""blur"",""0"",""1808""
""blur"",""2"",""7513""
""blur"",""2"",""12550""
""blur"",""4"",""23212""
""blur"",""4"",""32781""
""blur"",""6"",""46442""
""blur"",""8"",""65428""
""blur"",""10"",""104626""
""blur"",""12"",""142101""
""blur"",""14"",""156613""
""blur"",""16"",""200328""
""blur"",""17"",""216814""
""blur"",""18"",""229346""
""blur"",""19"",""235244""
","""event"",""trial"",""time""
""focus"",""0"",""0""
""focus"",""0"",""3510""
""focus"",""2"",""10533""
""focus"",""3"",""19626""
""focus"",""4"",""31995""
""focus"",""5"",""42884""
""focus"",""7"",""62883""
""focus"",""9"",""100322""
""focus"",""11"",""127945""
""focus"",""12"",""152160""
""focus"",""15"",""197003""
""focus"",""16"",""206052""
""focus"",""17"",""218842""
""focus"",""19"",""231061""
""focus"",""19"",""235968""
","""event"",""trial"",""time""
""fullscreenenter"",""0"",""4743""
","""event"",""trial"",""time""
""fullscreenexit"",""2"",""6054""
","450.69999998807907","","","","","","","","50","0,0,1","6","blank","231","null","0.4979051036095489","0.2651929983697236","0.23499916595110695","0","","","","","","","","",""
"","html-keyboard-response","22","241429","0.0-20.0-1.0","""event"",""trial"",""time""
""blur"",""0"",""0""
""focus"",""0"",""0""
""blur"",""0"",""1808""
""focus"",""0"",""3510""
""fullscreenenter"",""0"",""4743""
""fullscreenexit"",""2"",""6054""
""blur"",""2"",""7513""
""focus"",""2"",""10533""
""blur"",""2"",""12550""
""focus"",""3"",""19626""
""blur"",""4"",""23212""
""focus"",""4"",""31995""
""blur"",""4"",""32781""
""focus"",""5"",""42884""
""blur"",""6"",""46442""
""focus"",""7"",""62883""
""blur"",""8"",""65428""
""focus"",""9"",""100322""
""blur"",""10"",""104626""
""focus"",""11"",""127945""
""blur"",""12"",""142101""
""focus"",""12"",""152160""
""blur"",""14"",""156613""
""focus"",""15"",""197003""
""blur"",""16"",""200328""
""focus"",""16"",""206052""
""blur"",""17"",""216814""
""focus"",""17"",""218842""
""blur"",""18"",""229346""
""focus"",""19"",""231061""
""blur"",""19"",""235244""
""focus"",""19"",""235968""
","""event"",""trial"",""time""
""blur"",""0"",""0""
""blur"",""0"",""1808""
""blur"",""2"",""7513""
""blur"",""2"",""12550""
""blur"",""4"",""23212""
""blur"",""4"",""32781""
""blur"",""6"",""46442""
""blur"",""8"",""65428""
""blur"",""10"",""104626""
""blur"",""12"",""142101""
""blur"",""14"",""156613""
""blur"",""16"",""200328""
""blur"",""17"",""216814""
""blur"",""18"",""229346""
""blur"",""19"",""235244""
","""event"",""trial"",""time""
""focus"",""0"",""0""
""focus"",""0"",""3510""
""focus"",""2"",""10533""
""focus"",""3"",""19626""
""focus"",""4"",""31995""
""focus"",""5"",""42884""
""focus"",""7"",""62883""
""focus"",""9"",""100322""
""focus"",""11"",""127945""
""focus"",""12"",""152160""
""focus"",""15"",""197003""
""focus"",""16"",""206052""
""focus"",""17"",""218842""
""focus"",""19"",""231061""
""focus"",""19"",""235968""
","""event"",""trial"",""time""
""fullscreenenter"",""0"",""4743""
","""event"",""trial"",""time""
""fullscreenexit"",""2"",""6054""
","null","<p></p>","null","","","","","","","","","","","","","","","","","","","","","","","",""
"","do_trial","23","244240","0.0-21.0-0.0","""event"",""trial"",""time""
""blur"",""0"",""0""
""focus"",""0"",""0""
""blur"",""0"",""1808""
""focus"",""0"",""3510""
""fullscreenenter"",""0"",""4743""
""fullscreenexit"",""2"",""6054""
""blur"",""2"",""7513""
""focus"",""2"",""10533""
""blur"",""2"",""12550""
""focus"",""3"",""19626""
""blur"",""4"",""23212""
""focus"",""4"",""31995""
""blur"",""4"",""32781""
""focus"",""5"",""42884""
""blur"",""6"",""46442""
""focus"",""7"",""62883""
""blur"",""8"",""65428""
""focus"",""9"",""100322""
""blur"",""10"",""104626""
""focus"",""11"",""127945""
""blur"",""12"",""142101""
""focus"",""12"",""152160""
""blur"",""14"",""156613""
""focus"",""15"",""197003""
""blur"",""16"",""200328""
""focus"",""16"",""206052""
""blur"",""17"",""216814""
""focus"",""17"",""218842""
""blur"",""18"",""229346""
""focus"",""19"",""231061""
""blur"",""19"",""235244""
""focus"",""19"",""235968""
","""event"",""trial"",""time""
""blur"",""0"",""0""
""blur"",""0"",""1808""
""blur"",""2"",""7513""
""blur"",""2"",""12550""
""blur"",""4"",""23212""
""blur"",""4"",""32781""
""blur"",""6"",""46442""
""blur"",""8"",""65428""
""blur"",""10"",""104626""
""blur"",""12"",""142101""
""blur"",""14"",""156613""
""blur"",""16"",""200328""
""blur"",""17"",""216814""
""blur"",""18"",""229346""
""blur"",""19"",""235244""
","""event"",""trial"",""time""
""focus"",""0"",""0""
""focus"",""0"",""3510""
""focus"",""2"",""10533""
""focus"",""3"",""19626""
""focus"",""4"",""31995""
""focus"",""5"",""42884""
""focus"",""7"",""62883""
""focus"",""9"",""100322""
""focus"",""11"",""127945""
""focus"",""12"",""152160""
""focus"",""15"",""197003""
""focus"",""16"",""206052""
""focus"",""17"",""218842""
""focus"",""19"",""231061""
""focus"",""19"",""235968""
","""event"",""trial"",""time""
""fullscreenenter"",""0"",""4743""
","""event"",""trial"",""time""
""fullscreenexit"",""2"",""6054""
","232.5999999642372","","","","","","","","51","1,0,1","6","blank","232","null","0.5451609519098333","0.31207874636498684","0.20581392094389497","1","","","","","","","","",""
"","html-keyboard-response","24","245258","0.0-21.0-1.0","""event"",""trial"",""time""
""blur"",""0"",""0""
""focus"",""0"",""0""
""blur"",""0"",""1808""
""focus"",""0"",""3510""
""fullscreenenter"",""0"",""4743""
""fullscreenexit"",""2"",""6054""
""blur"",""2"",""7513""
""focus"",""2"",""10533""
""blur"",""2"",""12550""
""focus"",""3"",""19626""
""blur"",""4"",""23212""
""focus"",""4"",""31995""
""blur"",""4"",""32781""
""focus"",""5"",""42884""
""blur"",""6"",""46442""
""focus"",""7"",""62883""
""blur"",""8"",""65428""
""focus"",""9"",""100322""
""blur"",""10"",""104626""
""focus"",""11"",""127945""
""blur"",""12"",""142101""
""focus"",""12"",""152160""
""blur"",""14"",""156613""
""focus"",""15"",""197003""
""blur"",""16"",""200328""
""focus"",""16"",""206052""
""blur"",""17"",""216814""
""focus"",""17"",""218842""
""blur"",""18"",""229346""
""focus"",""19"",""231061""
""blur"",""19"",""235244""
""focus"",""19"",""235968""
","""event"",""trial"",""time""
""blur"",""0"",""0""
""blur"",""0"",""1808""
""blur"",""2"",""7513""
""blur"",""2"",""12550""
""blur"",""4"",""23212""
""blur"",""4"",""32781""
""blur"",""6"",""46442""
""blur"",""8"",""65428""
""blur"",""10"",""104626""
""blur"",""12"",""142101""
""blur"",""14"",""156613""
""blur"",""16"",""200328""
""blur"",""17"",""216814""
""blur"",""18"",""229346""
""blur"",""19"",""235244""
","""event"",""trial"",""time""
""focus"",""0"",""0""
""focus"",""0"",""3510""
""focus"",""2"",""10533""
""focus"",""3"",""19626""
""focus"",""4"",""31995""
""focus"",""5"",""42884""
""focus"",""7"",""62883""
""focus"",""9"",""100322""
""focus"",""11"",""127945""
""focus"",""12"",""152160""
""focus"",""15"",""197003""
""focus"",""16"",""206052""
""focus"",""17"",""218842""
""focus"",""19"",""231061""
""focus"",""19"",""235968""
","""event"",""trial"",""time""
""fullscreenenter"",""0"",""4743""
","""event"",""trial"",""time""
""fullscreenexit"",""2"",""6054""
","null","<p></p>","null","","","","","","","","","","","","","","","","","","","","","","","",""
"","do_trial","25","248351","0.0-22.0-0.0","""event"",""trial"",""time""
""blur"",""0"",""0""
""focus"",""0"",""0""
""blur"",""0"",""1808""
""focus"",""0"",""3510""
""fullscreenenter"",""0"",""4743""
""fullscreenexit"",""2"",""6054""
""blur"",""2"",""7513""
""focus"",""2"",""10533""
""blur"",""2"",""12550""
""focus"",""3"",""19626""
""blur"",""4"",""23212""
""focus"",""4"",""31995""
""blur"",""4"",""32781""
""focus"",""5"",""42884""
""blur"",""6"",""46442""
""focus"",""7"",""62883""
""blur"",""8"",""65428""
""focus"",""9"",""100322""
""blur"",""10"",""104626""
""focus"",""11"",""127945""
""blur"",""12"",""142101""
""focus"",""12"",""152160""
""blur"",""14"",""156613""
""focus"",""15"",""197003""
""blur"",""16"",""200328""
""focus"",""16"",""206052""
""blur"",""17"",""216814""
""focus"",""17"",""218842""
""blur"",""18"",""229346""
""focus"",""19"",""231061""
""blur"",""19"",""235244""
""focus"",""19"",""235968""
","""event"",""trial"",""time""
""blur"",""0"",""0""
""blur"",""0"",""1808""
""blur"",""2"",""7513""
""blur"",""2"",""12550""
""blur"",""4"",""23212""
""blur"",""4"",""32781""
""blur"",""6"",""46442""
""blur"",""8"",""65428""
""blur"",""10"",""104626""
""blur"",""12"",""142101""
""blur"",""14"",""156613""
""blur"",""16"",""200328""
""blur"",""17"",""216814""
""blur"",""18"",""229346""
""blur"",""19"",""235244""
","""event"",""trial"",""time""
""focus"",""0"",""0""
""focus"",""0"",""3510""
""focus"",""2"",""10533""
""focus"",""3"",""19626""
""focus"",""4"",""31995""
""focus"",""5"",""42884""
""focus"",""7"",""62883""
""focus"",""9"",""100322""
""focus"",""11"",""127945""
""focus"",""12"",""152160""
""focus"",""15"",""197003""
""focus"",""16"",""206052""
""focus"",""17"",""218842""
""focus"",""19"",""231061""
""focus"",""19"",""235968""
","""event"",""trial"",""time""
""fullscreenenter"",""0"",""4743""
","""event"",""trial"",""time""
""fullscreenexit"",""2"",""6054""
","502.69999998807907","","","","","","","","49","0,0,0","6","blank","233","null","0.49568546382976614","0.2411718100206102","0.20632466104387243","0","","","","","","","","",""
"","html-keyboard-response","26","249361","0.0-22.0-1.0","""event"",""trial"",""time""
""blur"",""0"",""0""
""focus"",""0"",""0""
""blur"",""0"",""1808""
""focus"",""0"",""3510""
""fullscreenenter"",""0"",""4743""
""fullscreenexit"",""2"",""6054""
""blur"",""2"",""7513""
""focus"",""2"",""10533""
""blur"",""2"",""12550""
""focus"",""3"",""19626""
""blur"",""4"",""23212""
""focus"",""4"",""31995""
""blur"",""4"",""32781""
""focus"",""5"",""42884""
""blur"",""6"",""46442""
""focus"",""7"",""62883""
""blur"",""8"",""65428""
""focus"",""9"",""100322""
""blur"",""10"",""104626""
""focus"",""11"",""127945""
""blur"",""12"",""142101""
""focus"",""12"",""152160""
""blur"",""14"",""156613""
""focus"",""15"",""197003""
""blur"",""16"",""200328""
""focus"",""16"",""206052""
""blur"",""17"",""216814""
""focus"",""17"",""218842""
""blur"",""18"",""229346""
""focus"",""19"",""231061""
""blur"",""19"",""235244""
""focus"",""19"",""235968""
","""event"",""trial"",""time""
""blur"",""0"",""0""
""blur"",""0"",""1808""
""blur"",""2"",""7513""
""blur"",""2"",""12550""
""blur"",""4"",""23212""
""blur"",""4"",""32781""
""blur"",""6"",""46442""
""blur"",""8"",""65428""
""blur"",""10"",""104626""
""blur"",""12"",""142101""
""blur"",""14"",""156613""
""blur"",""16"",""200328""
""blur"",""17"",""216814""
""blur"",""18"",""229346""
""blur"",""19"",""235244""
","""event"",""trial"",""time""
""focus"",""0"",""0""
""focus"",""0"",""3510""
""focus"",""2"",""10533""
""focus"",""3"",""19626""
""focus"",""4"",""31995""
""focus"",""5"",""42884""
""focus"",""7"",""62883""
""focus"",""9"",""100322""
""focus"",""11"",""127945""
""focus"",""12"",""152160""
""focus"",""15"",""197003""
""focus"",""16"",""206052""
""focus"",""17"",""218842""
""focus"",""19"",""231061""
""focus"",""19"",""235968""
","""event"",""trial"",""time""
""fullscreenenter"",""0"",""4743""
","""event"",""trial"",""time""
""fullscreenexit"",""2"",""6054""
","null","<p></p>","null","","","","","","","","","","","","","","","","","","","","","","","",""
"","do_trial","27","253141","0.0-23.0-0.0","""event"",""trial"",""time""
""blur"",""0"",""0""
""focus"",""0"",""0""
""blur"",""0"",""1808""
""focus"",""0"",""3510""
""fullscreenenter"",""0"",""4743""
""fullscreenexit"",""2"",""6054""
""blur"",""2"",""7513""
""focus"",""2"",""10533""
""blur"",""2"",""12550""
""focus"",""3"",""19626""
""blur"",""4"",""23212""
""focus"",""4"",""31995""
""blur"",""4"",""32781""
""focus"",""5"",""42884""
""blur"",""6"",""46442""
""focus"",""7"",""62883""
""blur"",""8"",""65428""
""focus"",""9"",""100322""
""blur"",""10"",""104626""
""focus"",""11"",""127945""
""blur"",""12"",""142101""
""focus"",""12"",""152160""
""blur"",""14"",""156613""
""focus"",""15"",""197003""
""blur"",""16"",""200328""
""focus"",""16"",""206052""
""blur"",""17"",""216814""
""focus"",""17"",""218842""
""blur"",""18"",""229346""
""focus"",""19"",""231061""
""blur"",""19"",""235244""
""focus"",""19"",""235968""
","""event"",""trial"",""time""
""blur"",""0"",""0""
""blur"",""0"",""1808""
""blur"",""2"",""7513""
""blur"",""2"",""12550""
""blur"",""4"",""23212""
""blur"",""4"",""32781""
""blur"",""6"",""46442""
""blur"",""8"",""65428""
""blur"",""10"",""104626""
""blur"",""12"",""142101""
""blur"",""14"",""156613""
""blur"",""16"",""200328""
""blur"",""17"",""216814""
""blur"",""18"",""229346""
""blur"",""19"",""235244""
","""event"",""trial"",""time""
""focus"",""0"",""0""
""focus"",""0"",""3510""
""focus"",""2"",""10533""
""focus"",""3"",""19626""
""focus"",""4"",""31995""
""focus"",""5"",""42884""
""focus"",""7"",""62883""
""focus"",""9"",""100322""
""focus"",""11"",""127945""
""focus"",""12"",""152160""
""focus"",""15"",""197003""
""focus"",""16"",""206052""
""focus"",""17"",""218842""
""focus"",""19"",""231061""
""focus"",""19"",""235968""
","""event"",""trial"",""time""
""fullscreenenter"",""0"",""4743""
","""event"",""trial"",""time""
""fullscreenexit"",""2"",""6054""
","1192.5","","","","","","","","51","0,0,0","6","blank","234","null","0.6536020430098785","0.12186865799751745","0.08998118654599525","0","","","","","","","","",""
"","html-keyboard-response","28","254152","0.0-23.0-1.0","""event"",""trial"",""time""
""blur"",""0"",""0""
""focus"",""0"",""0""
""blur"",""0"",""1808""
""focus"",""0"",""3510""
""fullscreenenter"",""0"",""4743""
""fullscreenexit"",""2"",""6054""
""blur"",""2"",""7513""
""focus"",""2"",""10533""
""blur"",""2"",""12550""
""focus"",""3"",""19626""
""blur"",""4"",""23212""
""focus"",""4"",""31995""
""blur"",""4"",""32781""
""focus"",""5"",""42884""
""blur"",""6"",""46442""
""focus"",""7"",""62883""
""blur"",""8"",""65428""
""focus"",""9"",""100322""
""blur"",""10"",""104626""
""focus"",""11"",""127945""
""blur"",""12"",""142101""
""focus"",""12"",""152160""
""blur"",""14"",""156613""
""focus"",""15"",""197003""
""blur"",""16"",""200328""
""focus"",""16"",""206052""
""blur"",""17"",""216814""
""focus"",""17"",""218842""
""blur"",""18"",""229346""
""focus"",""19"",""231061""
""blur"",""19"",""235244""
""focus"",""19"",""235968""
","""event"",""trial"",""time""
""blur"",""0"",""0""
""blur"",""0"",""1808""
""blur"",""2"",""7513""
""blur"",""2"",""12550""
""blur"",""4"",""23212""
""blur"",""4"",""32781""
""blur"",""6"",""46442""
""blur"",""8"",""65428""
""blur"",""10"",""104626""
""blur"",""12"",""142101""
""blur"",""14"",""156613""
""blur"",""16"",""200328""
""blur"",""17"",""216814""
""blur"",""18"",""229346""
""blur"",""19"",""235244""
","""event"",""trial"",""time""
""focus"",""0"",""0""
""focus"",""0"",""3510""
""focus"",""2"",""10533""
""focus"",""3"",""19626""
""focus"",""4"",""31995""
""focus"",""5"",""42884""
""focus"",""7"",""62883""
""focus"",""9"",""100322""
""focus"",""11"",""127945""
""focus"",""12"",""152160""
""focus"",""15"",""197003""
""focus"",""16"",""206052""
""focus"",""17"",""218842""
""focus"",""19"",""231061""
""focus"",""19"",""235968""
","""event"",""trial"",""time""
""fullscreenenter"",""0"",""4743""
","""event"",""trial"",""time""
""fullscreenexit"",""2"",""6054""
","null","<p></p>","null","","","","","","","","","","","","","","","","","","","","","","","",""
"","do_trial","29","257234","0.0-24.0-0.0","""event"",""trial"",""time""
""blur"",""0"",""0""
""focus"",""0"",""0""
""blur"",""0"",""1808""
""focus"",""0"",""3510""
""fullscreenenter"",""0"",""4743""
""fullscreenexit"",""2"",""6054""
""blur"",""2"",""7513""
""focus"",""2"",""10533""
""blur"",""2"",""12550""
""focus"",""3"",""19626""
""blur"",""4"",""23212""
""focus"",""4"",""31995""
""blur"",""4"",""32781""
""focus"",""5"",""42884""
""blur"",""6"",""46442""
""focus"",""7"",""62883""
""blur"",""8"",""65428""
""focus"",""9"",""100322""
""blur"",""10"",""104626""
""focus"",""11"",""127945""
""blur"",""12"",""142101""
""focus"",""12"",""152160""
""blur"",""14"",""156613""
""focus"",""15"",""197003""
""blur"",""16"",""200328""
""focus"",""16"",""206052""
""blur"",""17"",""216814""
""focus"",""17"",""218842""
""blur"",""18"",""229346""
""focus"",""19"",""231061""
""blur"",""19"",""235244""
""focus"",""19"",""235968""
","""event"",""trial"",""time""
""blur"",""0"",""0""
""blur"",""0"",""1808""
""blur"",""2"",""7513""
""blur"",""2"",""12550""
""blur"",""4"",""23212""
""blur"",""4"",""32781""
""blur"",""6"",""46442""
""blur"",""8"",""65428""
""blur"",""10"",""104626""
""blur"",""12"",""142101""
""blur"",""14"",""156613""
""blur"",""16"",""200328""
""blur"",""17"",""216814""
""blur"",""18"",""229346""
""blur"",""19"",""235244""
","""event"",""trial"",""time""
""focus"",""0"",""0""
""focus"",""0"",""3510""
""focus"",""2"",""10533""
""focus"",""3"",""19626""
""focus"",""4"",""31995""
""focus"",""5"",""42884""
""focus"",""7"",""62883""
""focus"",""9"",""100322""
""focus"",""11"",""127945""
""focus"",""12"",""152160""
""focus"",""15"",""197003""
""focus"",""16"",""206052""
""focus"",""17"",""218842""
""focus"",""19"",""231061""
""focus"",""19"",""235968""
","""event"",""trial"",""time""
""fullscreenenter"",""0"",""4743""
","""event"",""trial"",""time""
""fullscreenexit"",""2"",""6054""
","501.0999999642372","","","","","","","","50","1,0,0","6","blank","235","null","0.68247877846893","0.16721420233097667","0.08912144375766737","0","","","","","","","","",""
"","html-keyboard-response","30","258252","0.0-24.0-1.0","""event"",""trial"",""time""
""blur"",""0"",""0""
""focus"",""0"",""0""
""blur"",""0"",""1808""
""focus"",""0"",""3510""
""fullscreenenter"",""0"",""4743""
""fullscreenexit"",""2"",""6054""
""blur"",""2"",""7513""
""focus"",""2"",""10533""
""blur"",""2"",""12550""
""focus"",""3"",""19626""
""blur"",""4"",""23212""
""focus"",""4"",""31995""
""blur"",""4"",""32781""
""focus"",""5"",""42884""
""blur"",""6"",""46442""
""focus"",""7"",""62883""
""blur"",""8"",""65428""
""focus"",""9"",""100322""
""blur"",""10"",""104626""
""focus"",""11"",""127945""
""blur"",""12"",""142101""
""focus"",""12"",""152160""
""blur"",""14"",""156613""
""focus"",""15"",""197003""
""blur"",""16"",""200328""
""focus"",""16"",""206052""
""blur"",""17"",""216814""
""focus"",""17"",""218842""
""blur"",""18"",""229346""
""focus"",""19"",""231061""
""blur"",""19"",""235244""
""focus"",""19"",""235968""
","""event"",""trial"",""time""
""blur"",""0"",""0""
""blur"",""0"",""1808""
""blur"",""2"",""7513""
""blur"",""2"",""12550""
""blur"",""4"",""23212""
""blur"",""4"",""32781""
""blur"",""6"",""46442""
""blur"",""8"",""65428""
""blur"",""10"",""104626""
""blur"",""12"",""142101""
""blur"",""14"",""156613""
""blur"",""16"",""200328""
""blur"",""17"",""216814""
""blur"",""18"",""229346""
""blur"",""19"",""235244""
","""event"",""trial"",""time""
""focus"",""0"",""0""
""focus"",""0"",""3510""
""focus"",""2"",""10533""
""focus"",""3"",""19626""
""focus"",""4"",""31995""
""focus"",""5"",""42884""
""focus"",""7"",""62883""
""focus"",""9"",""100322""
""focus"",""11"",""127945""
""focus"",""12"",""152160""
""focus"",""15"",""197003""
""focus"",""16"",""206052""
""focus"",""17"",""218842""
""focus"",""19"",""231061""
""focus"",""19"",""235968""
","""event"",""trial"",""time""
""fullscreenenter"",""0"",""4743""
","""event"",""trial"",""time""
""fullscreenexit"",""2"",""6054""
","null","<p></p>","null","","","","","","","","","","","","","","","","","","","","","","","",""
"","do_trial","31","260837","0.0-25.0-0.0","""event"",""trial"",""time""
""blur"",""0"",""0""
""focus"",""0"",""0""
""blur"",""0"",""1808""
""focus"",""0"",""3510""
""fullscreenenter"",""0"",""4743""
""fullscreenexit"",""2"",""6054""
""blur"",""2"",""7513""
""focus"",""2"",""10533""
""blur"",""2"",""12550""
""focus"",""3"",""19626""
""blur"",""4"",""23212""
""focus"",""4"",""31995""
""blur"",""4"",""32781""
""focus"",""5"",""42884""
""blur"",""6"",""46442""
""focus"",""7"",""62883""
""blur"",""8"",""65428""
""focus"",""9"",""100322""
""blur"",""10"",""104626""
""focus"",""11"",""127945""
""blur"",""12"",""142101""
""focus"",""12"",""152160""
""blur"",""14"",""156613""
""focus"",""15"",""197003""
""blur"",""16"",""200328""
""focus"",""16"",""206052""
""blur"",""17"",""216814""
""focus"",""17"",""218842""
""blur"",""18"",""229346""
""focus"",""19"",""231061""
""blur"",""19"",""235244""
""focus"",""19"",""235968""
","""event"",""trial"",""time""
""blur"",""0"",""0""
""blur"",""0"",""1808""
""blur"",""2"",""7513""
""blur"",""2"",""12550""
""blur"",""4"",""23212""
""blur"",""4"",""32781""
""blur"",""6"",""46442""
""blur"",""8"",""65428""
""blur"",""10"",""104626""
""blur"",""12"",""142101""
""blur"",""14"",""156613""
""blur"",""16"",""200328""
""blur"",""17"",""216814""
""blur"",""18"",""229346""
""blur"",""19"",""235244""
","""event"",""trial"",""time""
""focus"",""0"",""0""
""focus"",""0"",""3510""
""focus"",""2"",""10533""
""focus"",""3"",""19626""
""focus"",""4"",""31995""
""focus"",""5"",""42884""
""focus"",""7"",""62883""
""focus"",""9"",""100322""
""focus"",""11"",""127945""
""focus"",""12"",""152160""
""focus"",""15"",""197003""
""focus"",""16"",""206052""
""focus"",""17"",""218842""
""focus"",""19"",""231061""
""focus"",""19"",""235968""
","""event"",""trial"",""time""
""fullscreenenter"",""0"",""4743""
","""event"",""trial"",""time""
""fullscreenexit"",""2"",""6054""
","0.10000002384185791","","","","","","","","51","1,0,1","6","blank","236","null","0.7068913071739837","0.13263321119612068","0.12049603577809691","1","","","","","","","","",""
"","html-keyboard-response","32","261854","0.0-25.0-1.0","""event"",""trial"",""time""
""blur"",""0"",""0""
""focus"",""0"",""0""
""blur"",""0"",""1808""
""focus"",""0"",""3510""
""fullscreenenter"",""0"",""4743""
""fullscreenexit"",""2"",""6054""
""blur"",""2"",""7513""
""focus"",""2"",""10533""
""blur"",""2"",""12550""
""focus"",""3"",""19626""
""blur"",""4"",""23212""
""focus"",""4"",""31995""
""blur"",""4"",""32781""
""focus"",""5"",""42884""
""blur"",""6"",""46442""
""focus"",""7"",""62883""
""blur"",""8"",""65428""
""focus"",""9"",""100322""
""blur"",""10"",""104626""
""focus"",""11"",""127945""
""blur"",""12"",""142101""
""focus"",""12"",""152160""
""blur"",""14"",""156613""
""focus"",""15"",""197003""
""blur"",""16"",""200328""
""focus"",""16"",""206052""
""blur"",""17"",""216814""
""focus"",""17"",""218842""
""blur"",""18"",""229346""
""focus"",""19"",""231061""
""blur"",""19"",""235244""
""focus"",""19"",""235968""
","""event"",""trial"",""time""
""blur"",""0"",""0""
""blur"",""0"",""1808""
""blur"",""2"",""7513""
""blur"",""2"",""12550""
""blur"",""4"",""23212""
""blur"",""4"",""32781""
""blur"",""6"",""46442""
""blur"",""8"",""65428""
""blur"",""10"",""104626""
""blur"",""12"",""142101""
""blur"",""14"",""156613""
""blur"",""16"",""200328""
""blur"",""17"",""216814""
""blur"",""18"",""229346""
""blur"",""19"",""235244""
","""event"",""trial"",""time""
""focus"",""0"",""0""
""focus"",""0"",""3510""
""focus"",""2"",""10533""
""focus"",""3"",""19626""
""focus"",""4"",""31995""
""focus"",""5"",""42884""
""focus"",""7"",""62883""
""focus"",""9"",""100322""
""focus"",""11"",""127945""
""focus"",""12"",""152160""
""focus"",""15"",""197003""
""focus"",""16"",""206052""
""focus"",""17"",""218842""
""focus"",""19"",""231061""
""focus"",""19"",""235968""
","""event"",""trial"",""time""
""fullscreenenter"",""0"",""4743""
","""event"",""trial"",""time""
""fullscreenexit"",""2"",""6054""
","null","<p></p>","null","","","","","","","","","","","","","","","","","","","","","","","",""
"","do_trial","33","264523","0.0-26.0-0.0","""event"",""trial"",""time""
""blur"",""0"",""0""
""focus"",""0"",""0""
""blur"",""0"",""1808""
""focus"",""0"",""3510""
""fullscreenenter"",""0"",""4743""
""fullscreenexit"",""2"",""6054""
""blur"",""2"",""7513""
""focus"",""2"",""10533""
""blur"",""2"",""12550""
""focus"",""3"",""19626""
""blur"",""4"",""23212""
""focus"",""4"",""31995""
""blur"",""4"",""32781""
""focus"",""5"",""42884""
""blur"",""6"",""46442""
""focus"",""7"",""62883""
""blur"",""8"",""65428""
""focus"",""9"",""100322""
""blur"",""10"",""104626""
""focus"",""11"",""127945""
""blur"",""12"",""142101""
""focus"",""12"",""152160""
""blur"",""14"",""156613""
""focus"",""15"",""197003""
""blur"",""16"",""200328""
""focus"",""16"",""206052""
""blur"",""17"",""216814""
""focus"",""17"",""218842""
""blur"",""18"",""229346""
""focus"",""19"",""231061""
""blur"",""19"",""235244""
""focus"",""19"",""235968""
","""event"",""trial"",""time""
""blur"",""0"",""0""
""blur"",""0"",""1808""
""blur"",""2"",""7513""
""blur"",""2"",""12550""
""blur"",""4"",""23212""
""blur"",""4"",""32781""
""blur"",""6"",""46442""
""blur"",""8"",""65428""
""blur"",""10"",""104626""
""blur"",""12"",""142101""
""blur"",""14"",""156613""
""blur"",""16"",""200328""
""blur"",""17"",""216814""
""blur"",""18"",""229346""
""blur"",""19"",""235244""
","""event"",""trial"",""time""
""focus"",""0"",""0""
""focus"",""0"",""3510""
""focus"",""2"",""10533""
""focus"",""3"",""19626""
""focus"",""4"",""31995""
""focus"",""5"",""42884""
""focus"",""7"",""62883""
""focus"",""9"",""100322""
""focus"",""11"",""127945""
""focus"",""12"",""152160""
""focus"",""15"",""197003""
""focus"",""16"",""206052""
""focus"",""17"",""218842""
""focus"",""19"",""231061""
""focus"",""19"",""235968""
","""event"",""trial"",""time""
""fullscreenenter"",""0"",""4743""
","""event"",""trial"",""time""
""fullscreenexit"",""2"",""6054""
","85.30000001192093","","","","","","","","50","1,0,0","6","blank","237","null","0.6588460298040931","0.16230937914532714","0.12419566645963136","0","","","","","","","","",""
"","html-keyboard-response","34","265541","0.0-26.0-1.0","""event"",""trial"",""time""
""blur"",""0"",""0""
""focus"",""0"",""0""
""blur"",""0"",""1808""
""focus"",""0"",""3510""
""fullscreenenter"",""0"",""4743""
""fullscreenexit"",""2"",""6054""
""blur"",""2"",""7513""
""focus"",""2"",""10533""
""blur"",""2"",""12550""
""focus"",""3"",""19626""
""blur"",""4"",""23212""
""focus"",""4"",""31995""
""blur"",""4"",""32781""
""focus"",""5"",""42884""
""blur"",""6"",""46442""
""focus"",""7"",""62883""
""blur"",""8"",""65428""
""focus"",""9"",""100322""
""blur"",""10"",""104626""
""focus"",""11"",""127945""
""blur"",""12"",""142101""
""focus"",""12"",""152160""
""blur"",""14"",""156613""
""focus"",""15"",""197003""
""blur"",""16"",""200328""
""focus"",""16"",""206052""
""blur"",""17"",""216814""
""focus"",""17"",""218842""
""blur"",""18"",""229346""
""focus"",""19"",""231061""
""blur"",""19"",""235244""
""focus"",""19"",""235968""
","""event"",""trial"",""time""
""blur"",""0"",""0""
""blur"",""0"",""1808""
""blur"",""2"",""7513""
""blur"",""2"",""12550""
""blur"",""4"",""23212""
""blur"",""4"",""32781""
""blur"",""6"",""46442""
""blur"",""8"",""65428""
""blur"",""10"",""104626""
""blur"",""12"",""142101""
""blur"",""14"",""156613""
""blur"",""16"",""200328""
""blur"",""17"",""216814""
""blur"",""18"",""229346""
""blur"",""19"",""235244""
","""event"",""trial"",""time""
""focus"",""0"",""0""
""focus"",""0"",""3510""
""focus"",""2"",""10533""
""focus"",""3"",""19626""
""focus"",""4"",""31995""
""focus"",""5"",""42884""
""focus"",""7"",""62883""
""focus"",""9"",""100322""
""focus"",""11"",""127945""
""focus"",""12"",""152160""
""focus"",""15"",""197003""
""focus"",""16"",""206052""
""focus"",""17"",""218842""
""focus"",""19"",""231061""
""focus"",""19"",""235968""
","""event"",""trial"",""time""
""fullscreenenter"",""0"",""4743""
","""event"",""trial"",""time""
""fullscreenexit"",""2"",""6054""
","null","<p></p>","null","","","","","","","","","","","","","","","","","","","","","","","",""
"","do_trial","35","268125","0.0-27.0-0.0","""event"",""trial"",""time""
""blur"",""0"",""0""
""focus"",""0"",""0""
""blur"",""0"",""1808""
""focus"",""0"",""3510""
""fullscreenenter"",""0"",""4743""
""fullscreenexit"",""2"",""6054""
""blur"",""2"",""7513""
""focus"",""2"",""10533""
""blur"",""2"",""12550""
""focus"",""3"",""19626""
""blur"",""4"",""23212""
""focus"",""4"",""31995""
""blur"",""4"",""32781""
""focus"",""5"",""42884""
""blur"",""6"",""46442""
""focus"",""7"",""62883""
""blur"",""8"",""65428""
""focus"",""9"",""100322""
""blur"",""10"",""104626""
""focus"",""11"",""127945""
""blur"",""12"",""142101""
""focus"",""12"",""152160""
""blur"",""14"",""156613""
""focus"",""15"",""197003""
""blur"",""16"",""200328""
""focus"",""16"",""206052""
""blur"",""17"",""216814""
""focus"",""17"",""218842""
""blur"",""18"",""229346""
""focus"",""19"",""231061""
""blur"",""19"",""235244""
""focus"",""19"",""235968""
","""event"",""trial"",""time""
""blur"",""0"",""0""
""blur"",""0"",""1808""
""blur"",""2"",""7513""
""blur"",""2"",""12550""
""blur"",""4"",""23212""
""blur"",""4"",""32781""
""blur"",""6"",""46442""
""blur"",""8"",""65428""
""blur"",""10"",""104626""
""blur"",""12"",""142101""
""blur"",""14"",""156613""
""blur"",""16"",""200328""
""blur"",""17"",""216814""
""blur"",""18"",""229346""
""blur"",""19"",""235244""
","""event"",""trial"",""time""
""focus"",""0"",""0""
""focus"",""0"",""3510""
""focus"",""2"",""10533""
""focus"",""3"",""19626""
""focus"",""4"",""31995""
""focus"",""5"",""42884""
""focus"",""7"",""62883""
""focus"",""9"",""100322""
""focus"",""11"",""127945""
""focus"",""12"",""152160""
""focus"",""15"",""197003""
""focus"",""16"",""206052""
""focus"",""17"",""218842""
""focus"",""19"",""231061""
""focus"",""19"",""235968""
","""event"",""trial"",""time""
""fullscreenenter"",""0"",""4743""
","""event"",""trial"",""time""
""fullscreenexit"",""2"",""6054""
","0.09999996423721313","","","","","","","","49","0,1,0","6","blank","238","null","0.7097343207166932","0.2789245829597564","0.10991763759302071","0","","","","","","","","",""
"","html-keyboard-response","36","269143","0.0-27.0-1.0","""event"",""trial"",""time""
""blur"",""0"",""0""
""focus"",""0"",""0""
""blur"",""0"",""1808""
""focus"",""0"",""3510""
""fullscreenenter"",""0"",""4743""
""fullscreenexit"",""2"",""6054""
""blur"",""2"",""7513""
""focus"",""2"",""10533""
""blur"",""2"",""12550""
""focus"",""3"",""19626""
""blur"",""4"",""23212""
""focus"",""4"",""31995""
""blur"",""4"",""32781""
""focus"",""5"",""42884""
""blur"",""6"",""46442""
""focus"",""7"",""62883""
""blur"",""8"",""65428""
""focus"",""9"",""100322""
""blur"",""10"",""104626""
""focus"",""11"",""127945""
""blur"",""12"",""142101""
""focus"",""12"",""152160""
""blur"",""14"",""156613""
""focus"",""15"",""197003""
""blur"",""16"",""200328""
""focus"",""16"",""206052""
""blur"",""17"",""216814""
""focus"",""17"",""218842""
""blur"",""18"",""229346""
""focus"",""19"",""231061""
""blur"",""19"",""235244""
""focus"",""19"",""235968""
","""event"",""trial"",""time""
""blur"",""0"",""0""
""blur"",""0"",""1808""
""blur"",""2"",""7513""
""blur"",""2"",""12550""
""blur"",""4"",""23212""
""blur"",""4"",""32781""
""blur"",""6"",""46442""
""blur"",""8"",""65428""
""blur"",""10"",""104626""
""blur"",""12"",""142101""
""blur"",""14"",""156613""
""blur"",""16"",""200328""
""blur"",""17"",""216814""
""blur"",""18"",""229346""
""blur"",""19"",""235244""
","""event"",""trial"",""time""
""focus"",""0"",""0""
""focus"",""0"",""3510""
""focus"",""2"",""10533""
""focus"",""3"",""19626""
""focus"",""4"",""31995""
""focus"",""5"",""42884""
""focus"",""7"",""62883""
""focus"",""9"",""100322""
""focus"",""11"",""127945""
""focus"",""12"",""152160""
""focus"",""15"",""197003""
""focus"",""16"",""206052""
""focus"",""17"",""218842""
""focus"",""19"",""231061""
""focus"",""19"",""235968""
","""event"",""trial"",""time""
""fullscreenenter"",""0"",""4743""
","""event"",""trial"",""time""
""fullscreenexit"",""2"",""6054""
","null","<p></p>","null","","","","","","","","","","","","","","","","","","","","","","","",""
"","do_trial","37","272278","0.0-28.0-0.0","""event"",""trial"",""time""
""blur"",""0"",""0""
""focus"",""0"",""0""
""blur"",""0"",""1808""
""focus"",""0"",""3510""
""fullscreenenter"",""0"",""4743""
""fullscreenexit"",""2"",""6054""
""blur"",""2"",""7513""
""focus"",""2"",""10533""
""blur"",""2"",""12550""
""focus"",""3"",""19626""
""blur"",""4"",""23212""
""focus"",""4"",""31995""
""blur"",""4"",""32781""
""focus"",""5"",""42884""
""blur"",""6"",""46442""
""focus"",""7"",""62883""
""blur"",""8"",""65428""
""focus"",""9"",""100322""
""blur"",""10"",""104626""
""focus"",""11"",""127945""
""blur"",""12"",""142101""
""focus"",""12"",""152160""
""blur"",""14"",""156613""
""focus"",""15"",""197003""
""blur"",""16"",""200328""
""focus"",""16"",""206052""
""blur"",""17"",""216814""
""focus"",""17"",""218842""
""blur"",""18"",""229346""
""focus"",""19"",""231061""
""blur"",""19"",""235244""
""focus"",""19"",""235968""
","""event"",""trial"",""time""
""blur"",""0"",""0""
""blur"",""0"",""1808""
""blur"",""2"",""7513""
""blur"",""2"",""12550""
""blur"",""4"",""23212""
""blur"",""4"",""32781""
""blur"",""6"",""46442""
""blur"",""8"",""65428""
""blur"",""10"",""104626""
""blur"",""12"",""142101""
""blur"",""14"",""156613""
""blur"",""16"",""200328""
""blur"",""17"",""216814""
""blur"",""18"",""229346""
""blur"",""19"",""235244""
","""event"",""trial"",""time""
""focus"",""0"",""0""
""focus"",""0"",""3510""
""focus"",""2"",""10533""
""focus"",""3"",""19626""
""focus"",""4"",""31995""
""focus"",""5"",""42884""
""focus"",""7"",""62883""
""focus"",""9"",""100322""
""focus"",""11"",""127945""
""focus"",""12"",""152160""
""focus"",""15"",""197003""
""focus"",""16"",""206052""
""focus"",""17"",""218842""
""focus"",""19"",""231061""
""focus"",""19"",""235968""
","""event"",""trial"",""time""
""fullscreenenter"",""0"",""4743""
","""event"",""trial"",""time""
""fullscreenexit"",""2"",""6054""
","561.1999999880791","","","","","","","","51","0,1,0","6","blank","239","null","0.6261656022552902","0.21909426288872047","0.06382389501698217","0","","","","","","","","",""
"","html-keyboard-response","38","273296","0.0-28.0-1.0","""event"",""trial"",""time""
""blur"",""0"",""0""
""focus"",""0"",""0""
""blur"",""0"",""1808""
""focus"",""0"",""3510""
""fullscreenenter"",""0"",""4743""
""fullscreenexit"",""2"",""6054""
""blur"",""2"",""7513""
""focus"",""2"",""10533""
""blur"",""2"",""12550""
""focus"",""3"",""19626""
""blur"",""4"",""23212""
""focus"",""4"",""31995""
""blur"",""4"",""32781""
""focus"",""5"",""42884""
""blur"",""6"",""46442""
""focus"",""7"",""62883""
""blur"",""8"",""65428""
""focus"",""9"",""100322""
""blur"",""10"",""104626""
""focus"",""11"",""127945""
""blur"",""12"",""142101""
""focus"",""12"",""152160""
""blur"",""14"",""156613""
""focus"",""15"",""197003""
""blur"",""16"",""200328""
""focus"",""16"",""206052""
""blur"",""17"",""216814""
""focus"",""17"",""218842""
""blur"",""18"",""229346""
""focus"",""19"",""231061""
""blur"",""19"",""235244""
""focus"",""19"",""235968""
","""event"",""trial"",""time""
""blur"",""0"",""0""
""blur"",""0"",""1808""
""blur"",""2"",""7513""
""blur"",""2"",""12550""
""blur"",""4"",""23212""
""blur"",""4"",""32781""
""blur"",""6"",""46442""
""blur"",""8"",""65428""
""blur"",""10"",""104626""
""blur"",""12"",""142101""
""blur"",""14"",""156613""
""blur"",""16"",""200328""
""blur"",""17"",""216814""
""blur"",""18"",""229346""
""blur"",""19"",""235244""
","""event"",""trial"",""time""
""focus"",""0"",""0""
""focus"",""0"",""3510""
""focus"",""2"",""10533""
""focus"",""3"",""19626""
""focus"",""4"",""31995""
""focus"",""5"",""42884""
""focus"",""7"",""62883""
""focus"",""9"",""100322""
""focus"",""11"",""127945""
""focus"",""12"",""152160""
""focus"",""15"",""197003""
""focus"",""16"",""206052""
""focus"",""17"",""218842""
""focus"",""19"",""231061""
""focus"",""19"",""235968""
","""event"",""trial"",""time""
""fullscreenenter"",""0"",""4743""
","""event"",""trial"",""time""
""fullscreenexit"",""2"",""6054""
","null","<p></p>","null","","","","","","","","","","","","","","","","","","","","","","","",""
"","do_trial","39","276030","0.0-29.0-0.0","""event"",""trial"",""time""
""blur"",""0"",""0""
""focus"",""0"",""0""
""blur"",""0"",""1808""
""focus"",""0"",""3510""
""fullscreenenter"",""0"",""4743""
""fullscreenexit"",""2"",""6054""
""blur"",""2"",""7513""
""focus"",""2"",""10533""
""blur"",""2"",""12550""
""focus"",""3"",""19626""
""blur"",""4"",""23212""
""focus"",""4"",""31995""
""blur"",""4"",""32781""
""focus"",""5"",""42884""
""blur"",""6"",""46442""
""focus"",""7"",""62883""
""blur"",""8"",""65428""
""focus"",""9"",""100322""
""blur"",""10"",""104626""
""focus"",""11"",""127945""
""blur"",""12"",""142101""
""focus"",""12"",""152160""
""blur"",""14"",""156613""
""focus"",""15"",""197003""
""blur"",""16"",""200328""
""focus"",""16"",""206052""
""blur"",""17"",""216814""
""focus"",""17"",""218842""
""blur"",""18"",""229346""
""focus"",""19"",""231061""
""blur"",""19"",""235244""
""focus"",""19"",""235968""
","""event"",""trial"",""time""
""blur"",""0"",""0""
""blur"",""0"",""1808""
""blur"",""2"",""7513""
""blur"",""2"",""12550""
""blur"",""4"",""23212""
""blur"",""4"",""32781""
""blur"",""6"",""46442""
""blur"",""8"",""65428""
""blur"",""10"",""104626""
""blur"",""12"",""142101""
""blur"",""14"",""156613""
""blur"",""16"",""200328""
""blur"",""17"",""216814""
""blur"",""18"",""229346""
""blur"",""19"",""235244""
","""event"",""trial"",""time""
""focus"",""0"",""0""
""focus"",""0"",""3510""
""focus"",""2"",""10533""
""focus"",""3"",""19626""
""focus"",""4"",""31995""
""focus"",""5"",""42884""
""focus"",""7"",""62883""
""focus"",""9"",""100322""
""focus"",""11"",""127945""
""focus"",""12"",""152160""
""focus"",""15"",""197003""
""focus"",""16"",""206052""
""focus"",""17"",""218842""
""focus"",""19"",""231061""
""focus"",""19"",""235968""
","""event"",""trial"",""time""
""fullscreenenter"",""0"",""4743""
","""event"",""trial"",""time""
""fullscreenexit"",""2"",""6054""
","148.19999998807907","","","","","","","","50","1,0,0","6","blank","240","null","0.5693121289662203","0.3909866808024354","0.1168201453181926","0","","","","","","","","",""
"","html-keyboard-response","40","277041","0.0-29.0-1.0","""event"",""trial"",""time""
""blur"",""0"",""0""
""focus"",""0"",""0""
""blur"",""0"",""1808""
""focus"",""0"",""3510""
""fullscreenenter"",""0"",""4743""
""fullscreenexit"",""2"",""6054""
""blur"",""2"",""7513""
""focus"",""2"",""10533""
""blur"",""2"",""12550""
""focus"",""3"",""19626""
""blur"",""4"",""23212""
""focus"",""4"",""31995""
""blur"",""4"",""32781""
""focus"",""5"",""42884""
""blur"",""6"",""46442""
""focus"",""7"",""62883""
""blur"",""8"",""65428""
""focus"",""9"",""100322""
""blur"",""10"",""104626""
""focus"",""11"",""127945""
""blur"",""12"",""142101""
""focus"",""12"",""152160""
""blur"",""14"",""156613""
""focus"",""15"",""197003""
""blur"",""16"",""200328""
""focus"",""16"",""206052""
""blur"",""17"",""216814""
""focus"",""17"",""218842""
""blur"",""18"",""229346""
""focus"",""19"",""231061""
""blur"",""19"",""235244""
""focus"",""19"",""235968""
""blur"",""41"",""278481""
""focus"",""41"",""279240""
","""event"",""trial"",""time""
""blur"",""0"",""0""
""blur"",""0"",""1808""
""blur"",""2"",""7513""
""blur"",""2"",""12550""
""blur"",""4"",""23212""
""blur"",""4"",""32781""
""blur"",""6"",""46442""
""blur"",""8"",""65428""
""blur"",""10"",""104626""
""blur"",""12"",""142101""
""blur"",""14"",""156613""
""blur"",""16"",""200328""
""blur"",""17"",""216814""
""blur"",""18"",""229346""
""blur"",""19"",""235244""
""blur"",""41"",""278481""
","""event"",""trial"",""time""
""focus"",""0"",""0""
""focus"",""0"",""3510""
""focus"",""2"",""10533""
""focus"",""3"",""19626""
""focus"",""4"",""31995""
""focus"",""5"",""42884""
""focus"",""7"",""62883""
""focus"",""9"",""100322""
""focus"",""11"",""127945""
""focus"",""12"",""152160""
""focus"",""15"",""197003""
""focus"",""16"",""206052""
""focus"",""17"",""218842""
""focus"",""19"",""231061""
""focus"",""19"",""235968""
""focus"",""41"",""279240""
","""event"",""trial"",""time""
""fullscreenenter"",""0"",""4743""
","""event"",""trial"",""time""
""fullscreenexit"",""2"",""6054""
","null","<p></p>","null","","","","","","","","","","","","","","","","","","","","","","","",""
"","do_trial","41","279688","0.0-30.0-0.0","""event"",""trial"",""time""
""blur"",""0"",""0""
""focus"",""0"",""0""
""blur"",""0"",""1808""
""focus"",""0"",""3510""
""fullscreenenter"",""0"",""4743""
""fullscreenexit"",""2"",""6054""
""blur"",""2"",""7513""
""focus"",""2"",""10533""
""blur"",""2"",""12550""
""focus"",""3"",""19626""
""blur"",""4"",""23212""
""focus"",""4"",""31995""
""blur"",""4"",""32781""
""focus"",""5"",""42884""
""blur"",""6"",""46442""
""focus"",""7"",""62883""
""blur"",""8"",""65428""
""focus"",""9"",""100322""
""blur"",""10"",""104626""
""focus"",""11"",""127945""
""blur"",""12"",""142101""
""focus"",""12"",""152160""
""blur"",""14"",""156613""
""focus"",""15"",""197003""
""blur"",""16"",""200328""
""focus"",""16"",""206052""
""blur"",""17"",""216814""
""focus"",""17"",""218842""
""blur"",""18"",""229346""
""focus"",""19"",""231061""
""blur"",""19"",""235244""
""focus"",""19"",""235968""
""blur"",""41"",""278481""
""focus"",""41"",""279240""
","""event"",""trial"",""time""
""blur"",""0"",""0""
""blur"",""0"",""1808""
""blur"",""2"",""7513""
""blur"",""2"",""12550""
""blur"",""4"",""23212""
""blur"",""4"",""32781""
""blur"",""6"",""46442""
""blur"",""8"",""65428""
""blur"",""10"",""104626""
""blur"",""12"",""142101""
""blur"",""14"",""156613""
""blur"",""16"",""200328""
""blur"",""17"",""216814""
""blur"",""18"",""229346""
""blur"",""19"",""235244""
""blur"",""41"",""278481""
","""event"",""trial"",""time""
""focus"",""0"",""0""
""focus"",""0"",""3510""
""focus"",""2"",""10533""
""focus"",""3"",""19626""
""focus"",""4"",""31995""
""focus"",""5"",""42884""
""focus"",""7"",""62883""
""focus"",""9"",""100322""
""focus"",""11"",""127945""
""focus"",""12"",""152160""
""focus"",""15"",""197003""
""focus"",""16"",""206052""
""focus"",""17"",""218842""
""focus"",""19"",""231061""
""focus"",""19"",""235968""
""focus"",""41"",""279240""
","""event"",""trial"",""time""
""fullscreenenter"",""0"",""4743""
","""event"",""trial"",""time""
""fullscreenexit"",""2"",""6054""
","73.30000001192093","","","","","","","","51","1,0,0","6","blank","241","null","0.5496325328979151","0.3980878126370568","0.06434614884049449","0","","","","","","","","",""
"","html-keyboard-response","42","280704","0.0-30.0-1.0","""event"",""trial"",""time""
""blur"",""0"",""0""
""focus"",""0"",""0""
""blur"",""0"",""1808""
""focus"",""0"",""3510""
""fullscreenenter"",""0"",""4743""
""fullscreenexit"",""2"",""6054""
""blur"",""2"",""7513""
""focus"",""2"",""10533""
""blur"",""2"",""12550""
""focus"",""3"",""19626""
""blur"",""4"",""23212""
""focus"",""4"",""31995""
""blur"",""4"",""32781""
""focus"",""5"",""42884""
""blur"",""6"",""46442""
""focus"",""7"",""62883""
""blur"",""8"",""65428""
""focus"",""9"",""100322""
""blur"",""10"",""104626""
""focus"",""11"",""127945""
""blur"",""12"",""142101""
""focus"",""12"",""152160""
""blur"",""14"",""156613""
""focus"",""15"",""197003""
""blur"",""16"",""200328""
""focus"",""16"",""206052""
""blur"",""17"",""216814""
""focus"",""17"",""218842""
""blur"",""18"",""229346""
""focus"",""19"",""231061""
""blur"",""19"",""235244""
""focus"",""19"",""235968""
""blur"",""41"",""278481""
""focus"",""41"",""279240""
","""event"",""trial"",""time""
""blur"",""0"",""0""
""blur"",""0"",""1808""
""blur"",""2"",""7513""
""blur"",""2"",""12550""
""blur"",""4"",""23212""
""blur"",""4"",""32781""
""blur"",""6"",""46442""
""blur"",""8"",""65428""
""blur"",""10"",""104626""
""blur"",""12"",""142101""
""blur"",""14"",""156613""
""blur"",""16"",""200328""
""blur"",""17"",""216814""
""blur"",""18"",""229346""
""blur"",""19"",""235244""
""blur"",""41"",""278481""
","""event"",""trial"",""time""
""focus"",""0"",""0""
""focus"",""0"",""3510""
""focus"",""2"",""10533""
""focus"",""3"",""19626""
""focus"",""4"",""31995""
""focus"",""5"",""42884""
""focus"",""7"",""62883""
""focus"",""9"",""100322""
""focus"",""11"",""127945""
""focus"",""12"",""152160""
""focus"",""15"",""197003""
""focus"",""16"",""206052""
""focus"",""17"",""218842""
""focus"",""19"",""231061""
""focus"",""19"",""235968""
""focus"",""41"",""279240""
","""event"",""trial"",""time""
""fullscreenenter"",""0"",""4743""
","""event"",""trial"",""time""
""fullscreenexit"",""2"",""6054""
","null","<p></p>","null","","","","","","","","","","","","","","","","","","","","","","","",""
"","do_trial","43","283285","0.0-31.0-0.0","""event"",""trial"",""time""
""blur"",""0"",""0""
""focus"",""0"",""0""
""blur"",""0"",""1808""
""focus"",""0"",""3510""
""fullscreenenter"",""0"",""4743""
""fullscreenexit"",""2"",""6054""
""blur"",""2"",""7513""
""focus"",""2"",""10533""
""blur"",""2"",""12550""
""focus"",""3"",""19626""
""blur"",""4"",""23212""
""focus"",""4"",""31995""
""blur"",""4"",""32781""
""focus"",""5"",""42884""
""blur"",""6"",""46442""
""focus"",""7"",""62883""
""blur"",""8"",""65428""
""focus"",""9"",""100322""
""blur"",""10"",""104626""
""focus"",""11"",""127945""
""blur"",""12"",""142101""
""focus"",""12"",""152160""
""blur"",""14"",""156613""
""focus"",""15"",""197003""
""blur"",""16"",""200328""
""focus"",""16"",""206052""
""blur"",""17"",""216814""
""focus"",""17"",""218842""
""blur"",""18"",""229346""
""focus"",""19"",""231061""
""blur"",""19"",""235244""
""focus"",""19"",""235968""
""blur"",""41"",""278481""
""focus"",""41"",""279240""
","""event"",""trial"",""time""
""blur"",""0"",""0""
""blur"",""0"",""1808""
""blur"",""2"",""7513""
""blur"",""2"",""12550""
""blur"",""4"",""23212""
""blur"",""4"",""32781""
""blur"",""6"",""46442""
""blur"",""8"",""65428""
""blur"",""10"",""104626""
""blur"",""12"",""142101""
""blur"",""14"",""156613""
""blur"",""16"",""200328""
""blur"",""17"",""216814""
""blur"",""18"",""229346""
""blur"",""19"",""235244""
""blur"",""41"",""278481""
","""event"",""trial"",""time""
""focus"",""0"",""0""
""focus"",""0"",""3510""
""focus"",""2"",""10533""
""focus"",""3"",""19626""
""focus"",""4"",""31995""
""focus"",""5"",""42884""
""focus"",""7"",""62883""
""focus"",""9"",""100322""
""focus"",""11"",""127945""
""focus"",""12"",""152160""
""focus"",""15"",""197003""
""focus"",""16"",""206052""
""focus"",""17"",""218842""
""focus"",""19"",""231061""
""focus"",""19"",""235968""
""focus"",""41"",""279240""
","""event"",""trial"",""time""
""fullscreenenter"",""0"",""4743""
","""event"",""trial"",""time""
""fullscreenexit"",""2"",""6054""
","0.20000004768371582","","","","","","","","51","0,0,1","6","blank","242","null","0.3558373302588676","0.2296735554736048","0.2875807855696221","1","","","","","","","","",""
"","html-keyboard-response","44","284302","0.0-31.0-1.0","""event"",""trial"",""time""
""blur"",""0"",""0""
""focus"",""0"",""0""
""blur"",""0"",""1808""
""focus"",""0"",""3510""
""fullscreenenter"",""0"",""4743""
""fullscreenexit"",""2"",""6054""
""blur"",""2"",""7513""
""focus"",""2"",""10533""
""blur"",""2"",""12550""
""focus"",""3"",""19626""
""blur"",""4"",""23212""
""focus"",""4"",""31995""
""blur"",""4"",""32781""
""focus"",""5"",""42884""
""blur"",""6"",""46442""
""focus"",""7"",""62883""
""blur"",""8"",""65428""
""focus"",""9"",""100322""
""blur"",""10"",""104626""
""focus"",""11"",""127945""
""blur"",""12"",""142101""
""focus"",""12"",""152160""
""blur"",""14"",""156613""
""focus"",""15"",""197003""
""blur"",""16"",""200328""
""focus"",""16"",""206052""
""blur"",""17"",""216814""
""focus"",""17"",""218842""
""blur"",""18"",""229346""
""focus"",""19"",""231061""
""blur"",""19"",""235244""
""focus"",""19"",""235968""
""blur"",""41"",""278481""
""focus"",""41"",""279240""
","""event"",""trial"",""time""
""blur"",""0"",""0""
""blur"",""0"",""1808""
""blur"",""2"",""7513""
""blur"",""2"",""12550""
""blur"",""4"",""23212""
""blur"",""4"",""32781""
""blur"",""6"",""46442""
""blur"",""8"",""65428""
""blur"",""10"",""104626""
""blur"",""12"",""142101""
""blur"",""14"",""156613""
""blur"",""16"",""200328""
""blur"",""17"",""216814""
""blur"",""18"",""229346""
""blur"",""19"",""235244""
""blur"",""41"",""278481""
","""event"",""trial"",""time""
""focus"",""0"",""0""
""focus"",""0"",""3510""
""focus"",""2"",""10533""
""focus"",""3"",""19626""
""focus"",""4"",""31995""
""focus"",""5"",""42884""
""focus"",""7"",""62883""
""focus"",""9"",""100322""
""focus"",""11"",""127945""
""focus"",""12"",""152160""
""focus"",""15"",""197003""
""focus"",""16"",""206052""
""focus"",""17"",""218842""
""focus"",""19"",""231061""
""focus"",""19"",""235968""
""focus"",""41"",""279240""
","""event"",""trial"",""time""
""fullscreenenter"",""0"",""4743""
","""event"",""trial"",""time""
""fullscreenexit"",""2"",""6054""
","null","<p></p>","null","","","","","","","","","","","","","","","","","","","","","","","",""
"","do_trial","45","288107","0.0-32.0-0.0","""event"",""trial"",""time""
""blur"",""0"",""0""
""focus"",""0"",""0""
""blur"",""0"",""1808""
""focus"",""0"",""3510""
""fullscreenenter"",""0"",""4743""
""fullscreenexit"",""2"",""6054""
""blur"",""2"",""7513""
""focus"",""2"",""10533""
""blur"",""2"",""12550""
""focus"",""3"",""19626""
""blur"",""4"",""23212""
""focus"",""4"",""31995""
""blur"",""4"",""32781""
""focus"",""5"",""42884""
""blur"",""6"",""46442""
""focus"",""7"",""62883""
""blur"",""8"",""65428""
""focus"",""9"",""100322""
""blur"",""10"",""104626""
""focus"",""11"",""127945""
""blur"",""12"",""142101""
""focus"",""12"",""152160""
""blur"",""14"",""156613""
""focus"",""15"",""197003""
""blur"",""16"",""200328""
""focus"",""16"",""206052""
""blur"",""17"",""216814""
""focus"",""17"",""218842""
""blur"",""18"",""229346""
""focus"",""19"",""231061""
""blur"",""19"",""235244""
""focus"",""19"",""235968""
""blur"",""41"",""278481""
""focus"",""41"",""279240""
","""event"",""trial"",""time""
""blur"",""0"",""0""
""blur"",""0"",""1808""
""blur"",""2"",""7513""
""blur"",""2"",""12550""
""blur"",""4"",""23212""
""blur"",""4"",""32781""
""blur"",""6"",""46442""
""blur"",""8"",""65428""
""blur"",""10"",""104626""
""blur"",""12"",""142101""
""blur"",""14"",""156613""
""blur"",""16"",""200328""
""blur"",""17"",""216814""
""blur"",""18"",""229346""
""blur"",""19"",""235244""
""blur"",""41"",""278481""
","""event"",""trial"",""time""
""focus"",""0"",""0""
""focus"",""0"",""3510""
""focus"",""2"",""10533""
""focus"",""3"",""19626""
""focus"",""4"",""31995""
""focus"",""5"",""42884""
""focus"",""7"",""62883""
""focus"",""9"",""100322""
""focus"",""11"",""127945""
""focus"",""12"",""152160""
""focus"",""15"",""197003""
""focus"",""16"",""206052""
""focus"",""17"",""218842""
""focus"",""19"",""231061""
""focus"",""19"",""235968""
""focus"",""41"",""279240""
","""event"",""trial"",""time""
""fullscreenenter"",""0"",""4743""
","""event"",""trial"",""time""
""fullscreenexit"",""2"",""6054""
","1221.3999999761581","","","","","","","","50","0,0,1","6","blank","243","null","0.27206191681276387","0.12755984055028155","0.46283925749693494","0","","","","","","","","",""
"","html-keyboard-response","46","289123","0.0-32.0-1.0","""event"",""trial"",""time""
""blur"",""0"",""0""
""focus"",""0"",""0""
""blur"",""0"",""1808""
""focus"",""0"",""3510""
""fullscreenenter"",""0"",""4743""
""fullscreenexit"",""2"",""6054""
""blur"",""2"",""7513""
""focus"",""2"",""10533""
""blur"",""2"",""12550""
""focus"",""3"",""19626""
""blur"",""4"",""23212""
""focus"",""4"",""31995""
""blur"",""4"",""32781""
""focus"",""5"",""42884""
""blur"",""6"",""46442""
""focus"",""7"",""62883""
""blur"",""8"",""65428""
""focus"",""9"",""100322""
""blur"",""10"",""104626""
""focus"",""11"",""127945""
""blur"",""12"",""142101""
""focus"",""12"",""152160""
""blur"",""14"",""156613""
""focus"",""15"",""197003""
""blur"",""16"",""200328""
""focus"",""16"",""206052""
""blur"",""17"",""216814""
""focus"",""17"",""218842""
""blur"",""18"",""229346""
""focus"",""19"",""231061""
""blur"",""19"",""235244""
""focus"",""19"",""235968""
""blur"",""41"",""278481""
""focus"",""41"",""279240""
","""event"",""trial"",""time""
""blur"",""0"",""0""
""blur"",""0"",""1808""
""blur"",""2"",""7513""
""blur"",""2"",""12550""
""blur"",""4"",""23212""
""blur"",""4"",""32781""
""blur"",""6"",""46442""
""blur"",""8"",""65428""
""blur"",""10"",""104626""
""blur"",""12"",""142101""
""blur"",""14"",""156613""
""blur"",""16"",""200328""
""blur"",""17"",""216814""
""blur"",""18"",""229346""
""blur"",""19"",""235244""
""blur"",""41"",""278481""
","""event"",""trial"",""time""
""focus"",""0"",""0""
""focus"",""0"",""3510""
""focus"",""2"",""10533""
""focus"",""3"",""19626""
""focus"",""4"",""31995""
""focus"",""5"",""42884""
""focus"",""7"",""62883""
""focus"",""9"",""100322""
""focus"",""11"",""127945""
""focus"",""12"",""152160""
""focus"",""15"",""197003""
""focus"",""16"",""206052""
""focus"",""17"",""218842""
""focus"",""19"",""231061""
""focus"",""19"",""235968""
""focus"",""41"",""279240""
","""event"",""trial"",""time""
""fullscreenenter"",""0"",""4743""
","""event"",""trial"",""time""
""fullscreenexit"",""2"",""6054""
","null","<p></p>","null","","","","","","","","","","","","","","","","","","","","","","","",""
"","do_trial","47","292042","0.0-33.0-0.0","""event"",""trial"",""time""
""blur"",""0"",""0""
""focus"",""0"",""0""
""blur"",""0"",""1808""
""focus"",""0"",""3510""
""fullscreenenter"",""0"",""4743""
""fullscreenexit"",""2"",""6054""
""blur"",""2"",""7513""
""focus"",""2"",""10533""
""blur"",""2"",""12550""
""focus"",""3"",""19626""
""blur"",""4"",""23212""
""focus"",""4"",""31995""
""blur"",""4"",""32781""
""focus"",""5"",""42884""
""blur"",""6"",""46442""
""focus"",""7"",""62883""
""blur"",""8"",""65428""
""focus"",""9"",""100322""
""blur"",""10"",""104626""
""focus"",""11"",""127945""
""blur"",""12"",""142101""
""focus"",""12"",""152160""
""blur"",""14"",""156613""
""focus"",""15"",""197003""
""blur"",""16"",""200328""
""focus"",""16"",""206052""
""blur"",""17"",""216814""
""focus"",""17"",""218842""
""blur"",""18"",""229346""
""focus"",""19"",""231061""
""blur"",""19"",""235244""
""focus"",""19"",""235968""
""blur"",""41"",""278481""
""focus"",""41"",""279240""
","""event"",""trial"",""time""
""blur"",""0"",""0""
""blur"",""0"",""1808""
""blur"",""2"",""7513""
""blur"",""2"",""12550""
""blur"",""4"",""23212""
""blur"",""4"",""32781""
""blur"",""6"",""46442""
""blur"",""8"",""65428""
""blur"",""10"",""104626""
""blur"",""12"",""142101""
""blur"",""14"",""156613""
""blur"",""16"",""200328""
""blur"",""17"",""216814""
""blur"",""18"",""229346""
""blur"",""19"",""235244""
""blur"",""41"",""278481""
","""event"",""trial"",""time""
""focus"",""0"",""0""
""focus"",""0"",""3510""
""focus"",""2"",""10533""
""focus"",""3"",""19626""
""focus"",""4"",""31995""
""focus"",""5"",""42884""
""focus"",""7"",""62883""
""focus"",""9"",""100322""
""focus"",""11"",""127945""
""focus"",""12"",""152160""
""focus"",""15"",""197003""
""focus"",""16"",""206052""
""focus"",""17"",""218842""
""focus"",""19"",""231061""
""focus"",""19"",""235968""
""focus"",""41"",""279240""
","""event"",""trial"",""time""
""fullscreenenter"",""0"",""4743""
","""event"",""trial"",""time""
""fullscreenexit"",""2"",""6054""
","340.19999998807907","","","","","","","","50","1,0,1","6","blank","244","null","0.24885948712182862","0.1898711293225341","0.5738232829880212","0","","","","","","","","",""
"","html-keyboard-response","48","293045","0.0-33.0-1.0","""event"",""trial"",""time""
""blur"",""0"",""0""
""focus"",""0"",""0""
""blur"",""0"",""1808""
""focus"",""0"",""3510""
""fullscreenenter"",""0"",""4743""
""fullscreenexit"",""2"",""6054""
""blur"",""2"",""7513""
""focus"",""2"",""10533""
""blur"",""2"",""12550""
""focus"",""3"",""19626""
""blur"",""4"",""23212""
""focus"",""4"",""31995""
""blur"",""4"",""32781""
""focus"",""5"",""42884""
""blur"",""6"",""46442""
""focus"",""7"",""62883""
""blur"",""8"",""65428""
""focus"",""9"",""100322""
""blur"",""10"",""104626""
""focus"",""11"",""127945""
""blur"",""12"",""142101""
""focus"",""12"",""152160""
""blur"",""14"",""156613""
""focus"",""15"",""197003""
""blur"",""16"",""200328""
""focus"",""16"",""206052""
""blur"",""17"",""216814""
""focus"",""17"",""218842""
""blur"",""18"",""229346""
""focus"",""19"",""231061""
""blur"",""19"",""235244""
""focus"",""19"",""235968""
""blur"",""41"",""278481""
""focus"",""41"",""279240""
","""event"",""trial"",""time""
""blur"",""0"",""0""
""blur"",""0"",""1808""
""blur"",""2"",""7513""
""blur"",""2"",""12550""
""blur"",""4"",""23212""
""blur"",""4"",""32781""
""blur"",""6"",""46442""
""blur"",""8"",""65428""
""blur"",""10"",""104626""
""blur"",""12"",""142101""
""blur"",""14"",""156613""
""blur"",""16"",""200328""
""blur"",""17"",""216814""
""blur"",""18"",""229346""
""blur"",""19"",""235244""
""blur"",""41"",""278481""
","""event"",""trial"",""time""
""focus"",""0"",""0""
""focus"",""0"",""3510""
""focus"",""2"",""10533""
""focus"",""3"",""19626""
""focus"",""4"",""31995""
""focus"",""5"",""42884""
""focus"",""7"",""62883""
""focus"",""9"",""100322""
""focus"",""11"",""127945""
""focus"",""12"",""152160""
""focus"",""15"",""197003""
""focus"",""16"",""206052""
""focus"",""17"",""218842""
""focus"",""19"",""231061""
""focus"",""19"",""235968""
""focus"",""41"",""279240""
","""event"",""trial"",""time""
""fullscreenenter"",""0"",""4743""
","""event"",""trial"",""time""
""fullscreenexit"",""2"",""6054""
","null","<p></p>","null","","","","","","","","","","","","","","","","","","","","","","","",""
"","do_trial","49","295714","0.0-34.0-0.0","""event"",""trial"",""time""
""blur"",""0"",""0""
""focus"",""0"",""0""
""blur"",""0"",""1808""
""focus"",""0"",""3510""
""fullscreenenter"",""0"",""4743""
""fullscreenexit"",""2"",""6054""
""blur"",""2"",""7513""
""focus"",""2"",""10533""
""blur"",""2"",""12550""
""focus"",""3"",""19626""
""blur"",""4"",""23212""
""focus"",""4"",""31995""
""blur"",""4"",""32781""
""focus"",""5"",""42884""
""blur"",""6"",""46442""
""focus"",""7"",""62883""
""blur"",""8"",""65428""
""focus"",""9"",""100322""
""blur"",""10"",""104626""
""focus"",""11"",""127945""
""blur"",""12"",""142101""
""focus"",""12"",""152160""
""blur"",""14"",""156613""
""focus"",""15"",""197003""
""blur"",""16"",""200328""
""focus"",""16"",""206052""
""blur"",""17"",""216814""
""focus"",""17"",""218842""
""blur"",""18"",""229346""
""focus"",""19"",""231061""
""blur"",""19"",""235244""
""focus"",""19"",""235968""
""blur"",""41"",""278481""
""focus"",""41"",""279240""
","""event"",""trial"",""time""
""blur"",""0"",""0""
""blur"",""0"",""1808""
""blur"",""2"",""7513""
""blur"",""2"",""12550""
""blur"",""4"",""23212""
""blur"",""4"",""32781""
""blur"",""6"",""46442""
""blur"",""8"",""65428""
""blur"",""10"",""104626""
""blur"",""12"",""142101""
""blur"",""14"",""156613""
""blur"",""16"",""200328""
""blur"",""17"",""216814""
""blur"",""18"",""229346""
""blur"",""19"",""235244""
""blur"",""41"",""278481""
","""event"",""trial"",""time""
""focus"",""0"",""0""
""focus"",""0"",""3510""
""focus"",""2"",""10533""
""focus"",""3"",""19626""
""focus"",""4"",""31995""
""focus"",""5"",""42884""
""focus"",""7"",""62883""
""focus"",""9"",""100322""
""focus"",""11"",""127945""
""focus"",""12"",""152160""
""focus"",""15"",""197003""
""focus"",""16"",""206052""
""focus"",""17"",""218842""
""focus"",""19"",""231061""
""focus"",""19"",""235968""
""focus"",""41"",""279240""
","""event"",""trial"",""time""
""fullscreenenter"",""0"",""4743""
","""event"",""trial"",""time""
""fullscreenexit"",""2"",""6054""
","86.60000002384186","","","","","","","","51","0,1,1","6","blank","245","null","0.22157417991232398","0.18230827430544375","0.6218318467821944","1","","","","","","","","",""
"","html-keyboard-response","50","296717","0.0-34.0-1.0","""event"",""trial"",""time""
""blur"",""0"",""0""
