"success","trial_type","trial_index","time_elapsed","internal_node_id","rt","stimulus","key_press","subject_id","response","choice_outcomes","context_n","context_img_id","trial_n","probe_img_id","pR_red","pR_white","pR_black","outcome","contextArray_ind","validImageProbes","invalidImageProbes","pRew_Red","pRew_White","pRew_Black","availableForMemProbe","choice_blocks"
"true","fullscreen","0","3813","0.0-0.0","","","","","","","","","","","","","","","","","","","","","",""
"","pavlovia","1","3818","0.0-1.0","","","","","","","","","","","","","","","","","","","","","",""
"","html-keyboard-response","2","24282","0.0-2.0","20462","<div class='center'><p>Welcome! This is the first day of the experiment which will last ~30 minutes. In this experiment, you are the head captain of a pirate ship traveling around the world to different places. You will complete several different tasks during this experiment. Here is an overview of these tasks:</p><br><p>Day 1</p><p>1. Tutorial and quiz</p><p>2. Pick a pirate game in 6 different places</p><br><p>Day 2</p><p>3. Pick a pirate game and memory game</p><p>4. Final questions and payment</p><br><p>If you complete the entire experiment, you will receive $15 and a possible bonus payment.</p><p><b>[Press the space bar to begin the tutorial]</b></p></div>","32","5f020455725665378d384c4b","","","","","","","","","","","","","","","","","",""
"","html-keyboard-response","3","29196","0.0-3.0","4912.299999982119","<div class='center'><p>You are the head captain of a pirate ship.</p><p> Your pirates rob other ships as they leave the marketplace port.</p> These ships have just sold all their goods at the marketplace, so they have lots and lots of gold on them.</p><p><img src='run_exp/static/images/ship_center.png' height='400'></p><p><b>[Press the space bar to continue]</b></p></div>","32","","","","","","","","","","","","","","","","","","",""
"","html-keyboard-response","4","38562","0.0-4.0","9365.40000000596","<div class='center'><p>As the head captain, you do not have to rob any ships yourself.</p><p>You get to choose which pirate you want to rob the next ship. </p><p>If they are successful at robbing the ship, then you will get gold coins.</p><p> If they are not successful, then you will get no gold coins.</p><p> The more coins you collect, the more bonus money you will win. So, choose your pirate wisely.</p><p><img src='run_exp/static/images/goal.png' height='400'></p><p><b>[Press the space bar to continue]</b></p><div>","32","","","","","","","","","","","","","","","","","","",""
"","html-keyboard-response","5","47260","0.0-5.0","8695.90000000596","<div class='center'><p>Even the most skilled pirate will not be able to rob EVERY ship.</p><p> Some ships will have very strong defenses against attacks.</p><p> For example, blue beard, here,  is very good at robbing ships.</p><p> You can press the <b>‘1’</b> button on the keyboard to choose him.</p><p> Try choosing him 10 times to see how often he is successful at robbing ships. </p><p><img src='run_exp/static/images/blue.png' height='500'></p></div>","49","","","","","","","","","","","","","","","","","","",""
"","html-keyboard-response","6","48771","0.0-6.0","null","<br><br><br><br><p><img src='run_exp/static/images/blue_win.png' height='500'></p>","null","","","","","","","","","","","","","","","","","","",""
"","html-keyboard-response","7","49839","0.0-7.0","1066.4000000059605","<br><br><br><br><p><img src='run_exp/static/images/blue.png' height='500'></p>","49","","","","","","","","","","","","","","","","","","",""
"","html-keyboard-response","8","51350","0.0-8.0","null","<br><br><br><br><p><img src='run_exp/static/images/blue_win.png' height='500'></p>","null","","","","","","","","","","","","","","","","","","",""
"","html-keyboard-response","9","51799","0.0-9.0","448.40000000596046","<br><br><br><br><p><img src='run_exp/static/images/blue.png' height='500'></p>","49","","","","","","","","","","","","","","","","","","",""
"","html-keyboard-response","10","53305","0.0-10.0","null","<br><br><br><br><p><img src='run_exp/static/images/blue_win.png' height='500'></p>","null","","","","","","","","","","","","","","","","","","",""
"","html-keyboard-response","11","53683","0.0-11.0","376.90000000596046","<br><br><br><br><p><img src='run_exp/static/images/blue.png' height='500'></p>","49","","","","","","","","","","","","","","","","","","",""
"","html-keyboard-response","12","55189","0.0-12.0","null","<br><br><br><br><p><img src='run_exp/static/images/blue_no_win.png' height='500'></p>","null","","","","","","","","","","","","","","","","","","",""
"","html-keyboard-response","13","55600","0.0-13.0","409.5","<br><br><br><br><p><img src='run_exp/static/images/blue.png' height='500'></p>","49","","","","","","","","","","","","","","","","","","",""
"","html-keyboard-response","14","57106","0.0-14.0","null","<br><br><br><br><p><img src='run_exp/static/images/blue_win.png' height='500'></p>","null","","","","","","","","","","","","","","","","","","",""
"","html-keyboard-response","15","57466","0.0-15.0","358.90000000596046","<br><br><br><br><p><img src='run_exp/static/images/blue.png' height='500'></p>","49","","","","","","","","","","","","","","","","","","",""
"","html-keyboard-response","16","58970","0.0-16.0","null","<br><br><br><br><p><img src='run_exp/static/images/blue_win.png' height='500'></p>","null","","","","","","","","","","","","","","","","","","",""
"","html-keyboard-response","17","59307","0.0-17.0","336.40000000596046","<br><br><br><br><p><img src='run_exp/static/images/blue.png' height='500'></p>","49","","","","","","","","","","","","","","","","","","",""
"","html-keyboard-response","18","60816","0.0-18.0","null","<br><br><br><br><p><img src='run_exp/static/images/blue_win.png' height='500'></p>","null","","","","","","","","","","","","","","","","","","",""
"","html-keyboard-response","19","61107","0.0-19.0","289.80000001192093","<br><br><br><br><p><img src='run_exp/static/images/blue.png' height='500'></p>","49","","","","","","","","","","","","","","","","","","",""
"","html-keyboard-response","20","62622","0.0-20.0","null","<br><br><br><br><p><img src='run_exp/static/images/blue_no_win.png' height='500'></p>","null","","","","","","","","","","","","","","","","","","",""
"","html-keyboard-response","21","62958","0.0-21.0","335.5","<br><br><br><br><p><img src='run_exp/static/images/blue.png' height='500'></p>","49","","","","","","","","","","","","","","","","","","",""
"","html-keyboard-response","22","64464","0.0-22.0","null","<br><br><br><br><p><img src='run_exp/static/images/blue_win.png' height='500'></p>","null","","","","","","","","","","","","","","","","","","",""
"","html-keyboard-response","23","64833","0.0-23.0","367.5","<br><br><br><br><p><img src='run_exp/static/images/blue.png' height='500'></p>","49","","","","","","","","","","","","","","","","","","",""
"","html-keyboard-response","24","66344","0.0-24.0","null","<br><br><br><br><p><img src='run_exp/static/images/blue_win.png' height='500'></p>","null","","","","","","","","","","","","","","","","","","",""
"","html-keyboard-response","25","68355","0.0-25.0","2010","<div class='center'><p> See, he was successful at robbing the ships most of the time but not every time. </p><p><b>[Press the space bar to continue]</b></p></div>","32","","","","","","","","","","","","","","","","","","",""
"","html-keyboard-response","26","73850","0.0-26.0","5493.200000017881","<div class='center'><p>In the game, you will get to choose which of three pirates you want to rob the next ship. <p>Press the <b>‘1’</b> button on your keyboard to pick the pirate with the red beard.</p><p> Press <b>‘2’</b> to pick the pirate with the white beard.</p><p> Press <b>‘3’</b> to pick the pirate with the black beard.</p><p>Try picking a pirate now!</p><p><img src='run_exp/static/images/all_pirates.png' height='500'></p></div>","50","","","","","","","","","","","","","","","","","","",""
"","html-keyboard-response","27","76287","0.0-27.0-0.0","2435.0999999940395","<div class='center'><p>This pirate was successful at robbing the ship!</p><p><img src='run_exp/static/images/white_win.png' height='500'></p><p><b>[Press the space bar to continue]</b></p></div>","32","","","","","","","","","","","","","","","","","","",""
"","html-keyboard-response","28","77119","0.0-27.0-1.0","830.7000000178814","<div class='center'><p>Now try choosing another</p><p><img src='run_exp/static/images/all_pirates.png' height='500'></p></div>","51","","","","","","","","","","","","","","","","","","",""
"","html-keyboard-response","29","78207","0.0-28.0-0.0","1086.1000000238419","<div class='center'><p>This pirate was not successful at robbing the ship!</p><p><img src='run_exp/static/images/black_no_win.png' height='500'></p><p><b>[Press the space bar to continue]</b></p></div>","32","","","","","","","","","","","","","","","","","","",""
"","html-keyboard-response","30","80938","0.0-29.0-0.0","2729.4000000059605","<div class='center'><p>You’ll stop at these 6 places on your journey.</p><p><img src='run_exp/static/images/all_contexts.png' height='500'></p><p><b>[Press the space bar to continue]</b></p></div>","32","","","","","","","","","","","","","","","","","","",""
"","html-keyboard-response","31","89732","0.0-29.0-1.0","8793.09999999404","<div class='center'><p>How good a pirate is at robbing ships will depend on the current place.</p><p> Some pirates will have been to the place before, and will have more experience robbing ships there.</p><p>So, they will be more successful at stealing gold and bringing it back to you.</p><p><b>[Press the space bar to continue]</b></p></div>","32","","","","","","","","","","","","","","","","","","",""
"","html-keyboard-response","32","99226","0.0-29.0-2.0","9493.09999999404","<div class='center'><p>How successful a pirate is at robbing ships can also change in a place.<p> Ships may hear about the pirates coming and will improve their defenses. This may make it more difficult to rob them.</p><p> Ships may also grow lazy and lower their defenses. This may make it easier to rob them.</p><br><p>Things are always changing on the high seas! So, try your best to pay attention!</p><p><img src='run_exp/static/images/contingency.png' height='500'></p><p><b>[Press the space bar to continue]</b></p></div>","32","","","","","","","","","","","","","","","","","","",""
"","html-keyboard-response","33","151094","0.0-29.0-3.0","51866.40000000596","<div class='center'><p>Once you choose a pirate to rob a ship, you’ll be shown the ship they are robbing.</p><p>The ship will have a picture of the item they sold at the marketplace.</p><p> Try your best to remember the ship and where you saw the ship.</p><p> You’ll have to remember this for later, and remembering this correctly will help you win more bonus money!</p><p>You can remember the ship by remembering the item they sold at the marketplace</p><p>A helpful strategy is to try to come up with a story of the chosen pirate and ship’s item interacting with the scene.</p><p> For example, a ship might have sold travel mugs and you could imagine red beard walking through the city with a travel mug. </p><p>Or imagine an apple falling from a tree into white beard's hands in the forest.</p><p><img src='run_exp/static/images/example_probe.png' height='500'></p><p><b>[Press the space bar to continue]</b></p></div>","32","","","","","","","","","","","","","","","","","","",""
"","html-keyboard-response","34","154513","0.0-29.0-4.0","3416.9000000059605","<div class='center'><p>If you don’t make your choice fast enough, you’ll have to wait a few seconds before you can make another one. </p><p>You can’t win more gold. You just have to sit and wait.</p><p><img src='run_exp/static/images/hurry_up.png' height='500'></p><p><b>[Press the space bar to continue]</b></p></div>","32","","","","","","","","","","","","","","","","","","",""
"","html-keyboard-response","35","184467","0.0-29.0-5.0","29952.70000001788","<div class='center'><p>Again, you have two important things to do: </p><b><p> 1. Pick the pirate who you think will be most successful at robbing the next ship.</p></b><b><p> 2. Remember where a pirate robbed a ship.</p> </b><p>Both are important in determining how much bonus money you’ll win.</p><br><p>Let’s try a practice game. The game will start by showing you the pirates. First pick a pirate using the <b> 1, 2, 3 </b> buttons on your keyboard. When you are shown a ship, try to remember the place you’re in by making up a story.</p><p> You only have 3 seconds to pick a pirate, so please make a choice quickly! If you are too slow, you’ll have to wait a bit during the time out.</p><p> Don’t feel rushed, but please do try to make a choice every time.</p><p>How good a pirate is at robbing a ship will change depending on the place they are in and how good the defenses are of the ship.</p> <p>This is just a practice game, so you’re not playing for money. </p><p>You’ll receive a bag which may or may not contain gold coins.</p><p> In the real game, though, you’ll be able to see whether or not you received the gold coins.</p><p> Good luck, remember press <b>'1'</b> to choose red beard, <b>'2'</b> to choose white beard, and <b>'3'</b> to choose black beard</p><p><b>[Press the space bar to begin the practice game]</b></p></div>","32","","","","","","","","","","","","","","","","","","",""
"","do_trial_prac","36","190295","0.0-29.0-6.0","1301","","","","50","","","","","","","","","","","","","","","","",""
"","do_trial_prac","37","195566","0.0-29.0-7.0","755.4000000059605","","","","49","","","","","","","","","","","","","","","","",""
"","do_trial_prac","38","201030","0.0-29.0-8.0","948.2000000178814","","","","51","","","","","","","","","","","","","","","","",""
"","do_trial_prac","39","206916","0.0-29.0-9.0","1364.0999999940395","","","","50","","","","","","","","","","","","","","","","",""
"","do_trial_prac","40","212417","0.0-29.0-10.0","982.1999999880791","","","","49","","","","","","","","","","","","","","","","",""
"","html-keyboard-response","41","216482","0.0-29.0-11.0","4064.2000000178814","<div class='center'><p>Great job on the practice game!</p><p> Now, you will be asked you some true or false questions to make sure you really understand the rules of the game.</p><p> Press <b>'1'</b> on the keyboard for true and press <b>'2'</b> for false.</p><p><b>[Press the space bar to begin the quiz]</b></p></div>","32","","","","","","","","","","","","","","","","","","",""
"","html-keyboard-response","42","226248","0.0-29.0-12.0","9764.799999982119","<div class='center'><p>You win bonus money by making choices as fast as possible.</p><p>Press 1 for true and press  2 for false.</p></div>","49","","","","","","","","","","","","","","","","","","",""
"","html-keyboard-response","43","228799","0.0-30.0-0.0","2549.2999999821186","<br><br><br><br><p>That’s incorrect! You win bonus money by collecting as many gold coins as possible!</p><p><b>[press the space bar to continue with the quiz]</b></p>","32","","","","","","","","","","","","","","","","","","",""
"","html-keyboard-response","44","234832","0.0-30.0-1.0","6032.299999982119","<div class='center'><p>You press the <b>‘3’</b> button on the keyboard to choose the red bearded pirate? </p><p>Press 1 for true and press  2 for false.</p></div>","50","","","","","","","","","","","","","","","","","","",""
"","html-keyboard-response","45","235649","0.0-31.0-0.0","816.0999999940395","<br><br><br><br><p>That's correct!</p> <p><b>[press the space bar to continue with the quiz]</b></p>","32","","","","","","","","","","","","","","","","","","",""
"","html-keyboard-response","46","239427","0.0-31.0-1.0","3776.199999988079","<div class='center'><p>A pirate will always be equally successful at robbing ships in each place</p><p>Press 1 for true and press  2 for false.</p></div>","50","","","","","","","","","","","","","","","","","","",""
"","html-keyboard-response","47","240186","0.0-32.0-0.0","758.3000000119209","<br><br><br><br><p>That's correct!</p> <p><b>[press the space bar to continue with the quiz]</b></p>","32","","","","","","","","","","","","","","","","","","",""
"","html-keyboard-response","48","243335","0.0-32.0-1.0","3148.5","<div class='center'><p>You should remember the place where a pirate robbed a ship.</p><p>Press 1 for true and press  2 for false.</p></div>","49","","","","","","","","","","","","","","","","","","",""
"","html-keyboard-response","49","244028","0.0-33.0-0.0","690.4000000059605","<br><br><br><br><p>That's correct!</p> <p><b>[press the space bar to continue with the quiz]</b></p>","32","","","","","","","","","","","","","","","","","","",""
"","html-keyboard-response","50","248375","0.0-34.0-0.0","4345.799999982119","<br><br><br><br><p>Oops, you missed some questions. Now that you’ve heard the correct answers. Try the quiz again! If you fail the quiz too many times, you won’t be able to do the experiment. </p> <p><br>[press the space bar to repeat the quiz]</br></p>","32","","","","","","","","","","","","","","","","","","",""
"","html-keyboard-response","51","250748","0.0-34.0-1.0","2371.699999988079","<div class='center'><p>You win bonus money by making choices as fast as possible.</p><p>Press 1 for true and press  2 for false.</p></div>","50","","","","","","","","","","","","","","","","","","",""
"","html-keyboard-response","52","251160","0.0-35.0-0.0","410.40000000596046","<br><br><br><br><p>That's correct!</p> <p><b>[press the space bar to continue with the quiz]</b></p>","32","","","","","","","","","","","","","","","","","","",""
"","html-keyboard-response","53","254890","0.0-35.0-1.0","3729.699999988079","<div class='center'><p>You press the <b>‘3’</b> button on the keyboard to choose the red bearded pirate? </p><p>Press 1 for true and press  2 for false.</p></div>","50","","","","","","","","","","","","","","","","","","",""
"","html-keyboard-response","54","255362","0.0-36.0-0.0","470.19999998807907","<br><br><br><br><p>That's correct!</p> <p><b>[press the space bar to continue with the quiz]</b></p>","32","","","","","","","","","","","","","","","","","","",""
"","html-keyboard-response","55","257701","0.0-36.0-1.0","2337.899999976158","<div class='center'><p>A pirate will always be equally successful at robbing ships in each place</p><p>Press 1 for true and press  2 for false.</p></div>","50","","","","","","","","","","","","","","","","","","",""
"","html-keyboard-response","56","258075","0.0-37.0-0.0","372.69999998807907","<br><br><br><br><p>That's correct!</p> <p><b>[press the space bar to continue with the quiz]</b></p>","32","","","","","","","","","","","","","","","","","","",""
"","html-keyboard-response","57","259766","0.0-37.0-1.0","1690.2000000178814","<div class='center'><p>You should remember the place where a pirate robbed a ship.</p><p>Press 1 for true and press  2 for false.</p></div>","49","","","","","","","","","","","","","","","","","","",""
"","html-keyboard-response","58","260153","0.0-38.0-0.0","375.5","<br><br><br><br><p>That's correct!</p> <p><b>[press the space bar to continue with the quiz]</b></p>","32","","","","","","","","","","","","","","","","","","",""
"","html-keyboard-response","59","260922","0.0-39.0-0.0","767.8000000119209","<br><br><br><br><p>Good job! You’re now ready to move on to the real game!</p> <p><br>[press the space bar to begin!]</br></p>","32","","","","","","","","","","","","","","","","","","",""
"","do_welcome","60","262444","0.0-40.0-0.0","null","","","","null","","","","","","","","","","","","","","","","",""
"","do_trial","61","268024","0.0-41.0-0.0","978.6000000238419","","","","49","1,0,0","0","city","0","probe-96","1","0.4","0.1","1","","","","","","","",""
"","do_trial","62","273646","0.0-42.0-0.0","1010","","","","50","1,0,0","0","city","1","probe-63","1","0.3706130262003675","0.21766009933190336","0","","","","","","","",""
"","do_trial","63","278807","0.0-43.0-0.0","550.0999999940395","","","","51","1,1,0","0","city","2","probe-196","1","0.36416531286906795","0.2094765279495836","0","","","","","","","",""
"","do_trial","64","284258","0.0-44.0-0.0","834.8999999761581","","","","49","1,1,0","0","city","3","probe-60","1","0.3282378117576469","0.17728078251194862","1","","","","","","","",""
"","do_trial","65","289817","0.0-45.0-0.0","949","","","","49","1,0,1","0","city","4","probe-186","0.9119202804530283","0.1732117096080412","0.1852793792454494","1","","","","","","","",""
"","do_trial","66","295157","0.0-46.0-0.0","737.2999999821186","","","","49","1,0,0","0","city","5","probe-206","0.8922160333635836","0.3502761123209409","0.13965309756868663","1","","","","","","","",""
"","do_trial","67","300428","0.0-47.0-0.0","676.0999999940395","","","","49","0,0,0","0","city","6","probe-187","0.8111559557673278","0.3417754827052121","0.154032172275235","0","","","","","","","",""
"","do_trial","68","305523","0.0-48.0-0.0","489.40000000596046","","","","49","1,0,0","0","city","7","probe-45","0.7845268332726425","0.3533529883859985","0.11473278264850821","1","","","","","","","",""
"","do_trial","69","310810","0.0-49.0-0.0","677.4000000059605","","","","49","0,0,0","0","city","8","probe-226","0.7580784291438692","0.3332044819965273","0.08897801390302627","0","","","","","","","",""
"","do_trial","70","316472","0.0-50.0-0.0","1052.5","","","","49","1,0,0","0","city","9","probe-160","0.8219829400704939","0.3836285181469694","0.051002486348917214","1","","","","","","","",""
"","do_trial","71","321847","0.0-51.0-0.0","776.7999999821186","","","","49","0,1,0","0","city","10","probe-68","0.6684009381600916","0.638387649307668","0.1426591306694274","0","","","","","","","",""
"","do_trial","72","327060","0.0-52.0-0.0","611","","","","49","1,1,0","0","city","11","probe-44","0.4322354619671382","0.9039262889205709","0.3608511332387719","1","","","","","","","",""
"","do_trial","73","332382","0.0-53.0-0.0","705.8000000119209","","","","49","0,1,0","0","city","12","probe-98","0.2981744052418391","0.9040250391289095","0.4249815627018226","0","","","","","","","",""
"","do_trial","74","337421","0.0-54.0-0.0","428.19999998807907","","","","50","0,0,1","0","city","13","probe-17","0.057899204599756685","0.8889393099103985","0.3296017856662294","0","","","","","","","",""
"","do_trial","75","342295","0.0-55.0-0.0","299.40000000596046","","","","50","1,0,1","0","city","14","probe-135","0.1613383478808543","0.8684807510249785","0.41319143516269863","0","","","","","","","",""
"","do_trial","76","347236","0.0-56.0-0.0","343.09999999403954","","","","51","0,0,0","0","city","15","probe-203","0.1464241546598432","0.8666154667775708","0.43866665179204783","0","","","","","","","",""
"","do_trial","77","352103","0.0-57.0-0.0","294.30000001192093","","","","49","0,1,1","0","city","16","probe-80","0.08366350237638738","0.8775649387935023","0.42835311367865386","0","","","","","","","",""
"","do_trial","78","356698","0.0-58.0-0.0","0.30000001192092896","","","","49","1,1,0","0","city","17","probe-171","0.12926583158882196","0.7123188572858581","0.42285534808526365","1","","","","","","","",""
"","do_trial","79","361586","0.0-59.0-0.0","290.09999999403954","","","","49","0,1,0","0","city","18","probe-175","0.11806372704054545","0.7667077643762807","0.23526320961993274","0","","","","","","","",""
"","do_trial","80","366480","0.0-60.0-0.0","290.90000000596046","","","","49","0,1,0","0","city","19","probe-106","0.06245523860834082","0.831371328421162","0.2428932807179799","0","","","","","","","",""
"","do_trial","81","371473","0.0-61.0-0.0","387.5","","","","49","0,1,1","0","city","20","probe-50","0.11094490723847533","0.7775757444150085","0.311336786903606","0","","","","","","","",""
"","do_trial","82","376395","0.0-62.0-0.0","326.09999999403954","","","","49","0,1,0","0","city","21","probe-178","0.0852683562677997","0.8308190437899886","0.3930244627143514","0","","","","","","","",""
"","do_trial","83","382096","0.0-63.0-0.0","1097.9000000059605","","","","49","0,0,0","0","city","22","probe-146","0.0614684809129902","0.7981955378708433","0.4965220392563744","0","","","","","","","",""
"","do_trial","84","387042","0.0-64.0-0.0","339.90000000596046","","","","50","0,1,0","0","city","23","probe-166","0.09866526066145052","0.6616499584684474","0.3335153320818867","1","","","","","","","",""
"","do_trial","85","391906","0.0-65.0-0.0","264","","","","50","0,1,1","0","city","24","probe-220","0.0928478748095563","0.7032055449205928","0.2938844884507536","1","","","","","","","",""
"","do_trial","86","396799","0.0-66.0-0.0","286.40000000596046","","","","50","0,1,0","0","city","25","probe-218","0.12598737004634944","0.7033562179534104","0.2808695344913931","1","","","","","","","",""
"","do_trial","87","401686","0.0-67.0-0.0","286","","","","50","0,0,0","0","city","26","probe-140","0.05201478070599132","0.8927057583825455","0.4161611397996967","0","","","","","","","",""
"","do_trial","88","406606","0.0-68.0-0.0","314.40000000596046","","","","51","1,1,1","0","city","27","probe-74","0.06823782646344784","0.9279066405597626","0.4534926259432225","1","","","","","","","",""
"","do_trial","89","411554","0.0-69.0-0.0","353.59999999403954","","","","51","1,1,0","0","city","28","probe-103","0.07930298657449442","0.8014408474792023","0.4594880673852591","0","","","","","","","",""
"","do_trial","90","416390","0.0-70.0-0.0","235.60000002384186","","","","51","0,0,0","0","city","29","probe-225","0.1727579362453193","0.8763878876931616","0.40639580733289715","0","","","","","","","",""
"","do_trial","91","421282","0.0-71.0-0.0","293.39999997615814","","","","50","0,1,1","0","city","30","probe-54","0.11195923136121662","0.8986728276381163","0.3976141396059694","1","","","","","","","",""
"","do_trial","92","426107","0.0-72.0-0.0","218.19999998807907","","","","50","1,1,0","0","city","31","probe-192","0.11691955413743951","0.8417949224517804","0.3311006750378511","1","","","","","","","",""
"","do_trial","93","431825","0.0-73.0-0.0","1141.5","","","","50","0,1,1","0","city","32","probe-24","0.08927788184208364","0.9490132478177491","0.3148760254979394","1","","","","","","","",""
"","do_trial","94","436672","0.0-74.0-0.0","263.40000000596046","","","","50","0,0,0","0","city","33","probe-172","0.05747591068440465","0.8718777903659799","0.34699805341717577","0","","","","","","","",""
"","do_trial","95","442126","0.0-75.0-0.0","861.2999999821186","","","","49","0,0,0","0","city","34","probe-35","0.13201866009113475","0.8072664936803949","0.23008763066621277","0","","","","","","","",""
"","do_trial","96","448619","0.0-76.0-0.0","1886.5999999940395","","","","49","0,0,0","0","city","35","probe-65","0.06254418835226243","0.8913209749682328","0.28235085164577156","0","","","","","","","",""
"","do_trial","97","453915","0.0-77.0-0.0","688","","","","49","0,1,0","0","city","36","probe-169","0.08207816173735952","0.9450242410614643","0.31504642236785","0","","","","","","","",""
"","do_trial","98","458942","0.0-78.0-0.0","419.5","","","","49","0,1,1","0","city","37","probe-222","0.05595635357243031","0.8423032887716779","0.2665550719087922","0","","","","","","","",""
"","do_trial","99","465124","0.0-79.0-0.0","1508.300000011921","","","","49","0,1,0","0","city","38","probe-59","0.080533774098565","0.7767808492426997","0.23428255304230391","0","","","","","","","",""
"","do_trial","100","470049","0.0-80.0-0.0","267.2000000178814","","","","50","0,1,0","0","city","39","probe-212","0.05767701797943757","0.7827545859826027","0.2631200860335182","1","","","","","","","",""
"","do_bye","101","471562","0.0-81.0-0.0","null","","","","null","","","","","","","","","","","","","","","","",""
"","do_travel","102","477567","0.0-82.0-0.0","null","","","","null","","","","","","","","","","","","","","","","",""
"","do_welcome","103","479090","0.0-82.0-1.0","null","","","","null","","","","","","","","","","","","","","","","",""
"","do_trial","104","484460","0.0-83.0-0.0","772.6999999880791","","","","50","0,1,0","1","countryside","40","probe-104","0.10400433404459333","1","0.21683504248388408","1","","","","","","","",""
"","do_trial","105","489228","0.0-84.0-0.0","168.90000000596046","","","","50","0,1,0","1","countryside","41","probe-57","0.09761774796584806","1","0.24668745670267928","1","","","","","","","",""
"","do_trial","106","494128","0.0-85.0-0.0","293.80000001192093","","","","50","0,1,0","1","countryside","42","probe-197","0.17313628768336117","1","0.34367019036092844","1","","","","","","","",""
"","do_trial","107","499117","0.0-86.0-0.0","392","","","","50","1,1,1","1","countryside","43","probe-41","0.15510260582547314","1","0.5343015912679611","1","","","","","","","",""
"","do_trial","108","504234","0.0-87.0-0.0","516.8000000119209","","","","50","1,1,1","1","countryside","44","probe-179","0.14190104906909692","0.8500611500613839","0.32844468747644934","1","","","","","","","",""
"","do_trial","109","509365","0.0-88.0-0.0","535.2999999821186","","","","50","1,1,0","1","countryside","45","probe-56","0.11704073283466505","0.8411127836574249","0.26250548595146656","1","","","","","","","",""
"","do_trial","110","514696","0.0-89.0-0.0","737.7000000178814","","","","50","0,1,1","1","countryside","46","probe-156","0.09188283364917271","0.9263544899080363","0.3686732822068342","1","","","","","","","",""
"","do_trial","111","519678","0.0-90.0-0.0","382.60000002384186","","","","50","0,0,0","1","countryside","47","probe-199","0.06349361951879967","0.8478351100156448","0.23219916222838058","0","","","","","","","",""
"","do_trial","112","524924","0.0-91.0-0.0","644.5999999940395","","","","51","0,0,0","1","countryside","48","probe-102","0.06632097003723456","0.772898182689338","0.23432953939922957","0","","","","","","","",""
"","do_trial","113","529840","0.0-92.0-0.0","320.19999998807907","","","","49","0,0,0","1","countryside","49","probe-223","0.050869115921959585","0.7428686437224785","0.282376654061158","0","","","","","","","",""
"","do_trial","114","534656","0.0-93.0-0.0","220.59999999403954","","","","50","1,0,0","1","countryside","50","probe-139","0.39163849092704267","0.5119305958376497","0.34293912682850175","0","","","","","","","",""
"","do_trial","115","539598","0.0-94.0-0.0","335.69999998807907","","","","50","1,0,0","1","countryside","51","probe-66","0.6107760879900849","0.4064486708984095","0.26339470882315846","0","","","","","","","",""
"","do_trial","116","544243","0.0-95.0-0.0","32.5","","","","50","1,0,0","1","countryside","52","probe-122","0.6279553019469687","0.41099852584429075","0.3034981071074695","0","","","","","","","",""
"","do_trial","117","549116","0.0-96.0-0.0","274.7000000178814","","","","50","1,0,0","1","countryside","53","probe-125","0.8034816092663646","0.4354992644549349","0.27446091757318675","0","","","","","","","",""
"","do_trial","118","554002","0.0-97.0-0.0","283.69999998807907","","","","49","1,0,0","1","countryside","54","probe-62","0.8779423470172688","0.49654633772340734","0.20063025857748748","1","","","","","","","",""
"","do_trial","119","558636","0.0-98.0-0.0","29.30000001192093","","","","49","1,0,0","1","countryside","55","probe-40","0.8774347021519384","0.5411210427676739","0.16212904184452512","1","","","","","","","",""
"","do_trial","120","563258","0.0-99.0-0.0","27","","","","49","1,0,0","1","countryside","56","probe-46","0.7954735643186983","0.557109462161076","0.11213379706412385","1","","","","","","","",""
"","do_trial","121","568204","0.0-100.0-0.0","338.19999998807907","","","","49","1,0,0","1","countryside","57","probe-30","0.8242055518512073","0.5216851297773331","0.17127575532575023","1","","","","","","","",""
"","do_trial","122","573148","0.0-101.0-0.0","312.60000002384186","","","","49","1,0,1","1","countryside","58","probe-82","0.7425010938196269","0.5698167551365622","0.05703075903059934","1","","","","","","","",""
"","do_trial","123","578172","0.0-102.0-0.0","411","","","","49","1,0,0","1","countryside","59","probe-114","0.6303644883697631","0.49237843413312804","0.06562867735708679","1","","","","","","","",""
"","do_trial","124","582827","0.0-103.0-0.0","46.69999998807907","","","","49","1,1,0","1","countryside","60","probe-227","0.62971365437883","0.3797775443840443","0.1498659688808612","1","","","","","","","",""
"","do_trial","125","587681","0.0-104.0-0.0","255.19999998807907","","","","49","1,1,0","1","countryside","61","probe-162","0.851601725635755","0.5174238224229482","0.053389446925409687","1","","","","","","","",""
"","do_trial","126","592641","0.0-105.0-0.0","355.09999999403954","","","","49","0,1,0","1","countryside","62","probe-217","0.8360279921034689","0.5825241011753378","0.07415062807101118","0","","","","","","","",""
"","do_trial","127","597289","0.0-106.0-0.0","46.30000001192093","","","","49","1,1,0","1","countryside","63","probe-73","0.9143722509143265","0.4783050192034991","0.1575797728303466","1","","","","","","","",""
"","do_trial","128","602310","0.0-107.0-0.0","435","","","","49","1,0,0","1","countryside","64","probe-229","0.7513019890889401","0.35654994282707897","0.21814330250016833","1","","","","","","","",""
"","do_trial","129","607965","0.0-108.0-0.0","1058.2000000178814","","","","50","1,1,1","1","countryside","65","probe-204","0.7627122538809374","0.4702350030189983","0.2358543518723215","1","","","","","","","",""
"","do_trial","130","612887","0.0-109.0-0.0","328","","","","51","1,0,0","1","countryside","66","probe-221","0.7470882638136588","0.323972721482856","0.18016776831351736","0","","","","","","","",""
"","do_trial","131","617952","0.0-110.0-0.0","456.7999999821186","","","","51","1,0,0","1","countryside","67","probe-155","0.5591205792906654","0.19590249984306607","0.17661071190686317","0","","","","","","","",""
"","do_trial","132","623034","0.0-111.0-0.0","482.10000002384186","","","","51","0,0,0","1","countryside","68","probe-130","0.6453161896769467","0.27368936924272785","0.08932714840675768","0","","","","","","","",""
"","do_trial","133","630286","0.0-112.0-0.0","2649","","","","51","0,0,0","1","countryside","69","probe-198","0.6639853880334328","0.2540994594264714","0.10545039976552968","0","","","","","","","",""
"","do_trial","134","635330","0.0-113.0-0.0","438.40000000596046","","","","50","1,0,0","1","countryside","70","probe-48","0.718788623112799","0.2429370306334252","0.2159470521019601","0","","","","","","","",""
"","do_trial","135","640220","0.0-114.0-0.0","286.40000000596046","","","","50","0,0,0","1","countryside","71","probe-177","0.7399686375008321","0.30479699494118495","0.1997863339742378","0","","","","","","","",""
"","do_trial","136","645269","0.0-115.0-0.0","449.2000000178814","","","","49","1,0,1","1","countryside","72","probe-161","0.7816104700106056","0.14780639606038015","0.2999921603900398","1","","","","","","","",""
"","do_trial","137","650200","0.0-116.0-0.0","336.5","","","","49","1,1,0","1","countryside","73","probe-08","0.7594296378012243","0.3151002264667636","0.27319147547365935","1","","","","","","","",""
"","do_trial","138","654928","0.0-117.0-0.0","123.7999999821186","","","","49","1,1,0","1","countryside","74","probe-233","0.7381182801652765","0.33504554636785566","0.3203782091285413","1","","","","","","","",""
"","do_trial","139","659843","0.0-118.0-0.0","310.09999999403954","","","","49","1,0,0","1","countryside","75","probe-123","0.7169069814781294","0.39436834714107544","0.2947346056888155","1","","","","","","","",""
"","do_trial","140","664435","0.0-119.0-0.0","0.19999998807907104","","","","49","1,0,0","1","countryside","76","probe-14","0.9062686856591983","0.433026476043405","0.18443667990668874","1","","","","","","","",""
"","do_trial","141","669275","0.0-120.0-0.0","240.19999998807907","","","","49","1,0,0","1","countryside","77","probe-231","0.8603220723925471","0.48961904601329037","0.07121536691558202","1","","","","","","","",""
"","do_trial","142","674512","0.0-121.0-0.0","643.5","","","","49","1,0,0","1","countryside","78","probe-49","0.7747250573984649","0.5841986246705345","0.12017209372419925","1","","","","","","","",""
"","do_trial","143","679355","0.0-122.0-0.0","252.2999999821186","","","","49","1,0,0","1","countryside","79","probe-64","0.7242301976377172","0.5380036116356737","0.06979691772531073","1","","","","","","","",""
"","do_bye","144","680870","0.0-123.0-0.0","null","","","","null","","","","","","","","","","","","","","","","",""
"","do_travel","145","686877","0.0-124.0-0.0","null","","","","null","","","","","","","","","","","","","","","","",""
"","do_welcome","146","688385","0.0-124.0-1.0","null","","","","null","","","","","","","","","","","","","","","","",""
"","do_trial","147","693686","0.0-125.0-0.0","713.5","","","","49","1,0,0","2","highway","80","probe-235","1","0.4131619658762031","0.06415600002669328","1","","","","","","","",""
"","do_trial","148","698462","0.0-126.0-0.0","175","","","","49","1,0,0","2","highway","81","probe-228","1","0.23606900008991943","0.11166163697074985","1","","","","","","","",""
"","do_trial","149","703449","0.0-127.0-0.0","383.5","","","","49","1,0,0","2","highway","82","probe-165","1","0.32312683504178985","0.13904140461216785","1","","","","","","","",""
"","do_trial","150","708310","0.0-128.0-0.0","262.89999997615814","","","","49","1,0,1","2","highway","83","probe-29","1","0.35325332749386434","0.1881676747640872","1","","","","","","","",""
"","do_trial","151","713180","0.0-129.0-0.0","276.80000001192093","","","","49","1,0,0","2","highway","84","probe-119","0.8403521300214318","0.4673053054357868","0.05237717030093828","1","","","","","","","",""
"","do_trial","152","718033","0.0-130.0-0.0","248.80000001192093","","","","49","1,0,0","2","highway","85","probe-117","0.7968706319782207","0.4093222181010932","0.15878507369897105","1","","","","","","","",""
"","do_trial","153","722631","0.0-131.0-0.0","0.09999999403953552","","","","49","1,0,0","2","highway","86","probe-124","0.827553676305622","0.41516331772790205","0.18179200223572067","1","","","","","","","",""
"","do_trial","154","727911","0.0-132.0-0.0","676.8000000119209","","","","49","1,1,0","2","highway","87","probe-101","0.7740472951790194","0.5236439458690092","0.1923569999789811","1","","","","","","","",""
"","do_trial","155","732999","0.0-133.0-0.0","494.40000000596046","","","","49","0,0,0","2","highway","88","probe-86","0.7559937460137455","0.5133028197021031","0.07291459283502652","0","","","","","","","",""
"","do_trial","156","737941","0.0-134.0-0.0","336.5","","","","50","1,1,0","2","highway","89","probe-92","0.8163886229655747","0.6270624923424863","0.0817651543533367","1","","","","","","","",""
"","do_trial","157","742857","0.0-135.0-0.0","293.7000000178814","","","","50","1,0,0","2","highway","90","probe-149","0.7160217717671391","0.7604746627844239","0.24145113647201968","0","","","","","","","",""
"","do_trial","158","747613","0.0-136.0-0.0","157.7000000178814","","","","50","1,1,0","2","highway","91","probe-213","0.6307281366214553","0.8073706092628156","0.23813214553535933","1","","","","","","","",""
"","do_trial","159","752516","0.0-137.0-0.0","307.2000000178814","","","","50","0,1,0","2","highway","92","probe-216","0.5004974229673966","0.9305059275550133","0.3363764460996025","1","","","","","","","",""
"","do_trial","160","757188","0.0-138.0-0.0","79.09999999403954","","","","50","0,1,0","2","highway","93","probe-118","0.3395089104001407","0.9313005087334227","0.42368343486394916","1","","","","","","","",""
"","do_trial","161","762098","0.0-139.0-0.0","319.69999998807907","","","","50","0,1,0","2","highway","94","probe-02","0.4137279116462845","0.8275589681956831","0.4750733785043647","1","","","","","","","",""
"","do_trial","162","767160","0.0-140.0-0.0","463.80000001192093","","","","50","1,1,0","2","highway","95","probe-33","0.3490982471436936","0.8057255282003046","0.4981248235100709","1","","","","","","","",""
"","do_trial","163","772913","0.0-141.0-0.0","1152.7000000178814","","","","50","0,0,1","2","highway","96","probe-138","0.3066708086660526","0.8975275443235089","0.495432322723522","0","","","","","","","",""
"","do_trial","164","777927","0.0-142.0-0.0","411","","","","50","0,1,0","2","highway","97","probe-132","0.14932387655750787","0.7752978962578968","0.41341114276948804","1","","","","","","","",""
"","do_trial","165","782840","0.0-143.0-0.0","307.30000001192093","","","","50","0,1,0","2","highway","98","probe-84","0.22970585792565934","0.8861605225698261","0.3098355946645348","1","","","","","","","",""
"","do_trial","166","788075","0.0-144.0-0.0","649.5999999940395","","","","50","0,1,0","2","highway","99","probe-143","0.14237052216062757","0.8148413545422275","0.33239044388064054","1","","","","","","","",""
"","do_trial","167","793485","0.0-145.0-0.0","826.9000000059605","","","","51","0,1,1","2","highway","100","probe-34","0.251816526143509","0.7837208953220914","0.4940598463241722","1","","","","","","","",""
"","do_trial","168","798908","0.0-146.0-0.0","844.5","","","","51","1,1,1","2","highway","101","probe-120","0.3070461775713675","0.8834010074077963","0.5207259717029331","1","","","","","","","",""
"","do_trial","169","803795","0.0-147.0-0.0","306.69999998807907","","","","51","0,1,1","2","highway","102","probe-90","0.19353903026785638","0.8045971555801924","0.3757862650843376","1","","","","","","","",""
"","do_trial","170","808669","0.0-148.0-0.0","303.40000000596046","","","","51","0,0,0","2","highway","103","probe-173","0.17151253639137504","0.7887835618592399","0.5332625516421137","0","","","","","","","",""
"","do_trial","171","813515","0.0-149.0-0.0","266.39999997615814","","","","50","0,1,1","2","highway","104","probe-144","0.15644268675562725","0.8708143046772985","0.44213669241063697","1","","","","","","","",""
"","do_trial","172","818190","0.0-150.0-0.0","69.40000000596046","","","","50","0,1,1","2","highway","105","probe-06","0.19118558604818695","0.8655877957399506","0.4782141551038759","1","","","","","","","",""
"","do_trial","173","823081","0.0-151.0-0.0","292.59999999403954","","","","50","0,1,0","2","highway","106","probe-200","0.05791722262961724","0.9368334807607325","0.42194842615984324","1","","","","","","","",""
"","do_trial","174","827777","0.0-152.0-0.0","99.10000002384186","","","","50","0,0,0","2","highway","107","probe-150","0.16976965774249897","0.9459256058633662","0.4145960580070945","0","","","","","","","",""
"","do_trial","175","832616","0.0-153.0-0.0","244.7000000178814","","","","49","0,1,0","2","highway","108","probe-109","0.1854761435909162","0.8920508250538653","0.392510899881632","0","","","","","","","",""
"","do_trial","176","837733","0.0-154.0-0.0","508.19999998807907","","","","49","0,1,1","2","highway","109","probe-157","0.10727522991595946","0.8456405825457346","0.3455942310546866","0","","","","","","","",""
"","do_trial","177","842629","0.0-155.0-0.0","298.2000000178814","","","","49","0,1,0","2","highway","110","probe-153","0.14823850302097527","0.8849260323058202","0.32177016078179527","0","","","","","","","",""
"","do_trial","178","847476","0.0-156.0-0.0","245.90000000596046","","","","50","0,0,0","2","highway","111","probe-01","0.11478955368427261","0.8469873022234212","0.38060690858991153","0","","","","","","","",""
"","do_trial","179","852297","0.0-157.0-0.0","223","","","","51","0,1,1","2","highway","112","probe-214","0.11612648015077703","0.7263190287533066","0.3269454935188479","1","","","","","","","",""
"","do_trial","180","857514","0.0-158.0-0.0","618.0999999940395","","","","50","0,1,0","2","highway","113","probe-134","0.15107085660020078","0.6007436179513738","0.4212660012753656","1","","","","","","","",""
"","do_trial","181","862405","0.0-159.0-0.0","283.5","","","","50","0,1,1","2","highway","114","probe-09","0.11614289273668991","0.8039720370402761","0.4771146788764815","1","","","","","","","",""
"","do_trial","182","867264","0.0-160.0-0.0","267.40000000596046","","","","50","0,1,1","2","highway","115","probe-152","0.06421088521622809","0.8676750170462575","0.3900081929347574","1","","","","","","","",""
"","do_trial","183","871958","0.0-161.0-0.0","98.09999999403954","","","","50","1,0,0","2","highway","116","probe-13","0.08257474982557125","0.6954666927812562","0.4002759419295377","0","","","","","","","",""
"","do_trial","184","876696","0.0-162.0-0.0","149.59999999403954","","","","50","0,0,0","2","highway","117","probe-67","0.07001139291885795","0.7008034733738849","0.3841065076175236","0","","","","","","","",""
"","do_trial","185","881398","0.0-163.0-0.0","87.2999999821186","","","","50","0,0,0","2","highway","118","probe-37","0.10481053153659127","0.6633898567840981","0.41289707923557556","0","","","","","","","",""
"","do_trial","186","886156","0.0-164.0-0.0","167.69999998807907","","","","49","0,1,1","2","highway","119","probe-69","0.051333003035419184","0.6982507908310526","0.3631723795398558","0","","","","","","","",""
"","do_bye","187","887669","0.0-165.0-0.0","null","","","","null","","","","","","","","","","","","","","","","",""
"","do_travel","188","893681","0.0-166.0-0.0","null","","","","null","","","","","","","","","","","","","","","","",""
"","do_welcome","189","895200","0.0-166.0-1.0","null","","","","null","","","","","","","","","","","","","","","","",""
"","do_trial","190","900266","0.0-167.0-0.0","462.40000000596046","","","","51","0,1,1","3","coast","120","probe-148","0.2742190516657736","1","0.31214980483724686","1","","","","","","","",""
"","do_trial","191","905140","0.0-168.0-0.0","270","","","","51","0,1,0","3","coast","121","probe-164","0.3015956105065781","1","0.27124412008571774","0","","","","","","","",""
"","do_trial","192","909790","0.0-169.0-0.0","76.40000000596046","","","","51","1,1,0","3","coast","122","probe-58","0.2003173780131558","1","0.4905093492473791","0","","","","","","","",""
"","do_trial","193","914441","0.0-170.0-0.0","49.29999998211861","","","","49","0,1,0","3","coast","123","probe-52","0.19910542761585667","1","0.2283715759688451","0","","","","","","","",""
"","do_trial","194","919292","0.0-171.0-0.0","247.19999998807907","","","","50","0,0,0","3","coast","124","probe-47","0.23427314814513797","0.9254676430072037","0.344481051902899","0","","","","","","","",""
"","do_trial","195","924153","0.0-172.0-0.0","281.5","","","","49","0,0,0","3","coast","125","probe-219","0.22436060793871868","0.8227324520711907","0.46179279629007963","0","","","","","","","",""
"","do_trial","196","928720","0.0-173.0-0.0","0.19999998807907104","","","","49","0,1,0","3","coast","126","probe-19","0.10010125874341977","0.8070725123445308","0.40257696545861044","0","","","","","","","",""
"","do_trial","197","933710","0.0-174.0-0.0","389.5","","","","51","1,1,1","3","coast","127","probe-42","0.17304854531675432","0.6661539644864448","0.4616349376214851","1","","","","","","","",""
"","do_trial","198","939150","0.0-175.0-0.0","843.1999999880791","","","","49","0,0,0","3","coast","128","probe-239","0.18786073045611099","0.8017099891690993","0.4024247466677272","0","","","","","","","",""
"","do_trial","199","943927","0.0-176.0-0.0","183","","","","51","0,1,0","3","coast","129","probe-159","0.06465384940765073","0.7645834330003201","0.40128430866235476","0","","","","","","","",""
"","do_trial","200","948668","0.0-177.0-0.0","144.09999999403954","","","","50","0,0,1","3","coast","130","probe-21","0.30644509929182895","0.43750988679265207","0.5363539453127782","0","","","","","","","",""
"","do_trial","201","953269","0.0-178.0-0.0","0.09999999403953552","","","","50","1,0,0","3","coast","131","probe-163","0.40877209317264795","0.3510337552729091","0.6373517984665695","0","","","","","","","",""
"","do_trial","202","958074","0.0-179.0-0.0","228.59999999403954","","","","50","0,0,0","3","coast","132","probe-28","0.432370635217247","0.3345610925908384","0.6404255266103808","0","","","","","","","",""
"","do_trial","203","962821","0.0-180.0-0.0","145.5","","","","50","1,0,1","3","coast","133","probe-76","0.29354183694047026","0.1815178961194217","0.6388834447035455","0","","","","","","","",""
"","do_trial","204","968522","0.0-181.0-0.0","1097.2999999821186","","","","49","1,0,1","3","coast","134","probe-72","0.3227208100705449","0.13777415530586842","0.6217743242238256","1","","","","","","","",""
"","do_trial","205","974483","0.0-182.0-0.0","1373.0999999940395","","","","49","1,0,1","3","coast","135","probe-16","0.42285952167848395","0.12498648825487337","0.7877893972588567","1","","","","","","","",""
"","do_trial","206","980587","0.0-183.0-0.0","null","","","","null","1,0,1","3","coast","136","probe-116","0.5314153797228727","0.2862316692874315","0.8375052692924362","","","","","","","","",""
"","do_trial","207","985649","0.0-184.0-0.0","460.7000000178814","","","","49","0,0,1","3","coast","137","probe-168","0.49693818768021336","0.2085465934959404","0.8456759490210152","0","","","","","","","",""
"","do_trial","208","991378","0.0-185.0-0.0","1141.9000000059605","","","","51","1,0,0","3","coast","138","probe-142","0.3276142124112523","0.05429324609745409","0.786975909586262","0","","","","","","","",""
"","do_trial","209","996214","0.0-186.0-0.0","247.7000000178814","","","","51","1,0,1","3","coast","139","probe-115","0.4859052111587089","0.11452230473152476","0.7209608911987345","1","","","","","","","",""
"","do_trial","210","1001592","0.0-187.0-0.0","800.7000000178814","","","","51","1,0,1","3","coast","140","probe-38","0.4569160240235308","0.0535282498949573","0.7585940037318687","1","","","","","","","",""
"","do_trial","211","1006193","0.0-188.0-0.0","0.20000001788139343","","","","51","0,0,1","3","coast","141","probe-151","0.23593268703187645","0.08280151192143585","0.836182265327652","1","","","","","","","",""
"","do_trial","212","1012314","0.0-189.0-0.0","null","","","","null","0,0,1","3","coast","142","probe-127","0.33152307871356274","0.2513359384471642","0.719160228673817","","","","","","","","",""
"","do_trial","213","1016962","0.0-190.0-0.0","63.30000001192093","","","","51","1,1,1","3","coast","143","probe-208","0.30414016738292377","0.3867035755324417","0.8186778909223205","1","","","","","","","",""
"","do_trial","214","1021838","0.0-191.0-0.0","289","","","","51","0,0,1","3","coast","144","probe-27","0.29620568487475785","0.314985795540802","0.8246619084977038","1","","","","","","","",""
"","do_trial","215","1026829","0.0-192.0-0.0","397.59999999403954","","","","51","1,0,1","3","coast","145","probe-108","0.36248427788864457","0.1719388125673584","0.7557293056047623","1","","","","","","","",""
"","do_trial","216","1031709","0.0-193.0-0.0","272.80000001192093","","","","51","1,1,1","3","coast","146","probe-04","0.4453282587041277","0.31746874605171205","0.810153908406594","1","","","","","","","",""
"","do_trial","217","1037008","0.0-194.0-0.0","701.5999999940395","","","","51","1,0,1","3","coast","147","probe-75","0.4866136152481093","0.10676761867170827","0.7337389413453858","1","","","","","","","",""
"","do_trial","218","1041856","0.0-195.0-0.0","245.7000000178814","","","","51","1,0,1","3","coast","148","probe-182","0.45684196995368576","0.1796654915490857","0.8147759393148912","1","","","","","","","",""
"","do_trial","219","1046455","0.0-196.0-0.0","0.09999999403953552","","","","51","0,0,1","3","coast","149","probe-238","0.29564121655293757","0.054091180452515854","0.8452009968312535","1","","","","","","","",""
"","do_trial","220","1051302","0.0-197.0-0.0","250.7000000178814","","","","51","1,0,1","3","coast","150","probe-184","0.35145446873111547","0.07449436364658114","0.8733849114740528","1","","","","","","","",""
"","do_trial","221","1056041","0.0-198.0-0.0","141.90000000596046","","","","51","0,1,1","3","coast","151","probe-137","0.3653698187350109","0.14992177250233266","0.9016032640615109","1","","","","","","","",""
"","do_trial","222","1060649","0.0-199.0-0.0","0.09999999403953552","","","","51","0,1,1","3","coast","152","probe-32","0.34812210210262506","0.2197073618620322","0.7328795377805524","1","","","","","","","",""
"","do_trial","223","1065646","0.0-200.0-0.0","399.80000001192093","","","","51","0,0,1","3","coast","153","probe-22","0.2180277237139538","0.09221479534915082","0.7119991043035416","1","","","","","","","",""
"","do_trial","224","1070762","0.0-201.0-0.0","507.59999999403954","","","","51","0,0,1","3","coast","154","probe-94","0.09093912655098244","0.05968372373172531","0.6763712024267713","1","","","","","","","",""
"","do_trial","225","1075448","0.0-202.0-0.0","83.80000001192093","","","","51","0,1,1","3","coast","155","probe-211","0.26989925499469625","0.2798573756168075","0.6456986536637545","1","","","","","","","",""
"","do_trial","226","1080143","0.0-203.0-0.0","87.5","","","","51","0,0,0","3","coast","156","probe-70","0.4233351141499319","0.13321366613740496","0.7307648613627155","0","","","","","","","",""
"","do_trial","227","1084868","0.0-204.0-0.0","119","","","","51","0,0,0","3","coast","157","probe-18","0.41224559435984115","0.14689481703937068","0.6565755456268813","0","","","","","","","",""
"","do_trial","228","1089564","0.0-205.0-0.0","94.7000000178814","","","","50","0,1,0","3","coast","158","probe-205","0.4886039940277888","0.16985462456021963","0.5607613123987909","1","","","","","","","",""
"","do_trial","229","1094314","0.0-206.0-0.0","131.40000000596046","","","","50","0,0,1","3","coast","159","probe-174","0.46745618610972145","0.1672201697157726","0.7438004837307056","0","","","","","","","",""
"","do_bye","230","1095833","0.0-207.0-0.0","null","","","","null","","","","","","","","","","","","","","","","",""
"","do_travel","231","1101844","0.0-208.0-0.0","null","","","","null","","","","","","","","","","","","","","","","",""
"","do_welcome","232","1103366","0.0-208.0-1.0","null","","","","null","","","","","","","","","","","","","","","","",""
"","do_trial","233","1109477","0.0-209.0-0.0","null","","","","null","1,0,1","4","mountain","160","probe-79","0.5372860583805023","0.17985919896677935","1","","","","","","","","",""
"","do_trial","234","1114410","0.0-210.0-0.0","330","","","","50","0,1,1","4","mountain","161","probe-53","0.3234843423292398","0.3018943738065789","1","1","","","","","","","",""
"","do_trial","235","1119128","0.0-211.0-0.0","125.90000000596046","","","","50","0,1,1","4","mountain","162","probe-25","0.3560993388841916","0.1498896279725497","1","1","","","","","","","",""
"","do_trial","236","1123731","0.0-212.0-0.0","0.09999999403953552","","","","50","0,0,1","4","mountain","163","probe-230","0.38720135151393004","0.18211411730919586","1","0","","","","","","","",""
"","do_trial","237","1128540","0.0-213.0-0.0","202.10000002384186","","","","49","0,1,1","4","mountain","164","probe-111","0.3569448508876195","0.10457930646948277","0.8834253440477767","0","","","","","","","",""
"","do_trial","238","1133216","0.0-214.0-0.0","83.7999999821186","","","","51","1,1,1","4","mountain","165","probe-99","0.3633052633621269","0.07937365402121299","0.8273404588463522","1","","","","","","","",""
"","do_trial","239","1137937","0.0-215.0-0.0","117.90000000596046","","","","51","1,0,0","4","mountain","166","probe-131","0.3022873960088306","0.13498682190770533","0.7704447789986975","0","","","","","","","",""
"","do_trial","240","1142634","0.0-216.0-0.0","84.90000000596046","","","","51","0,0,1","4","mountain","167","probe-180","0.4425754892705235","0.10224453814830037","0.6819813624754412","1","","","","","","","",""
"","do_trial","241","1147243","0.0-217.0-0.0","0.20000001788139343","","","","51","0,0,0","4","mountain","168","probe-145","0.48415567555122824","0.08451867557077598","0.6366061206045294","0","","","","","","","",""
"","do_trial","242","1152035","0.0-218.0-0.0","188.90000000596046","","","","50","0,0,1","4","mountain","169","probe-112","0.42601193197794623","0.16787819563965062","0.6774701517594445","0","","","","","","","",""
"","do_trial","243","1156837","0.0-219.0-0.0","215.69999998807907","","","","51","1,0,1","4","mountain","170","probe-136","0.5127636466867096","0.11148996566389771","0.5245305059547196","1","","","","","","","",""
"","do_trial","244","1161670","0.0-220.0-0.0","220.30000001192093","","","","51","0,0,1","4","mountain","171","probe-128","0.5981445708486751","0.10207190189726294","0.3562439906652529","1","","","","","","","",""
"","do_trial","245","1166580","0.0-221.0-0.0","307.90000000596046","","","","51","1,0,0","4","mountain","172","probe-71","0.776304112340805","0.07634448021858814","0.45488645146990375","0","","","","","","","",""
"","do_trial","246","1171309","0.0-222.0-0.0","122.19999998807907","","","","51","1,0,1","4","mountain","173","probe-43","0.8420750359843494","0.09081904202172575","0.5920960208659057","1","","","","","","","",""
"","do_trial","247","1175904","0.0-223.0-0.0","0.10000002384185791","","","","51","0,0,1","4","mountain","174","probe-107","0.653881528930246","0.15321058018886685","0.45673315197945097","1","","","","","","","",""
"","do_trial","248","1180756","0.0-224.0-0.0","250.90000000596046","","","","51","1,0,0","4","mountain","175","probe-232","0.6355531549913467","0.2105174405442586","0.526534025916704","0","","","","","","","",""
"","do_trial","249","1185356","0.0-225.0-0.0","0.09999999403953552","","","","51","0,0,0","4","mountain","176","probe-91","0.6557504887254674","0.13149495861595523","0.3761483884252936","0","","","","","","","",""
"","do_trial","250","1190084","0.0-226.0-0.0","125.19999998807907","","","","51","0,0,1","4","mountain","177","probe-210","0.7622299900470351","0.35577887252999235","0.3477104917627463","1","","","","","","","",""
"","do_trial","251","1194828","0.0-227.0-0.0","141.09999999403954","","","","51","1,1,0","4","mountain","178","probe-121","0.7390685311507755","0.3082539607056089","0.32399469412299053","0","","","","","","","",""
"","do_trial","252","1199644","0.0-228.0-0.0","217.2999999821186","","","","51","1,0,0","4","mountain","179","probe-26","0.6918432121361561","0.17110005313684212","0.39999216702233187","0","","","","","","","",""
"","do_trial","253","1204377","0.0-229.0-0.0","141.2000000178814","","","","51","1,0,1","4","mountain","180","probe-234","0.7690555952397924","0.13793848073639398","0.44042322450894417","1","","","","","","","",""
"","do_trial","254","1209082","0.0-230.0-0.0","99.30000001192093","","","","51","1,0,0","4","mountain","181","probe-10","0.9374874697137742","0.05840900849056485","0.32418070882604905","0","","","","","","","",""
"","do_trial","255","1213746","0.0-231.0-0.0","50.60000002384186","","","","51","1,0,1","4","mountain","182","probe-154","0.7806243556816199","0.15807073944239572","0.5009877830591981","1","","","","","","","",""
"","do_trial","256","1218696","0.0-232.0-0.0","336.40000000596046","","","","51","1,1,0","4","mountain","183","probe-20","0.771215940363695","0.1952965024318417","0.40953159824853813","0","","","","","","","",""
"","do_trial","257","1223377","0.0-233.0-0.0","77.59999999403954","","","","51","1,0,1","4","mountain","184","probe-03","0.9445200543636534","0.09420352805148507","0.47125037739290215","1","","","","","","","",""
"","do_trial","258","1227983","0.0-234.0-0.0","0.09999999403953552","","","","51","0,1,0","4","mountain","185","probe-51","0.9240405724498056","0.07348331463901747","0.348069171385594","0","","","","","","","",""
"","do_trial","259","1232755","0.0-235.0-0.0","171.7999999821186","","","","51","1,0,0","4","mountain","186","probe-12","0.8591055605277754","0.11143943536933487","0.46526091591572977","0","","","","","","","",""
"","do_trial","260","1237669","0.0-236.0-0.0","317.80000001192093","","","","51","1,0,1","4","mountain","187","probe-23","0.7756975973083973","0.19798644323863862","0.5671369992549893","1","","","","","","","",""
"","do_trial","261","1242510","0.0-237.0-0.0","258.59999999403954","","","","51","1,0,1","4","mountain","188","probe-190","0.7819211760487278","0.0838318591829695","0.4958163185190151","1","","","","","","","",""
"","do_trial","262","1247192","0.0-238.0-0.0","75.30000001192093","","","","51","0,0,0","4","mountain","189","probe-207","0.7418946373601427","0.0779169027237311","0.4024836368289194","0","","","","","","","",""
"","do_trial","263","1251959","0.0-239.0-0.0","148.09999999403954","","","","51","1,1,1","4","mountain","190","probe-170","0.6435092059276387","0.1825774517892493","0.557254754823275","1","","","","","","","",""
"","do_trial","264","1256941","0.0-240.0-0.0","370.5","","","","51","1,1,1","4","mountain","191","probe-93","0.7028435818506806","0.19829153206509503","0.49568380200748124","1","","","","","","","",""
"","do_trial","265","1261623","0.0-241.0-0.0","87.90000000596046","","","","51","1,1,1","4","mountain","192","probe-167","0.7719512174792282","0.1248526622075171","0.383525388267268","1","","","","","","","",""
"","do_trial","266","1266223","0.0-242.0-0.0","0.19999998807907104","","","","51","1,0,1","4","mountain","193","probe-176","0.9054866231858578","0.07428413180684995","0.31161958441728566","1","","","","","","","",""
"","do_trial","267","1270941","0.0-243.0-0.0","115.59999999403954","","","","51","0,0,0","4","mountain","194","probe-77","0.9255560347000706","0.06446820707717903","0.3263849194553835","0","","","","","","","",""
"","do_trial","268","1275546","0.0-244.0-0.0","0.10000002384185791","","","","51","1,0,0","4","mountain","195","probe-31","0.9268627585082966","0.0571649633831404","0.2368702351422586","0","","","","","","","",""
"","do_trial","269","1280146","0.0-245.0-0.0","0.09999999403953552","","","","51","1,0,1","4","mountain","196","probe-97","0.8586410720117141","0.13328931999997556","0.1990081247245719","1","","","","","","","",""
"","do_trial","270","1284748","0.0-246.0-0.0","0.09999999403953552","","","","51","0,0,0","4","mountain","197","probe-87","0.8633402156489646","0.12118818324946479","0.27535627391731166","0","","","","","","","",""
"","do_trial","271","1289381","0.0-247.0-0.0","35.80000001192093","","","","50","1,0,0","4","mountain","198","probe-158","0.931793084366076","0.19089788495348323","0.2160517655780464","0","","","","","","","",""
"","do_trial","272","1294074","0.0-248.0-0.0","87.30000001192093","","","","49","0,0,0","4","mountain","199","probe-141","0.8162830769739892","0.15419727648756662","0.2654868725233946","0","","","","","","","",""
"","do_bye","273","1295582","0.0-249.0-0.0","null","","","","null","","","","","","","","","","","","","","","","",""
"","do_travel","274","1301600","0.0-250.0-0.0","null","","","","null","","","","","","","","","","","","","","","","",""
"","do_welcome","275","1303118","0.0-250.0-1.0","null","","","","null","","","","","","","","","","","","","","","","",""
"","do_trial","276","1308407","0.0-251.0-0.0","691.2000000178814","","","","51","1,1,0","5","forest","200","probe-236","1","0.10679510817049273","0.22790247857578996","0","","","","","","","",""
"","do_trial","277","1313008","0.0-252.0-0.0","0.20000001788139343","","","","50","1,0,0","5","forest","201","probe-15","1","0.1184734399037296","0.30361365570162885","0","","","","","","","",""
"","do_trial","278","1317817","0.0-253.0-0.0","195.90000000596046","","","","49","1,0,0","5","forest","202","probe-237","1","0.07354412654507003","0.16357206724495416","1","","","","","","","",""
"","do_trial","279","1322412","0.0-254.0-0.0","18.400000005960464","","","","49","1,0,1","5","forest","203","probe-113","1","0.19663897387829668","0.24931397002302352","1","","","","","","","",""
"","do_trial","280","1327130","0.0-255.0-0.0","113.80000001192093","","","","49","1,0,1","5","forest","204","probe-189","0.85895001535017","0.23057585779393186","0.366886442110042","1","","","","","","","",""
"","do_trial","281","1331723","0.0-256.0-0.0","0.09999999403953552","","","","49","1,0,1","5","forest","205","probe-81","0.8859913145402969","0.1261023127221895","0.3120290556124211","1","","","","","","","",""
"","do_trial","282","1336324","0.0-257.0-0.0","0.09999999403953552","","","","49","1,0,1","5","forest","206","probe-194","0.8719691378220826","0.1382255103578224","0.36337482077751027","1","","","","","","","",""
"","do_trial","283","1340982","0.0-258.0-0.0","49.099999994039536","","","","49","1,0,1","5","forest","207","probe-39","0.9112058909686012","0.24350162468268113","0.33955337470347297","1","","","","","","","",""
"","do_trial","284","1345906","0.0-259.0-0.0","345.59999999403954","","","","49","1,1,0","5","forest","208","probe-110","0.906165557019262","0.36381035963763825","0.3128704714612376","1","","","","","","","",""
"","do_trial","285","1350713","0.0-260.0-0.0","204.5","","","","49","1,0,0","5","forest","209","probe-181","0.8434958830767127","0.3450186508456449","0.17500065237406376","1","","","","","","","",""
"","do_trial","286","1355687","0.0-261.0-0.0","394.80000001192093","","","","49","0,0,0","5","forest","210","probe-209","0.5895128575571394","0.25301875416718594","0.4824327614787683","0","","","","","","","",""
"","do_trial","287","1360451","0.0-262.0-0.0","161.69999998807907","","","","49","1,0,1","5","forest","211","probe-105","0.4819923247121068","0.1788666850571787","0.6168971771501929","1","","","","","","","",""
"","do_trial","288","1365048","0.0-263.0-0.0","0.09999999403953552","","","","49","1,0,1","5","forest","212","probe-147","0.3770876611014072","0.11431496199822178","0.7224322308448856","1","","","","","","","",""
"","do_trial","289","1369722","0.0-264.0-0.0","75.09999999403954","","","","49","1,0,1","5","forest","213","probe-78","0.3709373857286487","0.08403250199259628","0.8709910129496378","1","","","","","","","",""
"","do_trial","290","1375828","0.0-265.0-0.0","null","","","","null","1,0,1","5","forest","214","probe-88","0.5125457426739566","0.13377048329620275","0.824472521336919","","","","","","","","",""
"","do_trial","291","1380436","0.0-266.0-0.0","0.20000001788139343","","","","49","0,0,1","5","forest","215","probe-100","0.466258460980568","0.06583299357669406","0.7387521236271795","0","","","","","","","",""
"","do_trial","292","1385037","0.0-267.0-0.0","0.19999998807907104","","","","49","1,0,1","5","forest","216","probe-83","0.45142879621088305","0.09166721666806911","0.8104895169647399","1","","","","","","","",""
"","do_trial","293","1389656","0.0-268.0-0.0","22.80000001192093","","","","49","0,0,1","5","forest","217","probe-201","0.4399636794892494","0.19227039573830684","0.8141388365620263","0","","","","","","","",""
"","do_trial","294","1394738","0.0-269.0-0.0","483.80000001192093","","","","49","1,0,1","5","forest","218","probe-36","0.4976369461130812","0.19818416953676088","0.9043358759074746","1","","","","","","","",""
"","do_trial","295","1399815","0.0-270.0-0.0","474.5","","","","49","1,0,1","5","forest","219","probe-240","0.5239200920808044","0.07844847200930972","0.9005694442043942","1","","","","","","","",""
"","do_trial","296","1404472","0.0-271.0-0.0","44.5","","","","49","1,0,1","5","forest","220","probe-05","0.36088213067676267","0.07481264092310168","0.9432878742045092","1","","","","","","","",""
"","do_trial","297","1409119","0.0-272.0-0.0","40.30000001192093","","","","49","0,0,1","5","forest","221","probe-183","0.33789002553675784","0.11605456069383242","0.9405387271548099","0","","","","","","","",""
"","do_trial","298","1413714","0.0-273.0-0.0","0.09999999403953552","","","","49","0,0,1","5","forest","222","probe-193","0.23217159755543754","0.13941242115994887","0.9266813617501924","0","","","","","","","",""
"","do_trial","299","1418308","0.0-274.0-0.0","0.09999999403953552","","","","49","0,0,1","5","forest","223","probe-11","0.2868571561449474","0.08430280275811126","0.9124161840926519","0","","","","","","","",""
"","do_trial","300","1422896","0.0-275.0-0.0","0.19999998807907104","","","","49","0,0,1","5","forest","224","probe-185","0.3756334104418458","0.159959244870064","0.7427853146409205","0","","","","","","","",""
"","do_trial","301","1427873","0.0-276.0-0.0","389","","","","49","0,0,1","5","forest","225","probe-188","0.3654520779731783","0.22244261667246418","0.6343115894962292","0","","","","","","","",""
"","do_trial","302","1432516","0.0-277.0-0.0","43.5","","","","49","1,0,0","5","forest","226","probe-215","0.30481565955506496","0.24963575472956506","0.7164883887570599","1","","","","","","","",""
"","do_trial","303","1437122","0.0-278.0-0.0","29.599999994039536","","","","49","1,1,0","5","forest","227","probe-133","0.37513021032164134","0.2736517632919185","0.7174651113105348","1","","","","","","","",""
"","do_trial","304","1442070","0.0-279.0-0.0","351.7000000178814","","","","49","0,0,1","5","forest","228","probe-195","0.23489882066048715","0.2406447879176071","0.749699869621288","0","","","","","","","",""
"","do_trial","305","1446822","0.0-280.0-0.0","151.2999999821186","","","","49","0,0,0","5","forest","229","probe-126","0.21301196957348537","0.1320925822728441","0.8001490857802682","0","","","","","","","",""
"","do_trial","306","1451448","0.0-281.0-0.0","30.599999994039536","","","","49","1,0,1","5","forest","230","probe-07","0.4518674325500984","0.12284003794901192","0.9251995785175907","1","","","","","","","",""
"","do_trial","307","1456206","0.0-282.0-0.0","151","","","","49","0,0,1","5","forest","231","probe-202","0.29189513056435246","0.125312334909523","0.9412253498552418","0","","","","","","","",""
"","do_trial","308","1460849","0.0-283.0-0.0","0.20000001788139343","","","","49","0,1,1","5","forest","232","probe-55","0.4151133961019858","0.09918700873071924","0.9404805777903071","0","","","","","","","",""
"","do_trial","309","1465655","0.0-284.0-0.0","207.09999999403954","","","","49","1,0,1","5","forest","233","probe-191","0.3901536421369162","0.10032341951884717","0.8530301845266856","1","","","","","","","",""
"","do_trial","310","1470678","0.0-285.0-0.0","424.90000000596046","","","","49","1,0,1","5","forest","234","probe-89","0.28224488322951696","0.21676006107868712","0.8614480236189536","1","","","","","","","",""
"","do_trial","311","1475274","0.0-286.0-0.0","0.10000002384185791","","","","49","1,0,1","5","forest","235","probe-95","0.3554148927412487","0.12747352625793365","0.7317657418552718","1","","","","","","","",""
"","do_trial","312","1479931","0.0-287.0-0.0","50.099999994039536","","","","49","1,0,1","5","forest","236","probe-85","0.4488366270448468","0.17516053016379268","0.8184585316978786","1","","","","","","","",""
"","do_trial","313","1484538","0.0-288.0-0.0","0.09999999403953552","","","","49","0,0,1","5","forest","237","probe-224","0.29318557527482564","0.1980951520428725","0.7769261375764104","0","","","","","","","",""
"","do_trial","314","1489152","0.0-289.0-0.0","0.19999998807907104","","","","49","1,0,1","5","forest","238","probe-129","0.39874928103807433","0.07852419528070431","0.6971961138746592","1","","","","","","","",""
"","do_trial","315","1494157","0.0-290.0-0.0","388.90000000596046","","","","49","0,0,0","5","forest","239","probe-61","0.36403064561704473","0.057464366436728975","0.7734739182092422","0","","","","","","","",""
"","do_bye","316","1495668","0.0-291.0-0.0","null","","","","null","","","","","","","","","","","","","","","","",""
"","html-keyboard-response","317","1499116","0.0-291.0-1.0","3446.0999999940395","<div class='center'>You are all done with the first part of the experiment! Thank you for participating. Tomorrow, you will recieve an invite to participate in the next phase of the experiment which you must complete by the end of the day. <p><b>[Press the space bar to end the experiment]</b></p></div>","32","","","","","","","","","","","","5,1,4,0,2,3","95,62,195,59,185,205,186,44,225,159,67,43,97,16,134,202,79,170,174,105,49,177,145,165,219,217,139,73,102,224,53,191,23,171,34,64,168,221,58,211,103,56,196,40,178,55,155,198,101,222,138,65,121,124,61,39,45,29,81,113,226,161,216,72,228,203,220,154,129,197,47,176,160,7,232,122,13,230,48,63,234,227,164,28,118,116,123,100,85,91,148,212,215,117,1,32,137,131,83,142,33,119,89,172,143,5,199,149,108,156,152,0,213,133,8,151,12,66,36,68,147,163,57,51,46,218,18,41,238,158,20,162,27,75,71,15,115,167,141,114,37,150,126,207,26,107,3,74,181,237,183,136,31,21,93,210,69,17,204,173,78,52,24,229,110,98,130,179,144,111,135,127,70,42,106,231,90,209,120,25,233,9,153,19,2,50,11,22,189,206,169,92,166,175,76,30,96,86,157,140,235,14,236,112,188,80,193,38,109,180,208,104,146,77,87,99,82,200,35,239,4,182,192,10,184,187,214,132,194,125,6,201,54,190,88,94,84,223,128,60","8,10,9,15,7,17,18,2,5,11,0,3,4,14,16,1,13,12,6","0.35400917503031204,0.39688463547988034,0.3213305557998608,0.3276200470316884,0.3170882995351164,0.3289683978616691,0.21785213597113712,0.2615900061055581,0.33855693564602063,0.5204692679688955,0.6107105437244451,0.594906272615248,0.5422384460273518,0.6608186014185055,0.7903612162096763,0.8582989977158847,0.7966520478591591,0.7662057794759608,0.9473549431554618,0.8923899091111142,0.7920395950673311,0.6971866978846905,0.8722477688247241,0.9084644272627358,0.9242189830645113,0.9125483747772976,0.912679421618274,0.906923178598073,0.8411288025134647,0.7903617666985291,1,0.8643067600484731,0.8518598498154224,0.7637080902913497,0.9358207380324853,0.761161728148017,0.6494213019677858,0.706312524815897,0.8249376834441349,0.826964536741489,0.6761779770663465,0.4589105889534861,0.3012458170058411,0.2628185713545649,0.164252673737676,0.2081123822408846,0.21064053614565212,0.3435511348777523,0.06835292113129433,0.08693529848491116,0.06158006248400607,0.10549946839291753,0.06861723829875375,0.09945877691518988,0.24919729347737843,0.19008520891387629,0.16696998630976928,0.25456386032252387,0.16910680328889285,0.12830088249199118,0.19511553434871118,0.1734907661311515,0.10780715565890249,0.050430919209640504,0.19247802285936327,0.24432429964847735,0.21273013771357455,0.23423313025046313,0.20194161420261267,0.06750934565765215,0.17790829458324006,0.079706859380467,0.08983155522601413,0.16935653921660523,0.21424528518081912,0.1321530897675472,0.09215660305623041,0.1478475107860935,0.06319389348753948,0.09256963116536455,0.23764533305892255,0.11122400232733869,0.10584932576221441,0.06522808244253012,0.06770459890347186,0.07652677835094307,0.1450339050903067,0.13160565819933379,0.22174846785451544,0.19144375170870664,0.16377243711863299,0.06792890849211226,0.12442960319583932,0.11912798543889394,0.21101657419248845,0.11936502846212431,0.08320752138965407,0.07505525558807277,0.07367388715588316,0.26983679235879643,0.5700902175686412,0.6378118642338153,0.6654848214200021,0.6682697084910786,0.8082615271970928,0.947065335408134,0.8059684032783867,0.7085428165493977,0.6718010522319077,0.5590993493382566,0.7486505255097633,0.879932372174604,0.7884346544900359,0.8494522802783852,0.9169207230321463,0.889193895809852,0.8225247750565656,0.9349278432889807,0.7191691174069494,0.7173688831284635,1,0.8505830497002816,0.9450861256138096,0.8881600588953944,0.7879875116452577,0.8070485602100576,0.75356902528236,0.8878575616111277,0.9282925937789913,0.946863794292352,0.9094768135709568,0.8657810677107657,0.8191102446915983,0.8843313332255156,0.6543607240124288,0.5948126340299712,0.7829310804462165,0.6762154116440082,0.6887049305815549,0.5749576804698545,0.5634914664519713,0.5138218979284715,0.44950363495536244,0.3578467470018228,0.3977020961496478,0.3649082437672543,0.26830111106359106,0.3488914752496832,0.4836165694467722,0.4870636907040279,0.4669327562624009,0.5092173771087579,0.372081086557827,0.35461705771992547,0.42545727924585147,0.5815564863352627,0.5016468567053314,0.4795331722354695,0.3023833223697353,0.4660173575930794,0.4282186295616126,0.4473436454241952,0.3945170361055921,0.3091932044960267,0.1255273428237336,0.213074863182946,0.2502352673597977,0.22946503049333625,0.1819818946045893,0.1405711197952606,0.2021013761462283,0.24733460835916457,0.15719297214621156,0.09956060429988944,0.05079417940246352,0.11088353731411019,0.1230543518503645,0.058131731205417425,0.06017061298433385,0.103574628853833","0.06915034013788911,0.17586856283390795,0.10391313488694291,0.2114464294906132,0.06773386004529817,0.0993633503698781,0.052987303455906715,0.13451886901571872,0.1312411476274953,0.23293168183506885,0.33858785719713047,0.3236841077081135,0.3249605081829085,0.37151027165523687,0.48309801456443213,0.31422279356619376,0.1658579985185054,0.15932313691772346,0.33184286238433097,0.3305120980676548,0.36563354005947135,0.264845805023229,0.19766027705838363,0.20567767916851382,0.4119457386457269,0.4431384477928081,0.45603064791964515,0.29504113866622705,0.4637692855294867,0.30957020315537104,0.2186220637883064,0.2960138276626579,0.46129819405301903,0.38390111402146854,0.35287734341728444,0.3882894110311253,0.34307110367998933,0.29020617426451517,0.32475198332113564,0.3717473487267004,0.1875835919113711,0.26389761421611097,0.6109342241035192,0.6065701575555912,0.6357844148276773,0.5565795839335457,0.6841847996793138,0.7161654183884245,0.755347684514971,0.7061793421134809,0.8657966979666887,0.7263205177331068,0.8557914904012381,0.9321814586755071,0.9097561728742666,0.8874898192258143,0.8103293671231024,0.7389210349365339,0.7870461100490043,0.7715671282198621,1,0.8677651215633293,0.869253140176763,0.8937180454448832,0.7612035385155043,0.7277547366060064,0.6876417693662945,0.6963700026199627,0.6800746229799033,0.7739861737275371,0.6083122707344404,0.40164954288028315,0.40140936212496814,0.3825339816241691,0.3603785759167624,0.4120730192900684,0.5379029136434821,0.30367260832162857,0.41134299489182696,0.5259589879185989,0.5175669996666092,0.496048102091049,0.40764629012500714,0.27527101871029147,0.21501633434872525,0.34253278247401237,0.32664858359723425,0.294328912134808,0.32729879458148536,0.23698822201889866,0.29329646004033993,0.3093145872670782,0.1386092401492132,0.10955304406361846,0.16749276584034903,0.3311899390875328,0.3840166638565443,0.39259548319264814,0.2157446522465494,0.1410945599542274,0.22178708643351489,0.25319927219698246,0.2363513583355575,0.3242439693500722,0.3757129418565869,0.38820130617096893,0.3756458524762538,0.3656734263504912,0.40185597528925004,0.3025828855875907,0.34841009352832486,0.4250137321895599,0.4622763053775612,0.4803691036295908,0.6425938003054106,0.5355187281580499,0.5721252142833047,0.4872141245152047,0.28648148082484076,0.3925375673324857,0.39459209240917076,0.46756461384235887,0.3154155816387013,0.2412762507132583,0.27702801812111527,0.19220239043130732,0.10021072508368643,0.22450979663486986,0.44897495687308153,0.5255607521364192,0.5311005807965512,0.3445535896433946,0.3703372528439126,0.3395903367584329,0.16216748102958156,0.30885552287431106,0.24784032257639257,0.18465254715553947,0.30731625778582855,0.27208342800168656,0.23791044425417393,0.17152990309861316,0.19410794505559764,0.1329871695080585,0.10387216719897506,0.11064493022816678,0.11436522216358086,0.07413215644697312,0.15337031396967374,0.05798899855040382,0.09721042102409878,0.2152433618704977,0.16975757392294333,0.25582597738064844,0.1513084708818451,0.1723055842073797,0.07614223339420628,0.09920995363230628,0.09716886675741952,0.058607048917163444,0.08342143576813542,0.14107938934244,0.4524437766240192,0.5602998992632645,0.6949472765273881,0.6592172291372836,0.6422216836101605,0.6210279166949898,0.5958172582132422,0.6928130723708857,0.8713696220688931,0.8121525795396386,0.9250158472316299,0.9178577749150116,0.761112052843978,0.6745371738951826,0.7915412910352666,0.7893792657783567,0.9332318773023646,0.8655568306142967","1,0.8677960689679759,0.8957027767145163,0.9042957313658779,0.9231439337554828,0.8769946208557715,0.7295182301078582,0.5906516432092349,0.7560803326153733,0.8099560040679632,0.6057976426328148,0.3305307874931221,0.2338045396223587,0.2234520797362407,0.05436037667859779,0.14475153033344643,0.33138040733927493,0.19471886308390013,0.06151427072737457,0.08554261741837041,0.09992590682601213,0.14264396909965069,0.0744264222448759,0.06257412548698246,0.12737417710286167,0.16276067096748023,0.22232584347024328,0.2856745153312087,0.3010403371469853,0.23335831543369068,0.2913158399803307,0.2819215428382064,0.16725705165355229,0.07813995835817596,0.06435641858408048,0.05669162733989658,0.1291265022162203,0.16727922090045674,0.11158675102016136,0.05231493609269478,0.0734955121576135,0.10686798953361099,0.05476917821775171,0.0537928238158173,0.24890050007840864,0.18367831883995397,0.29857187130613866,0.393378956597511,0.250995378004419,0.365733882314988,0.3682390491838858,0.43400702286220866,0.4698935328284622,0.24335816083477554,0.40978913108973125,0.4046835185682149,0.27680492060769446,0.2711677718269889,0.25434846976991926,0.4404250493278508,0.47014313733003177,0.5394613067164497,0.39599110961885664,0.4940385488428541,0.5806468470188123,0.5403082724988258,0.3082094723710066,0.40728456381765177,0.45792393794351105,0.4744602844641978,0.6443214403179196,0.6794860670858289,0.7932266635160273,0.7616866752549192,0.8100416177754586,0.7818592782434252,0.7125610753796809,0.6274484011903043,0.7102567692463427,0.8161690712027495,0.7808134806355822,0.7921084389658855,0.8338377329256343,0.7660449072359129,0.8474955048594008,0.9359893257569823,0.8412069751970732,0.7371594665970724,0.7530572937257776,0.723454007738666,1,0.9481445943850573,0.9339173311611795,0.7932086527748724,0.8017467888313564,0.875095212542961,0.7240530067544763,0.6730580237505825,0.7581248486817969,0.6717683743864297,0.478350499771131,0.21715071761863872,0.2139552854412381,0.19418708788021083,0.09258241500365351,0.05225112706659525,0.20017510055328325,0.33660885603977464,0.32231209634984737,0.09363523229297246,0.060366325307906074,0.2690203755360273,0.15586381636577834,0.11343608663452688,0.06721169416442091,0.0650444065242855,0.13845660306793656,0.15016909941985357,0.12075188483182529,0.1850004561320109,0.09192672831826788,0.06555072269375216,0.10081400221386964,0.15996872562753886,0.12833006550989648,0.09093615635575718,0.11549205474503758,0.14334116845140235,0.1588385562000788,0.35912868898926037,0.0713567931829229,0.20044815251289927,0.10017592984826992,0.11235460308491478,0.08518101265667025,0.06482713092274052,0.09335898001118637,0.08547164762615525,0.12747678151498176,0.4211622894908605,0.48799587174662407,0.5851739052902056,0.5998388819228118,0.6732784269902617,0.7363102165234615,0.8025622380693767,0.5843530534356353,0.61702916741049,0.6024017419206479,0.8281713450908009,1,0.916767751390277,0.7993876264382784,0.8476311341976336,0.764298255318689,0.7775875361606379,0.8204189239509061,0.6717954490675802,0.7412145712568048,0.6178776122961156,0.46014223850967156,0.3757714989637589,0.27909107229963276,0.5385964023230413,0.47408087938066895,0.3917047079673476,0.38319331803933127,0.3032294576428406,0.19205043768537594,0.4266246246993168,0.4114832281720189,0.4160585826622701,0.5424883247530538,0.49741393417918717,0.3633879847901363,0.348569961966722,0.3491078462413529,0.3472803728990861,0.3341585708383192,0.43562328357305574","126,163,47,81,169,87,167,122,88,125,41,208,203,83,45,82,127,204,121,44,42,162,124,168,85,161,205,40,209,166,49,129,128,200,120,165,206,46,202,48,201,84,207,86,123,80,43,164,89","1,3,1,1,1,1,1,2,1,1,1,3,2,3,1,1,3,1,4,1,1,5,2,1,5,4,1,1,1,5,5,2,4,1,1,1,4,1,1,1,2,5,1,5,1,1,1,3,1,1,1,1,1,1,5,3,1,4,1,1"
