"success","trial_type","trial_index","time_elapsed","internal_node_id","interactions","blur_events","focus_events","fullscreenenter_events","fullscreenexit_events","rt","stimulus","key_press","subject_id","participant_id","age","gender","prompt","response","choice_outcomes","context_n","context_img_id","trial_n","probe_img_id","pR_red","pR_white","pR_black","outcome","contextArray_ind","validImageProbes","invalidImageProbes","pRew_Red","pRew_White","pRew_Black","availableForMemProbe","choice_blocks"
"true","fullscreen","0","5547","0.0-0.0","""event"",""trial"",""time""
""fullscreenenter"",""0"",""4597""
","
","
","""event"",""trial"",""time""
""fullscreenenter"",""0"",""4597""
","
","","","","","","","","","","","","","","","","","","","","","","","","","",""
"","pavlovia","1","5555","0.0-1.0","""event"",""trial"",""time""
""fullscreenenter"",""0"",""4597""
","
","
","""event"",""trial"",""time""
""fullscreenenter"",""0"",""4597""
","
","","","","","","","","","","","","","","","","","","","","","","","","","",""
"","instruc1","2","50761","0.0-2.0","""event"",""trial"",""time""
""fullscreenenter"",""0"",""4597""
","
","
","""event"",""trial"",""time""
""fullscreenenter"",""0"",""4597""
","
","null","run_exp/static/audio/clip_1_welcome.m4a","null","248","936","11","Female","<div class='center'><p>Welcome! This is the first part of the study. It will last ~30 minutes. In part 1 and part 2 of the study, you are the head captain of a pirate ship traveling around the world to different islands. You will play a few different games throughout these two parts. Here is an overview of them:</p><br><p>Part 1 (today)</p><p>1. Instructions, practice game, and quiz</p><p>2. Pick a pirate game on 6 different islands</p><br><p>Part 2 (tomorrow)</p><p>3. Pick a pirate game and memory game</p><p>4. Where did you see this ship? </p></div>","","","","","","","","","","","","","","","","","",""
"","html-keyboard-response","3","51118","0.0-3.0","""event"",""trial"",""time""
""fullscreenenter"",""0"",""4597""
","
","
","""event"",""trial"",""time""
""fullscreenenter"",""0"",""4597""
","
","352.30000001192093","<div class='center'><p>Welcome! This is the first part of the study. It will last ~30 minutes. In part 1 and part 2 of the study, you are the head captain of a pirate ship traveling around the world to different islands. You will play a few different games throughout these two parts. Here is an overview of them:</p><br><p>Part 1 (today)</p><p>1. Instructions, practice game, and quiz</p><p>2. Pick a pirate game on 6 different islands</p><br><p>Part 2 (tomorrow)</p><p>3. Pick a pirate game and memory game</p><p>4. Where did you see this ship? </p><p><b>[Press the space bar to continue]</b></p></div>","32","","","","","","","","","","","","","","","","","","","","","","",""
"","instruc2","4","56437","0.0-4.0","""event"",""trial"",""time""
""fullscreenenter"",""0"",""4597""
","
","
","""event"",""trial"",""time""
""fullscreenenter"",""0"",""4597""
","
","null","run_exp/static/audio/clip_2_different_places.m4a","null","","","","","<div class='center'><p>Today, you’ll visit these 6 islands on your journey. You'll be able to see these islands from your ship.</p><p><img src='run_exp/static/images/contexts/all_contexts.png' height='500'></p></div>","","","","","","","","","","","","","","","","","",""
"","html-keyboard-response","5","57314","0.0-5.0","""event"",""trial"",""time""
""fullscreenenter"",""0"",""4597""
","
","
","""event"",""trial"",""time""
""fullscreenenter"",""0"",""4597""
","
","875.9000000059605","<div class='center'><p>Today, you’ll visit these 6 islands on your journey. You'll be able to see these islands from your ship.</p><p><img src='run_exp/static/images/contexts/all_contexts.png' height='500'></p><p><b>[Press the space bar to continue]</b></p></div>","32","","","","","","","","","","","","","","","","","","","","","","",""
"","instruc3","6","67037","0.0-6.0","""event"",""trial"",""time""
""fullscreenenter"",""0"",""4597""
","
","
","""event"",""trial"",""time""
""fullscreenenter"",""0"",""4597""
","
","null","run_exp/static/audio/clip_3_goal_of_game_1.m4a","null","","","","","<div class='center'><p> The pirates on your ship will rob other ships as they leave the island.</p> These ships have just sold their goods to the islanders, so they will be filled with lots and lots of gold.</p><p><img src='run_exp/static/images/tutorial/ship_center.png' height='400'></p></div>","","","","","","","","","","","","","","","","","",""
"","html-keyboard-response","7","67587","0.0-7.0","""event"",""trial"",""time""
""fullscreenenter"",""0"",""4597""
","
","
","""event"",""trial"",""time""
""fullscreenenter"",""0"",""4597""
","
","544","<div class='center'><p> The pirates on your ship will rob other ships as they leave the island.</p> These ships have just sold their goods to the islanders, so they will be filled with lots and lots of gold.</p><p><img src='run_exp/static/images/tutorial/ship_center.png' height='400'></p><p><b>[Press the space bar to continue]</b></p></div>","32","","","","","","","","","","","","","","","","","","","","","","",""
"","instruc4","8","95593","0.0-8.0","""event"",""trial"",""time""
""fullscreenenter"",""0"",""4597""
","
","
","""event"",""trial"",""time""
""fullscreenenter"",""0"",""4597""
","
","null","run_exp/static/audio/clip_4_goal_of_game_2.m4a","null","","","","","<div class='center'><p>As the head captain, you do not have to rob any ships yourself. Another pirate will be doing the robbing for you. First, you will choose a pirate to rob the next ship.</p><p><img src='run_exp/static/images/tutorial/pirates_all_crop.png' height='200'></p><p>Then, you'll see if the pirate successfully robbed the ship of their gold. If they were successful, then you'll get a stack of gold coins like this:</p><p><img src='run_exp/static/images/tutorial/reward.png' height='150'></p><p> If they were <b>not</b> successful, then you'll get no gold coins, and you'll see a big red x like this: </p><p><img src='run_exp/static/images/tutorial/reward_no.png' height='150'></p><p> How much bonus money you make is based on how many gold coins you collect.</p><div>","","","","","","","","","","","","","","","","","",""
"","html-keyboard-response","9","103852","0.0-9.0","""event"",""trial"",""time""
""fullscreenenter"",""0"",""4597""
","
","
","""event"",""trial"",""time""
""fullscreenenter"",""0"",""4597""
","
","8255","<div class='center'><p>As the head captain, you do not have to rob any ships yourself. Another pirate will be doing the robbing for you. First, you will choose a pirate to rob the next ship.</p><p><img src='run_exp/static/images/tutorial/pirates_all_crop.png' height='200'></p><p>Then, you'll see if the pirate successfully robbed the ship of their gold. If they were successful, then you'll get a stack of gold coins like this:</p><p><img src='run_exp/static/images/tutorial/reward.png' height='150'></p><p> If they were <b>not</b> successful, then you'll get no gold coins, and you'll see a big red x like this: </p><p><img src='run_exp/static/images/tutorial/reward_no.png' height='150'></p><p> How much bonus money you make is based on how many gold coins you collect.</p<p><b>[Press the space bar to continue]</b></p></div>","32","","","","","","","","","","","","","","","","","","","","","","",""
"","instruc5","10","163864","0.0-10.0","""event"",""trial"",""time""
""fullscreenenter"",""0"",""4597""
","
","
","""event"",""trial"",""time""
""fullscreenenter"",""0"",""4597""
","
","59999","run_exp/static/audio/clip_5_probabilistic.m4a","49","","","","","<div class='center'><p>Even the most skilled pirate can not rob EVERY ship.</p><p> Some ships will have very strong protections against pirate attacks.</p><p> Blue beard, here, is very, very good at robbing ships, but he won't be successful every time he tries to rob one.</p><p> You can press the <b>‘1’</b> key on the keyboard to choose him.</p><p> Try choosing him 10 times to see how often he succeeds at robbing a ship. </p><p><img src='run_exp/static/images/tutorial/blue.png' height='500'></p></div>","","","","","","","","","","","","","","","","","",""
"","html-keyboard-response","11","165369","0.0-11.0","""event"",""trial"",""time""
""fullscreenenter"",""0"",""4597""
","
","
","""event"",""trial"",""time""
""fullscreenenter"",""0"",""4597""
","
","null","<div class='center'><p><img src='run_exp/static/images/tutorial/blue_win.png' height='500'></p></div>","null","","","","","","","","","","","","","","","","","","","","","","",""
"","html-keyboard-response","12","168350","0.0-12.0","""event"",""trial"",""time""
""fullscreenenter"",""0"",""4597""
","
","
","""event"",""trial"",""time""
""fullscreenenter"",""0"",""4597""
","
","2978.7999999821186","<div class='center'><img src='run_exp/static/images/tutorial/blue.png' height='500'></p></div>","49","","","","","","","","","","","","","","","","","","","","","","",""
"","html-keyboard-response","13","169864","0.0-13.0","""event"",""trial"",""time""
""fullscreenenter"",""0"",""4597""
","
","
","""event"",""trial"",""time""
""fullscreenenter"",""0"",""4597""
","
","null","<div class='center'><p><img src='run_exp/static/images/tutorial/blue_win.png' height='500'></p></div>","null","","","","","","","","","","","","","","","","","","","","","","",""
"","html-keyboard-response","14","170817","0.0-14.0","""event"",""trial"",""time""
""fullscreenenter"",""0"",""4597""
","
","
","""event"",""trial"",""time""
""fullscreenenter"",""0"",""4597""
","
","949.8000000119209","<div class='center'><img src='run_exp/static/images/tutorial/blue.png' height='500'></p></div>","49","","","","","","","","","","","","","","","","","","","","","","",""
"","html-keyboard-response","15","172330","0.0-15.0","""event"",""trial"",""time""
""fullscreenenter"",""0"",""4597""
","
","
","""event"",""trial"",""time""
""fullscreenenter"",""0"",""4597""
","
","null","<div class='center'><p><img src='run_exp/static/images/tutorial/blue_win.png' height='500'></p></div>","null","","","","","","","","","","","","","","","","","","","","","","",""
"","html-keyboard-response","16","173159","0.0-16.0","""event"",""trial"",""time""
""fullscreenenter"",""0"",""4597""
","
","
","""event"",""trial"",""time""
""fullscreenenter"",""0"",""4597""
","
","825.1000000238419","<div class='center'><img src='run_exp/static/images/tutorial/blue.png' height='500'></p></div>","49","","","","","","","","","","","","","","","","","","","","","","",""
"","html-keyboard-response","17","174676","0.0-17.0","""event"",""trial"",""time""
""fullscreenenter"",""0"",""4597""
","
","
","""event"",""trial"",""time""
""fullscreenenter"",""0"",""4597""
","
","null","<div class='center'><p><img src='run_exp/static/images/tutorial/blue_no_win.png' height='500'></p></div>","null","","","","","","","","","","","","","","","","","","","","","","",""
"","html-keyboard-response","18","175258","0.0-18.0","""event"",""trial"",""time""
""fullscreenenter"",""0"",""4597""
","
","
","""event"",""trial"",""time""
""fullscreenenter"",""0"",""4597""
","
","579","<div class='center'><img src='run_exp/static/images/tutorial/blue.png' height='500'></p></div>","49","","","","","","","","","","","","","","","","","","","","","","",""
"","html-keyboard-response","19","176764","0.0-19.0","""event"",""trial"",""time""
""fullscreenenter"",""0"",""4597""
","
","
","""event"",""trial"",""time""
""fullscreenenter"",""0"",""4597""
","
","null","<div class='center'><p><img src='run_exp/static/images/tutorial/blue_win.png' height='500'></p></div>","null","","","","","","","","","","","","","","","","","","","","","","",""
"","html-keyboard-response","20","177328","0.0-20.0","""event"",""trial"",""time""
""fullscreenenter"",""0"",""4597""
","
","
","""event"",""trial"",""time""
""fullscreenenter"",""0"",""4597""
","
","561.2000000178814","<div class='center'><img src='run_exp/static/images/tutorial/blue.png' height='500'></p></div>","49","","","","","","","","","","","","","","","","","","","","","","",""
"","html-keyboard-response","21","178843","0.0-21.0","""event"",""trial"",""time""
""fullscreenenter"",""0"",""4597""
","
","
","""event"",""trial"",""time""
""fullscreenenter"",""0"",""4597""
","
","null","<div class='center'><p><img src='run_exp/static/images/tutorial/blue_win.png' height='500'></p></div>","null","","","","","","","","","","","","","","","","","","","","","","",""
"","html-keyboard-response","22","179323","0.0-22.0","""event"",""trial"",""time""
""fullscreenenter"",""0"",""4597""
","
","
","""event"",""trial"",""time""
""fullscreenenter"",""0"",""4597""
","
","477.19999998807907","<div class='center'><img src='run_exp/static/images/tutorial/blue.png' height='500'></p></div>","49","","","","","","","","","","","","","","","","","","","","","","",""
"","html-keyboard-response","23","180840","0.0-23.0","""event"",""trial"",""time""
""fullscreenenter"",""0"",""4597""
","
","
","""event"",""trial"",""time""
""fullscreenenter"",""0"",""4597""
","
","null","<div class='center'><p><img src='run_exp/static/images/tutorial/blue_win.png' height='500'></p></div>","null","","","","","","","","","","","","","","","","","","","","","","",""
"","html-keyboard-response","24","181266","0.0-24.0","""event"",""trial"",""time""
""fullscreenenter"",""0"",""4597""
","
","
","""event"",""trial"",""time""
""fullscreenenter"",""0"",""4597""
","
","422.60000002384186","<div class='center'><img src='run_exp/static/images/tutorial/blue.png' height='500'></p></div>","49","","","","","","","","","","","","","","","","","","","","","","",""
"","html-keyboard-response","25","182784","0.0-25.0","""event"",""trial"",""time""
""fullscreenenter"",""0"",""4597""
","
","
","""event"",""trial"",""time""
""fullscreenenter"",""0"",""4597""
","
","null","<div class='center'><p><img src='run_exp/static/images/tutorial/blue_no_win.png' height='500'></p></div>","null","","","","","","","","","","","","","","","","","","","","","","",""
"","html-keyboard-response","26","184510","0.0-26.0","""event"",""trial"",""time""
""fullscreenenter"",""0"",""4597""
","
","
","""event"",""trial"",""time""
""fullscreenenter"",""0"",""4597""
","
","1723.199999988079","<div class='center'><img src='run_exp/static/images/tutorial/blue.png' height='500'></p></div>","49","","","","","","","","","","","","","","","","","","","","","","",""
"","html-keyboard-response","27","186017","0.0-27.0","""event"",""trial"",""time""
""fullscreenenter"",""0"",""4597""
","
","
","""event"",""trial"",""time""
""fullscreenenter"",""0"",""4597""
","
","null","<div class='center'><p><img src='run_exp/static/images/tutorial/blue_win.png' height='500'></p></div>","null","","","","","","","","","","","","","","","","","","","","","","",""
"","html-keyboard-response","28","186931","0.0-28.0","""event"",""trial"",""time""
""fullscreenenter"",""0"",""4597""
","
","
","""event"",""trial"",""time""
""fullscreenenter"",""0"",""4597""
","
","910.9000000059605","<div class='center'><img src='run_exp/static/images/tutorial/blue.png' height='500'></p></div>","49","","","","","","","","","","","","","","","","","","","","","","",""
"","html-keyboard-response","29","188435","0.0-29.0","""event"",""trial"",""time""
""fullscreenenter"",""0"",""4597""
","
","
","""event"",""trial"",""time""
""fullscreenenter"",""0"",""4597""
","
","null","<div class='center'><p><img src='run_exp/static/images/tutorial/blue_win.png' height='500'></p></div>","null","","","","","","","","","","","","","","","","","","","","","","",""
"","instruc6","30","194132","0.0-30.0","""event"",""trial"",""time""
""fullscreenenter"",""0"",""4597""
","
","
","""event"",""trial"",""time""
""fullscreenenter"",""0"",""4597""
","
","null","run_exp/static/audio/clip_6_blue_beard_outcome.m4a","null","","","","","<div class='center'><p> See, he succeeded in robbing the ships most of the time but not every time. </p></div>","","","","","","","","","","","","","","","","","",""
"","html-keyboard-response","31","195991","0.0-31.0","""event"",""trial"",""time""
""fullscreenenter"",""0"",""4597""
","
","
","""event"",""trial"",""time""
""fullscreenenter"",""0"",""4597""
","
","1853.9000000059605","<div class='center'><p> See, he succeeded in robbing the ships most of the time but not every time. </p><p><b>[Press the space bar to continue]</b></p></div>","32","","","","","","","","","","","","","","","","","","","","","","",""
"","audio-keyboard-response","32","212925","0.0-32.0","""event"",""trial"",""time""
""fullscreenenter"",""0"",""4597""
","
","
","""event"",""trial"",""time""
""fullscreenenter"",""0"",""4597""
","
","16928","run_exp/static/audio/clip_7_pick_pirate.m4a","51","","","","","","","","","","","","","","","","","","","","","","",""
"","audio-keyboard-response","33","216877","0.0-33.0-0.0","""event"",""trial"",""time""
""fullscreenenter"",""0"",""4597""
","
","
","""event"",""trial"",""time""
""fullscreenenter"",""0"",""4597""
","
","3938.800000011921","run_exp/static/audio/clip_8_chosen_pirate_win.m4a","32","","","","","","","","","","","","","","","","","","","","","","",""
"","audio-keyboard-response","34","219764","0.0-33.0-1.0","""event"",""trial"",""time""
""fullscreenenter"",""0"",""4597""
","
","
","""event"",""trial"",""time""
""fullscreenenter"",""0"",""4597""
","
","2880.2999999821186","run_exp/static/audio/clip_9_pick_a_pirate_again.m4a","49","","","","","","","","","","","","","","","","","","","","","","",""
"","audio-keyboard-response","35","223986","0.0-34.0-0.0","""event"",""trial"",""time""
""fullscreenenter"",""0"",""4597""
","
","
","""event"",""trial"",""time""
""fullscreenenter"",""0"",""4597""
","
","4210","run_exp/static/audio/clip_10_chosen_pirate_loss.m4a","32","","","","","","","","","","","","","","","","","","","","","","",""
"","instruc9","36","229515","0.0-35.0-0.0","""event"",""trial"",""time""
""fullscreenenter"",""0"",""4597""
","
","
","""event"",""trial"",""time""
""fullscreenenter"",""0"",""4597""
","
","null","run_exp/static/audio/clip_11_time_out.m4a","null","","","","","<div class='center'><p>If you don’t make your choice fast enough, you’ll have to wait a few seconds before you can make another one. </p><p><img src='run_exp/static/images/miscellaneous/hurry_up.png' height='500'></p></div>","","","","","","","","","","","","","","","","","",""
"","html-keyboard-response","37","229686","0.0-35.0-1.0","""event"",""trial"",""time""
""fullscreenenter"",""0"",""4597""
","
","
","""event"",""trial"",""time""
""fullscreenenter"",""0"",""4597""
","
","166.5","<div class='center'><p>If you don’t make your choice fast enough, you’ll have to wait a few seconds before you can make another one. </p><p><img src='run_exp/static/images/miscellaneous/hurry_up.png' height='500'></p><p><b>[Press the space bar to continue]</b></p></div>","32","","","","","","","","","","","","","","","","","","","","","","",""
"","instruc10","38","268793","0.0-35.0-2.0","""event"",""trial"",""time""
""fullscreenenter"",""0"",""4597""
","
","
","""event"",""trial"",""time""
""fullscreenenter"",""0"",""4597""
","
","null","run_exp/static/audio/clip_12_probe.m4a","null","","","","","<div class='center'><p>Once you've chosen a pirate, you’ll be shown the ship they are robbing. You will never rob the same ship twice. Ships can be told apart from one another by the image on them. These are the goods that they sell. See, this ship has a travel mug on it. </p><p> You’ll have to remember which island you saw each ship on. You will win more gold coins and hence more bonus money if you remember correctly! To help you remember, you can imagine a story. For example, here, you could imagine a mug full of water in the desert. Or, as another example, if on the forest island, your pirate robbed a ship with an apple on it, you could imagine an apple falling from a tree in the forest. </p><p><img src='run_exp/static/images/tutorial/example_probe.png' height='500'></p></div>","","","","","","","","","","","","","","","","","",""
"","html-keyboard-response","39","269784","0.0-35.0-3.0","""event"",""trial"",""time""
""fullscreenenter"",""0"",""4597""
","
","
","""event"",""trial"",""time""
""fullscreenenter"",""0"",""4597""
","
","983.2000000178814","<div class='center'><p>Once you've chosen a pirate, you’ll be shown the ship they are robbing. You will never rob the same ship twice. Ships can be told apart from one another by the image on them. These are the goods that they sell. See, this ship has a travel mug on it. </p><p> You’ll have to remember which island you saw each ship on. You will win more gold coins and hence more bonus money if you remember correctly! To help you remember, you can imagine a story. For example, here, you could imagine a mug full of water in the desert. Or, as another example, if on the forest island, your pirate robbed a ship with an apple on it, you could imagine an apple falling from a tree in the forest. </p><p><img src='run_exp/static/images/tutorial/example_probe.png' height='500'></p><p><b>[Press the space bar to continue]</b></p></div>","32","","","","","","","","","","","","","","","","","","","","","","",""
"","instruc11","40","286192","0.0-35.0-4.0","""event"",""trial"",""time""
""fullscreenenter"",""0"",""4597""
","
","
","""event"",""trial"",""time""
""fullscreenenter"",""0"",""4597""
","
","null","run_exp/static/audio/clip_13_changepoint.m4a","null","","","","","<div class='center'><p>How successful a pirate is at robbing ships will depend on the island you’re on.</p><p> A pirate may have visited this island many times before and gained a lot of practice robbing ships there.</p><p>So, they’re more likely to be successful than a pirate who has never visited the island before.</p></div>","","","","","","","","","","","","","","","","","",""
"","html-keyboard-response","41","286325","0.0-35.0-5.0","""event"",""trial"",""time""
""fullscreenenter"",""0"",""4597""
","
","
","""event"",""trial"",""time""
""fullscreenenter"",""0"",""4597""
","
","126.19999998807907","<div class='center'><p>How successful a pirate is at robbing ships will depend on the island you’re on.</p><p> A pirate may have visited this island many times before and gained a lot of practice robbing ships there.</p><p>So, they’re more likely to be successful than a pirate who has never visited the island before.</p><p><b>[Press the space bar to continue]</b></p></div>","32","","","","","","","","","","","","","","","","","","","","","","",""
"","instruc12","42","327410","0.0-35.0-6.0","""event"",""trial"",""time""
""fullscreenenter"",""0"",""4597""
","
","
","""event"",""trial"",""time""
""fullscreenenter"",""0"",""4597""
","
","null","run_exp/static/audio/clip_14_drift.m4a","null","","","","","<div class='center'><p>How successful a pirate is at robbing ships can also change over the time spent on the island. </p><p> Ships may hear from islanders about the pirates coming and will improve their protections against the attack. This may make it harder to rob them.</p><p> Ships may also become lazy and weaken the strength of their protections. This may make it easier to rob them.</p><br><p>Things are always changing on the high seas! So, try your best to pay attention!</p><p><img src='run_exp/static/images/tutorial/contingency.png' height='500'></p></div>","","","","","","","","","","","","","","","","","",""
"","html-keyboard-response","43","328214","0.0-35.0-7.0","""event"",""trial"",""time""
""fullscreenenter"",""0"",""4597""
","
","
","""event"",""trial"",""time""
""fullscreenenter"",""0"",""4597""
","
","797.9000000059605","<div class='center'><p>How successful a pirate is at robbing ships can also change over the time spent on the island. </p><p> Ships may hear from islanders about the pirates coming and will improve their protections against the attack. This may make it harder to rob them.</p><p> Ships may also become lazy and weaken the strength of their protections. This may make it easier to rob them.</p><br><p>Things are always changing on the high seas! So, try your best to pay attention!</p><p><img src='run_exp/static/images/tutorial/contingency.png' height='500'></p><p><b>[Press the space bar to continue]</b></p></div>","32","","","","","","","","","","","","","","","","","","","","","","",""
"","instruc13","44","363430","0.0-35.0-8.0","""event"",""trial"",""time""
""fullscreenenter"",""0"",""4597""
","
","
","""event"",""trial"",""time""
""fullscreenenter"",""0"",""4597""
","
","null","run_exp/static/audio/clip_15_summary.m4a","null","","","","","<div class='center'><p>Let's go over the instructions quickly again. You have two important things to do: </p><b><p> 1. Pick the pirate who is the best at robbing ships on the current island. </p></b><b><p> 2. Remember on which island a ship was robbed.</p> </b><p>The amount of bonus money you can win depends on both.</p><p><br><p>Let’s try a practice game. The game will start by showing you the pirates. First, pick a pirate using the <b> 1, 2, 3 </b> keys on your keyboard. When you are shown a ship, try to remember which island you’re on by making up a story.</p><p>This is just a practice game, so you’re not playing for money. </p><p> Good luck! This game will be very difficult but try your best!</p></div>","","","","","","","","","","","","","","","","","",""
"","html-keyboard-response","45","363956","0.0-35.0-9.0","""event"",""trial"",""time""
""fullscreenenter"",""0"",""4597""
","
","
","""event"",""trial"",""time""
""fullscreenenter"",""0"",""4597""
","
","518.7999999821186","<div class='center'><p>Let's go over the instructions quickly again. You have two important things to do: </p><b><p> 1. Pick the pirate who is the best at robbing ships on the current island. </p></b><b><p> 2. Remember on which island a ship was robbed.</p> </b><p>The amount of bonus money you can win depends on both.</p><p><br><p>Let’s try a practice game. The game will start by showing you the pirates. First, pick a pirate using the <b> 1, 2, 3 </b> keys on your keyboard. When you are shown a ship, try to remember which island you’re on by making up a story.</p><p>This is just a practice game, so you’re not playing for money. </p><p> Good luck! This game will be very difficult but try your best!</p><p><b>[Press the space bar to continue]</b></p></div>","32","","","","","","","","","","","","","","","","","","","","","","",""
"","do_welcome","46","367977","0.0-35.0-10.0","""event"",""trial"",""time""
""fullscreenenter"",""0"",""4597""
","
","
","""event"",""trial"",""time""
""fullscreenenter"",""0"",""4597""
","
","null","","","","","","","","null","","","","","","","","","","","","","","","","",""
"","do_trial","47","374017","0.0-35.0-11.0","""event"",""trial"",""time""
""fullscreenenter"",""0"",""4597""
","
","
","""event"",""trial"",""time""
""fullscreenenter"",""0"",""4597""
","
","null","","","","","","","","null","1,0,0","","","","","","","","","","","","","","","",""
"","html-keyboard-response","48","375037","0.0-36.0-0.0","""event"",""trial"",""time""
""fullscreenenter"",""0"",""4597""
","
","
","""event"",""trial"",""time""
""fullscreenenter"",""0"",""4597""
","
","null","<p></p>","null","","","","","","","","","","","","","","","","","","","","","","",""
"","do_trial","49","380174","0.0-36.0-1.0","""event"",""trial"",""time""
""fullscreenenter"",""0"",""4597""
","
","
","""event"",""trial"",""time""
""fullscreenenter"",""0"",""4597""
","
","604.9000000059605","","","","","","","","51","1,0,0","","","","","","","","","","","","","","","",""
"","html-keyboard-response","50","381198","0.0-37.0-0.0","""event"",""trial"",""time""
""fullscreenenter"",""0"",""4597""
","
","
","""event"",""trial"",""time""
""fullscreenenter"",""0"",""4597""
","
","null","<p></p>","null","","","","","","","","","","","","","","","","","","","","","","",""
"","do_trial","51","386451","0.0-37.0-1.0","""event"",""trial"",""time""
""fullscreenenter"",""0"",""4597""
","
","
","""event"",""trial"",""time""
""fullscreenenter"",""0"",""4597""
","
","725.2000000178814","","","","","","","","50","1,1,0","","","","","","","","","","","","","","","",""
"","html-keyboard-response","52","387465","0.0-38.0-0.0","""event"",""trial"",""time""
""fullscreenenter"",""0"",""4597""
","
","
","""event"",""trial"",""time""
""fullscreenenter"",""0"",""4597""
","
","null","<p></p>","null","","","","","","","","","","","","","","","","","","","","","","",""
"","do_trial","53","393110","0.0-38.0-1.0","""event"",""trial"",""time""
""fullscreenenter"",""0"",""4597""
","
","
","""event"",""trial"",""time""
""fullscreenenter"",""0"",""4597""
","
","1110.199999988079","","","","","","","","49","1,0,1","","","","","","","","","","","","","","","",""
"","html-keyboard-response","54","394123","0.0-39.0-0.0","""event"",""trial"",""time""
""fullscreenenter"",""0"",""4597""
","
","
","""event"",""trial"",""time""
""fullscreenenter"",""0"",""4597""
","
","null","<p></p>","null","","","","","","","","","","","","","","","","","","","","","","",""
"","do_trial","55","399853","0.0-39.0-1.0","""event"",""trial"",""time""
""fullscreenenter"",""0"",""4597""
","
","
","""event"",""trial"",""time""
""fullscreenenter"",""0"",""4597""
","
","1206.5","","","","","","","","50","0,1,0","","","","","","","","","","","","","","","",""
"","html-keyboard-response","56","400858","0.0-40.0-0.0","""event"",""trial"",""time""
""fullscreenenter"",""0"",""4597""
","
","
","""event"",""trial"",""time""
""fullscreenenter"",""0"",""4597""
","
","null","<p></p>","null","","","","","","","","","","","","","","","","","","","","","","",""
"","do_trial","57","406180","0.0-40.0-1.0","""event"",""trial"",""time""
""fullscreenenter"",""0"",""4597""
","
","
","""event"",""trial"",""time""
""fullscreenenter"",""0"",""4597""
","
","797.0999999940395","","","","","","","","49","1,0,0","","","","","","","","","","","","","","","",""
"","do_bye","58","407703","0.0-41.0-0.0","""event"",""trial"",""time""
""fullscreenenter"",""0"",""4597""
","
","
","""event"",""trial"",""time""
""fullscreenenter"",""0"",""4597""
","
","null","","","","","","","","null","","","","","","","","","","","","","","","","",""
"","do_travel","59","416732","0.0-41.0-1.0","""event"",""trial"",""time""
""fullscreenenter"",""0"",""4597""
","
","
","""event"",""trial"",""time""
""fullscreenenter"",""0"",""4597""
","
","null","","","","","","","","null","","","","","","","","","","","","","","","","",""
"","do_welcome","60","420761","0.0-41.0-2.0","""event"",""trial"",""time""
""fullscreenenter"",""0"",""4597""
","
","
","""event"",""trial"",""time""
""fullscreenenter"",""0"",""4597""
","
","null","","","","","","","","null","","","","","","","","","","","","","","","","",""
"","do_trial","61","426671","0.0-41.0-3.0","""event"",""trial"",""time""
""fullscreenenter"",""0"",""4597""
","
","
","""event"",""trial"",""time""
""fullscreenenter"",""0"",""4597""
","
","1382.199999988079","","","","","","","","51","1,0,0","","","","","","","","","","","","","","","",""
"","html-keyboard-response","62","427692","0.0-42.0-0.0","""event"",""trial"",""time""
""fullscreenenter"",""0"",""4597""
","
","
","""event"",""trial"",""time""
""fullscreenenter"",""0"",""4597""
","
","null","<p></p>","null","","","","","","","","","","","","","","","","","","","","","","",""
"","do_trial","63","432842","0.0-42.0-1.0","""event"",""trial"",""time""
""fullscreenenter"",""0"",""4597""
","
","
","""event"",""trial"",""time""
""fullscreenenter"",""0"",""4597""
","
","622.8000000119209","","","","","","","","50","1,0,1","","","","","","","","","","","","","","","",""
"","html-keyboard-response","64","433861","0.0-43.0-0.0","""event"",""trial"",""time""
""fullscreenenter"",""0"",""4597""
","
","
","""event"",""trial"",""time""
""fullscreenenter"",""0"",""4597""
","
","null","<p></p>","null","","","","","","","","","","","","","","","","","","","","","","",""
"","do_trial","65","438724","0.0-43.0-1.0","""event"",""trial"",""time""
""fullscreenenter"",""0"",""4597""
","
","
","""event"",""trial"",""time""
""fullscreenenter"",""0"",""4597""
","
","342.60000002384186","","","","","","","","49","1,1,0","","","","","","","","","","","","","","","",""
"","html-keyboard-response","66","439733","0.0-44.0-0.0","""event"",""trial"",""time""
""fullscreenenter"",""0"",""4597""
","
","
","""event"",""trial"",""time""
""fullscreenenter"",""0"",""4597""
","
","null","<p></p>","null","","","","","","","","","","","","","","","","","","","","","","",""
"","do_trial","67","445120","0.0-44.0-1.0","""event"",""trial"",""time""
""fullscreenenter"",""0"",""4597""
","
","
","""event"",""trial"",""time""
""fullscreenenter"",""0"",""4597""
","
","868.1999999880791","","","","","","","","49","0,0,1","","","","","","","","","","","","","","","",""
"","html-keyboard-response","68","446137","0.0-45.0-0.0","""event"",""trial"",""time""
""fullscreenenter"",""0"",""4597""
","
","
","""event"",""trial"",""time""
""fullscreenenter"",""0"",""4597""
","
","null","<p></p>","null","","","","","","","","","","","","","","","","","","","","","","",""
"","do_trial","69","452038","0.0-45.0-1.0","""event"",""trial"",""time""
""fullscreenenter"",""0"",""4597""
","
","
","""event"",""trial"",""time""
""fullscreenenter"",""0"",""4597""
","
","1369.9000000059605","","","","","","","","49","1,0,1","","","","","","","","","","","","","","","",""
"","html-keyboard-response","70","455703","0.0-46.0-0.0","""event"",""trial"",""time""
""fullscreenenter"",""0"",""4597""
","
","
","""event"",""trial"",""time""
""fullscreenenter"",""0"",""4597""
","
","3659.399999976158","<div class='center'><p><img src='run_exp/static/images/tutorial/prac_best_pirate.png'  height='500'></p></div>","49","","","","","","","","","","","","","","","","","","","","","","",""
"","html-keyboard-response","71","457759","0.0-47.0-0.0","""event"",""trial"",""time""
""fullscreenenter"",""0"",""4597""
","
","
","""event"",""trial"",""time""
""fullscreenenter"",""0"",""4597""
","
","2052.2999999821186","<div class='center'><p>That's correct! Red beard was the best.</p><p><b>[Press the space bar to continue]</b></p></div>","32","","","","","","","","","","","","","","","","","","","","","","",""
"","html-keyboard-response","72","462741","0.0-47.0-1.0","""event"",""trial"",""time""
""fullscreenenter"",""0"",""4597""
","
","
","""event"",""trial"",""time""
""fullscreenenter"",""0"",""4597""
","
","4979.300000011921","<div class='center'><p><img src='run_exp/static/images/tutorial/prac_source.png'  height='500'></p></div>","50","","","","","","","","","","","","","","","","","","","","","","",""
"","html-keyboard-response","73","464183","0.0-48.0-0.0","""event"",""trial"",""time""
""fullscreenenter"",""0"",""4597""
","
","
","""event"",""trial"",""time""
""fullscreenenter"",""0"",""4597""
","
","1437.9000000059605","<div class='center'><p>That's correct! You saw this ship on the cavern island.</p><p><b>[Press the space bar to continue]</b></p></div>","32","","","","","","","","","","","","","","","","","","","","","","",""
"","quiz_beginning","74","475672","0.0-48.0-1.0","""event"",""trial"",""time""
""fullscreenenter"",""0"",""4597""
","
","
","""event"",""trial"",""time""
""fullscreenenter"",""0"",""4597""
","
","null","run_exp/static/audio/clip_16_quiz_intro.m4a","null","","","","","<div class='center'><p>Good job on the practice game! Now, you will be asked some true or false questions to make sure you really understand the rules of the game.</p><p> Press <b>'1'</b> on the keyboard for true and press <b>'2'</b> for false.</p></div>","","","","","","","","","","","","","","","","","",""
"","audio-keyboard-response","75","486178","0.0-48.0-2.0","""event"",""trial"",""time""
""fullscreenenter"",""0"",""4597""
","
","
","""event"",""trial"",""time""
""fullscreenenter"",""0"",""4597""
","
","10500.59999999404","run_exp/static/audio/clip_17_q1.m4a","50","","","","","","","","","","","","","","","","","","","","","","",""
"","q1_err","76","491089","0.0-49.0-0.0","""event"",""trial"",""time""
""fullscreenenter"",""0"",""4597""
","
","
","""event"",""trial"",""time""
""fullscreenenter"",""0"",""4597""
","
","null","run_exp/static/audio/clip_19_wrong_q1.m4a","null","","","","","<div class='center'><p>That’s incorrect. You win bonus money by collecting gold coins.</p></div>","","","","","","","","","","","","","","","","","",""
"","html-keyboard-response","77","492274","0.0-49.0-1.0","""event"",""trial"",""time""
""fullscreenenter"",""0"",""4597""
","
","
","""event"",""trial"",""time""
""fullscreenenter"",""0"",""4597""
","
","1182.4000000059605","<div class='center'><p>That’s incorrect. You win bonus money by collecting gold coins.</p><p><b>[Press the space bar to continue]</b></p></div>","32","","","","","","","","","","","","","","","","","","","","","","",""
"","audio-keyboard-response","78","501894","0.0-49.0-2.0","""event"",""trial"",""time""
""fullscreenenter"",""0"",""4597""
","
","
","""event"",""trial"",""time""
""fullscreenenter"",""0"",""4597""
","
","9614.799999982119","run_exp/static/audio/clip_20_q2.m4a","50","","","","","","","","","","","","","","","","","","","","","","",""
"","correct","79","504309","0.0-50.0-0.0","""event"",""trial"",""time""
""fullscreenenter"",""0"",""4597""
","
","
","""event"",""trial"",""time""
""fullscreenenter"",""0"",""4597""
","
","null","run_exp/static/audio/clip_18_correct.m4a","null","","","","","<div class='center'><p>That's correct!</p></div>","","","","","","","","","","","","","","","","","",""
"","html-keyboard-response","80","505107","0.0-50.0-1.0","""event"",""trial"",""time""
""fullscreenenter"",""0"",""4597""
","
","
","""event"",""trial"",""time""
""fullscreenenter"",""0"",""4597""
","
","794","<div class='center'><p>That's correct!</p><p><b>[Press the space bar to continue]</b></p></div>","32","","","","","","","","","","","","","","","","","","","","","","",""
"","audio-keyboard-response","81","511280","0.0-50.0-2.0","""event"",""trial"",""time""
""fullscreenenter"",""0"",""4597""
","
","
","""event"",""trial"",""time""
""fullscreenenter"",""0"",""4597""
","
","6167.5","run_exp/static/audio/clip_22_q3.m4a","50","","","","","","","","","","","","","","","","","","","","","","",""
"","correct","82","513690","0.0-51.0-0.0","""event"",""trial"",""time""
""fullscreenenter"",""0"",""4597""
","
","
","""event"",""trial"",""time""
""fullscreenenter"",""0"",""4597""
","
","null","run_exp/static/audio/clip_18_correct.m4a","null","","","","","<div class='center'><p>That's correct!</p></div>","","","","","","","","","","","","","","","","","",""
"","html-keyboard-response","83","516217","0.0-51.0-1.0","""event"",""trial"",""time""
""fullscreenenter"",""0"",""4597""
","
","
","""event"",""trial"",""time""
""fullscreenenter"",""0"",""4597""
","
","2524.5","<div class='center'><p>That's correct!</p><p><b>[Press the space bar to continue]</b></p></div>","32","","","","","","","","","","","","","","","","","","","","","","",""
"","audio-keyboard-response","84","520236","0.0-51.0-2.0","""event"",""trial"",""time""
""fullscreenenter"",""0"",""4597""
","
","
","""event"",""trial"",""time""
""fullscreenenter"",""0"",""4597""
","
","4012.800000011921","run_exp/static/audio/clip_24_q4.m4a","49","","","","","","","","","","","","","","","","","","","","","","",""
"","correct","85","522629","0.0-52.0-0.0","""event"",""trial"",""time""
""fullscreenenter"",""0"",""4597""
","
","
","""event"",""trial"",""time""
""fullscreenenter"",""0"",""4597""
","
","null","run_exp/static/audio/clip_18_correct.m4a","null","","","","","<div class='center'><p>That's correct!</p></div>","","","","","","","","","","","","","","","","","",""
"","html-keyboard-response","86","523647","0.0-52.0-1.0","""event"",""trial"",""time""
""fullscreenenter"",""0"",""4597""
","
","
","""event"",""trial"",""time""
""fullscreenenter"",""0"",""4597""
","
","1014","<div class='center'><p>That's correct!</p><p><b>[Press the space bar to continue]</b></p></div>","32","","","","","","","","","","","","","","","","","","","","","","",""
"","q_all_err","87","529852","0.0-53.0-0.0","""event"",""trial"",""time""
""fullscreenenter"",""0"",""4597""
","
","
","""event"",""trial"",""time""
""fullscreenenter"",""0"",""4597""
","
","null","run_exp/static/audio/clip_26_quiz_redo.m4a","null","","","","","<div class='center'><p>Oops, you missed some questions. Now that you’ve heard the correct answers. Try the quiz again! </p></div>","","","","","","","","","","","","","","","","","",""
"","html-keyboard-response","88","530598","0.0-53.0-1.0","""event"",""trial"",""time""
""fullscreenenter"",""0"",""4597""
","
","
","""event"",""trial"",""time""
""fullscreenenter"",""0"",""4597""
","
","742.2000000178814","<div class='center'><p>Oops, you missed some questions. Now that you’ve heard the correct answers. Try the quiz again! </p><p><b>[Press the space bar to continue]</b></p></div>","32","","","","","","","","","","","","","","","","","","","","","","",""
"","audio-keyboard-response","89","533890","0.0-53.0-2.0","""event"",""trial"",""time""
""fullscreenenter"",""0"",""4597""
","
","
","""event"",""trial"",""time""
""fullscreenenter"",""0"",""4597""
","
","3284.7000000178814","run_exp/static/audio/clip_17_q1.m4a","49","","","","","","","","","","","","","","","","","","","","","","",""
"","correct","90","536289","0.0-54.0-0.0","""event"",""trial"",""time""
""fullscreenenter"",""0"",""4597""
","
","
","""event"",""trial"",""time""
""fullscreenenter"",""0"",""4597""
","
","null","run_exp/static/audio/clip_18_correct.m4a","null","","","","","<div class='center'><p>That's correct!</p></div>","","","","","","","","","","","","","","","","","",""
"","html-keyboard-response","91","536972","0.0-54.0-1.0","""event"",""trial"",""time""
""fullscreenenter"",""0"",""4597""
","
","
","""event"",""trial"",""time""
""fullscreenenter"",""0"",""4597""
","
","680.0999999940395","<div class='center'><p>That's correct!</p><p><b>[Press the space bar to continue]</b></p></div>","32","","","","","","","","","","","","","","","","","","","","","","",""
"","audio-keyboard-response","92","544554","0.0-54.0-2.0","""event"",""trial"",""time""
""fullscreenenter"",""0"",""4597""
","
","
","""event"",""trial"",""time""
""fullscreenenter"",""0"",""4597""
","
","7574.0999999940395","run_exp/static/audio/clip_20_q2.m4a","50","","","","","","","","","","","","","","","","","","","","","","",""
"","correct","93","546973","0.0-55.0-0.0","""event"",""trial"",""time""
""fullscreenenter"",""0"",""4597""
","
","
","""event"",""trial"",""time""
""fullscreenenter"",""0"",""4597""
","
","null","run_exp/static/audio/clip_18_correct.m4a","null","","","","","<div class='center'><p>That's correct!</p></div>","","","","","","","","","","","","","","","","","",""
"","html-keyboard-response","94","547667","0.0-55.0-1.0","""event"",""trial"",""time""
""fullscreenenter"",""0"",""4597""
","
","
","""event"",""trial"",""time""
""fullscreenenter"",""0"",""4597""
","
","691.4000000059605","<div class='center'><p>That's correct!</p><p><b>[Press the space bar to continue]</b></p></div>","32","","","","","","","","","","","","","","","","","","","","","","",""
"","audio-keyboard-response","95","554302","0.0-55.0-2.0","""event"",""trial"",""time""
""fullscreenenter"",""0"",""4597""
","
","
","""event"",""trial"",""time""
""fullscreenenter"",""0"",""4597""
","
","6628","run_exp/static/audio/clip_22_q3.m4a","50","","","","","","","","","","","","","","","","","","","","","","",""
"","correct","96","556732","0.0-56.0-0.0","""event"",""trial"",""time""
""fullscreenenter"",""0"",""4597""
","
","
","""event"",""trial"",""time""
""fullscreenenter"",""0"",""4597""
","
","null","run_exp/static/audio/clip_18_correct.m4a","null","","","","","<div class='center'><p>That's correct!</p></div>","","","","","","","","","","","","","","","","","",""
"","html-keyboard-response","97","557550","0.0-56.0-1.0","""event"",""trial"",""time""
""fullscreenenter"",""0"",""4597""
","
","
","""event"",""trial"",""time""
""fullscreenenter"",""0"",""4597""
","
","814.5","<div class='center'><p>That's correct!</p><p><b>[Press the space bar to continue]</b></p></div>","32","","","","","","","","","","","","","","","","","","","","","","",""
"","audio-keyboard-response","98","562133","0.0-56.0-2.0","""event"",""trial"",""time""
""fullscreenenter"",""0"",""4597""
","
","
","""event"",""trial"",""time""
""fullscreenenter"",""0"",""4597""
","
","4576.800000011921","run_exp/static/audio/clip_24_q4.m4a","49","","","","","","","","","","","","","","","","","","","","","","",""
"","correct","99","564633","0.0-57.0-0.0","""event"",""trial"",""time""
""fullscreenenter"",""0"",""4597""
","
","
","""event"",""trial"",""time""
""fullscreenenter"",""0"",""4597""
","
","null","run_exp/static/audio/clip_18_correct.m4a","null","","","","","<div class='center'><p>That's correct!</p></div>","","","","","","","","","","","","","","","","","",""
"","html-keyboard-response","100","565276","0.0-57.0-1.0","""event"",""trial"",""time""
""fullscreenenter"",""0"",""4597""
","
","
","""event"",""trial"",""time""
""fullscreenenter"",""0"",""4597""
","
","640","<div class='center'><p>That's correct!</p><p><b>[Press the space bar to continue]</b></p></div>","32","","","","","","","","","","","","","","","","","","","","","","",""
"","q_all_corr","101","573798","0.0-58.0-0.0","""event"",""trial"",""time""
""fullscreenenter"",""0"",""4597""
","
","
","""event"",""trial"",""time""
""fullscreenenter"",""0"",""4597""
","
","null","run_exp/static/audio/clip_27_quiz_all_correct.m4a","null","","","","","<div class='center'><p>Good job! You’re now ready to move on to the real game! Remember this game will be difficult but don't get discouraged and try your best!</p></div>","","","","","","","","","","","","","","","","","",""
"","html-keyboard-response","102","584335","0.0-58.0-1.0","""event"",""trial"",""time""
""fullscreenenter"",""0"",""4597""
","
","
","""event"",""trial"",""time""
""fullscreenenter"",""0"",""4597""
","
","10533.5","<div class='center'><p>Good job! You’re now ready to move on to the real game! Remember this game will be difficult but don't get discouraged and try your best!</p><p><b>[Press the space bar to continue]</b></p></div>","32","","","","","","","","","","","","","","","","","","","","","","",""
"","do_welcome","103","588363","0.0-59.0-0.0","""event"",""trial"",""time""
""fullscreenenter"",""0"",""4597""
","
","
","""event"",""trial"",""time""
""fullscreenenter"",""0"",""4597""
","
","null","","","","","","","","null","","","","","","","","","","","","","","","","",""
"","do_trial","104","594413","0.0-60.0-0.0","""event"",""trial"",""time""
""fullscreenenter"",""0"",""4597""
","
","
","""event"",""trial"",""time""
""fullscreenenter"",""0"",""4597""
","
","1466.3999999761581","","","","","","","","49","0,0,0","0","mountain","0","probe-113","0.6","0.3","0.1","0","","","","","","","",""
"","html-keyboard-response","105","595433","0.0-60.0-1.0","""event"",""trial"",""time""
""fullscreenenter"",""0"",""4597""
","
","
","""event"",""trial"",""time""
""fullscreenenter"",""0"",""4597""
","
","null","<p></p>","null","","","","","","","","","","","","","","","","","","","","","","",""
"","do_trial","106","602355","0.0-61.0-0.0","""event"",""trial"",""time""
""fullscreenenter"",""0"",""4597""
","
","
","""event"",""trial"",""time""
""fullscreenenter"",""0"",""4597""
","
","2343.7000000178814","","","","","","","","50","0,0,0","0","mountain","1","probe-118","0.7163709487029347","0.25533902936586317","0.14032456560477705","0","","","","","","","",""
"","html-keyboard-response","107","603364","0.0-61.0-1.0","""event"",""trial"",""time""
""fullscreenenter"",""0"",""4597""
","
","
","""event"",""trial"",""time""
""fullscreenenter"",""0"",""4597""
","
","null","<p></p>","null","","","","","","","","","","","","","","","","","","","","","","",""
"","do_trial","108","608426","0.0-62.0-0.0","""event"",""trial"",""time""
""fullscreenenter"",""0"",""4597""
","
","
","""event"",""trial"",""time""
""fullscreenenter"",""0"",""4597""
","
","487.2000000178814","","","","","","","","51","1,0,0","0","mountain","2","probe-08","0.6744008079909117","0.2650668959784071","0.24046452630181073","0","","","","","","","",""
"","html-keyboard-response","109","609430","0.0-62.0-1.0","""event"",""trial"",""time""
""fullscreenenter"",""0"",""4597""
","
","
","""event"",""trial"",""time""
""fullscreenenter"",""0"",""4597""
","
","null","<p></p>","null","","","","","","","","","","","","","","","","","","","","","","",""
"","do_trial","110","614379","0.0-63.0-0.0","""event"",""trial"",""time""
""fullscreenenter"",""0"",""4597""
","
","
","""event"",""trial"",""time""
""fullscreenenter"",""0"",""4597""
","
","369.2999999821186","","","","","","","","49","0,1,1","0","mountain","3","probe-64","0.6237516505882001","0.37357034757990804","0.12306507490429752","0","","","","","","","",""
"","html-keyboard-response","111","615393","0.0-63.0-1.0","""event"",""trial"",""time""
""fullscreenenter"",""0"",""4597""
","
","
","""event"",""trial"",""time""
""fullscreenenter"",""0"",""4597""
","
","null","<p></p>","null","","","","","","","","","","","","","","","","","","","","","","",""
"","do_trial","112","620387","0.0-64.0-0.0","""event"",""trial"",""time""
""fullscreenenter"",""0"",""4597""
","
","
","""event"",""trial"",""time""
""fullscreenenter"",""0"",""4597""
","
","422","","","","","","","","49","0,0,0","0","mountain","4","probe-153","0.6267510148464173","0.3616959932762328","0.056830738924640495","0","","","","","","","",""
"","html-keyboard-response","113","621391","0.0-64.0-1.0","""event"",""trial"",""time""
""fullscreenenter"",""0"",""4597""
","
","
","""event"",""trial"",""time""
""fullscreenenter"",""0"",""4597""
","
","null","<p></p>","null","","","","","","","","","","","","","","","","","","","","","","",""
"","do_trial","114","626310","0.0-65.0-0.0","""event"",""trial"",""time""
""fullscreenenter"",""0"",""4597""
","
","
","""event"",""trial"",""time""
""fullscreenenter"",""0"",""4597""
","
","323.09999999403954","","","","","","","","50","1,1,0","0","mountain","5","probe-173","0.6977566775720629","0.33501535349406275","0.1151241436601563","1","","","","","","","",""
"","html-keyboard-response","115","627325","0.0-65.0-1.0","""event"",""trial"",""time""
""fullscreenenter"",""0"",""4597""
","
","
","""event"",""trial"",""time""
""fullscreenenter"",""0"",""4597""
","
","null","<p></p>","null","","","","","","","","","","","","","","","","","","","","","","",""
"","do_trial","116","632333","0.0-66.0-0.0","""event"",""trial"",""time""
""fullscreenenter"",""0"",""4597""
","
","
","""event"",""trial"",""time""
""fullscreenenter"",""0"",""4597""
","
","423.7999999821186","","","","","","","","50","1,0,0","0","mountain","6","probe-04","0.6003378307573859","0.278476231378268","0.13055139157346998","0","","","","","","","",""
"","html-keyboard-response","117","633346","0.0-66.0-1.0","""event"",""trial"",""time""
""fullscreenenter"",""0"",""4597""
","
","
","""event"",""trial"",""time""
""fullscreenenter"",""0"",""4597""
","
","null","<p></p>","null","","","","","","","","","","","","","","","","","","","","","","",""
"","do_trial","118","639092","0.0-67.0-0.0","""event"",""trial"",""time""
""fullscreenenter"",""0"",""4597""
","
","
","""event"",""trial"",""time""
""fullscreenenter"",""0"",""4597""
","
","1151.4000000059605","","","","","","","","51","0,1,0","0","mountain","7","probe-143","0.6081029731927384","0.3822844381647109","0.09803203251974738","0","","","","","","","",""
"","html-keyboard-response","119","640099","0.0-67.0-1.0","""event"",""trial"",""time""
""fullscreenenter"",""0"",""4597""
","
","
","""event"",""trial"",""time""
""fullscreenenter"",""0"",""4597""
","
","null","<p></p>","null","","","","","","","","","","","","","","","","","","","","","","",""
"","do_trial","120","645294","0.0-68.0-0.0","""event"",""trial"",""time""
""fullscreenenter"",""0"",""4597""
","
","
","""event"",""trial"",""time""
""fullscreenenter"",""0"",""4597""
","
","616.1999999880791","","","","","","","","50","1,1,0","0","mountain","8","probe-05","0.5719523884283803","0.4730215986953985","0.06507939716543372","1","","","","","","","",""
"","html-keyboard-response","121","646302","0.0-68.0-1.0","""event"",""trial"",""time""
""fullscreenenter"",""0"",""4597""
","
","
","""event"",""trial"",""time""
""fullscreenenter"",""0"",""4597""
","
","null","<p></p>","null","","","","","","","","","","","","","","","","","","","","","","",""
"","do_trial","122","651208","0.0-69.0-0.0","""event"",""trial"",""time""
""fullscreenenter"",""0"",""4597""
","
","
","""event"",""trial"",""time""
""fullscreenenter"",""0"",""4597""
","
","335","","","","","","","","50","0,1,0","0","mountain","9","probe-42","0.5499009944982963","0.3267657873009454","0.16582705403276088","1","","","","","","","",""
"","html-keyboard-response","123","652217","0.0-69.0-1.0","""event"",""trial"",""time""
""fullscreenenter"",""0"",""4597""
","
","
","""event"",""trial"",""time""
""fullscreenenter"",""0"",""4597""
","
","null","<p></p>","null","","","","","","","","","","","","","","","","","","","","","","",""
"","do_trial","124","657507","0.0-70.0-0.0","""event"",""trial"",""time""
""fullscreenenter"",""0"",""4597""
","
","
","""event"",""trial"",""time""
""fullscreenenter"",""0"",""4597""
","
","706.7000000178814","","","","","","","","50","0,0,0","0","mountain","10","probe-74","0.632968530535444","0.3048858902492926","0.051859697769500585","0","","","","","","","",""
"","html-keyboard-response","125","658517","0.0-70.0-1.0","""event"",""trial"",""time""
""fullscreenenter"",""0"",""4597""
","
","
","""event"",""trial"",""time""
""fullscreenenter"",""0"",""4597""
","
","null","<p></p>","null","","","","","","","","","","","","","","","","","","","","","","",""
"","do_trial","126","666114","0.0-71.0-0.0","""event"",""trial"",""time""
""fullscreenenter"",""0"",""4597""
","
","
","""event"",""trial"",""time""
""fullscreenenter"",""0"",""4597""
","
","3001.5999999940395","","","","","","","","50","0,0,0","0","mountain","11","probe-32","0.608161822755334","0.3305208985897132","0.15435259024283965","0","","","","","","","",""
"","html-keyboard-response","127","667118","0.0-71.0-1.0","""event"",""trial"",""time""
""fullscreenenter"",""0"",""4597""
","
","
","""event"",""trial"",""time""
""fullscreenenter"",""0"",""4597""
","
","null","<p></p>","null","","","","","","","","","","","","","","","","","","","","","","",""
"","do_trial","128","672228","0.0-72.0-0.0","""event"",""trial"",""time""
""fullscreenenter"",""0"",""4597""
","
","
","""event"",""trial"",""time""
""fullscreenenter"",""0"",""4597""
","
","549.7999999821186","","","","","","","","50","1,0,0","0","mountain","12","probe-168","0.6010959511786537","0.4326004991283762","0.1960633875950575","0","","","","","","","",""
"","html-keyboard-response","129","673241","0.0-72.0-1.0","""event"",""trial"",""time""
""fullscreenenter"",""0"",""4597""
","
","
","""event"",""trial"",""time""
""fullscreenenter"",""0"",""4597""
","
","null","<p></p>","null","","","","","","","","","","","","","","","","","","","","","","",""
"","do_trial","130","678229","0.0-73.0-0.0","""event"",""trial"",""time""
""fullscreenenter"",""0"",""4597""
","
","
","""event"",""trial"",""time""
""fullscreenenter"",""0"",""4597""
","
","418.59999999403954","","","","","","","","51","1,1,0","0","mountain","13","probe-134","0.7581184930217163","0.3146081489691371","0.16626154503587998","0","","","","","","","",""
"","html-keyboard-response","131","679239","0.0-73.0-1.0","""event"",""trial"",""time""
""fullscreenenter"",""0"",""4597""
","
","
","""event"",""trial"",""time""
""fullscreenenter"",""0"",""4597""
","
","null","<p></p>","null","","","","","","","","","","","","","","","","","","","","","","",""
"","do_trial","132","684227","0.0-74.0-0.0","""event"",""trial"",""time""
""fullscreenenter"",""0"",""4597""
","
","
","""event"",""trial"",""time""
""fullscreenenter"",""0"",""4597""
","
","412","","","","","","","","49","0,0,0","0","mountain","14","probe-122","0.5327436460500841","0.38913827708386073","0.07190281872931477","0","","","","","","","",""
"","html-keyboard-response","133","685244","0.0-74.0-1.0","""event"",""trial"",""time""
""fullscreenenter"",""0"",""4597""
","
","
","""event"",""trial"",""time""
""fullscreenenter"",""0"",""4597""
","
","null","<p></p>","null","","","","","","","","","","","","","","","","","","","","","","",""
"","do_trial","134","690191","0.0-75.0-0.0","""event"",""trial"",""time""
""fullscreenenter"",""0"",""4597""
","
","
","""event"",""trial"",""time""
""fullscreenenter"",""0"",""4597""
","
","352.19999998807907","","","","","","","","50","0,0,1","0","mountain","15","probe-171","0.610680366268865","0.47885289561463124","0.23950026535407173","0","","","","","","","",""
"","html-keyboard-response","135","691203","0.0-75.0-1.0","""event"",""trial"",""time""
""fullscreenenter"",""0"",""4597""
","
","
","""event"",""trial"",""time""
""fullscreenenter"",""0"",""4597""
","
","null","<p></p>","null","","","","","","","","","","","","","","","","","","","","","","",""
"","do_trial","136","697114","0.0-76.0-0.0","""event"",""trial"",""time""
""fullscreenenter"",""0"",""4597""
","
","
","""event"",""trial"",""time""
""fullscreenenter"",""0"",""4597""
","
","1335.4000000059605","","","","","","","","50","1,1,1","0","mountain","16","probe-224","0.6377784803488996","0.45702495994320885","0.2548241073258285","1","","","","","","","",""
"","html-keyboard-response","137","698119","0.0-76.0-1.0","""event"",""trial"",""time""
""fullscreenenter"",""0"",""4597""
","
","
","""event"",""trial"",""time""
""fullscreenenter"",""0"",""4597""
","
","null","<p></p>","null","","","","","","","","","","","","","","","","","","","","","","",""
"","do_trial","138","703362","0.0-77.0-0.0","""event"",""trial"",""time""
""fullscreenenter"",""0"",""4597""
","
","
","""event"",""trial"",""time""
""fullscreenenter"",""0"",""4597""
","
","663.5999999940395","","","","","","","","51","1,0,0","0","mountain","17","probe-85","0.6464014750460296","0.41201604025600597","0.23987096899343816","0","","","","","","","",""
"","html-keyboard-response","139","704378","0.0-77.0-1.0","""event"",""trial"",""time""
""fullscreenenter"",""0"",""4597""
","
","
","""event"",""trial"",""time""
""fullscreenenter"",""0"",""4597""
","
","null","<p></p>","null","","","","","","","","","","","","","","","","","","","","","","",""
"","do_trial","140","709402","0.0-78.0-0.0","""event"",""trial"",""time""
""fullscreenenter"",""0"",""4597""
","
","
","""event"",""trial"",""time""
""fullscreenenter"",""0"",""4597""
","
","443.39999997615814","","","","","","","","49","1,0,1","0","mountain","18","probe-81","0.7708026375497746","0.35324578221411657","0.244800469983841","1","","","","","","","",""
"","html-keyboard-response","141","710421","0.0-78.0-1.0","""event"",""trial"",""time""
""fullscreenenter"",""0"",""4597""
","
","
","""event"",""trial"",""time""
""fullscreenenter"",""0"",""4597""
","
","null","<p></p>","null","","","","","","","","","","","","","","","","","","","","","","",""
"","do_trial","142","715350","0.0-79.0-0.0","""event"",""trial"",""time""
""fullscreenenter"",""0"",""4597""
","
","
","""event"",""trial"",""time""
""fullscreenenter"",""0"",""4597""
","
","354.5","","","","","","","","49","1,0,1","0","mountain","19","probe-196","0.7127800678173247","0.31005923412864345","0.24519123251920594","1","","","","","","","",""
"","html-keyboard-response","143","716357","0.0-79.0-1.0","""event"",""trial"",""time""
""fullscreenenter"",""0"",""4597""
","
","
","""event"",""trial"",""time""
""fullscreenenter"",""0"",""4597""
","
","null","<p></p>","null","","","","","","","","","","","","","","","","","","","","","","",""
"","do_trial","144","721637","0.0-80.0-0.0","""event"",""trial"",""time""
""fullscreenenter"",""0"",""4597""
","
","
","""event"",""trial"",""time""
""fullscreenenter"",""0"",""4597""
","
","702.7000000178814","","","","","","","","49","0,0,0","0","mountain","20","probe-82","0.5932811580722227","0.20155285726434888","0.2423478429501468","0","","","","","","","",""
"","html-keyboard-response","145","722644","0.0-80.0-1.0","""event"",""trial"",""time""
""fullscreenenter"",""0"",""4597""
","
","
","""event"",""trial"",""time""
""fullscreenenter"",""0"",""4597""
","
","null","<p></p>","null","","","","","","","","","","","","","","","","","","","","","","",""
"","do_trial","146","727582","0.0-81.0-0.0","""event"",""trial"",""time""
""fullscreenenter"",""0"",""4597""
","
","
","""event"",""trial"",""time""
""fullscreenenter"",""0"",""4597""
","
","354.2000000178814","","","","","","","","50","1,0,0","0","mountain","21","probe-140","0.5302755460941563","0.289083783706964","0.17470259617935788","0","","","","","","","",""
"","html-keyboard-response","147","728591","0.0-81.0-1.0","""event"",""trial"",""time""
""fullscreenenter"",""0"",""4597""
","
","
","""event"",""trial"",""time""
""fullscreenenter"",""0"",""4597""
","
","null","<p></p>","null","","","","","","","","","","","","","","","","","","","","","","",""
"","do_trial","148","734031","0.0-82.0-0.0","""event"",""trial"",""time""
""fullscreenenter"",""0"",""4597""
","
","
","""event"",""trial"",""time""
""fullscreenenter"",""0"",""4597""
","
","856.5","","","","","","","","51","0,0,1","0","mountain","22","probe-209","0.6892396734498896","0.4262182635972846","0.1430047115743648","1","","","","","","","",""
"","html-keyboard-response","149","735036","0.0-82.0-1.0","""event"",""trial"",""time""
""fullscreenenter"",""0"",""4597""
","
","
","""event"",""trial"",""time""
""fullscreenenter"",""0"",""4597""
","
","null","<p></p>","null","","","","","","","","","","","","","","","","","","","","","","",""
"","do_trial","150","739994","0.0-83.0-0.0","""event"",""trial"",""time""
""fullscreenenter"",""0"",""4597""
","
","
","""event"",""trial"",""time""
""fullscreenenter"",""0"",""4597""
","
","376.5","","","","","","","","51","1,1,0","0","mountain","23","probe-67","0.5096264199655214","0.2840844212136768","0.0575874364331057","0","","","","","","","",""
"","html-keyboard-response","151","741011","0.0-83.0-1.0","""event"",""trial"",""time""
""fullscreenenter"",""0"",""4597""
","
","
","""event"",""trial"",""time""
""fullscreenenter"",""0"",""4597""
","
","null","<p></p>","null","","","","","","","","","","","","","","","","","","","","","","",""
"","do_trial","152","745980","0.0-84.0-0.0","""event"",""trial"",""time""
""fullscreenenter"",""0"",""4597""
","
","
","""event"",""trial"",""time""
""fullscreenenter"",""0"",""4597""
","
","405.30000001192093","","","","","","","","50","0,0,0","0","mountain","24","probe-92","0.5450062057122239","0.2844138414860566","0.16849032002010003","0","","","","","","","",""
"","html-keyboard-response","153","746984","0.0-84.0-1.0","""event"",""trial"",""time""
""fullscreenenter"",""0"",""4597""
","
","
","""event"",""trial"",""time""
""fullscreenenter"",""0"",""4597""
","
","null","<p></p>","null","","","","","","","","","","","","","","","","","","","","","","",""
"","do_trial","154","752373","0.0-85.0-0.0","""event"",""trial"",""time""
""fullscreenenter"",""0"",""4597""
","
","
","""event"",""trial"",""time""
""fullscreenenter"",""0"",""4597""
","
","817.6999999880791","","","","","","","","50","0,1,0","0","mountain","25","probe-80","0.5158785721337733","0.3709181211001397","0.061950426967090064","1","","","","","","","",""
"","html-keyboard-response","155","753390","0.0-85.0-1.0","""event"",""trial"",""time""
""fullscreenenter"",""0"",""4597""
","
","
","""event"",""trial"",""time""
""fullscreenenter"",""0"",""4597""
","
","null","<p></p>","null","","","","","","","","","","","","","","","","","","","","","","",""
"","do_trial","156","758479","0.0-86.0-0.0","""event"",""trial"",""time""
""fullscreenenter"",""0"",""4597""
","
","
","""event"",""trial"",""time""
""fullscreenenter"",""0"",""4597""
","
","507","","","","","","","","50","1,0,0","0","mountain","26","probe-88","0.6347631581415784","0.40975235054947795","0.1511294985731005","0","","","","","","","",""
"","html-keyboard-response","157","759488","0.0-86.0-1.0","""event"",""trial"",""time""
""fullscreenenter"",""0"",""4597""
","
","
","""event"",""trial"",""time""
""fullscreenenter"",""0"",""4597""
","
","null","<p></p>","null","","","","","","","","","","","","","","","","","","","","","","",""
"","do_trial","158","764703","0.0-87.0-0.0","""event"",""trial"",""time""
""fullscreenenter"",""0"",""4597""
","
","
","""event"",""trial"",""time""
""fullscreenenter"",""0"",""4597""
","
","641.9000000059605","","","","","","","","50","1,0,0","0","mountain","27","probe-179","0.5668157620375209","0.45110995002106563","0.08988778855767009","0","","","","","","","",""
"","html-keyboard-response","159","765707","0.0-87.0-1.0","""event"",""trial"",""time""
""fullscreenenter"",""0"",""4597""
","
","
","""event"",""trial"",""time""
""fullscreenenter"",""0"",""4597""
","
","null","<p></p>","null","","","","","","","","","","","","","","","","","","","","","","",""
"","do_trial","160","771311","0.0-88.0-0.0","""event"",""trial"",""time""
""fullscreenenter"",""0"",""4597""
","
","
","""event"",""trial"",""time""
""fullscreenenter"",""0"",""4597""
","
","1010.5999999940395","","","","","","","","50","0,1,0","0","mountain","28","probe-76","0.5230559422028285","0.40422814037951116","0.1825132010935917","1","","","","","","","",""
"","html-keyboard-response","161","772315","0.0-88.0-1.0","""event"",""trial"",""time""
""fullscreenenter"",""0"",""4597""
","
","
","""event"",""trial"",""time""
""fullscreenenter"",""0"",""4597""
","
","null","<p></p>","null","","","","","","","","","","","","","","","","","","","","","","",""
"","do_trial","162","777256","0.0-89.0-0.0","""event"",""trial"",""time""
""fullscreenenter"",""0"",""4597""
","
","
","""event"",""trial"",""time""
""fullscreenenter"",""0"",""4597""
","
","375.5","","","","","","","","50","0,0,0","0","mountain","29","probe-29","0.6801902602405642","0.3515685617379502","0.1039596086215272","0","","","","","","","",""
"","html-keyboard-response","163","778262","0.0-89.0-1.0","""event"",""trial"",""time""
""fullscreenenter"",""0"",""4597""
","
","
","""event"",""trial"",""time""
""fullscreenenter"",""0"",""4597""
","
","null","<p></p>","null","","","","","","","","","","","","","","","","","","","","","","",""
"","do_bye","164","779773","0.0-90.0-0.0","""event"",""trial"",""time""
""fullscreenenter"",""0"",""4597""
","
","
","""event"",""trial"",""time""
""fullscreenenter"",""0"",""4597""
","
","null","","","","","","","","null","","","","","","","","","","","","","","","","",""
"","break","165","785292","0.0-90.0-1.0","""event"",""trial"",""time""
""fullscreenenter"",""0"",""4597""
","
","
","""event"",""trial"",""time""
""fullscreenenter"",""0"",""4597""
","
","5514.300000011921","<div class='center'><p>Time to take a quick break! You have 2 minutes to rest, but you can move on sooner if you'd like.</p><p> Press the <b>space bar</b> to continue.</p></div>","32","","","","","","","","","","","","","","","","","","","","","","",""
"","do_travel","166","794304","0.0-91.0-0.0","""event"",""trial"",""time""
""fullscreenenter"",""0"",""4597""
","
","
","""event"",""trial"",""time""
""fullscreenenter"",""0"",""4597""
","
","null","","","","","","","","null","","","","","","","","","","","","","","","","",""
"","do_welcome","167","798317","0.0-91.0-1.0","""event"",""trial"",""time""
""fullscreenenter"",""0"",""4597""
","
","
","""event"",""trial"",""time""
""fullscreenenter"",""0"",""4597""
","
","null","","","","","","","","null","","","","","","","","","","","","","","","","",""
"","do_trial","168","804202","0.0-92.0-0.0","""event"",""trial"",""time""
""fullscreenenter"",""0"",""4597""
","
","
","""event"",""trial"",""time""
""fullscreenenter"",""0"",""4597""
","
","1295.7000000178814","","","","","","","","50","1,1,0","1","countryside","30","probe-152","1","0.45598462553387026","0.08612494514698403","1","","","","","","","",""
"","html-keyboard-response","169","805222","0.0-92.0-1.0","""event"",""trial"",""time""
""fullscreenenter"",""0"",""4597""
","
","
","""event"",""trial"",""time""
""fullscreenenter"",""0"",""4597""
","
","null","<p></p>","null","","","","","","","","","","","","","","","","","","","","","","",""
"","do_trial","170","810764","0.0-93.0-0.0","""event"",""trial"",""time""
""fullscreenenter"",""0"",""4597""
","
","
","""event"",""trial"",""time""
""fullscreenenter"",""0"",""4597""
","
","964.9000000059605","","","","","","","","49","1,0,0","1","countryside","31","probe-38","1","0.37908390306608797","0.22920619858094227","1","","","","","","","",""
"","html-keyboard-response","171","811782","0.0-93.0-1.0","""event"",""trial"",""time""
""fullscreenenter"",""0"",""4597""
","
","
","""event"",""trial"",""time""
""fullscreenenter"",""0"",""4597""
","
","null","<p></p>","null","","","","","","","","","","","","","","","","","","","","","","",""
"","do_trial","172","817305","0.0-94.0-0.0","""event"",""trial"",""time""
""fullscreenenter"",""0"",""4597""
","
","
","""event"",""trial"",""time""
""fullscreenenter"",""0"",""4597""
","
","956.5999999940395","","","","","","","","50","1,0,0","1","countryside","32","probe-86","1","0.29516248713133425","0.22910675834345307","0","","","","","","","",""
"","html-keyboard-response","173","818317","0.0-94.0-1.0","""event"",""trial"",""time""
""fullscreenenter"",""0"",""4597""
","
","
","""event"",""trial"",""time""
""fullscreenenter"",""0"",""4597""
","
","null","<p></p>","null","","","","","","","","","","","","","","","","","","","","","","",""
"","do_trial","174","823218","0.0-95.0-0.0","""event"",""trial"",""time""
""fullscreenenter"",""0"",""4597""
","
","
","""event"",""trial"",""time""
""fullscreenenter"",""0"",""4597""
","
","321","","","","","","","","51","1,1,0","1","countryside","33","probe-36","0.8632777333420153","0.2444124370424212","0.16196194534887273","0","","","","","","","",""
"","html-keyboard-response","175","824235","0.0-95.0-1.0","""event"",""trial"",""time""
""fullscreenenter"",""0"",""4597""
","
","
","""event"",""trial"",""time""
""fullscreenenter"",""0"",""4597""
","
","null","<p></p>","null","","","","","","","","","","","","","","","","","","","","","","",""
"","do_trial","176","829197","0.0-96.0-0.0","""event"",""trial"",""time""
""fullscreenenter"",""0"",""4597""
","
","
","""event"",""trial"",""time""
""fullscreenenter"",""0"",""4597""
","
","370.40000000596046","","","","","","","","49","1,1,0","1","countryside","34","probe-207","0.7854001630175976","0.338049919424174","0.17947223802410814","1","","","","","","","",""
"","html-keyboard-response","177","830216","0.0-96.0-1.0","""event"",""trial"",""time""
""fullscreenenter"",""0"",""4597""
","
","
","""event"",""trial"",""time""
""fullscreenenter"",""0"",""4597""
","
","null","<p></p>","null","","","","","","","","","","","","","","","","","","","","","","",""
"","do_trial","178","835247","0.0-97.0-0.0","""event"",""trial"",""time""
""fullscreenenter"",""0"",""4597""
","
","
","""event"",""trial"",""time""
""fullscreenenter"",""0"",""4597""
","
","459.5","","","","","","","","49","1,0,0","1","countryside","35","probe-124","0.7310678458898363","0.3182256810679453","0.12312795638603728","1","","","","","","","",""
"","html-keyboard-response","179","836263","0.0-97.0-1.0","""event"",""trial"",""time""
""fullscreenenter"",""0"",""4597""
","
","
","""event"",""trial"",""time""
""fullscreenenter"",""0"",""4597""
","
","null","<p></p>","null","","","","","","","","","","","","","","","","","","","","","","",""
"","do_trial","180","841424","0.0-98.0-0.0","""event"",""trial"",""time""
""fullscreenenter"",""0"",""4597""
","
","
","""event"",""trial"",""time""
""fullscreenenter"",""0"",""4597""
","
","572.7999999821186","","","","","","","","49","1,0,0","1","countryside","36","probe-144","0.6636667933099494","0.3128154464314138","0.1307612478064211","1","","","","","","","",""
"","html-keyboard-response","181","842439","0.0-98.0-1.0","""event"",""trial"",""time""
""fullscreenenter"",""0"",""4597""
","
","
","""event"",""trial"",""time""
""fullscreenenter"",""0"",""4597""
","
","null","<p></p>","null","","","","","","","","","","","","","","","","","","","","","","",""
"","do_trial","182","847280","0.0-99.0-0.0","""event"",""trial"",""time""
""fullscreenenter"",""0"",""4597""
","
","
","""event"",""trial"",""time""
""fullscreenenter"",""0"",""4597""
","
","283.90000000596046","","","","","","","","49","1,0,0","1","countryside","37","probe-151","0.5851984459793879","0.3254971462535145","0.19863856739109195","1","","","","","","","",""
"","html-keyboard-response","183","848294","0.0-99.0-1.0","""event"",""trial"",""time""
""fullscreenenter"",""0"",""4597""
","
","
","""event"",""trial"",""time""
""fullscreenenter"",""0"",""4597""
","
","null","<p></p>","null","","","","","","","","","","","","","","","","","","","","","","",""
"","do_trial","184","853746","0.0-100.0-0.0","""event"",""trial"",""time""
""fullscreenenter"",""0"",""4597""
","
","
","""event"",""trial"",""time""
""fullscreenenter"",""0"",""4597""
","
","864.5999999940395","","","","","","","","49","0,0,1","1","countryside","38","probe-187","0.5173820815751645","0.42149424945035946","0.12385989634986792","0","","","","","","","",""
"","html-keyboard-response","185","854759","0.0-100.0-1.0","""event"",""trial"",""time""
""fullscreenenter"",""0"",""4597""
","
","
","""event"",""trial"",""time""
""fullscreenenter"",""0"",""4597""
","
","null","<p></p>","null","","","","","","","","","","","","","","","","","","","","","","",""
"","do_trial","186","859636","0.0-101.0-0.0","""event"",""trial"",""time""
""fullscreenenter"",""0"",""4597""
","
","
","""event"",""trial"",""time""
""fullscreenenter"",""0"",""4597""
","
","292.40000000596046","","","","","","","","49","0,0,1","1","countryside","39","probe-154","0.5395895442259041","0.4017999286432877","0.09345213708776351","0","","","","","","","",""
"","html-keyboard-response","187","860648","0.0-101.0-1.0","""event"",""trial"",""time""
""fullscreenenter"",""0"",""4597""
","
","
","""event"",""trial"",""time""
""fullscreenenter"",""0"",""4597""
","
","null","<p></p>","null","","","","","","","","","","","","","","","","","","","","","","",""
"","do_trial","188","865752","0.0-102.0-0.0","""event"",""trial"",""time""
""fullscreenenter"",""0"",""4597""
","
","
","""event"",""trial"",""time""
""fullscreenenter"",""0"",""4597""
","
","521.2000000178814","","","","","","","","50","0,0,0","1","countryside","40","probe-216","0.4452525994675155","0.3462700685289363","0.15106061455165087","0","","","","","","","",""
"","html-keyboard-response","189","866771","0.0-102.0-1.0","""event"",""trial"",""time""
""fullscreenenter"",""0"",""4597""
","
","
","""event"",""trial"",""time""
""fullscreenenter"",""0"",""4597""
","
","null","<p></p>","null","","","","","","","","","","","","","","","","","","","","","","",""
"","do_trial","190","871535","0.0-103.0-0.0","""event"",""trial"",""time""
""fullscreenenter"",""0"",""4597""
","
","
","""event"",""trial"",""time""
""fullscreenenter"",""0"",""4597""
","
","192.69999998807907","","","","","","","","51","1,0,0","1","countryside","41","probe-117","0.5225235414620246","0.276830692461433","0.23857473072413102","0","","","","","","","",""
"","html-keyboard-response","191","872547","0.0-103.0-1.0","""event"",""trial"",""time""
""fullscreenenter"",""0"",""4597""
","
","
","""event"",""trial"",""time""
""fullscreenenter"",""0"",""4597""
","
","null","<p></p>","null","","","","","","","","","","","","","","","","","","","","","","",""
"","do_trial","192","877492","0.0-104.0-0.0","""event"",""trial"",""time""
""fullscreenenter"",""0"",""4597""
","
","
","""event"",""trial"",""time""
""fullscreenenter"",""0"",""4597""
","
","369.09999999403954","","","","","","","","49","0,0,0","1","countryside","42","probe-217","0.3265749064153346","0.26218657081968444","0.3401882300562871","0","","","","","","","",""
"","html-keyboard-response","193","878507","0.0-104.0-1.0","""event"",""trial"",""time""
""fullscreenenter"",""0"",""4597""
","
","
","""event"",""trial"",""time""
""fullscreenenter"",""0"",""4597""
","
","null","<p></p>","null","","","","","","","","","","","","","","","","","","","","","","",""
"","do_trial","194","883114","0.0-105.0-0.0","""event"",""trial"",""time""
""fullscreenenter"",""0"",""4597""
","
","
","""event"",""trial"",""time""
""fullscreenenter"",""0"",""4597""
","
","42.89999997615814","","","","","","","","49","0,0,0","1","countryside","43","probe-165","0.20350480588276185","0.13723179858725848","0.5558417066232667","0","","","","","","","",""
"","html-keyboard-response","195","884130","0.0-105.0-1.0","""event"",""trial"",""time""
""fullscreenenter"",""0"",""4597""
","
","
","""event"",""trial"",""time""
""fullscreenenter"",""0"",""4597""
","
","null","<p></p>","null","","","","","","","","","","","","","","","","","","","","","","",""
"","do_trial","196","889042","0.0-106.0-0.0","""event"",""trial"",""time""
""fullscreenenter"",""0"",""4597""
","
","
","""event"",""trial"",""time""
""fullscreenenter"",""0"",""4597""
","
","340.09999999403954","","","","","","","","50","0,0,0","1","countryside","44","probe-39","0.14772280984939223","0.187926451581244","0.4190305353214474","0","","","","","","","",""
"","html-keyboard-response","197","890053","0.0-106.0-1.0","""event"",""trial"",""time""
""fullscreenenter"",""0"",""4597""
","
","
","""event"",""trial"",""time""
""fullscreenenter"",""0"",""4597""
","
","null","<p></p>","null","","","","","","","","","","","","","","","","","","","","","","",""
"","do_trial","198","895480","0.0-107.0-0.0","""event"",""trial"",""time""
""fullscreenenter"",""0"",""4597""
","
","
","""event"",""trial"",""time""
""fullscreenenter"",""0"",""4597""
","
","854.1999999880791","","","","","","","","50","0,0,1","1","countryside","45","probe-214","0.08125982796584057","0.32781118175630236","0.517911356697677","0","","","","","","","",""
"","html-keyboard-response","199","896495","0.0-107.0-1.0","""event"",""trial"",""time""
""fullscreenenter"",""0"",""4597""
","
","
","""event"",""trial"",""time""
""fullscreenenter"",""0"",""4597""
","
","null","<p></p>","null","","","","","","","","","","","","","","","","","","","","","","",""
"","do_trial","200","901361","0.0-108.0-0.0","""event"",""trial"",""time""
""fullscreenenter"",""0"",""4597""
","
","
","""event"",""trial"",""time""
""fullscreenenter"",""0"",""4597""
","
","291.80000001192093","","","","","","","","51","0,0,0","1","countryside","46","probe-59","0.09754333746043038","0.3898464480823348","0.4748032520450357","0","","","","","","","",""
"","html-keyboard-response","201","902376","0.0-108.0-1.0","""event"",""trial"",""time""
""fullscreenenter"",""0"",""4597""
","
","
","""event"",""trial"",""time""
""fullscreenenter"",""0"",""4597""
","
","null","<p></p>","null","","","","","","","","","","","","","","","","","","","","","","",""
"","do_trial","202","907303","0.0-109.0-0.0","""event"",""trial"",""time""
""fullscreenenter"",""0"",""4597""
","
","
","""event"",""trial"",""time""
""fullscreenenter"",""0"",""4597""
","
","342.19999998807907","","","","","","","","51","0,0,0","1","countryside","47","probe-150","0.2072654372870394","0.3753348133293819","0.5635382349684558","0","","","","","","","",""
"","html-keyboard-response","203","908312","0.0-109.0-1.0","""event"",""trial"",""time""
""fullscreenenter"",""0"",""4597""
","
","
","""event"",""trial"",""time""
""fullscreenenter"",""0"",""4597""
","
","null","<p></p>","null","","","","","","","","","","","","","","","","","","","","","","",""
"","do_trial","204","913404","0.0-110.0-0.0","""event"",""trial"",""time""
""fullscreenenter"",""0"",""4597""
","
","
","""event"",""trial"",""time""
""fullscreenenter"",""0"",""4597""
","
","514.5999999940395","","","","","","","","49","0,1,1","1","countryside","48","probe-98","0.06413503859647364","0.2925386414812541","0.6068504540037197","0","","","","","","","",""
"","html-keyboard-response","205","914414","0.0-110.0-1.0","""event"",""trial"",""time""
""fullscreenenter"",""0"",""4597""
","
","
","""event"",""trial"",""time""
""fullscreenenter"",""0"",""4597""
","
","null","<p></p>","null","","","","","","","","","","","","","","","","","","","","","","",""
"","do_trial","206","919695","0.0-111.0-0.0","""event"",""trial"",""time""
""fullscreenenter"",""0"",""4597""
","
","
","""event"",""trial"",""time""
""fullscreenenter"",""0"",""4597""
","
","703.5999999940395","","","","","","","","49","0,0,1","1","countryside","49","probe-10","0.07439789451012767","0.30534476031234437","0.6130029350154002","0","","","","","","","",""
"","html-keyboard-response","207","920702","0.0-111.0-1.0","""event"",""trial"",""time""
""fullscreenenter"",""0"",""4597""
","
","
","""event"",""trial"",""time""
""fullscreenenter"",""0"",""4597""
","
","null","<p></p>","null","","","","","","","","","","","","","","","","","","","","","","",""
"","do_trial","208","926486","0.0-112.0-0.0","""event"",""trial"",""time""
""fullscreenenter"",""0"",""4597""
","
","
","""event"",""trial"",""time""
""fullscreenenter"",""0"",""4597""
","
","1199.5","","","","","","","","49","0,0,0","1","countryside","50","probe-167","0.07954950824704585","0.33687284998754136","0.44373225566269386","0","","","","","","","",""
"","html-keyboard-response","209","927490","0.0-112.0-1.0","""event"",""trial"",""time""
""fullscreenenter"",""0"",""4597""
","
","
","""event"",""trial"",""time""
""fullscreenenter"",""0"",""4597""
","
","null","<p></p>","null","","","","","","","","","","","","","","","","","","","","","","",""
"","do_trial","210","932664","0.0-113.0-0.0","""event"",""trial"",""time""
""fullscreenenter"",""0"",""4597""
","
","
","""event"",""trial"",""time""
""fullscreenenter"",""0"",""4597""
","
","589.6000000238419","","","","","","","","50","1,0,1","1","countryside","51","probe-197","0.08775030148331465","0.33884776156889396","0.5331879003719415","0","","","","","","","",""
"","html-keyboard-response","211","933674","0.0-113.0-1.0","""event"",""trial"",""time""
""fullscreenenter"",""0"",""4597""
","
","
","""event"",""trial"",""time""
""fullscreenenter"",""0"",""4597""
","
","null","<p></p>","null","","","","","","","","","","","","","","","","","","","","","","",""
"","do_trial","212","939563","0.0-114.0-0.0","""event"",""trial"",""time""
""fullscreenenter"",""0"",""4597""
","
","
","""event"",""trial"",""time""
""fullscreenenter"",""0"",""4597""
","
","1305.0999999940395","","","","","","","","49","0,1,1","1","countryside","52","probe-136","0.1028964405542232","0.3153418356412434","0.6619290253169713","0","","","","","","","",""
"","html-keyboard-response","213","940582","0.0-114.0-1.0","""event"",""trial"",""time""
""fullscreenenter"",""0"",""4597""
","
","
","""event"",""trial"",""time""
""fullscreenenter"",""0"",""4597""
","
","null","<p></p>","null","","","","","","","","","","","","","","","","","","","","","","",""
"","do_trial","214","946134","0.0-115.0-0.0","""event"",""trial"",""time""
""fullscreenenter"",""0"",""4597""
","
","
","""event"",""trial"",""time""
""fullscreenenter"",""0"",""4597""
","
","972.6000000238419","","","","","","","","49","0,0,0","1","countryside","53","probe-106","0.16573242115318096","0.40851255065012715","0.6671252844468092","0","","","","","","","",""
"","html-keyboard-response","215","947144","0.0-115.0-1.0","""event"",""trial"",""time""
""fullscreenenter"",""0"",""4597""
","
","
","""event"",""trial"",""time""
""fullscreenenter"",""0"",""4597""
","
","null","<p></p>","null","","","","","","","","","","","","","","","","","","","","","","",""
"","do_trial","216","952164","0.0-116.0-0.0","""event"",""trial"",""time""
""fullscreenenter"",""0"",""4597""
","
","
","""event"",""trial"",""time""
""fullscreenenter"",""0"",""4597""
","
","432.80000001192093","","","","","","","","51","0,0,1","1","countryside","54","probe-96","0.09248415762166452","0.2894751326289259","0.7026043599781423","1","","","","","","","",""
"","html-keyboard-response","217","953172","0.0-116.0-1.0","""event"",""trial"",""time""
""fullscreenenter"",""0"",""4597""
","
","
","""event"",""trial"",""time""
""fullscreenenter"",""0"",""4597""
","
","null","<p></p>","null","","","","","","","","","","","","","","","","","","","","","","",""
"","do_trial","218","958135","0.0-117.0-0.0","""event"",""trial"",""time""
""fullscreenenter"",""0"",""4597""
","
","
","""event"",""trial"",""time""
""fullscreenenter"",""0"",""4597""
","
","370.60000002384186","","","","","","","","51","0,0,1","1","countryside","55","probe-84","0.12805573349422925","0.24536051503178752","0.6207178268787219","1","","","","","","","",""
"","html-keyboard-response","219","959138","0.0-117.0-1.0","""event"",""trial"",""time""
""fullscreenenter"",""0"",""4597""
","
","
","""event"",""trial"",""time""
""fullscreenenter"",""0"",""4597""
","
","null","<p></p>","null","","","","","","","","","","","","","","","","","","","","","","",""
"","do_trial","220","964886","0.0-118.0-0.0","""event"",""trial"",""time""
""fullscreenenter"",""0"",""4597""
","
","
","""event"",""trial"",""time""
""fullscreenenter"",""0"",""4597""
","
","1172.0999999940395","","","","","","","","51","1,0,0","1","countryside","56","probe-194","0.09257073360212147","0.26459282844423626","0.607103821038231","0","","","","","","","",""
"","html-keyboard-response","221","965891","0.0-118.0-1.0","""event"",""trial"",""time""
""fullscreenenter"",""0"",""4597""
","
","
","""event"",""trial"",""time""
""fullscreenenter"",""0"",""4597""
","
","null","<p></p>","null","","","","","","","","","","","","","","","","","","","","","","",""
"","do_trial","222","971599","0.0-119.0-0.0","""event"",""trial"",""time""
""fullscreenenter"",""0"",""4597""
","
","
","""event"",""trial"",""time""
""fullscreenenter"",""0"",""4597""
","
","1116.5","","","","","","","","49","0,1,1","1","countryside","57","probe-169","0.1815330115118519","0.22181329113308565","0.6484450649782545","0","","","","","","","",""
"","html-keyboard-response","223","972607","0.0-119.0-1.0","""event"",""trial"",""time""
""fullscreenenter"",""0"",""4597""
","
","
","""event"",""trial"",""time""
""fullscreenenter"",""0"",""4597""
","
","null","<p></p>","null","","","","","","","","","","","","","","","","","","","","","","",""
"","do_trial","224","977647","0.0-120.0-0.0","""event"",""trial"",""time""
""fullscreenenter"",""0"",""4597""
","
","
","""event"",""trial"",""time""
""fullscreenenter"",""0"",""4597""
","
","478.90000000596046","","","","","","","","51","0,1,1","1","countryside","58","probe-11","0.08583830634904789","0.2554843571542536","0.6072813036049606","1","","","","","","","",""
"","html-keyboard-response","225","978662","0.0-120.0-1.0","""event"",""trial"",""time""
""fullscreenenter"",""0"",""4597""
","
","
","""event"",""trial"",""time""
""fullscreenenter"",""0"",""4597""
","
","null","<p></p>","null","","","","","","","","","","","","","","","","","","","","","","",""
"","do_trial","226","984232","0.0-121.0-0.0","""event"",""trial"",""time""
""fullscreenenter"",""0"",""4597""
","
","
","""event"",""trial"",""time""
""fullscreenenter"",""0"",""4597""
","
","1005.0999999940395","","","","","","","","51","0,0,0","1","countryside","59","probe-127","0.15059510579950378","0.1445369471190493","0.7046733812651681","0","","","","","","","",""
"","html-keyboard-response","227","985247","0.0-121.0-1.0","""event"",""trial"",""time""
""fullscreenenter"",""0"",""4597""
","
","
","""event"",""trial"",""time""
""fullscreenenter"",""0"",""4597""
","
","null","<p></p>","null","","","","","","","","","","","","","","","","","","","","","","",""
"","do_trial","228","990848","0.0-122.0-0.0","""event"",""trial"",""time""
""fullscreenenter"",""0"",""4597""
","
","
","""event"",""trial"",""time""
""fullscreenenter"",""0"",""4597""
","
","1015.0999999940395","","","","","","","","51","0,0,1","1","countryside","60","probe-30","0.08270582852729944","0.2818532709375861","0.5831776357186665","1","","","","","","","",""
"","html-keyboard-response","229","991862","0.0-122.0-1.0","""event"",""trial"",""time""
""fullscreenenter"",""0"",""4597""
","
","
","""event"",""trial"",""time""
""fullscreenenter"",""0"",""4597""
","
","null","<p></p>","null","","","","","","","","","","","","","","","","","","","","","","",""
"","do_trial","230","996795","0.0-123.0-0.0","""event"",""trial"",""time""
""fullscreenenter"",""0"",""4597""
","
","
","""event"",""trial"",""time""
""fullscreenenter"",""0"",""4597""
","
","361","","","","","","","","51","0,0,1","1","countryside","61","probe-121","0.050526763234382883","0.2331510892385458","0.6859836891655472","1","","","","","","","",""
"","html-keyboard-response","231","997803","0.0-123.0-1.0","""event"",""trial"",""time""
""fullscreenenter"",""0"",""4597""
","
","
","""event"",""trial"",""time""
""fullscreenenter"",""0"",""4597""
","
","null","<p></p>","null","","","","","","","","","","","","","","","","","","","","","","",""
"","do_trial","232","1003324","0.0-124.0-0.0","""event"",""trial"",""time""
""fullscreenenter"",""0"",""4597""
","
","
","""event"",""trial"",""time""
""fullscreenenter"",""0"",""4597""
","
","944.4000000059605","","","","","","","","51","0,0,0","1","countryside","62","probe-07","0.08135906927126939","0.1554989962542649","0.7249377864549754","0","","","","","","","",""
"","html-keyboard-response","233","1004339","0.0-124.0-1.0","""event"",""trial"",""time""
""fullscreenenter"",""0"",""4597""
","
","
","""event"",""trial"",""time""
""fullscreenenter"",""0"",""4597""
","
","null","<p></p>","null","","","","","","","","","","","","","","","","","","","","","","",""
"","do_trial","234","1009977","0.0-125.0-0.0","""event"",""trial"",""time""
""fullscreenenter"",""0"",""4597""
","
","
","""event"",""trial"",""time""
""fullscreenenter"",""0"",""4597""
","
","1057.5","","","","","","","","51","0,0,1","1","countryside","63","probe-95","0.056079090590769314","0.2350608343599475","0.6282803591941144","1","","","","","","","",""
"","html-keyboard-response","235","1010993","0.0-125.0-1.0","""event"",""trial"",""time""
""fullscreenenter"",""0"",""4597""
","
","
","""event"",""trial"",""time""
""fullscreenenter"",""0"",""4597""
","
","null","<p></p>","null","","","","","","","","","","","","","","","","","","","","","","",""
"","do_trial","236","1016122","0.0-126.0-0.0","""event"",""trial"",""time""
""fullscreenenter"",""0"",""4597""
","
","
","""event"",""trial"",""time""
""fullscreenenter"",""0"",""4597""
","
","556.5","","","","","","","","49","0,0,1","1","countryside","64","probe-133","0.13770680413630115","0.25413257353646923","0.6852669390383926","0","","","","","","","",""
"","html-keyboard-response","237","1017139","0.0-126.0-1.0","""event"",""trial"",""time""
""fullscreenenter"",""0"",""4597""
","
","
","""event"",""trial"",""time""
""fullscreenenter"",""0"",""4597""
","
","null","<p></p>","null","","","","","","","","","","","","","","","","","","","","","","",""
"","do_trial","238","1022144","0.0-127.0-0.0","""event"",""trial"",""time""
""fullscreenenter"",""0"",""4597""
","
","
","""event"",""trial"",""time""
""fullscreenenter"",""0"",""4597""
","
","415.69999998807907","","","","","","","","51","0,1,0","1","countryside","65","probe-111","0.16384185946451765","0.15673755011258828","0.5898803295876901","0","","","","","","","",""
"","html-keyboard-response","239","1023160","0.0-127.0-1.0","""event"",""trial"",""time""
""fullscreenenter"",""0"",""4597""
","
","
","""event"",""trial"",""time""
""fullscreenenter"",""0"",""4597""
","
","null","<p></p>","null","","","","","","","","","","","","","","","","","","","","","","",""
"","do_trial","240","1028046","0.0-128.0-0.0","""event"",""trial"",""time""
""fullscreenenter"",""0"",""4597""
","
","
","""event"",""trial"",""time""
""fullscreenenter"",""0"",""4597""
","
","312.2000000178814","","","","","","","","50","1,0,1","1","countryside","66","probe-193","0.1580778291791875","0.25084562039802727","0.5594992993418832","0","","","","","","","",""
"","html-keyboard-response","241","1029050","0.0-128.0-1.0","""event"",""trial"",""time""
""fullscreenenter"",""0"",""4597""
","
","
","""event"",""trial"",""time""
""fullscreenenter"",""0"",""4597""
","
","null","<p></p>","null","","","","","","","","","","","","","","","","","","","","","","",""
"","do_trial","242","1035896","0.0-129.0-0.0","""event"",""trial"",""time""
""fullscreenenter"",""0"",""4597""
","
","
","""event"",""trial"",""time""
""fullscreenenter"",""0"",""4597""
","
","2256.0999999940395","","","","","","","","49","0,0,1","1","countryside","67","probe-28","0.061446103837497774","0.365554109041304","0.5678830406443032","0","","","","","","","",""
"","html-keyboard-response","243","1036900","0.0-129.0-1.0","""event"",""trial"",""time""
""fullscreenenter"",""0"",""4597""
","
","
","""event"",""trial"",""time""
""fullscreenenter"",""0"",""4597""
","
","null","<p></p>","null","","","","","","","","","","","","","","","","","","","","","","",""
"","do_trial","244","1041919","0.0-130.0-0.0","""event"",""trial"",""time""
""fullscreenenter"",""0"",""4597""
","
","
","""event"",""trial"",""time""
""fullscreenenter"",""0"",""4597""
","
","440.40000000596046","","","","","","","","51","0,0,1","1","countryside","68","probe-75","0.08827959366231715","0.32155794271744925","0.546626574867672","1","","","","","","","",""
"","html-keyboard-response","245","1042923","0.0-130.0-1.0","""event"",""trial"",""time""
""fullscreenenter"",""0"",""4597""
","
","
","""event"",""trial"",""time""
""fullscreenenter"",""0"",""4597""
","
","null","<p></p>","null","","","","","","","","","","","","","","","","","","","","","","",""
"","do_trial","246","1047809","0.0-131.0-0.0","""event"",""trial"",""time""
""fullscreenenter"",""0"",""4597""
","
","
","""event"",""trial"",""time""
""fullscreenenter"",""0"",""4597""
","
","317.59999999403954","","","","","","","","51","0,0,1","1","countryside","69","probe-110","0.07771779877296453","0.22124352932382615","0.5795298310879562","1","","","","","","","",""
"","html-keyboard-response","247","1048823","0.0-131.0-1.0","""event"",""trial"",""time""
""fullscreenenter"",""0"",""4597""
","
","
","""event"",""trial"",""time""
""fullscreenenter"",""0"",""4597""
","
","null","<p></p>","null","","","","","","","","","","","","","","","","","","","","","","",""
"","do_bye","248","1050339","0.0-132.0-0.0","""event"",""trial"",""time""
""fullscreenenter"",""0"",""4597""
","
","
","""event"",""trial"",""time""
""fullscreenenter"",""0"",""4597""
","
","null","","","","","","","","null","","","","","","","","","","","","","","","","",""
"","break","249","1053307","0.0-132.0-1.0","""event"",""trial"",""time""
""fullscreenenter"",""0"",""4597""
","
","
","""event"",""trial"",""time""
""fullscreenenter"",""0"",""4597""
","
","2962.4000000059605","<div class='center'><p>Time to take a quick break! You have 2 minutes to rest, but you can move on sooner if you'd like.</p><p> Press the <b>space bar</b> to continue.</p></div>","32","","","","","","","","","","","","","","","","","","","","","","",""
"","do_travel","250","1062333","0.0-133.0-0.0","""event"",""trial"",""time""
""fullscreenenter"",""0"",""4597""
","
","
","""event"",""trial"",""time""
""fullscreenenter"",""0"",""4597""
","
","null","","","","","","","","null","","","","","","","","","","","","","","","","",""
"","do_welcome","251","1066362","0.0-133.0-1.0","""event"",""trial"",""time""
""fullscreenenter"",""0"",""4597""
","
","
","""event"",""trial"",""time""
""fullscreenenter"",""0"",""4597""
","
","null","","","","","","","","null","","","","","","","","","","","","","","","","",""
"","do_trial","252","1072213","0.0-134.0-0.0","""event"",""trial"",""time""
""fullscreenenter"",""0"",""4597""
","
","
","""event"",""trial"",""time""
""fullscreenenter"",""0"",""4597""
","
","1256.5","","","","","","","","49","0,0,1","2","forest","70","probe-78","0.061089423320325145","0.26463309573852295","1","0","","","","","","","",""
"","html-keyboard-response","253","1073233","0.0-134.0-1.0","""event"",""trial"",""time""
""fullscreenenter"",""0"",""4597""
","
","
","""event"",""trial"",""time""
""fullscreenenter"",""0"",""4597""
","
","null","<p></p>","null","","","","","","","","","","","","","","","","","","","","","","",""
"","do_trial","254","1078193","0.0-135.0-0.0","""event"",""trial"",""time""
""fullscreenenter"",""0"",""4597""
","
","
","""event"",""trial"",""time""
""fullscreenenter"",""0"",""4597""
","
","367.2999999821186","","","","","","","","50","0,0,1","2","forest","71","probe-66","0.0885879447675938","0.3001927833224779","1","0","","","","","","","",""
"","html-keyboard-response","255","1079206","0.0-135.0-1.0","""event"",""trial"",""time""
""fullscreenenter"",""0"",""4597""
","
","
","""event"",""trial"",""time""
""fullscreenenter"",""0"",""4597""
","
","null","<p></p>","null","","","","","","","","","","","","","","","","","","","","","","",""
"","do_trial","256","1084453","0.0-136.0-0.0","""event"",""trial"",""time""
""fullscreenenter"",""0"",""4597""
","
","
","""event"",""trial"",""time""
""fullscreenenter"",""0"",""4597""
","
","670.3000000119209","","","","","","","","51","0,0,1","2","forest","72","probe-27","0.1656415208499812","0.13601390546207498","0.8862327052513743","1","","","","","","","",""
"","html-keyboard-response","257","1085462","0.0-136.0-1.0","""event"",""trial"",""time""
""fullscreenenter"",""0"",""4597""
","
","
","""event"",""trial"",""time""
""fullscreenenter"",""0"",""4597""
","
","null","<p></p>","null","","","","","","","","","","","","","","","","","","","","","","",""
"","do_trial","258","1090378","0.0-137.0-0.0","""event"",""trial"",""time""
""fullscreenenter"",""0"",""4597""
","
","
","""event"",""trial"",""time""
""fullscreenenter"",""0"",""4597""
","
","337.59999999403954","","","","","","","","51","1,0,1","2","forest","73","probe-24","0.12226807420297572","0.18880579072705295","0.8461666550972275","1","","","","","","","",""
