success,trial_type,trial_index,time_elapsed,internal_node_id,interactions,blur_events,focus_events,fullscreenenter_events,fullscreenexit_events,rt,stimulus,key_press,subject_id,participant_id,age,gender,prompt,response,choice_outcomes,context_n,context_img_id,trial_n,probe_img_id,pR_red,pR_white,pR_black,outcome,contextArray_ind,validImageProbes,invalidImageProbes,pRew_Red,pRew_White,pRew_Black,availableForMemProbe,choice_blocks
TRUE,fullscreen,0,4963,0.0-0.0,"""event"",""trial"",""time""
""fullscreenenter"",""0"",""3966""
","
","
","""event"",""trial"",""time""
""fullscreenenter"",""0"",""3966""
","
",,,,,,,,,,,,,,,,,,,,,,,,,,
,pavlovia,1,4973,0.0-1.0,"""event"",""trial"",""time""
""fullscreenenter"",""0"",""3966""
","
","
","""event"",""trial"",""time""
""fullscreenenter"",""0"",""3966""
","
",,,,,,,,,,,,,,,,,,,,,,,,,,
,instruc1,2,50113,0.0-2.0,"""event"",""trial"",""time""
""fullscreenenter"",""0"",""3966""
","
","
","""event"",""trial"",""time""
""fullscreenenter"",""0"",""3966""
","
",null,run_exp/static/audio/clip_1_welcome.m4a,null,223,702,9,Male,"<div class='center'><p>Welcome! This is the first part of the study. It will last ~30 minutes. In part 1 and part 2 of the study, you are the head captain of a pirate ship traveling around the world to different islands. You will play a few different games throughout these two parts. Here is an overview of them:</p><br><p>Part 1 (today)</p><p>1. Instructions, practice game, and quiz</p><p>2. Pick a pirate game on 6 different islands</p><br><p>Part 2 (tomorrow)</p><p>3. Pick a pirate game and memory game</p><p>4. Where did you see this ship? </p></div>",,,,,,,,,,,,,,,,,,
,html-keyboard-response,3,50948,0.0-3.0,"""event"",""trial"",""time""
""fullscreenenter"",""0"",""3966""
","
","
","""event"",""trial"",""time""
""fullscreenenter"",""0"",""3966""
","
",831.8,"<div class='center'><p>Welcome! This is the first part of the study. It will last ~30 minutes. In part 1 and part 2 of the study, you are the head captain of a pirate ship traveling around the world to different islands. You will play a few different games throughout these two parts. Here is an overview of them:</p><br><p>Part 1 (today)</p><p>1. Instructions, practice game, and quiz</p><p>2. Pick a pirate game on 6 different islands</p><br><p>Part 2 (tomorrow)</p><p>3. Pick a pirate game and memory game</p><p>4. Where did you see this ship? </p><p><b>[Press the space bar to continue]</b></p></div>",32,,,,,,,,,,,,,,,,,,,,,,,
,instruc2,4,56271,0.0-4.0,"""event"",""trial"",""time""
""fullscreenenter"",""0"",""3966""
","
","
","""event"",""trial"",""time""
""fullscreenenter"",""0"",""3966""
","
",null,run_exp/static/audio/clip_2_different_places.m4a,null,,,,,"<div class='center'><p>Today, you’ll visit these 6 islands on your journey. You'll be able to see these islands from your ship.</p><p><img src='run_exp/static/images/contexts/all_contexts.png' height='500'></p></div>",,,,,,,,,,,,,,,,,,
,html-keyboard-response,5,57942,0.0-5.0,"""event"",""trial"",""time""
""fullscreenenter"",""0"",""3966""
","
","
","""event"",""trial"",""time""
""fullscreenenter"",""0"",""3966""
","
",1667.8,"<div class='center'><p>Today, you’ll visit these 6 islands on your journey. You'll be able to see these islands from your ship.</p><p><img src='run_exp/static/images/contexts/all_contexts.png' height='500'></p><p><b>[Press the space bar to continue]</b></p></div>",32,,,,,,,,,,,,,,,,,,,,,,,
,instruc3,6,67651,0.0-6.0,"""event"",""trial"",""time""
""fullscreenenter"",""0"",""3966""
","
","
","""event"",""trial"",""time""
""fullscreenenter"",""0"",""3966""
","
",null,run_exp/static/audio/clip_3_goal_of_game_1.m4a,null,,,,,"<div class='center'><p> The pirates on your ship will rob other ships as they leave the island.</p> These ships have just sold their goods to the islanders, so they will be filled with lots and lots of gold.</p><p><img src='run_exp/static/images/tutorial/ship_center.png' height='400'></p></div>",,,,,,,,,,,,,,,,,,
,html-keyboard-response,7,68741,0.0-7.0,"""event"",""trial"",""time""
""fullscreenenter"",""0"",""3966""
","
","
","""event"",""trial"",""time""
""fullscreenenter"",""0"",""3966""
","
",1087.7,"<div class='center'><p> The pirates on your ship will rob other ships as they leave the island.</p> These ships have just sold their goods to the islanders, so they will be filled with lots and lots of gold.</p><p><img src='run_exp/static/images/tutorial/ship_center.png' height='400'></p><p><b>[Press the space bar to continue]</b></p></div>",32,,,,,,,,,,,,,,,,,,,,,,,
,instruc4,8,96751,0.0-8.0,"""event"",""trial"",""time""
""fullscreenenter"",""0"",""3966""
","
","
","""event"",""trial"",""time""
""fullscreenenter"",""0"",""3966""
","
",null,run_exp/static/audio/clip_4_goal_of_game_2.m4a,null,,,,,"<div class='center'><p>As the head captain, you do not have to rob any ships yourself. Another pirate will be doing the robbing for you. First, you will choose a pirate to rob the next ship.</p><p><img src='run_exp/static/images/tutorial/pirates_all_crop.png' height='200'></p><p>Then, you'll see if the pirate successfully robbed the ship of their gold. If they were successful, then you'll get a stack of gold coins like this:</p><p><img src='run_exp/static/images/tutorial/reward.png' height='150'></p><p> If they were <b>not</b> successful, then you'll get no gold coins, and you'll see a big red x like this: </p><p><img src='run_exp/static/images/tutorial/reward_no.png' height='150'></p><p> How much bonus money you make is based on how many gold coins you collect.</p><div>",,,,,,,,,,,,,,,,,,
,html-keyboard-response,9,98545,0.0-9.0,"""event"",""trial"",""time""
""fullscreenenter"",""0"",""3966""
","
","
","""event"",""trial"",""time""
""fullscreenenter"",""0"",""3966""
","
",1789.8,"<div class='center'><p>As the head captain, you do not have to rob any ships yourself. Another pirate will be doing the robbing for you. First, you will choose a pirate to rob the next ship.</p><p><img src='run_exp/static/images/tutorial/pirates_all_crop.png' height='200'></p><p>Then, you'll see if the pirate successfully robbed the ship of their gold. If they were successful, then you'll get a stack of gold coins like this:</p><p><img src='run_exp/static/images/tutorial/reward.png' height='150'></p><p> If they were <b>not</b> successful, then you'll get no gold coins, and you'll see a big red x like this: </p><p><img src='run_exp/static/images/tutorial/reward_no.png' height='150'></p><p> How much bonus money you make is based on how many gold coins you collect.</p<p><b>[Press the space bar to continue]</b></p></div>",32,,,,,,,,,,,,,,,,,,,,,,,
,instruc5,10,128607,0.0-10.0,"""event"",""trial"",""time""
""fullscreenenter"",""0"",""3966""
","
","
","""event"",""trial"",""time""
""fullscreenenter"",""0"",""3966""
","
",30058.8,run_exp/static/audio/clip_5_probabilistic.m4a,49,,,,,"<div class='center'><p>Even the most skilled pirate can not rob EVERY ship.</p><p> Some ships will have very strong protections against pirate attacks.</p><p> Blue beard, here, is very, very good at robbing ships, but he won't be successful every time he tries to rob one.</p><p> You can press the <b>‘1’</b> key on the keyboard to choose him.</p><p> Try choosing him 10 times to see how often he succeeds at robbing a ship. </p><p><img src='run_exp/static/images/tutorial/blue.png' height='500'></p></div>",,,,,,,,,,,,,,,,,,
,html-keyboard-response,11,130114,0.0-11.0,"""event"",""trial"",""time""
""fullscreenenter"",""0"",""3966""
","
","
","""event"",""trial"",""time""
""fullscreenenter"",""0"",""3966""
","
",null,<div class='center'><p><img src='run_exp/static/images/tutorial/blue_win.png' height='500'></p></div>,null,,,,,,,,,,,,,,,,,,,,,,,
,html-keyboard-response,12,131984,0.0-12.0,"""event"",""trial"",""time""
""fullscreenenter"",""0"",""3966""
","
","
","""event"",""trial"",""time""
""fullscreenenter"",""0"",""3966""
","
",1868.4,<div class='center'><img src='run_exp/static/images/tutorial/blue.png' height='500'></p></div>,49,,,,,,,,,,,,,,,,,,,,,,,
,html-keyboard-response,13,133489,0.0-13.0,"""event"",""trial"",""time""
""fullscreenenter"",""0"",""3966""
","
","
","""event"",""trial"",""time""
""fullscreenenter"",""0"",""3966""
","
",null,<div class='center'><p><img src='run_exp/static/images/tutorial/blue_win.png' height='500'></p></div>,null,,,,,,,,,,,,,,,,,,,,,,,
,html-keyboard-response,14,134000,0.0-14.0,"""event"",""trial"",""time""
""fullscreenenter"",""0"",""3966""
","
","
","""event"",""trial"",""time""
""fullscreenenter"",""0"",""3966""
","
",508.9,<div class='center'><img src='run_exp/static/images/tutorial/blue.png' height='500'></p></div>,49,,,,,,,,,,,,,,,,,,,,,,,
,html-keyboard-response,15,135502,0.0-15.0,"""event"",""trial"",""time""
""fullscreenenter"",""0"",""3966""
","
","
","""event"",""trial"",""time""
""fullscreenenter"",""0"",""3966""
","
",null,<div class='center'><p><img src='run_exp/static/images/tutorial/blue_win.png' height='500'></p></div>,null,,,,,,,,,,,,,,,,,,,,,,,
,html-keyboard-response,16,135878,0.0-16.0,"""event"",""trial"",""time""
""fullscreenenter"",""0"",""3966""
","
","
","""event"",""trial"",""time""
""fullscreenenter"",""0"",""3966""
","
",374.4,<div class='center'><img src='run_exp/static/images/tutorial/blue.png' height='500'></p></div>,49,,,,,,,,,,,,,,,,,,,,,,,
,html-keyboard-response,17,137390,0.0-17.0,"""event"",""trial"",""time""
""fullscreenenter"",""0"",""3966""
","
","
","""event"",""trial"",""time""
""fullscreenenter"",""0"",""3966""
","
",null,<div class='center'><p><img src='run_exp/static/images/tutorial/blue_no_win.png' height='500'></p></div>,null,,,,,,,,,,,,,,,,,,,,,,,
,html-keyboard-response,18,137818,0.0-18.0,"""event"",""trial"",""time""
""fullscreenenter"",""0"",""3966""
","
","
","""event"",""trial"",""time""
""fullscreenenter"",""0"",""3966""
","
",426.6,<div class='center'><img src='run_exp/static/images/tutorial/blue.png' height='500'></p></div>,49,,,,,,,,,,,,,,,,,,,,,,,
,html-keyboard-response,19,139332,0.0-19.0,"""event"",""trial"",""time""
""fullscreenenter"",""0"",""3966""
","
","
","""event"",""trial"",""time""
""fullscreenenter"",""0"",""3966""
","
",null,<div class='center'><p><img src='run_exp/static/images/tutorial/blue_win.png' height='500'></p></div>,null,,,,,,,,,,,,,,,,,,,,,,,
,html-keyboard-response,20,139978,0.0-20.0,"""event"",""trial"",""time""
""fullscreenenter"",""0"",""3966""
","
","
","""event"",""trial"",""time""
""fullscreenenter"",""0"",""3966""
","
",644.6,<div class='center'><img src='run_exp/static/images/tutorial/blue.png' height='500'></p></div>,49,,,,,,,,,,,,,,,,,,,,,,,
,html-keyboard-response,21,141490,0.0-21.0,"""event"",""trial"",""time""
""fullscreenenter"",""0"",""3966""
","
","
","""event"",""trial"",""time""
""fullscreenenter"",""0"",""3966""
","
",null,<div class='center'><p><img src='run_exp/static/images/tutorial/blue_win.png' height='500'></p></div>,null,,,,,,,,,,,,,,,,,,,,,,,
,html-keyboard-response,22,142538,0.0-22.0,"""event"",""trial"",""time""
""fullscreenenter"",""0"",""3966""
","
","
","""event"",""trial"",""time""
""fullscreenenter"",""0"",""3966""
","
",1046.1,<div class='center'><img src='run_exp/static/images/tutorial/blue.png' height='500'></p></div>,49,,,,,,,,,,,,,,,,,,,,,,,
,html-keyboard-response,23,144046,0.0-23.0,"""event"",""trial"",""time""
""fullscreenenter"",""0"",""3966""
","
","
","""event"",""trial"",""time""
""fullscreenenter"",""0"",""3966""
","
",null,<div class='center'><p><img src='run_exp/static/images/tutorial/blue_win.png' height='500'></p></div>,null,,,,,,,,,,,,,,,,,,,,,,,
,html-keyboard-response,24,144492,0.0-24.0,"""event"",""trial"",""time""
""fullscreenenter"",""0"",""3966""
","
","
","""event"",""trial"",""time""
""fullscreenenter"",""0"",""3966""
","
",445.1,<div class='center'><img src='run_exp/static/images/tutorial/blue.png' height='500'></p></div>,49,,,,,,,,,,,,,,,,,,,,,,,
,html-keyboard-response,25,146001,0.0-25.0,"""event"",""trial"",""time""
""fullscreenenter"",""0"",""3966""
","
","
","""event"",""trial"",""time""
""fullscreenenter"",""0"",""3966""
","
",null,<div class='center'><p><img src='run_exp/static/images/tutorial/blue_no_win.png' height='500'></p></div>,null,,,,,,,,,,,,,,,,,,,,,,,
,html-keyboard-response,26,147169,0.0-26.0,"""event"",""trial"",""time""
""fullscreenenter"",""0"",""3966""
","
","
","""event"",""trial"",""time""
""fullscreenenter"",""0"",""3966""
","
",1166,<div class='center'><img src='run_exp/static/images/tutorial/blue.png' height='500'></p></div>,49,,,,,,,,,,,,,,,,,,,,,,,
,html-keyboard-response,27,148682,0.0-27.0,"""event"",""trial"",""time""
""fullscreenenter"",""0"",""3966""
","
","
","""event"",""trial"",""time""
""fullscreenenter"",""0"",""3966""
","
",null,<div class='center'><p><img src='run_exp/static/images/tutorial/blue_win.png' height='500'></p></div>,null,,,,,,,,,,,,,,,,,,,,,,,
,html-keyboard-response,28,149050,0.0-28.0,"""event"",""trial"",""time""
""fullscreenenter"",""0"",""3966""
","
","
","""event"",""trial"",""time""
""fullscreenenter"",""0"",""3966""
","
",367,<div class='center'><img src='run_exp/static/images/tutorial/blue.png' height='500'></p></div>,49,,,,,,,,,,,,,,,,,,,,,,,
,html-keyboard-response,29,150565,0.0-29.0,"""event"",""trial"",""time""
""fullscreenenter"",""0"",""3966""
","
","
","""event"",""trial"",""time""
""fullscreenenter"",""0"",""3966""
","
",null,<div class='center'><p><img src='run_exp/static/images/tutorial/blue_win.png' height='500'></p></div>,null,,,,,,,,,,,,,,,,,,,,,,,
,instruc6,30,156368,0.0-30.0,"""event"",""trial"",""time""
""fullscreenenter"",""0"",""3966""
","
","
","""event"",""trial"",""time""
""fullscreenenter"",""0"",""3966""
","
",null,run_exp/static/audio/clip_6_blue_beard_outcome.m4a,null,,,,,"<div class='center'><p> See, he succeeded in robbing the ships most of the time but not every time. </p></div>",,,,,,,,,,,,,,,,,,
,html-keyboard-response,31,157824,0.0-31.0,"""event"",""trial"",""time""
""fullscreenenter"",""0"",""3966""
","
","
","""event"",""trial"",""time""
""fullscreenenter"",""0"",""3966""
","
",1454.4,"<div class='center'><p> See, he succeeded in robbing the ships most of the time but not every time. </p><p><b>[Press the space bar to continue]</b></p></div>",32,,,,,,,,,,,,,,,,,,,,,,,
,audio-keyboard-response,32,174469,0.0-32.0,"""event"",""trial"",""time""
""fullscreenenter"",""0"",""3966""
","
","
","""event"",""trial"",""time""
""fullscreenenter"",""0"",""3966""
","
",16642.3,run_exp/static/audio/clip_7_pick_pirate.m4a,51,,,,,,,,,,,,,,,,,,,,,,,
,audio-keyboard-response,33,179358,0.0-33.0-0.0,"""event"",""trial"",""time""
""fullscreenenter"",""0"",""3966""
","
","
","""event"",""trial"",""time""
""fullscreenenter"",""0"",""3966""
","
",4885.5,run_exp/static/audio/clip_8_chosen_pirate_win.m4a,32,,,,,,,,,,,,,,,,,,,,,,,
,audio-keyboard-response,34,183707,0.0-33.0-1.0,"""event"",""trial"",""time""
""fullscreenenter"",""0"",""3966""
","
","
","""event"",""trial"",""time""
""fullscreenenter"",""0"",""3966""
","
",4347,run_exp/static/audio/clip_9_pick_a_pirate_again.m4a,50,,,,,,,,,,,,,,,,,,,,,,,
,audio-keyboard-response,35,185732,0.0-34.0-0.0,"""event"",""trial"",""time""
""fullscreenenter"",""0"",""3966""
","
","
","""event"",""trial"",""time""
""fullscreenenter"",""0"",""3966""
","
",2020.6,run_exp/static/audio/clip_10_chosen_pirate_loss.m4a,32,,,,,,,,,,,,,,,,,,,,,,,
,instruc9,36,191248,0.0-35.0-0.0,"""event"",""trial"",""time""
""fullscreenenter"",""0"",""3966""
","
","
","""event"",""trial"",""time""
""fullscreenenter"",""0"",""3966""
","
",null,run_exp/static/audio/clip_11_time_out.m4a,null,,,,,"<div class='center'><p>If you don’t make your choice fast enough, you’ll have to wait a few seconds before you can make another one. </p><p><img src='run_exp/static/images/miscellaneous/hurry_up.png' height='500'></p></div>",,,,,,,,,,,,,,,,,,
,html-keyboard-response,37,193018,0.0-35.0-1.0,"""event"",""trial"",""time""
""fullscreenenter"",""0"",""3966""
","
","
","""event"",""trial"",""time""
""fullscreenenter"",""0"",""3966""
","
",1768.2,"<div class='center'><p>If you don’t make your choice fast enough, you’ll have to wait a few seconds before you can make another one. </p><p><img src='run_exp/static/images/miscellaneous/hurry_up.png' height='500'></p><p><b>[Press the space bar to continue]</b></p></div>",32,,,,,,,,,,,,,,,,,,,,,,,
,instruc10,38,232128,0.0-35.0-2.0,"""event"",""trial"",""time""
""fullscreenenter"",""0"",""3966""
","
","
","""event"",""trial"",""time""
""fullscreenenter"",""0"",""3966""
","
",null,run_exp/static/audio/clip_12_probe.m4a,null,,,,,"<div class='center'><p>Once you've chosen a pirate, you’ll be shown the ship they are robbing. You will never rob the same ship twice. Ships can be told apart from one another by the image on them. These are the goods that they sell. See, this ship has a travel mug on it. </p><p> You’ll have to remember which island you saw each ship on. You will win more gold coins and hence more bonus money if you remember correctly! To help you remember, you can imagine a story. For example, here, you could imagine a mug full of water in the desert. Or, as another example, if on the forest island, your pirate robbed a ship with an apple on it, you could imagine an apple falling from a tree in the forest. </p><p><img src='run_exp/static/images/tutorial/example_probe.png' height='500'></p></div>",,,,,,,,,,,,,,,,,,
,html-keyboard-response,39,234841,0.0-35.0-3.0,"""event"",""trial"",""time""
""fullscreenenter"",""0"",""3966""
","
","
","""event"",""trial"",""time""
""fullscreenenter"",""0"",""3966""
","
",2710.4,"<div class='center'><p>Once you've chosen a pirate, you’ll be shown the ship they are robbing. You will never rob the same ship twice. Ships can be told apart from one another by the image on them. These are the goods that they sell. See, this ship has a travel mug on it. </p><p> You’ll have to remember which island you saw each ship on. You will win more gold coins and hence more bonus money if you remember correctly! To help you remember, you can imagine a story. For example, here, you could imagine a mug full of water in the desert. Or, as another example, if on the forest island, your pirate robbed a ship with an apple on it, you could imagine an apple falling from a tree in the forest. </p><p><img src='run_exp/static/images/tutorial/example_probe.png' height='500'></p><p><b>[Press the space bar to continue]</b></p></div>",32,,,,,,,,,,,,,,,,,,,,,,,
,instruc11,40,251268,0.0-35.0-4.0,"""event"",""trial"",""time""
""fullscreenenter"",""0"",""3966""
","
","
","""event"",""trial"",""time""
""fullscreenenter"",""0"",""3966""
","
",null,run_exp/static/audio/clip_13_changepoint.m4a,null,,,,,"<div class='center'><p>How successful a pirate is at robbing ships will depend on the island you’re on.</p><p> A pirate may have visited this island many times before and gained a lot of practice robbing ships there.</p><p>So, they’re more likely to be successful than a pirate who has never visited the island before.</p></div>",,,,,,,,,,,,,,,,,,
,html-keyboard-response,41,252721,0.0-35.0-5.0,"""event"",""trial"",""time""
""fullscreenenter"",""0"",""3966""
","
","
","""event"",""trial"",""time""
""fullscreenenter"",""0"",""3966""
","
",1451.9,"<div class='center'><p>How successful a pirate is at robbing ships will depend on the island you’re on.</p><p> A pirate may have visited this island many times before and gained a lot of practice robbing ships there.</p><p>So, they’re more likely to be successful than a pirate who has never visited the island before.</p><p><b>[Press the space bar to continue]</b></p></div>",32,,,,,,,,,,,,,,,,,,,,,,,
,instruc12,42,293828,0.0-35.0-6.0,"""event"",""trial"",""time""
""fullscreenenter"",""0"",""3966""
","
","
","""event"",""trial"",""time""
""fullscreenenter"",""0"",""3966""
","
",null,run_exp/static/audio/clip_14_drift.m4a,null,,,,,"<div class='center'><p>How successful a pirate is at robbing ships can also change over the time spent on the island. </p><p> Ships may hear from islanders about the pirates coming and will improve their protections against the attack. This may make it harder to rob them.</p><p> Ships may also become lazy and weaken the strength of their protections. This may make it easier to rob them.</p><br><p>Things are always changing on the high seas! So, try your best to pay attention!</p><p><img src='run_exp/static/images/tutorial/contingency.png' height='500'></p></div>",,,,,,,,,,,,,,,,,,
,html-keyboard-response,43,295286,0.0-35.0-7.0,"""event"",""trial"",""time""
""fullscreenenter"",""0"",""3966""
","
","
","""event"",""trial"",""time""
""fullscreenenter"",""0"",""3966""
","
",1455.6,"<div class='center'><p>How successful a pirate is at robbing ships can also change over the time spent on the island. </p><p> Ships may hear from islanders about the pirates coming and will improve their protections against the attack. This may make it harder to rob them.</p><p> Ships may also become lazy and weaken the strength of their protections. This may make it easier to rob them.</p><br><p>Things are always changing on the high seas! So, try your best to pay attention!</p><p><img src='run_exp/static/images/tutorial/contingency.png' height='500'></p><p><b>[Press the space bar to continue]</b></p></div>",32,,,,,,,,,,,,,,,,,,,,,,,
,instruc13,44,330487,0.0-35.0-8.0,"""event"",""trial"",""time""
""fullscreenenter"",""0"",""3966""
","
","
","""event"",""trial"",""time""
""fullscreenenter"",""0"",""3966""
","
",null,run_exp/static/audio/clip_15_summary.m4a,null,,,,,"<div class='center'><p>Let's go over the instructions quickly again. You have two important things to do: </p><b><p> 1. Pick the pirate who is the best at robbing ships on the current island. </p></b><b><p> 2. Remember on which island a ship was robbed.</p> </b><p>The amount of bonus money you can win depends on both.</p><p><br><p>Let’s try a practice game. The game will start by showing you the pirates. First, pick a pirate using the <b> 1, 2, 3 </b> keys on your keyboard. When you are shown a ship, try to remember which island you’re on by making up a story.</p><p>This is just a practice game, so you’re not playing for money. </p><p> Good luck! This game will be very difficult but try your best!</p></div>",,,,,,,,,,,,,,,,,,
,html-keyboard-response,45,332387,0.0-35.0-9.0,"""event"",""trial"",""time""
""fullscreenenter"",""0"",""3966""
","
","
","""event"",""trial"",""time""
""fullscreenenter"",""0"",""3966""
","
",1897.8,"<div class='center'><p>Let's go over the instructions quickly again. You have two important things to do: </p><b><p> 1. Pick the pirate who is the best at robbing ships on the current island. </p></b><b><p> 2. Remember on which island a ship was robbed.</p> </b><p>The amount of bonus money you can win depends on both.</p><p><br><p>Let’s try a practice game. The game will start by showing you the pirates. First, pick a pirate using the <b> 1, 2, 3 </b> keys on your keyboard. When you are shown a ship, try to remember which island you’re on by making up a story.</p><p>This is just a practice game, so you’re not playing for money. </p><p> Good luck! This game will be very difficult but try your best!</p><p><b>[Press the space bar to continue]</b></p></div>",32,,,,,,,,,,,,,,,,,,,,,,,
,do_welcome,46,336413,0.0-35.0-10.0,"""event"",""trial"",""time""
""fullscreenenter"",""0"",""3966""
","
","
","""event"",""trial"",""time""
""fullscreenenter"",""0"",""3966""
","
",null,,,,,,,,null,,,,,,,,,,,,,,,,,
,do_trial,47,342876,0.0-35.0-11.0,"""event"",""trial"",""time""
""fullscreenenter"",""0"",""3966""
","
","
","""event"",""trial"",""time""
""fullscreenenter"",""0"",""3966""
","
",1947.2,,,,,,,,50,"1,0,0",,,,,,,,,,,,,,,,
,html-keyboard-response,48,343884,0.0-36.0-0.0,"""event"",""trial"",""time""
""fullscreenenter"",""0"",""3966""
","
","
","""event"",""trial"",""time""
""fullscreenenter"",""0"",""3966""
","
",null,<p></p>,null,,,,,,,,,,,,,,,,,,,,,,,
,do_trial,49,351149,0.0-36.0-1.0,"""event"",""trial"",""time""
""fullscreenenter"",""0"",""3966""
","
","
","""event"",""trial"",""time""
""fullscreenenter"",""0"",""3966""
","
",2748.1,,,,,,,,49,"1,1,0",,,,,,,,,,,,,,,,
,html-keyboard-response,50,352160,0.0-37.0-0.0,"""event"",""trial"",""time""
""fullscreenenter"",""0"",""3966""
","
","
","""event"",""trial"",""time""
""fullscreenenter"",""0"",""3966""
","
",null,<p></p>,null,,,,,,,,,,,,,,,,,,,,,,,
,do_trial,51,358089,0.0-37.0-1.0,"""event"",""trial"",""time""
""fullscreenenter"",""0"",""3966""
","
","
","""event"",""trial"",""time""
""fullscreenenter"",""0"",""3966""
","
",1409.7,,,,,,,,51,"1,0,1",,,,,,,,,,,,,,,,
,html-keyboard-response,52,359103,0.0-38.0-0.0,"""event"",""trial"",""time""
""fullscreenenter"",""0"",""3966""
","
","
","""event"",""trial"",""time""
""fullscreenenter"",""0"",""3966""
","
",null,<p></p>,null,,,,,,,,,,,,,,,,,,,,,,,
,do_trial,53,366159,0.0-38.0-1.0,"""event"",""trial"",""time""
""fullscreenenter"",""0"",""3966""
","
","
","""event"",""trial"",""time""
""fullscreenenter"",""0"",""3966""
","
",2534.7,,,,,,,,49,"0,1,0",,,,,,,,,,,,,,,,
,html-keyboard-response,54,367169,0.0-39.0-0.0,"""event"",""trial"",""time""
""fullscreenenter"",""0"",""3966""
","
","
","""event"",""trial"",""time""
""fullscreenenter"",""0"",""3966""
","
",null,<p></p>,null,,,,,,,,,,,,,,,,,,,,,,,
,do_trial,55,374403,0.0-39.0-1.0,"""event"",""trial"",""time""
""fullscreenenter"",""0"",""3966""
","
","
","""event"",""trial"",""time""
""fullscreenenter"",""0"",""3966""
","
",2708,,,,,,,,50,"1,0,0",,,,,,,,,,,,,,,,
,do_bye,56,375921,0.0-40.0-0.0,"""event"",""trial"",""time""
""fullscreenenter"",""0"",""3966""
","
","
","""event"",""trial"",""time""
""fullscreenenter"",""0"",""3966""
","
",null,,,,,,,,null,,,,,,,,,,,,,,,,,
,do_travel,57,384938,0.0-40.0-1.0,"""event"",""trial"",""time""
""fullscreenenter"",""0"",""3966""
","
","
","""event"",""trial"",""time""
""fullscreenenter"",""0"",""3966""
","
",null,,,,,,,,null,,,,,,,,,,,,,,,,,
,do_welcome,58,388954,0.0-40.0-2.0,"""event"",""trial"",""time""
""fullscreenenter"",""0"",""3966""
","
","
","""event"",""trial"",""time""
""fullscreenenter"",""0"",""3966""
","
",null,,,,,,,,null,,,,,,,,,,,,,,,,,
,do_trial,59,395168,0.0-40.0-3.0,"""event"",""trial"",""time""
""fullscreenenter"",""0"",""3966""
","
","
","""event"",""trial"",""time""
""fullscreenenter"",""0"",""3966""
","
",1689.7,,,,,,,,51,"1,0,0",,,,,,,,,,,,,,,,
,html-keyboard-response,60,396176,0.0-41.0-0.0,"""event"",""trial"",""time""
""fullscreenenter"",""0"",""3966""
","
","
","""event"",""trial"",""time""
""fullscreenenter"",""0"",""3966""
","
",null,<p></p>,null,,,,,,,,,,,,,,,,,,,,,,,
,do_trial,61,402639,0.0-41.0-1.0,"""event"",""trial"",""time""
""fullscreenenter"",""0"",""3966""
","
","
","""event"",""trial"",""time""
""fullscreenenter"",""0"",""3966""
","
",1950.7,,,,,,,,49,"1,0,1",,,,,,,,,,,,,,,,
,html-keyboard-response,62,403650,0.0-42.0-0.0,"""event"",""trial"",""time""
""fullscreenenter"",""0"",""3966""
","
","
","""event"",""trial"",""time""
""fullscreenenter"",""0"",""3966""
","
",null,<p></p>,null,,,,,,,,,,,,,,,,,,,,,,,
,do_trial,63,410133,0.0-42.0-1.0,"""event"",""trial"",""time""
""fullscreenenter"",""0"",""3966""
","
","
","""event"",""trial"",""time""
""fullscreenenter"",""0"",""3966""
","
",1957.8,,,,,,,,50,"1,1,0",,,,,,,,,,,,,,,,
,html-keyboard-response,64,411147,0.0-43.0-0.0,"""event"",""trial"",""time""
""fullscreenenter"",""0"",""3966""
","
","
","""event"",""trial"",""time""
""fullscreenenter"",""0"",""3966""
","
",null,<p></p>,null,,,,,,,,,,,,,,,,,,,,,,,
,do_trial,65,417034,0.0-43.0-1.0,"""event"",""trial"",""time""
""fullscreenenter"",""0"",""3966""
","
","
","""event"",""trial"",""time""
""fullscreenenter"",""0"",""3966""
","
",1370.3,,,,,,,,51,"0,0,1",,,,,,,,,,,,,,,,
,html-keyboard-response,66,418049,0.0-44.0-0.0,"""event"",""trial"",""time""
""fullscreenenter"",""0"",""3966""
","
","
","""event"",""trial"",""time""
""fullscreenenter"",""0"",""3966""
","
",null,<p></p>,null,,,,,,,,,,,,,,,,,,,,,,,
,do_trial,67,424388,0.0-44.0-1.0,"""event"",""trial"",""time""
""fullscreenenter"",""0"",""3966""
","
","
","""event"",""trial"",""time""
""fullscreenenter"",""0"",""3966""
","
",1817.6,,,,,,,,49,"1,0,1",,,,,,,,,,,,,,,,
,html-keyboard-response,68,429845,0.0-45.0-0.0,"""event"",""trial"",""time""
""fullscreenenter"",""0"",""3966""
","
","
","""event"",""trial"",""time""
""fullscreenenter"",""0"",""3966""
","
",5454.1,<div class='center'><p><img src='run_exp/static/images/tutorial/prac_best_pirate.png'  height='500'></p></div>,49,,,,,,,,,,,,,,,,,,,,,,,
,html-keyboard-response,69,432104,0.0-46.0-0.0,"""event"",""trial"",""time""
""fullscreenenter"",""0"",""3966""
","
","
","""event"",""trial"",""time""
""fullscreenenter"",""0"",""3966""
","
",2258,<div class='center'><p>That's correct! Red beard was the best.</p><p><b>[Press the space bar to continue]</b></p></div>,32,,,,,,,,,,,,,,,,,,,,,,,
,html-keyboard-response,70,437799,0.0-46.0-1.0,"""event"",""trial"",""time""
""fullscreenenter"",""0"",""3966""
","
","
","""event"",""trial"",""time""
""fullscreenenter"",""0"",""3966""
","
",5692.6,<div class='center'><p><img src='run_exp/static/images/tutorial/prac_source.png'  height='500'></p></div>,50,,,,,,,,,,,,,,,,,,,,,,,
,html-keyboard-response,71,439954,0.0-47.0-0.0,"""event"",""trial"",""time""
""fullscreenenter"",""0"",""3966""
","
","
","""event"",""trial"",""time""
""fullscreenenter"",""0"",""3966""
","
",2153.2,<div class='center'><p>That's correct! You saw this ship on the cavern island.</p><p><b>[Press the space bar to continue]</b></p></div>,32,,,,,,,,,,,,,,,,,,,,,,,
,quiz_beginning,72,451553,0.0-47.0-1.0,"""event"",""trial"",""time""
""fullscreenenter"",""0"",""3966""
","
","
","""event"",""trial"",""time""
""fullscreenenter"",""0"",""3966""
","
",null,run_exp/static/audio/clip_16_quiz_intro.m4a,null,,,,,"<div class='center'><p>Good job on the practice game! Now, you will be asked some true or false questions to make sure you really understand the rules of the game.</p><p> Press <b>'1'</b> on the keyboard for true and press <b>'2'</b> for false.</p></div>",,,,,,,,,,,,,,,,,,
,audio-keyboard-response,73,459383,0.0-47.0-2.0,"""event"",""trial"",""time""
""fullscreenenter"",""0"",""3966""
","
","
","""event"",""trial"",""time""
""fullscreenenter"",""0"",""3966""
","
",7828,run_exp/static/audio/clip_17_q1.m4a,49,,,,,,,,,,,,,,,,,,,,,,,
,correct,74,461813,0.0-48.0-0.0,"""event"",""trial"",""time""
""fullscreenenter"",""0"",""3966""
","
","
","""event"",""trial"",""time""
""fullscreenenter"",""0"",""3966""
","
",null,run_exp/static/audio/clip_18_correct.m4a,null,,,,,<div class='center'><p>That's correct!</p></div>,,,,,,,,,,,,,,,,,,
,html-keyboard-response,75,462253,0.0-48.0-1.0,"""event"",""trial"",""time""
""fullscreenenter"",""0"",""3966""
","
","
","""event"",""trial"",""time""
""fullscreenenter"",""0"",""3966""
","
",439.3,<div class='center'><p>That's correct!</p><p><b>[Press the space bar to continue]</b></p></div>,32,,,,,,,,,,,,,,,,,,,,,,,
,audio-keyboard-response,76,474934,0.0-48.0-2.0,"""event"",""trial"",""time""
""fullscreenenter"",""0"",""3966""
","
","
","""event"",""trial"",""time""
""fullscreenenter"",""0"",""3966""
","
",12679,run_exp/static/audio/clip_20_q2.m4a,50,,,,,,,,,,,,,,,,,,,,,,,
,correct,77,477333,0.0-49.0-0.0,"""event"",""trial"",""time""
""fullscreenenter"",""0"",""3966""
","
","
","""event"",""trial"",""time""
""fullscreenenter"",""0"",""3966""
","
",null,run_exp/static/audio/clip_18_correct.m4a,null,,,,,<div class='center'><p>That's correct!</p></div>,,,,,,,,,,,,,,,,,,
,html-keyboard-response,78,477890,0.0-49.0-1.0,"""event"",""trial"",""time""
""fullscreenenter"",""0"",""3966""
","
","
","""event"",""trial"",""time""
""fullscreenenter"",""0"",""3966""
","
",555.6,<div class='center'><p>That's correct!</p><p><b>[Press the space bar to continue]</b></p></div>,32,,,,,,,,,,,,,,,,,,,,,,,
,audio-keyboard-response,79,484438,0.0-49.0-2.0,"""event"",""trial"",""time""
""fullscreenenter"",""0"",""3966""
","
","
","""event"",""trial"",""time""
""fullscreenenter"",""0"",""3966""
","
",6546.2,run_exp/static/audio/clip_22_q3.m4a,50,,,,,,,,,,,,,,,,,,,,,,,
,correct,80,486833,0.0-50.0-0.0,"""event"",""trial"",""time""
""fullscreenenter"",""0"",""3966""
","
","
","""event"",""trial"",""time""
""fullscreenenter"",""0"",""3966""
","
",null,run_exp/static/audio/clip_18_correct.m4a,null,,,,,<div class='center'><p>That's correct!</p></div>,,,,,,,,,,,,,,,,,,
,html-keyboard-response,81,487293,0.0-50.0-1.0,"""event"",""trial"",""time""
""fullscreenenter"",""0"",""3966""
","
","
","""event"",""trial"",""time""
""fullscreenenter"",""0"",""3966""
","
",459.5,<div class='center'><p>That's correct!</p><p><b>[Press the space bar to continue]</b></p></div>,32,,,,,,,,,,,,,,,,,,,,,,,
,audio-keyboard-response,82,492184,0.0-50.0-2.0,"""event"",""trial"",""time""
""fullscreenenter"",""0"",""3966""
","
","
","""event"",""trial"",""time""
""fullscreenenter"",""0"",""3966""
","
",4889.3,run_exp/static/audio/clip_24_q4.m4a,49,,,,,,,,,,,,,,,,,,,,,,,
,correct,83,494673,0.0-51.0-0.0,"""event"",""trial"",""time""
""fullscreenenter"",""0"",""3966""
""blur"",""84"",""496075""
""focus"",""84"",""496340""
","""event"",""trial"",""time""
""blur"",""84"",""496075""
","""event"",""trial"",""time""
""focus"",""84"",""496340""
","""event"",""trial"",""time""
""fullscreenenter"",""0"",""3966""
","
",null,run_exp/static/audio/clip_18_correct.m4a,null,,,,,<div class='center'><p>That's correct!</p></div>,,,,,,,,,,,,,,,,,,
,html-keyboard-response,84,497268,0.0-51.0-1.0,"""event"",""trial"",""time""
""fullscreenenter"",""0"",""3966""
""blur"",""84"",""496075""
""focus"",""84"",""496340""
","""event"",""trial"",""time""
""blur"",""84"",""496075""
","""event"",""trial"",""time""
""focus"",""84"",""496340""
","""event"",""trial"",""time""
""fullscreenenter"",""0"",""3966""
","
",2593.1,<div class='center'><p>That's correct!</p><p><b>[Press the space bar to continue]</b></p></div>,32,,,,,,,,,,,,,,,,,,,,,,,
,q_all_corr,85,505773,0.0-52.0-0.0,"""event"",""trial"",""time""
""fullscreenenter"",""0"",""3966""
""blur"",""84"",""496075""
""focus"",""84"",""496340""
","""event"",""trial"",""time""
""blur"",""84"",""496075""
","""event"",""trial"",""time""
""focus"",""84"",""496340""
","""event"",""trial"",""time""
""fullscreenenter"",""0"",""3966""
","
",null,run_exp/static/audio/clip_27_quiz_all_correct.m4a,null,,,,,<div class='center'><p>Good job! You’re now ready to move on to the real game! Remember this game will be difficult but don't get discouraged and try your best!</p></div>,,,,,,,,,,,,,,,,,,
,html-keyboard-response,86,507453,0.0-52.0-1.0,"""event"",""trial"",""time""
""fullscreenenter"",""0"",""3966""
""blur"",""84"",""496075""
""focus"",""84"",""496340""
","""event"",""trial"",""time""
""blur"",""84"",""496075""
","""event"",""trial"",""time""
""focus"",""84"",""496340""
","""event"",""trial"",""time""
""fullscreenenter"",""0"",""3966""
","
",1678,<div class='center'><p>Good job! You’re now ready to move on to the real game! Remember this game will be difficult but don't get discouraged and try your best!</p><p><b>[Press the space bar to continue]</b></p></div>,32,,,,,,,,,,,,,,,,,,,,,,,
,do_welcome,87,511467,0.0-53.0-0.0,"""event"",""trial"",""time""
""fullscreenenter"",""0"",""3966""
""blur"",""84"",""496075""
""focus"",""84"",""496340""
","""event"",""trial"",""time""
""blur"",""84"",""496075""
","""event"",""trial"",""time""
""focus"",""84"",""496340""
","""event"",""trial"",""time""
""fullscreenenter"",""0"",""3966""
","
",null,,,,,,,,null,,,,,,,,,,,,,,,,,
,do_trial,88,518331,0.0-54.0-0.0,"""event"",""trial"",""time""
""fullscreenenter"",""0"",""3966""
""blur"",""84"",""496075""
""focus"",""84"",""496340""
","""event"",""trial"",""time""
""blur"",""84"",""496075""
","""event"",""trial"",""time""
""focus"",""84"",""496340""
","""event"",""trial"",""time""
""fullscreenenter"",""0"",""3966""
","
",2268.3,,,,,,,,51,"1,0,1",0,coast,0,probe-175,0.6,0.3,0.1,1,,,,,,,,
,html-keyboard-response,89,519337,0.0-54.0-1.0,"""event"",""trial"",""time""
""fullscreenenter"",""0"",""3966""
""blur"",""84"",""496075""
""focus"",""84"",""496340""
","""event"",""trial"",""time""
""blur"",""84"",""496075""
","""event"",""trial"",""time""
""focus"",""84"",""496340""
","""event"",""trial"",""time""
""fullscreenenter"",""0"",""3966""
","
",null,<p></p>,null,,,,,,,,,,,,,,,,,,,,,,,
,do_trial,90,525529,0.0-55.0-0.0,"""event"",""trial"",""time""
""fullscreenenter"",""0"",""3966""
""blur"",""84"",""496075""
""focus"",""84"",""496340""
","""event"",""trial"",""time""
""blur"",""84"",""496075""
","""event"",""trial"",""time""
""focus"",""84"",""496340""
","""event"",""trial"",""time""
""fullscreenenter"",""0"",""3966""
","
",1607.8,,,,,,,,50,"1,1,1",0,coast,1,probe-39,0.487252603,0.306880354,0.171183901,1,,,,,,,,
,html-keyboard-response,91,526541,0.0-55.0-1.0,"""event"",""trial"",""time""
""fullscreenenter"",""0"",""3966""
""blur"",""84"",""496075""
""focus"",""84"",""496340""
","""event"",""trial"",""time""
""blur"",""84"",""496075""
","""event"",""trial"",""time""
""focus"",""84"",""496340""
","""event"",""trial"",""time""
""fullscreenenter"",""0"",""3966""
","
",null,<p></p>,null,,,,,,,,,,,,,,,,,,,,,,,
,do_trial,92,531656,0.0-56.0-0.0,"""event"",""trial"",""time""
""fullscreenenter"",""0"",""3966""
""blur"",""84"",""496075""
""focus"",""84"",""496340""
","""event"",""trial"",""time""
""blur"",""84"",""496075""
","""event"",""trial"",""time""
""focus"",""84"",""496340""
","""event"",""trial"",""time""
""fullscreenenter"",""0"",""3966""
","
",536.7,,,,,,,,49,"1,0,0",0,coast,2,probe-172,0.536953782,0.096774482,0.052463085,1,,,,,,,,
,html-keyboard-response,93,532663,0.0-56.0-1.0,"""event"",""trial"",""time""
""fullscreenenter"",""0"",""3966""
""blur"",""84"",""496075""
""focus"",""84"",""496340""
","""event"",""trial"",""time""
""blur"",""84"",""496075""
","""event"",""trial"",""time""
""focus"",""84"",""496340""
","""event"",""trial"",""time""
""fullscreenenter"",""0"",""3966""
","
",null,<p></p>,null,,,,,,,,,,,,,,,,,,,,,,,
,do_trial,94,538759,0.0-57.0-0.0,"""event"",""trial"",""time""
""fullscreenenter"",""0"",""3966""
""blur"",""84"",""496075""
""focus"",""84"",""496340""
","""event"",""trial"",""time""
""blur"",""84"",""496075""
","""event"",""trial"",""time""
""focus"",""84"",""496340""
","""event"",""trial"",""time""
""fullscreenenter"",""0"",""3966""
","
",null,,,,,,,,null,"0,0,0",0,coast,3,probe-143,0.488601262,0.304885467,0.114453614,,,,,,,,,
,html-keyboard-response,95,539767,0.0-57.0-1.0,"""event"",""trial"",""time""
""fullscreenenter"",""0"",""3966""
""blur"",""84"",""496075""
""focus"",""84"",""496340""
","""event"",""trial"",""time""
""blur"",""84"",""496075""
","""event"",""trial"",""time""
""focus"",""84"",""496340""
","""event"",""trial"",""time""
""fullscreenenter"",""0"",""3966""
","
",null,<p></p>,null,,,,,,,,,,,,,,,,,,,,,,,
,do_trial,96,545046,0.0-58.0-0.0,"""event"",""trial"",""time""
""fullscreenenter"",""0"",""3966""
""blur"",""84"",""496075""
""focus"",""84"",""496340""
","""event"",""trial"",""time""
""blur"",""84"",""496075""
","""event"",""trial"",""time""
""focus"",""84"",""496340""
","""event"",""trial"",""time""
""fullscreenenter"",""0"",""3966""
","
",685.7,,,,,,,,50,"0,0,0",0,coast,4,probe-178,0.465983694,0.196820282,0.058451077,0,,,,,,,,
,html-keyboard-response,97,546064,0.0-58.0-1.0,"""event"",""trial"",""time""
""fullscreenenter"",""0"",""3966""
""blur"",""84"",""496075""
""focus"",""84"",""496340""
","""event"",""trial"",""time""
""blur"",""84"",""496075""
","""event"",""trial"",""time""
""focus"",""84"",""496340""
","""event"",""trial"",""time""
""fullscreenenter"",""0"",""3966""
","
",null,<p></p>,null,,,,,,,,,,,,,,,,,,,,,,,
,do_trial,98,551307,0.0-59.0-0.0,"""event"",""trial"",""time""
""fullscreenenter"",""0"",""3966""
""blur"",""84"",""496075""
""focus"",""84"",""496340""
","""event"",""trial"",""time""
""blur"",""84"",""496075""
","""event"",""trial"",""time""
""focus"",""84"",""496340""
","""event"",""trial"",""time""
""fullscreenenter"",""0"",""3966""
","
",655.9,,,,,,,,49,"0,0,0",0,coast,5,probe-36,0.443732013,0.245583371,0.14606615,0,,,,,,,,
,html-keyboard-response,99,552324,0.0-59.0-1.0,"""event"",""trial"",""time""
""fullscreenenter"",""0"",""3966""
""blur"",""84"",""496075""
""focus"",""84"",""496340""
","""event"",""trial"",""time""
""blur"",""84"",""496075""
","""event"",""trial"",""time""
""focus"",""84"",""496340""
","""event"",""trial"",""time""
""fullscreenenter"",""0"",""3966""
","
",null,<p></p>,null,,,,,,,,,,,,,,,,,,,,,,,
,do_trial,100,557770,0.0-60.0-0.0,"""event"",""trial"",""time""
""fullscreenenter"",""0"",""3966""
""blur"",""84"",""496075""
""focus"",""84"",""496340""
","""event"",""trial"",""time""
""blur"",""84"",""496075""
","""event"",""trial"",""time""
""focus"",""84"",""496340""
","""event"",""trial"",""time""
""fullscreenenter"",""0"",""3966""
","
",877.7,,,,,,,,51,"1,0,1",0,coast,6,probe-18,0.512213696,0.262784422,0.140078507,1,,,,,,,,
,html-keyboard-response,101,558781,0.0-60.0-1.0,"""event"",""trial"",""time""
""fullscreenenter"",""0"",""3966""
""blur"",""84"",""496075""
""focus"",""84"",""496340""
","""event"",""trial"",""time""
""blur"",""84"",""496075""
","""event"",""trial"",""time""
""focus"",""84"",""496340""
","""event"",""trial"",""time""
""fullscreenenter"",""0"",""3966""
","
",null,<p></p>,null,,,,,,,,,,,,,,,,,,,,,,,
,do_trial,102,564796,0.0-61.0-0.0,"""event"",""trial"",""time""
""fullscreenenter"",""0"",""3966""
""blur"",""84"",""496075""
""focus"",""84"",""496340""
","""event"",""trial"",""time""
""blur"",""84"",""496075""
","""event"",""trial"",""time""
""focus"",""84"",""496340""
","""event"",""trial"",""time""
""fullscreenenter"",""0"",""3966""
","
",1425.7,,,,,,,,51,"1,0,0",0,coast,7,probe-40,0.551333584,0.221059393,0.114497812,0,,,,,,,,
,html-keyboard-response,103,565804,0.0-61.0-1.0,"""event"",""trial"",""time""
""fullscreenenter"",""0"",""3966""
""blur"",""84"",""496075""
""focus"",""84"",""496340""
","""event"",""trial"",""time""
""blur"",""84"",""496075""
","""event"",""trial"",""time""
""focus"",""84"",""496340""
","""event"",""trial"",""time""
""fullscreenenter"",""0"",""3966""
","
",null,<p></p>,null,,,,,,,,,,,,,,,,,,,,,,,
,do_trial,104,571210,0.0-62.0-0.0,"""event"",""trial"",""time""
""fullscreenenter"",""0"",""3966""
""blur"",""84"",""496075""
""focus"",""84"",""496340""
","""event"",""trial"",""time""
""blur"",""84"",""496075""
","""event"",""trial"",""time""
""focus"",""84"",""496340""
","""event"",""trial"",""time""
""fullscreenenter"",""0"",""3966""
","
",848.9,,,,,,,,50,"1,0,0",0,coast,8,probe-211,0.518090624,0.37940665,0.055888255,0,,,,,,,,
,html-keyboard-response,105,572225,0.0-62.0-1.0,"""event"",""trial"",""time""
""fullscreenenter"",""0"",""3966""
""blur"",""84"",""496075""
""focus"",""84"",""496340""
","""event"",""trial"",""time""
""blur"",""84"",""496075""
","""event"",""trial"",""time""
""focus"",""84"",""496340""
","""event"",""trial"",""time""
""fullscreenenter"",""0"",""3966""
","
",null,<p></p>,null,,,,,,,,,,,,,,,,,,,,,,,
,do_trial,106,577617,0.0-63.0-0.0,"""event"",""trial"",""time""
""fullscreenenter"",""0"",""3966""
""blur"",""84"",""496075""
""focus"",""84"",""496340""
","""event"",""trial"",""time""
""blur"",""84"",""496075""
","""event"",""trial"",""time""
""focus"",""84"",""496340""
","""event"",""trial"",""time""
""fullscreenenter"",""0"",""3966""
","
",820.7,,,,,,,,49,"0,0,0",0,coast,9,probe-20,0.491745328,0.31940538,0.073210404,0,,,,,,,,
,html-keyboard-response,107,578625,0.0-63.0-1.0,"""event"",""trial"",""time""
""fullscreenenter"",""0"",""3966""
""blur"",""84"",""496075""
""focus"",""84"",""496340""
","""event"",""trial"",""time""
""blur"",""84"",""496075""
","""event"",""trial"",""time""
""focus"",""84"",""496340""
","""event"",""trial"",""time""
""fullscreenenter"",""0"",""3966""
","
",null,<p></p>,null,,,,,,,,,,,,,,,,,,,,,,,
,do_trial,108,583595,0.0-64.0-0.0,"""event"",""trial"",""time""
""fullscreenenter"",""0"",""3966""
""blur"",""84"",""496075""
""focus"",""84"",""496340""
","""event"",""trial"",""time""
""blur"",""84"",""496075""
","""event"",""trial"",""time""
""focus"",""84"",""496340""
","""event"",""trial"",""time""
""fullscreenenter"",""0"",""3966""
","
",386.8,,,,,,,,51,"1,0,0",0,coast,10,probe-35,0.618829472,0.365294637,0.119521499,0,,,,,,,,
,html-keyboard-response,109,584609,0.0-64.0-1.0,"""event"",""trial"",""time""
""fullscreenenter"",""0"",""3966""
""blur"",""84"",""496075""
""focus"",""84"",""496340""
","""event"",""trial"",""time""
""blur"",""84"",""496075""
","""event"",""trial"",""time""
""focus"",""84"",""496340""
","""event"",""trial"",""time""
""fullscreenenter"",""0"",""3966""
","
",null,<p></p>,null,,,,,,,,,,,,,,,,,,,,,,,
,do_trial,110,590948,0.0-65.0-0.0,"""event"",""trial"",""time""
""fullscreenenter"",""0"",""3966""
""blur"",""84"",""496075""
""focus"",""84"",""496340""
","""event"",""trial"",""time""
""blur"",""84"",""496075""
","""event"",""trial"",""time""
""focus"",""84"",""496340""
","""event"",""trial"",""time""
""fullscreenenter"",""0"",""3966""
","
",1766.4,,,,,,,,51,"0,0,1",0,coast,11,probe-189,0.577567205,0.224807532,0.087231504,1,,,,,,,,
,html-keyboard-response,111,591959,0.0-65.0-1.0,"""event"",""trial"",""time""
""fullscreenenter"",""0"",""3966""
""blur"",""84"",""496075""
""focus"",""84"",""496340""
","""event"",""trial"",""time""
""blur"",""84"",""496075""
","""event"",""trial"",""time""
""focus"",""84"",""496340""
","""event"",""trial"",""time""
""fullscreenenter"",""0"",""3966""
","
",null,<p></p>,null,,,,,,,,,,,,,,,,,,,,,,,
,do_trial,112,597538,0.0-66.0-0.0,"""event"",""trial"",""time""
""fullscreenenter"",""0"",""3966""
""blur"",""84"",""496075""
""focus"",""84"",""496340""
","""event"",""trial"",""time""
""blur"",""84"",""496075""
","""event"",""trial"",""time""
""focus"",""84"",""496340""
","""event"",""trial"",""time""
""fullscreenenter"",""0"",""3966""
","
",1002.3,,,,,,,,49,"1,1,0",0,coast,12,probe-118,0.534365098,0.340880451,0.074901602,1,,,,,,,,
,html-keyboard-response,113,598549,0.0-66.0-1.0,"""event"",""trial"",""time""
""fullscreenenter"",""0"",""3966""
""blur"",""84"",""496075""
""focus"",""84"",""496340""
","""event"",""trial"",""time""
""blur"",""84"",""496075""
","""event"",""trial"",""time""
""focus"",""84"",""496340""
","""event"",""trial"",""time""
""fullscreenenter"",""0"",""3966""
","
",null,<p></p>,null,,,,,,,,,,,,,,,,,,,,,,,
,do_trial,114,603225,0.0-67.0-0.0,"""event"",""trial"",""time""
""fullscreenenter"",""0"",""3966""
""blur"",""84"",""496075""
""focus"",""84"",""496340""
","""event"",""trial"",""time""
""blur"",""84"",""496075""
","""event"",""trial"",""time""
""focus"",""84"",""496340""
","""event"",""trial"",""time""
""fullscreenenter"",""0"",""3966""
","
",96.3,,,,,,,,51,"0,0,0",0,coast,13,probe-113,0.462796352,0.441606942,0.178067508,0,,,,,,,,
,html-keyboard-response,115,604240,0.0-67.0-1.0,"""event"",""trial"",""time""
""fullscreenenter"",""0"",""3966""
""blur"",""84"",""496075""
""focus"",""84"",""496340""
","""event"",""trial"",""time""
""blur"",""84"",""496075""
","""event"",""trial"",""time""
""focus"",""84"",""496340""
","""event"",""trial"",""time""
""fullscreenenter"",""0"",""3966""
","
",null,<p></p>,null,,,,,,,,,,,,,,,,,,,,,,,
,do_trial,116,609217,0.0-68.0-0.0,"""event"",""trial"",""time""
""fullscreenenter"",""0"",""3966""
""blur"",""84"",""496075""
""focus"",""84"",""496340""
","""event"",""trial"",""time""
""blur"",""84"",""496075""
","""event"",""trial"",""time""
""focus"",""84"",""496340""
","""event"",""trial"",""time""
""fullscreenenter"",""0"",""3966""
","
",403.7,,,,,,,,50,"1,0,0",0,coast,14,probe-164,0.512639346,0.404889706,0.175283423,0,,,,,,,,
,html-keyboard-response,117,610227,0.0-68.0-1.0,"""event"",""trial"",""time""
""fullscreenenter"",""0"",""3966""
""blur"",""84"",""496075""
""focus"",""84"",""496340""
","""event"",""trial"",""time""
""blur"",""84"",""496075""
","""event"",""trial"",""time""
""focus"",""84"",""496340""
","""event"",""trial"",""time""
""fullscreenenter"",""0"",""3966""
","
",null,<p></p>,null,,,,,,,,,,,,,,,,,,,,,,,
,do_trial,118,614829,0.0-69.0-0.0,"""event"",""trial"",""time""
""fullscreenenter"",""0"",""3966""
""blur"",""84"",""496075""
""focus"",""84"",""496340""
","""event"",""trial"",""time""
""blur"",""84"",""496075""
","""event"",""trial"",""time""
""focus"",""84"",""496340""
","""event"",""trial"",""time""
""fullscreenenter"",""0"",""3966""
","
",31.8,,,,,,,,49,"1,0,1",0,coast,15,probe-85,0.622089854,0.35274114,0.349494088,1,,,,,,,,
,html-keyboard-response,119,615845,0.0-69.0-1.0,"""event"",""trial"",""time""
""fullscreenenter"",""0"",""3966""
""blur"",""84"",""496075""
""focus"",""84"",""496340""
","""event"",""trial"",""time""
""blur"",""84"",""496075""
","""event"",""trial"",""time""
""focus"",""84"",""496340""
","""event"",""trial"",""time""
""fullscreenenter"",""0"",""3966""
","
",null,<p></p>,null,,,,,,,,,,,,,,,,,,,,,,,
,do_trial,120,620426,0.0-70.0-0.0,"""event"",""trial"",""time""
""fullscreenenter"",""0"",""3966""
""blur"",""84"",""496075""
""focus"",""84"",""496340""
","""event"",""trial"",""time""
""blur"",""84"",""496075""
","""event"",""trial"",""time""
""focus"",""84"",""496340""
","""event"",""trial"",""time""
""fullscreenenter"",""0"",""3966""
","
",4,,,,,,,,51,"1,1,0",0,coast,16,probe-213,0.587455409,0.221261646,0.271855075,0,,,,,,,,
,html-keyboard-response,121,621440,0.0-70.0-1.0,"""event"",""trial"",""time""
""fullscreenenter"",""0"",""3966""
""blur"",""84"",""496075""
""focus"",""84"",""496340""
","""event"",""trial"",""time""
""blur"",""84"",""496075""
","""event"",""trial"",""time""
""focus"",""84"",""496340""
","""event"",""trial"",""time""
""fullscreenenter"",""0"",""3966""
","
",null,<p></p>,null,,,,,,,,,,,,,,,,,,,,,,,
,do_trial,122,626038,0.0-71.0-0.0,"""event"",""trial"",""time""
""fullscreenenter"",""0"",""3966""
""blur"",""84"",""496075""
""focus"",""84"",""496340""
","""event"",""trial"",""time""
""blur"",""84"",""496075""
","""event"",""trial"",""time""
""focus"",""84"",""496340""
","""event"",""trial"",""time""
""fullscreenenter"",""0"",""3966""
","
",29.1,,,,,,,,50,"0,0,0",0,coast,17,probe-152,0.659087998,0.310620493,0.19968206,0,,,,,,,,
,html-keyboard-response,123,627050,0.0-71.0-1.0,"""event"",""trial"",""time""
""fullscreenenter"",""0"",""3966""
""blur"",""84"",""496075""
""focus"",""84"",""496340""
","""event"",""trial"",""time""
""blur"",""84"",""496075""
","""event"",""trial"",""time""
""focus"",""84"",""496340""
","""event"",""trial"",""time""
""fullscreenenter"",""0"",""3966""
","
",null,<p></p>,null,,,,,,,,,,,,,,,,,,,,,,,
,do_trial,124,632367,0.0-72.0-0.0,"""event"",""trial"",""time""
""fullscreenenter"",""0"",""3966""
""blur"",""84"",""496075""
""focus"",""84"",""496340""
","""event"",""trial"",""time""
""blur"",""84"",""496075""
","""event"",""trial"",""time""
""focus"",""84"",""496340""
","""event"",""trial"",""time""
""fullscreenenter"",""0"",""3966""
","
",736.6,,,,,,,,49,"1,0,0",0,coast,18,probe-199,0.692470296,0.278912227,0.105359712,1,,,,,,,,
,html-keyboard-response,125,633384,0.0-72.0-1.0,"""event"",""trial"",""time""
""fullscreenenter"",""0"",""3966""
""blur"",""84"",""496075""
""focus"",""84"",""496340""
","""event"",""trial"",""time""
""blur"",""84"",""496075""
","""event"",""trial"",""time""
""focus"",""84"",""496340""
","""event"",""trial"",""time""
""fullscreenenter"",""0"",""3966""
","
",null,<p></p>,null,,,,,,,,,,,,,,,,,,,,,,,
,do_trial,126,638827,0.0-73.0-0.0,"""event"",""trial"",""time""
""fullscreenenter"",""0"",""3966""
""blur"",""84"",""496075""
""focus"",""84"",""496340""
","""event"",""trial"",""time""
""blur"",""84"",""496075""
","""event"",""trial"",""time""
""focus"",""84"",""496340""
","""event"",""trial"",""time""
""fullscreenenter"",""0"",""3966""
","
",877.4,,,,,,,,51,"1,0,1",0,coast,19,probe-180,0.629109058,0.292995563,0.069346441,1,,,,,,,,
,html-keyboard-response,127,639841,0.0-73.0-1.0,"""event"",""trial"",""time""
""fullscreenenter"",""0"",""3966""
""blur"",""84"",""496075""
""focus"",""84"",""496340""
","""event"",""trial"",""time""
""blur"",""84"",""496075""
","""event"",""trial"",""time""
""focus"",""84"",""496340""
","""event"",""trial"",""time""
""fullscreenenter"",""0"",""3966""
","
",null,<p></p>,null,,,,,,,,,,,,,,,,,,,,,,,
,do_trial,128,644874,0.0-74.0-0.0,"""event"",""trial"",""time""
""fullscreenenter"",""0"",""3966""
""blur"",""84"",""496075""
""focus"",""84"",""496340""
","""event"",""trial"",""time""
""blur"",""84"",""496075""
","""event"",""trial"",""time""
""focus"",""84"",""496340""
","""event"",""trial"",""time""
""fullscreenenter"",""0"",""3966""
","
",466.1,,,,,,,,50,"1,0,0",0,coast,20,probe-207,0.528559544,0.278652871,0.062033099,0,,,,,,,,
,html-keyboard-response,129,645886,0.0-74.0-1.0,"""event"",""trial"",""time""
""fullscreenenter"",""0"",""3966""
""blur"",""84"",""496075""
""focus"",""84"",""496340""
","""event"",""trial"",""time""
""blur"",""84"",""496075""
","""event"",""trial"",""time""
""focus"",""84"",""496340""
","""event"",""trial"",""time""
""fullscreenenter"",""0"",""3966""
","
",null,<p></p>,null,,,,,,,,,,,,,,,,,,,,,,,
,do_trial,130,651035,0.0-75.0-0.0,"""event"",""trial"",""time""
""fullscreenenter"",""0"",""3966""
""blur"",""84"",""496075""
""focus"",""84"",""496340""
","""event"",""trial"",""time""
""blur"",""84"",""496075""
","""event"",""trial"",""time""
""focus"",""84"",""496340""
","""event"",""trial"",""time""
""fullscreenenter"",""0"",""3966""
","
",562,,,,,,,,51,"1,0,0",0,coast,21,probe-55,0.573611032,0.175970066,0.090318225,0,,,,,,,,
,html-keyboard-response,131,652047,0.0-75.0-1.0,"""event"",""trial"",""time""
""fullscreenenter"",""0"",""3966""
""blur"",""84"",""496075""
""focus"",""84"",""496340""
","""event"",""trial"",""time""
""blur"",""84"",""496075""
","""event"",""trial"",""time""
""focus"",""84"",""496340""
","""event"",""trial"",""time""
""fullscreenenter"",""0"",""3966""
","
",null,<p></p>,null,,,,,,,,,,,,,,,,,,,,,,,
,do_trial,132,657156,0.0-76.0-0.0,"""event"",""trial"",""time""
""fullscreenenter"",""0"",""3966""
""blur"",""84"",""496075""
""focus"",""84"",""496340""
","""event"",""trial"",""time""
""blur"",""84"",""496075""
","""event"",""trial"",""time""
""focus"",""84"",""496340""
","""event"",""trial"",""time""
""fullscreenenter"",""0"",""3966""
","
",536.4,,,,,,,,49,"1,0,0",0,coast,22,probe-41,0.59016831,0.211838241,0.117834312,1,,,,,,,,
,html-keyboard-response,133,658169,0.0-76.0-1.0,"""event"",""trial"",""time""
""fullscreenenter"",""0"",""3966""
""blur"",""84"",""496075""
""focus"",""84"",""496340""
","""event"",""trial"",""time""
""blur"",""84"",""496075""
","""event"",""trial"",""time""
""focus"",""84"",""496340""
","""event"",""trial"",""time""
""fullscreenenter"",""0"",""3966""
","
",null,<p></p>,null,,,,,,,,,,,,,,,,,,,,,,,
,do_trial,134,663466,0.0-77.0-0.0,"""event"",""trial"",""time""
""fullscreenenter"",""0"",""3966""
""blur"",""84"",""496075""
""focus"",""84"",""496340""
","""event"",""trial"",""time""
""blur"",""84"",""496075""
","""event"",""trial"",""time""
""focus"",""84"",""496340""
","""event"",""trial"",""time""
""fullscreenenter"",""0"",""3966""
","
",730.5,,,,,,,,51,"1,0,0",0,coast,23,probe-195,0.663408455,0.283798881,0.086688443,0,,,,,,,,
,html-keyboard-response,135,664482,0.0-77.0-1.0,"""event"",""trial"",""time""
""fullscreenenter"",""0"",""3966""
""blur"",""84"",""496075""
""focus"",""84"",""496340""
","""event"",""trial"",""time""
""blur"",""84"",""496075""
","""event"",""trial"",""time""
""focus"",""84"",""496340""
","""event"",""trial"",""time""
""fullscreenenter"",""0"",""3966""
","
",null,<p></p>,null,,,,,,,,,,,,,,,,,,,,,,,
,do_trial,136,669225,0.0-78.0-0.0,"""event"",""trial"",""time""
""fullscreenenter"",""0"",""3966""
""blur"",""84"",""496075""
""focus"",""84"",""496340""
","""event"",""trial"",""time""
""blur"",""84"",""496075""
","""event"",""trial"",""time""
""focus"",""84"",""496340""
","""event"",""trial"",""time""
""fullscreenenter"",""0"",""3966""
","
",164,,,,,,,,50,"0,0,0",0,coast,24,probe-106,0.648425973,0.19065931,0.064421095,0,,,,,,,,
,html-keyboard-response,137,670237,0.0-78.0-1.0,"""event"",""trial"",""time""
""fullscreenenter"",""0"",""3966""
""blur"",""84"",""496075""
""focus"",""84"",""496340""
","""event"",""trial"",""time""
""blur"",""84"",""496075""
","""event"",""trial"",""time""
""focus"",""84"",""496340""
","""event"",""trial"",""time""
""fullscreenenter"",""0"",""3966""
","
",null,<p></p>,null,,,,,,,,,,,,,,,,,,,,,,,
,do_trial,138,674841,0.0-79.0-0.0,"""event"",""trial"",""time""
""fullscreenenter"",""0"",""3966""
""blur"",""84"",""496075""
""focus"",""84"",""496340""
","""event"",""trial"",""time""
""blur"",""84"",""496075""
","""event"",""trial"",""time""
""focus"",""84"",""496340""
","""event"",""trial"",""time""
""fullscreenenter"",""0"",""3966""
","
",49.5,,,,,,,,49,"0,0,0",0,coast,25,probe-223,0.432241762,0.150458232,0.124214107,0,,,,,,,,
,html-keyboard-response,139,675854,0.0-79.0-1.0,"""event"",""trial"",""time""
""fullscreenenter"",""0"",""3966""
""blur"",""84"",""496075""
""focus"",""84"",""496340""
","""event"",""trial"",""time""
""blur"",""84"",""496075""
","""event"",""trial"",""time""
""focus"",""84"",""496340""
","""event"",""trial"",""time""
""fullscreenenter"",""0"",""3966""
","
",null,<p></p>,null,,,,,,,,,,,,,,,,,,,,,,,
,do_trial,140,681000,0.0-80.0-0.0,"""event"",""trial"",""time""
""fullscreenenter"",""0"",""3966""
""blur"",""84"",""496075""
""focus"",""84"",""496340""
","""event"",""trial"",""time""
""blur"",""84"",""496075""
","""event"",""trial"",""time""
""focus"",""84"",""496340""
","""event"",""trial"",""time""
""fullscreenenter"",""0"",""3966""
","
",559.5,,,,,,,,50,"0,0,0",0,coast,26,probe-17,0.427828192,0.2527976,0.05807638,0,,,,,,,,
,html-keyboard-response,141,682016,0.0-80.0-1.0,"""event"",""trial"",""time""
""fullscreenenter"",""0"",""3966""
""blur"",""84"",""496075""
""focus"",""84"",""496340""
","""event"",""trial"",""time""
""blur"",""84"",""496075""
","""event"",""trial"",""time""
""focus"",""84"",""496340""
","""event"",""trial"",""time""
""fullscreenenter"",""0"",""3966""
","
",null,<p></p>,null,,,,,,,,,,,,,,,,,,,,,,,
,do_trial,142,687304,0.0-81.0-0.0,"""event"",""trial"",""time""
""fullscreenenter"",""0"",""3966""
""blur"",""84"",""496075""
""focus"",""84"",""496340""
","""event"",""trial"",""time""
""blur"",""84"",""496075""
","""event"",""trial"",""time""
""focus"",""84"",""496340""
","""event"",""trial"",""time""
""fullscreenenter"",""0"",""3966""
","
",697.1,,,,,,,,49,"1,0,1",0,coast,27,probe-194,0.473474236,0.322740749,0.166834522,1,,,,,,,,
,html-keyboard-response,143,688315,0.0-81.0-1.0,"""event"",""trial"",""time""
""fullscreenenter"",""0"",""3966""
""blur"",""84"",""496075""
""focus"",""84"",""496340""
","""event"",""trial"",""time""
""blur"",""84"",""496075""
","""event"",""trial"",""time""
""focus"",""84"",""496340""
","""event"",""trial"",""time""
""fullscreenenter"",""0"",""3966""
","
",null,<p></p>,null,,,,,,,,,,,,,,,,,,,,,,,
,do_trial,144,693267,0.0-82.0-0.0,"""event"",""trial"",""time""
""fullscreenenter"",""0"",""3966""
""blur"",""84"",""496075""
""focus"",""84"",""496340""
","""event"",""trial"",""time""
""blur"",""84"",""496075""
","""event"",""trial"",""time""
""focus"",""84"",""496340""
","""event"",""trial"",""time""
""fullscreenenter"",""0"",""3966""
","
",378.2,,,,,,,,51,"1,0,0",0,coast,28,probe-25,0.459351658,0.153274409,0.180367646,0,,,,,,,,
,html-keyboard-response,145,694270,0.0-82.0-1.0,"""event"",""trial"",""time""
""fullscreenenter"",""0"",""3966""
""blur"",""84"",""496075""
""focus"",""84"",""496340""
","""event"",""trial"",""time""
""blur"",""84"",""496075""
","""event"",""trial"",""time""
""focus"",""84"",""496340""
","""event"",""trial"",""time""
""fullscreenenter"",""0"",""3966""
","
",null,<p></p>,null,,,,,,,,,,,,,,,,,,,,,,,
,do_trial,146,700364,0.0-83.0-0.0,"""event"",""trial"",""time""
""fullscreenenter"",""0"",""3966""
""blur"",""84"",""496075""
""focus"",""84"",""496340""
","""event"",""trial"",""time""
""blur"",""84"",""496075""
","""event"",""trial"",""time""
""focus"",""84"",""496340""
","""event"",""trial"",""time""
""fullscreenenter"",""0"",""3966""
","
",null,,,,,,,,null,"0,0,0",0,coast,29,probe-188,0.407393831,0.267269086,0.139114128,,,,,,,,,
,html-keyboard-response,147,701374,0.0-83.0-1.0,"""event"",""trial"",""time""
""fullscreenenter"",""0"",""3966""
""blur"",""84"",""496075""
""focus"",""84"",""496340""
","""event"",""trial"",""time""
""blur"",""84"",""496075""
","""event"",""trial"",""time""
""focus"",""84"",""496340""
","""event"",""trial"",""time""
""fullscreenenter"",""0"",""3966""
","
",null,<p></p>,null,,,,,,,,,,,,,,,,,,,,,,,
,do_bye,148,702893,0.0-84.0-0.0,"""event"",""trial"",""time""
""fullscreenenter"",""0"",""3966""
""blur"",""84"",""496075""
""focus"",""84"",""496340""
","""event"",""trial"",""time""
""blur"",""84"",""496075""
","""event"",""trial"",""time""
""focus"",""84"",""496340""
","""event"",""trial"",""time""
""fullscreenenter"",""0"",""3966""
","
",null,,,,,,,,null,,,,,,,,,,,,,,,,,
,break,149,715177,0.0-84.0-1.0,"""event"",""trial"",""time""
""fullscreenenter"",""0"",""3966""
""blur"",""84"",""496075""
""focus"",""84"",""496340""
","""event"",""trial"",""time""
""blur"",""84"",""496075""
","""event"",""trial"",""time""
""focus"",""84"",""496340""
","""event"",""trial"",""time""
""fullscreenenter"",""0"",""3966""
","
",12282.5,"<div class='center'><p>Time to take a quick break! You have 2 minutes to rest, but you can move on sooner if you'd like.</p><p> Press the <b>space bar</b> to continue.</p></div>",32,,,,,,,,,,,,,,,,,,,,,,,
,do_travel,150,724189,0.0-85.0-0.0,"""event"",""trial"",""time""
""fullscreenenter"",""0"",""3966""
""blur"",""84"",""496075""
""focus"",""84"",""496340""
","""event"",""trial"",""time""
""blur"",""84"",""496075""
","""event"",""trial"",""time""
""focus"",""84"",""496340""
","""event"",""trial"",""time""
""fullscreenenter"",""0"",""3966""
","
",null,,,,,,,,null,,,,,,,,,,,,,,,,,
,do_welcome,151,728215,0.0-85.0-1.0,"""event"",""trial"",""time""
""fullscreenenter"",""0"",""3966""
""blur"",""84"",""496075""
""focus"",""84"",""496340""
","""event"",""trial"",""time""
""blur"",""84"",""496075""
","""event"",""trial"",""time""
""focus"",""84"",""496340""
","""event"",""trial"",""time""
""fullscreenenter"",""0"",""3966""
","
",null,,,,,,,,null,,,,,,,,,,,,,,,,,
,do_trial,152,735145,0.0-86.0-0.0,"""event"",""trial"",""time""
""fullscreenenter"",""0"",""3966""
""blur"",""84"",""496075""
""focus"",""84"",""496340""
","""event"",""trial"",""time""
""blur"",""84"",""496075""
","""event"",""trial"",""time""
""focus"",""84"",""496340""
","""event"",""trial"",""time""
""fullscreenenter"",""0"",""3966""
","
",2300.8,,,,,,,,51,"1,0,0",1,mountain,30,probe-139,1,0.186568388,0.074725036,0,,,,,,,,
,html-keyboard-response,153,736151,0.0-86.0-1.0,"""event"",""trial"",""time""
""fullscreenenter"",""0"",""3966""
""blur"",""84"",""496075""
""focus"",""84"",""496340""
","""event"",""trial"",""time""
""blur"",""84"",""496075""
","""event"",""trial"",""time""
""focus"",""84"",""496340""
","""event"",""trial"",""time""
""fullscreenenter"",""0"",""3966""
","
",null,<p></p>,null,,,,,,,,,,,,,,,,,,,,,,,
,do_trial,154,741124,0.0-87.0-0.0,"""event"",""trial"",""time""
""fullscreenenter"",""0"",""3966""
""blur"",""84"",""496075""
""focus"",""84"",""496340""
","""event"",""trial"",""time""
""blur"",""84"",""496075""
","""event"",""trial"",""time""
""focus"",""84"",""496340""
","""event"",""trial"",""time""
""fullscreenenter"",""0"",""3966""
","
",393.7,,,,,,,,49,"1,0,0",1,mountain,31,probe-121,1,0.072874188,0.098993887,1,,,,,,,,
,html-keyboard-response,155,742134,0.0-87.0-1.0,"""event"",""trial"",""time""
""fullscreenenter"",""0"",""3966""
""blur"",""84"",""496075""
""focus"",""84"",""496340""
","""event"",""trial"",""time""
""blur"",""84"",""496075""
","""event"",""trial"",""time""
""focus"",""84"",""496340""
","""event"",""trial"",""time""
""fullscreenenter"",""0"",""3966""
","
",null,<p></p>,null,,,,,,,,,,,,,,,,,,,,,,,
,do_trial,156,747900,0.0-88.0-0.0,"""event"",""trial"",""time""
""fullscreenenter"",""0"",""3966""
""blur"",""84"",""496075""
""focus"",""84"",""496340""
","""event"",""trial"",""time""
""blur"",""84"",""496075""
","""event"",""trial"",""time""
""focus"",""84"",""496340""
","""event"",""trial"",""time""
""fullscreenenter"",""0"",""3966""
","
",1197.9,,,,,,,,50,"1,1,0",1,mountain,32,probe-100,1,0.222965052,0.258301841,1,,,,,,,,
,html-keyboard-response,157,748907,0.0-88.0-1.0,"""event"",""trial"",""time""
""fullscreenenter"",""0"",""3966""
""blur"",""84"",""496075""
""focus"",""84"",""496340""
","""event"",""trial"",""time""
""blur"",""84"",""496075""
","""event"",""trial"",""time""
""focus"",""84"",""496340""
","""event"",""trial"",""time""
""fullscreenenter"",""0"",""3966""
","
",null,<p></p>,null,,,,,,,,,,,,,,,,,,,,,,,
,do_trial,158,753768,0.0-89.0-0.0,"""event"",""trial"",""time""
""fullscreenenter"",""0"",""3966""
""blur"",""84"",""496075""
""focus"",""84"",""496340""
","""event"",""trial"",""time""
""blur"",""84"",""496075""
","""event"",""trial"",""time""
""focus"",""84"",""496340""
","""event"",""trial"",""time""
""fullscreenenter"",""0"",""3966""
","
",284.5,,,,,,,,51,"1,0,1",1,mountain,33,probe-70,0.820913712,0.197173657,0.145173224,1,,,,,,,,
,html-keyboard-response,159,754774,0.0-89.0-1.0,"""event"",""trial"",""time""
""fullscreenenter"",""0"",""3966""
""blur"",""84"",""496075""
""focus"",""84"",""496340""
","""event"",""trial"",""time""
""blur"",""84"",""496075""
","""event"",""trial"",""time""
""focus"",""84"",""496340""
","""event"",""trial"",""time""
""fullscreenenter"",""0"",""3966""
","
",null,<p></p>,null,,,,,,,,,,,,,,,,,,,,,,,
,do_trial,160,759984,0.0-90.0-0.0,"""event"",""trial"",""time""
""fullscreenenter"",""0"",""3966""
""blur"",""84"",""496075""
""focus"",""84"",""496340""
","""event"",""trial"",""time""
""blur"",""84"",""496075""
","""event"",""trial"",""time""
""focus"",""84"",""496340""
","""event"",""trial"",""time""
""fullscreenenter"",""0"",""3966""
","
",645.9,,,,,,,,49,"0,0,0",1,mountain,34,probe-203,0.68162831,0.328121347,0.055656299,0,,,,,,,,
,html-keyboard-response,161,761001,0.0-90.0-1.0,"""event"",""trial"",""time""
""fullscreenenter"",""0"",""3966""
""blur"",""84"",""496075""
""focus"",""84"",""496340""
","""event"",""trial"",""time""
""blur"",""84"",""496075""
","""event"",""trial"",""time""
""focus"",""84"",""496340""
","""event"",""trial"",""time""
""fullscreenenter"",""0"",""3966""
","
",null,<p></p>,null,,,,,,,,,,,,,,,,,,,,,,,
,do_trial,162,766123,0.0-91.0-0.0,"""event"",""trial"",""time""
""fullscreenenter"",""0"",""3966""
""blur"",""84"",""496075""
""focus"",""84"",""496340""
","""event"",""trial"",""time""
""blur"",""84"",""496075""
","""event"",""trial"",""time""
""focus"",""84"",""496340""
","""event"",""trial"",""time""
""fullscreenenter"",""0"",""3966""
","
",557.6,,,,,,,,50,"0,0,0",1,mountain,35,probe-01,0.579517368,0.266005154,0.060783677,0,,,,,,,,
,html-keyboard-response,163,767138,0.0-91.0-1.0,"""event"",""trial"",""time""
""fullscreenenter"",""0"",""3966""
""blur"",""84"",""496075""
""focus"",""84"",""496340""
","""event"",""trial"",""time""
""blur"",""84"",""496075""
","""event"",""trial"",""time""
""focus"",""84"",""496340""
","""event"",""trial"",""time""
""fullscreenenter"",""0"",""3966""
","
",null,<p></p>,null,,,,,,,,,,,,,,,,,,,,,,,
,do_trial,164,772291,0.0-92.0-0.0,"""event"",""trial"",""time""
""fullscreenenter"",""0"",""3966""
""blur"",""84"",""496075""
""focus"",""84"",""496340""
","""event"",""trial"",""time""
""blur"",""84"",""496075""
","""event"",""trial"",""time""
""focus"",""84"",""496340""
","""event"",""trial"",""time""
""fullscreenenter"",""0"",""3966""
","
",567.1,,,,,,,,51,"1,0,0",1,mountain,36,probe-208,0.654968723,0.283226108,0.198371492,0,,,,,,,,
,html-keyboard-response,165,773301,0.0-92.0-1.0,"""event"",""trial"",""time""
""fullscreenenter"",""0"",""3966""
""blur"",""84"",""496075""
""focus"",""84"",""496340""
","""event"",""trial"",""time""
""blur"",""84"",""496075""
","""event"",""trial"",""time""
""focus"",""84"",""496340""
","""event"",""trial"",""time""
""fullscreenenter"",""0"",""3966""
","
",null,<p></p>,null,,,,,,,,,,,,,,,,,,,,,,,
,do_trial,166,777888,0.0-93.0-0.0,"""event"",""trial"",""time""
""fullscreenenter"",""0"",""3966""
""blur"",""84"",""496075""
""focus"",""84"",""496340""
","""event"",""trial"",""time""
""blur"",""84"",""496075""
","""event"",""trial"",""time""
""focus"",""84"",""496340""
","""event"",""trial"",""time""
""fullscreenenter"",""0"",""3966""
","
",13.9,,,,,,,,50,"1,1,0",1,mountain,37,probe-135,0.701904322,0.385793936,0.265958462,1,,,,,,,,
,html-keyboard-response,167,778901,0.0-93.0-1.0,"""event"",""trial"",""time""
""fullscreenenter"",""0"",""3966""
""blur"",""84"",""496075""
""focus"",""84"",""496340""
","""event"",""trial"",""time""
""blur"",""84"",""496075""
","""event"",""trial"",""time""
""focus"",""84"",""496340""
","""event"",""trial"",""time""
""fullscreenenter"",""0"",""3966""
","
",null,<p></p>,null,,,,,,,,,,,,,,,,,,,,,,,
,do_trial,168,784285,0.0-94.0-0.0,"""event"",""trial"",""time""
""fullscreenenter"",""0"",""3966""
""blur"",""84"",""496075""
""focus"",""84"",""496340""
","""event"",""trial"",""time""
""blur"",""84"",""496075""
","""event"",""trial"",""time""
""focus"",""84"",""496340""
","""event"",""trial"",""time""
""fullscreenenter"",""0"",""3966""
","
",823.2,,,,,,,,49,"0,0,0",1,mountain,38,probe-226,0.67993965,0.426904065,0.237026181,0,,,,,,,,
,html-keyboard-response,169,785300,0.0-94.0-1.0,"""event"",""trial"",""time""
""fullscreenenter"",""0"",""3966""
""blur"",""84"",""496075""
""focus"",""84"",""496340""
","""event"",""trial"",""time""
""blur"",""84"",""496075""
","""event"",""trial"",""time""
""focus"",""84"",""496340""
","""event"",""trial"",""time""
""fullscreenenter"",""0"",""3966""
","
",null,<p></p>,null,,,,,,,,,,,,,,,,,,,,,,,
,do_trial,170,790180,0.0-95.0-0.0,"""event"",""trial"",""time""
""fullscreenenter"",""0"",""3966""
""blur"",""84"",""496075""
""focus"",""84"",""496340""
","""event"",""trial"",""time""
""blur"",""84"",""496075""
","""event"",""trial"",""time""
""focus"",""84"",""496340""
","""event"",""trial"",""time""
""fullscreenenter"",""0"",""3966""
","
",296.8,,,,,,,,50,"1,1,0",1,mountain,39,probe-145,0.657074138,0.2769151,0.105512123,1,,,,,,,,
,html-keyboard-response,171,791190,0.0-95.0-1.0,"""event"",""trial"",""time""
""fullscreenenter"",""0"",""3966""
""blur"",""84"",""496075""
""focus"",""84"",""496340""
","""event"",""trial"",""time""
""blur"",""84"",""496075""
","""event"",""trial"",""time""
""focus"",""84"",""496340""
","""event"",""trial"",""time""
""fullscreenenter"",""0"",""3966""
","
",null,<p></p>,null,,,,,,,,,,,,,,,,,,,,,,,
,do_trial,172,796168,0.0-96.0-0.0,"""event"",""trial"",""time""
""fullscreenenter"",""0"",""3966""
""blur"",""84"",""496075""
""focus"",""84"",""496340""
","""event"",""trial"",""time""
""blur"",""84"",""496075""
","""event"",""trial"",""time""
""focus"",""84"",""496340""
","""event"",""trial"",""time""
""fullscreenenter"",""0"",""3966""
","
",413.7,,,,,,,,51,"0,1,0",1,mountain,40,probe-88,0.683790722,0.415078477,0.143840976,0,,,,,,,,
,html-keyboard-response,173,797181,0.0-96.0-1.0,"""event"",""trial"",""time""
""fullscreenenter"",""0"",""3966""
""blur"",""84"",""496075""
""focus"",""84"",""496340""
","""event"",""trial"",""time""
""blur"",""84"",""496075""
","""event"",""trial"",""time""
""focus"",""84"",""496340""
","""event"",""trial"",""time""
""fullscreenenter"",""0"",""3966""
","
",null,<p></p>,null,,,,,,,,,,,,,,,,,,,,,,,
,do_trial,174,802131,0.0-97.0-0.0,"""event"",""trial"",""time""
""fullscreenenter"",""0"",""3966""
""blur"",""84"",""496075""
""focus"",""84"",""496340""
","""event"",""trial"",""time""
""blur"",""84"",""496075""
","""event"",""trial"",""time""
""focus"",""84"",""496340""
","""event"",""trial"",""time""
""fullscreenenter"",""0"",""3966""
","
",378.8,,,,,,,,50,"0,1,0",1,mountain,41,probe-12,0.743349964,0.48204677,0.100509494,1,,,,,,,,
,html-keyboard-response,175,803141,0.0-97.0-1.0,"""event"",""trial"",""time""
""fullscreenenter"",""0"",""3966""
""blur"",""84"",""496075""
""focus"",""84"",""496340""
","""event"",""trial"",""time""
""blur"",""84"",""496075""
","""event"",""trial"",""time""
""focus"",""84"",""496340""
","""event"",""trial"",""time""
""fullscreenenter"",""0"",""3966""
","
",null,<p></p>,null,,,,,,,,,,,,,,,,,,,,,,,
,do_trial,176,807965,0.0-98.0-0.0,"""event"",""trial"",""time""
""fullscreenenter"",""0"",""3966""
""blur"",""84"",""496075""
""focus"",""84"",""496340""
","""event"",""trial"",""time""
""blur"",""84"",""496075""
","""event"",""trial"",""time""
""focus"",""84"",""496340""
","""event"",""trial"",""time""
""fullscreenenter"",""0"",""3966""
","
",245.5,,,,,,,,49,"0,1,0",1,mountain,42,probe-105,0.484780416,0.448365774,0.322387697,0,,,,,,,,
,html-keyboard-response,177,808977,0.0-98.0-1.0,"""event"",""trial"",""time""
""fullscreenenter"",""0"",""3966""
""blur"",""84"",""496075""
""focus"",""84"",""496340""
","""event"",""trial"",""time""
""blur"",""84"",""496075""
","""event"",""trial"",""time""
""focus"",""84"",""496340""
","""event"",""trial"",""time""
""fullscreenenter"",""0"",""3966""
","
",null,<p></p>,null,,,,,,,,,,,,,,,,,,,,,,,
,do_trial,178,814158,0.0-99.0-0.0,"""event"",""trial"",""time""
""fullscreenenter"",""0"",""3966""
""blur"",""84"",""496075""
""focus"",""84"",""496340""
","""event"",""trial"",""time""
""blur"",""84"",""496075""
","""event"",""trial"",""time""
""focus"",""84"",""496340""
","""event"",""trial"",""time""
""fullscreenenter"",""0"",""3966""
","
",609.1,,,,,,,,50,"0,1,1",1,mountain,43,probe-78,0.356573833,0.436000115,0.508812072,1,,,,,,,,
,html-keyboard-response,179,815174,0.0-99.0-1.0,"""event"",""trial"",""time""
""fullscreenenter"",""0"",""3966""
""blur"",""84"",""496075""
""focus"",""84"",""496340""
","""event"",""trial"",""time""
""blur"",""84"",""496075""
","""event"",""trial"",""time""
""focus"",""84"",""496340""
","""event"",""trial"",""time""
""fullscreenenter"",""0"",""3966""
","
",null,<p></p>,null,,,,,,,,,,,,,,,,,,,,,,,
,do_trial,180,820384,0.0-100.0-0.0,"""event"",""trial"",""time""
""fullscreenenter"",""0"",""3966""
""blur"",""84"",""496075""
""focus"",""84"",""496340""
","""event"",""trial"",""time""
""blur"",""84"",""496075""
","""event"",""trial"",""time""
""focus"",""84"",""496340""
","""event"",""trial"",""time""
""fullscreenenter"",""0"",""3966""
","
",636.2,,,,,,,,51,"1,1,0",1,mountain,44,probe-107,0.253195775,0.409236171,0.563376568,0,,,,,,,,
,html-keyboard-response,181,821398,0.0-100.0-1.0,"""event"",""trial"",""time""
""fullscreenenter"",""0"",""3966""
""blur"",""84"",""496075""
""focus"",""84"",""496340""
","""event"",""trial"",""time""
""blur"",""84"",""496075""
","""event"",""trial"",""time""
""focus"",""84"",""496340""
","""event"",""trial"",""time""
""fullscreenenter"",""0"",""3966""
","
",null,<p></p>,null,,,,,,,,,,,,,,,,,,,,,,,
,do_trial,182,826305,0.0-101.0-0.0,"""event"",""trial"",""time""
""fullscreenenter"",""0"",""3966""
""blur"",""84"",""496075""
""focus"",""84"",""496340""
","""event"",""trial"",""time""
""blur"",""84"",""496075""
","""event"",""trial"",""time""
""focus"",""84"",""496340""
","""event"",""trial"",""time""
""fullscreenenter"",""0"",""3966""
","
",329.2,,,,,,,,50,"0,0,1",1,mountain,45,probe-30,0.210190506,0.359193895,0.724766862,0,,,,,,,,
,html-keyboard-response,183,827316,0.0-101.0-1.0,"""event"",""trial"",""time""
""fullscreenenter"",""0"",""3966""
""blur"",""84"",""496075""
""focus"",""84"",""496340""
","""event"",""trial"",""time""
""blur"",""84"",""496075""
","""event"",""trial"",""time""
""focus"",""84"",""496340""
","""event"",""trial"",""time""
""fullscreenenter"",""0"",""3966""
","
",null,<p></p>,null,,,,,,,,,,,,,,,,,,,,,,,
,do_trial,184,831941,0.0-102.0-0.0,"""event"",""trial"",""time""
""fullscreenenter"",""0"",""3966""
""blur"",""84"",""496075""
""focus"",""84"",""496340""
","""event"",""trial"",""time""
""blur"",""84"",""496075""
","""event"",""trial"",""time""
""focus"",""84"",""496340""
","""event"",""trial"",""time""
""fullscreenenter"",""0"",""3966""
","
",58.2,,,,,,,,49,"0,1,1",1,mountain,46,probe-115,0.255791724,0.42181815,0.587260981,0,,,,,,,,
,html-keyboard-response,185,832950,0.0-102.0-1.0,"""event"",""trial"",""time""
""fullscreenenter"",""0"",""3966""
""blur"",""84"",""496075""
""focus"",""84"",""496340""
","""event"",""trial"",""time""
""blur"",""84"",""496075""
","""event"",""trial"",""time""
""focus"",""84"",""496340""
","""event"",""trial"",""time""
""fullscreenenter"",""0"",""3966""
","
",null,<p></p>,null,,,,,,,,,,,,,,,,,,,,,,,
,do_trial,186,837656,0.0-103.0-0.0,"""event"",""trial"",""time""
""fullscreenenter"",""0"",""3966""
""blur"",""84"",""496075""
""focus"",""84"",""496340""
","""event"",""trial"",""time""
""blur"",""84"",""496075""
","""event"",""trial"",""time""
""focus"",""84"",""496340""
","""event"",""trial"",""time""
""fullscreenenter"",""0"",""3966""
","
",140.4,,,,,,,,51,"1,0,1",1,mountain,47,probe-69,0.29392857,0.388559082,0.67391378,1,,,,,,,,
,html-keyboard-response,187,838672,0.0-103.0-1.0,"""event"",""trial"",""time""
""fullscreenenter"",""0"",""3966""
""blur"",""84"",""496075""
""focus"",""84"",""496340""
","""event"",""trial"",""time""
""blur"",""84"",""496075""
","""event"",""trial"",""time""
""focus"",""84"",""496340""
","""event"",""trial"",""time""
""fullscreenenter"",""0"",""3966""
","
",null,<p></p>,null,,,,,,,,,,,,,,,,,,,,,,,
,do_trial,188,843561,0.0-104.0-0.0,"""event"",""trial"",""time""
""fullscreenenter"",""0"",""3966""
""blur"",""84"",""496075""
""focus"",""84"",""496340""
","""event"",""trial"",""time""
""blur"",""84"",""496075""
","""event"",""trial"",""time""
""focus"",""84"",""496340""
","""event"",""trial"",""time""
""fullscreenenter"",""0"",""3966""
","
",315.5,,,,,,,,51,"1,0,1",1,mountain,48,probe-60,0.343823076,0.421549065,0.738317959,1,,,,,,,,
,html-keyboard-response,189,844574,0.0-104.0-1.0,"""event"",""trial"",""time""
""fullscreenenter"",""0"",""3966""
""blur"",""84"",""496075""
""focus"",""84"",""496340""
","""event"",""trial"",""time""
""blur"",""84"",""496075""
","""event"",""trial"",""time""
""focus"",""84"",""496340""
","""event"",""trial"",""time""
""fullscreenenter"",""0"",""3966""
","
",null,<p></p>,null,,,,,,,,,,,,,,,,,,,,,,,
,do_trial,190,849900,0.0-105.0-0.0,"""event"",""trial"",""time""
""fullscreenenter"",""0"",""3966""
""blur"",""84"",""496075""
""focus"",""84"",""496340""
","""event"",""trial"",""time""
""blur"",""84"",""496075""
","""event"",""trial"",""time""
""focus"",""84"",""496340""
","""event"",""trial"",""time""
""fullscreenenter"",""0"",""3966""
","
",753.5,,,,,,,,49,"0,1,0",1,mountain,49,probe-117,0.19127802,0.362476712,0.638639593,0,,,,,,,,
,html-keyboard-response,191,850911,0.0-105.0-1.0,"""event"",""trial"",""time""
""fullscreenenter"",""0"",""3966""
""blur"",""84"",""496075""
""focus"",""84"",""496340""
","""event"",""trial"",""time""
""blur"",""84"",""496075""
","""event"",""trial"",""time""
""focus"",""84"",""496340""
","""event"",""trial"",""time""
""fullscreenenter"",""0"",""3966""
","
",null,<p></p>,null,,,,,,,,,,,,,,,,,,,,,,,
,do_trial,192,856045,0.0-106.0-0.0,"""event"",""trial"",""time""
""fullscreenenter"",""0"",""3966""
""blur"",""84"",""496075""
""focus"",""84"",""496340""
","""event"",""trial"",""time""
""blur"",""84"",""496075""
","""event"",""trial"",""time""
""focus"",""84"",""496340""
","""event"",""trial"",""time""
""fullscreenenter"",""0"",""3966""
","
",540.5,,,,,,,,50,"0,0,0",1,mountain,50,probe-71,0.133268991,0.334176805,0.630508188,0,,,,,,,,
,html-keyboard-response,193,857053,0.0-106.0-1.0,"""event"",""trial"",""time""
""fullscreenenter"",""0"",""3966""
""blur"",""84"",""496075""
""focus"",""84"",""496340""
","""event"",""trial"",""time""
""blur"",""84"",""496075""
","""event"",""trial"",""time""
""focus"",""84"",""496340""
","""event"",""trial"",""time""
""fullscreenenter"",""0"",""3966""
","
",null,<p></p>,null,,,,,,,,,,,,,,,,,,,,,,,
,do_trial,194,862631,0.0-107.0-0.0,"""event"",""trial"",""time""
""fullscreenenter"",""0"",""3966""
""blur"",""84"",""496075""
""focus"",""84"",""496340""
","""event"",""trial"",""time""
""blur"",""84"",""496075""
","""event"",""trial"",""time""
""focus"",""84"",""496340""
","""event"",""trial"",""time""
""fullscreenenter"",""0"",""3966""
","
",991.1,,,,,,,,51,"0,0,0",1,mountain,51,probe-81,0.14883473,0.334339001,0.72834471,0,,,,,,,,
,html-keyboard-response,195,863644,0.0-107.0-1.0,"""event"",""trial"",""time""
""fullscreenenter"",""0"",""3966""
""blur"",""84"",""496075""
""focus"",""84"",""496340""
","""event"",""trial"",""time""
""blur"",""84"",""496075""
","""event"",""trial"",""time""
""focus"",""84"",""496340""
","""event"",""trial"",""time""
""fullscreenenter"",""0"",""3966""
","
",null,<p></p>,null,,,,,,,,,,,,,,,,,,,,,,,
,do_trial,196,868602,0.0-108.0-0.0,"""event"",""trial"",""time""
""fullscreenenter"",""0"",""3966""
""blur"",""84"",""496075""
""focus"",""84"",""496340""
","""event"",""trial"",""time""
""blur"",""84"",""496075""
","""event"",""trial"",""time""
""focus"",""84"",""496340""
","""event"",""trial"",""time""
""fullscreenenter"",""0"",""3966""
","
",391.1,,,,,,,,50,"0,0,0",1,mountain,52,probe-224,0.072192679,0.320900663,0.767118413,0,,,,,,,,
,html-keyboard-response,197,869610,0.0-108.0-1.0,"""event"",""trial"",""time""
""fullscreenenter"",""0"",""3966""
""blur"",""84"",""496075""
""focus"",""84"",""496340""
","""event"",""trial"",""time""
""blur"",""84"",""496075""
","""event"",""trial"",""time""
""focus"",""84"",""496340""
","""event"",""trial"",""time""
""fullscreenenter"",""0"",""3966""
","
",null,<p></p>,null,,,,,,,,,,,,,,,,,,,,,,,
,do_trial,198,874219,0.0-109.0-0.0,"""event"",""trial"",""time""
""fullscreenenter"",""0"",""3966""
""blur"",""84"",""496075""
""focus"",""84"",""496340""
","""event"",""trial"",""time""
""blur"",""84"",""496075""
","""event"",""trial"",""time""
""focus"",""84"",""496340""
","""event"",""trial"",""time""
""fullscreenenter"",""0"",""3966""
","
",47.5,,,,,,,,49,"0,0,1",1,mountain,53,probe-160,0.14188538,0.188320059,0.809856778,0,,,,,,,,
,html-keyboard-response,199,875231,0.0-109.0-1.0,"""event"",""trial"",""time""
""fullscreenenter"",""0"",""3966""
""blur"",""84"",""496075""
""focus"",""84"",""496340""
","""event"",""trial"",""time""
""blur"",""84"",""496075""
","""event"",""trial"",""time""
""focus"",""84"",""496340""
","""event"",""trial"",""time""
""fullscreenenter"",""0"",""3966""
","
",null,<p></p>,null,,,,,,,,,,,,,,,,,,,,,,,
,do_trial,200,880410,0.0-110.0-0.0,"""event"",""trial"",""time""
""fullscreenenter"",""0"",""3966""
""blur"",""84"",""496075""
""focus"",""84"",""496340""
","""event"",""trial"",""time""
""blur"",""84"",""496075""
","""event"",""trial"",""time""
""focus"",""84"",""496340""
","""event"",""trial"",""time""
""fullscreenenter"",""0"",""3966""
","
",592.8,,,,,,,,51,"0,0,0",1,mountain,54,probe-158,0.229264448,0.223223179,0.614282391,0,,,,,,,,
,html-keyboard-response,201,881424,0.0-110.0-1.0,"""event"",""trial"",""time""
""fullscreenenter"",""0"",""3966""
""blur"",""84"",""496075""
""focus"",""84"",""496340""
","""event"",""trial"",""time""
""blur"",""84"",""496075""
","""event"",""trial"",""time""
""focus"",""84"",""496340""
","""event"",""trial"",""time""
""fullscreenenter"",""0"",""3966""
","
",null,<p></p>,null,,,,,,,,,,,,,,,,,,,,,,,
,do_trial,202,886550,0.0-111.0-0.0,"""event"",""trial"",""time""
""fullscreenenter"",""0"",""3966""
""blur"",""84"",""496075""
""focus"",""84"",""496340""
","""event"",""trial"",""time""
""blur"",""84"",""496075""
","""event"",""trial"",""time""
""focus"",""84"",""496340""
","""event"",""trial"",""time""
""fullscreenenter"",""0"",""3966""
","
",553.7,,,,,,,,50,"1,0,1",1,mountain,55,probe-133,0.235721984,0.231983241,0.654615544,0,,,,,,,,
,html-keyboard-response,203,887561,0.0-111.0-1.0,"""event"",""trial"",""time""
""fullscreenenter"",""0"",""3966""
""blur"",""84"",""496075""
""focus"",""84"",""496340""
","""event"",""trial"",""time""
""blur"",""84"",""496075""
","""event"",""trial"",""time""
""focus"",""84"",""496340""
","""event"",""trial"",""time""
""fullscreenenter"",""0"",""3966""
","
",null,<p></p>,null,,,,,,,,,,,,,,,,,,,,,,,
,do_trial,204,892607,0.0-112.0-0.0,"""event"",""trial"",""time""
""fullscreenenter"",""0"",""3966""
""blur"",""84"",""496075""
""focus"",""84"",""496340""
","""event"",""trial"",""time""
""blur"",""84"",""496075""
","""event"",""trial"",""time""
""focus"",""84"",""496340""
","""event"",""trial"",""time""
""fullscreenenter"",""0"",""3966""
","
",457.7,,,,,,,,49,"0,0,0",1,mountain,56,probe-49,0.22662095,0.284085973,0.690991283,0,,,,,,,,
,html-keyboard-response,205,893621,0.0-112.0-1.0,"""event"",""trial"",""time""
""fullscreenenter"",""0"",""3966""
""blur"",""84"",""496075""
""focus"",""84"",""496340""
","""event"",""trial"",""time""
""blur"",""84"",""496075""
","""event"",""trial"",""time""
""focus"",""84"",""496340""
","""event"",""trial"",""time""
""fullscreenenter"",""0"",""3966""
","
",null,<p></p>,null,,,,,,,,,,,,,,,,,,,,,,,
,do_trial,206,899718,0.0-113.0-0.0,"""event"",""trial"",""time""
""fullscreenenter"",""0"",""3966""
""blur"",""84"",""496075""
""focus"",""84"",""496340""
","""event"",""trial"",""time""
""blur"",""84"",""496075""
","""event"",""trial"",""time""
""focus"",""84"",""496340""
","""event"",""trial"",""time""
""fullscreenenter"",""0"",""3966""
","
",null,,,,,,,,null,"1,0,0",1,mountain,57,probe-127,0.265774165,0.367731106,0.753262892,,,,,,,,,
,html-keyboard-response,207,900731,0.0-113.0-1.0,"""event"",""trial"",""time""
""fullscreenenter"",""0"",""3966""
""blur"",""84"",""496075""
""focus"",""84"",""496340""
","""event"",""trial"",""time""
""blur"",""84"",""496075""
","""event"",""trial"",""time""
""focus"",""84"",""496340""
","""event"",""trial"",""time""
""fullscreenenter"",""0"",""3966""
","
",null,<p></p>,null,,,,,,,,,,,,,,,,,,,,,,,
,do_trial,208,905924,0.0-114.0-0.0,"""event"",""trial"",""time""
""fullscreenenter"",""0"",""3966""
""blur"",""84"",""496075""
""focus"",""84"",""496340""
","""event"",""trial"",""time""
""blur"",""84"",""496075""
","""event"",""trial"",""time""
""focus"",""84"",""496340""
","""event"",""trial"",""time""
""fullscreenenter"",""0"",""3966""
","
",617.3,,,,,,,,51,"0,0,1",1,mountain,58,probe-52,0.062484793,0.433931376,0.631688511,1,,,,,,,,
,html-keyboard-response,209,906936,0.0-114.0-1.0,"""event"",""trial"",""time""
""fullscreenenter"",""0"",""3966""
""blur"",""84"",""496075""
""focus"",""84"",""496340""
","""event"",""trial"",""time""
""blur"",""84"",""496075""
","""event"",""trial"",""time""
""focus"",""84"",""496340""
","""event"",""trial"",""time""
""fullscreenenter"",""0"",""3966""
","
",null,<p></p>,null,,,,,,,,,,,,,,,,,,,,,,,
,do_trial,210,911752,0.0-115.0-0.0,"""event"",""trial"",""time""
""fullscreenenter"",""0"",""3966""
""blur"",""84"",""496075""
""focus"",""84"",""496340""
","""event"",""trial"",""time""
""blur"",""84"",""496075""
","""event"",""trial"",""time""
""focus"",""84"",""496340""
","""event"",""trial"",""time""
""fullscreenenter"",""0"",""3966""
","
",251.6,,,,,,,,50,"0,0,0",1,mountain,59,probe-45,0.062513758,0.256134235,0.604404171,0,,,,,,,,
,html-keyboard-response,211,912761,0.0-115.0-1.0,"""event"",""trial"",""time""
""fullscreenenter"",""0"",""3966""
""blur"",""84"",""496075""
""focus"",""84"",""496340""
","""event"",""trial"",""time""
""blur"",""84"",""496075""
","""event"",""trial"",""time""
""focus"",""84"",""496340""
","""event"",""trial"",""time""
""fullscreenenter"",""0"",""3966""
","
",null,<p></p>,null,,,,,,,,,,,,,,,,,,,,,,,
,do_trial,212,917636,0.0-116.0-0.0,"""event"",""trial"",""time""
""fullscreenenter"",""0"",""3966""
""blur"",""84"",""496075""
""focus"",""84"",""496340""
","""event"",""trial"",""time""
""blur"",""84"",""496075""
","""event"",""trial"",""time""
""focus"",""84"",""496340""
","""event"",""trial"",""time""
""fullscreenenter"",""0"",""3966""
","
",293.1,,,,,,,,49,"0,0,0",1,mountain,60,probe-80,0.08563481,0.20211717,0.635247539,0,,,,,,,,
,html-keyboard-response,213,918651,0.0-116.0-1.0,"""event"",""trial"",""time""
""fullscreenenter"",""0"",""3966""
""blur"",""84"",""496075""
""focus"",""84"",""496340""
","""event"",""trial"",""time""
""blur"",""84"",""496075""
","""event"",""trial"",""time""
""focus"",""84"",""496340""
","""event"",""trial"",""time""
""fullscreenenter"",""0"",""3966""
","
",null,<p></p>,null,,,,,,,,,,,,,,,,,,,,,,,
,do_trial,214,923731,0.0-117.0-0.0,"""event"",""trial"",""time""
""fullscreenenter"",""0"",""3966""
""blur"",""84"",""496075""
""focus"",""84"",""496340""
","""event"",""trial"",""time""
""blur"",""84"",""496075""
","""event"",""trial"",""time""
""focus"",""84"",""496340""
","""event"",""trial"",""time""
""fullscreenenter"",""0"",""3966""
","
",501,,,,,,,,51,"0,0,1",1,mountain,61,probe-218,0.055962312,0.214425515,0.518695452,1,,,,,,,,
,html-keyboard-response,215,924737,0.0-117.0-1.0,"""event"",""trial"",""time""
""fullscreenenter"",""0"",""3966""
""blur"",""84"",""496075""
""focus"",""84"",""496340""
","""event"",""trial"",""time""
""blur"",""84"",""496075""
","""event"",""trial"",""time""
""focus"",""84"",""496340""
","""event"",""trial"",""time""
""fullscreenenter"",""0"",""3966""
","
",null,<p></p>,null,,,,,,,,,,,,,,,,,,,,,,,
,do_trial,216,929857,0.0-118.0-0.0,"""event"",""trial"",""time""
""fullscreenenter"",""0"",""3966""
""blur"",""84"",""496075""
""focus"",""84"",""496340""
","""event"",""trial"",""time""
""blur"",""84"",""496075""
","""event"",""trial"",""time""
""focus"",""84"",""496340""
","""event"",""trial"",""time""
""fullscreenenter"",""0"",""3966""
","
",538.7,,,,,,,,50,"0,1,1",1,mountain,62,probe-51,0.131973161,0.416448695,0.415971294,1,,,,,,,,
,html-keyboard-response,217,930865,0.0-118.0-1.0,"""event"",""trial"",""time""
""fullscreenenter"",""0"",""3966""
""blur"",""84"",""496075""
""focus"",""84"",""496340""
","""event"",""trial"",""time""
""blur"",""84"",""496075""
","""event"",""trial"",""time""
""focus"",""84"",""496340""
","""event"",""trial"",""time""
""fullscreenenter"",""0"",""3966""
","
",null,<p></p>,null,,,,,,,,,,,,,,,,,,,,,,,
,do_trial,218,935583,0.0-119.0-0.0,"""event"",""trial"",""time""
""fullscreenenter"",""0"",""3966""
""blur"",""84"",""496075""
""focus"",""84"",""496340""
","""event"",""trial"",""time""
""blur"",""84"",""496075""
","""event"",""trial"",""time""
""focus"",""84"",""496340""
","""event"",""trial"",""time""
""fullscreenenter"",""0"",""3966""
","
",151.5,,,,,,,,49,"0,1,0",1,mountain,63,probe-62,0.194935731,0.322682842,0.430452738,0,,,,,,,,
,html-keyboard-response,219,936595,0.0-119.0-1.0,"""event"",""trial"",""time""
""fullscreenenter"",""0"",""3966""
""blur"",""84"",""496075""
""focus"",""84"",""496340""
","""event"",""trial"",""time""
""blur"",""84"",""496075""
","""event"",""trial"",""time""
""focus"",""84"",""496340""
","""event"",""trial"",""time""
""fullscreenenter"",""0"",""3966""
","
",null,<p></p>,null,,,,,,,,,,,,,,,,,,,,,,,
,do_trial,220,941739,0.0-120.0-0.0,"""event"",""trial"",""time""
""fullscreenenter"",""0"",""3966""
""blur"",""84"",""496075""
""focus"",""84"",""496340""
","""event"",""trial"",""time""
""blur"",""84"",""496075""
","""event"",""trial"",""time""
""focus"",""84"",""496340""
","""event"",""trial"",""time""
""fullscreenenter"",""0"",""3966""
","
",529.7,,,,,,,,50,"0,0,1",1,mountain,64,probe-134,0.070166262,0.289047916,0.514346832,0,,,,,,,,
,html-keyboard-response,221,942750,0.0-120.0-1.0,"""event"",""trial"",""time""
""fullscreenenter"",""0"",""3966""
""blur"",""84"",""496075""
""focus"",""84"",""496340""
","""event"",""trial"",""time""
""blur"",""84"",""496075""
","""event"",""trial"",""time""
""focus"",""84"",""496340""
","""event"",""trial"",""time""
""fullscreenenter"",""0"",""3966""
","
",null,<p></p>,null,,,,,,,,,,,,,,,,,,,,,,,
,do_trial,222,947665,0.0-121.0-0.0,"""event"",""trial"",""time""
""fullscreenenter"",""0"",""3966""
""blur"",""84"",""496075""
""focus"",""84"",""496340""
","""event"",""trial"",""time""
""blur"",""84"",""496075""
","""event"",""trial"",""time""
""focus"",""84"",""496340""
","""event"",""trial"",""time""
""fullscreenenter"",""0"",""3966""
","
",342.4,,,,,,,,51,"1,0,1",1,mountain,65,probe-151,0.239257305,0.197078077,0.568070042,1,,,,,,,,
,html-keyboard-response,223,948683,0.0-121.0-1.0,"""event"",""trial"",""time""
""fullscreenenter"",""0"",""3966""
""blur"",""84"",""496075""
""focus"",""84"",""496340""
","""event"",""trial"",""time""
""blur"",""84"",""496075""
","""event"",""trial"",""time""
""focus"",""84"",""496340""
","""event"",""trial"",""time""
""fullscreenenter"",""0"",""3966""
","
",null,<p></p>,null,,,,,,,,,,,,,,,,,,,,,,,
,do_trial,224,954004,0.0-122.0-0.0,"""event"",""trial"",""time""
""fullscreenenter"",""0"",""3966""
""blur"",""84"",""496075""
""focus"",""84"",""496340""
","""event"",""trial"",""time""
""blur"",""84"",""496075""
","""event"",""trial"",""time""
""focus"",""84"",""496340""
","""event"",""trial"",""time""
""fullscreenenter"",""0"",""3966""
","
",744.9,,,,,,,,49,"0,1,1",1,mountain,66,probe-83,0.158813264,0.314177074,0.649531252,0,,,,,,,,
,html-keyboard-response,225,955016,0.0-122.0-1.0,"""event"",""trial"",""time""
""fullscreenenter"",""0"",""3966""
""blur"",""84"",""496075""
""focus"",""84"",""496340""
","""event"",""trial"",""time""
""blur"",""84"",""496075""
","""event"",""trial"",""time""
""focus"",""84"",""496340""
","""event"",""trial"",""time""
""fullscreenenter"",""0"",""3966""
","
",null,<p></p>,null,,,,,,,,,,,,,,,,,,,,,,,
,do_trial,226,960003,0.0-123.0-0.0,"""event"",""trial"",""time""
""fullscreenenter"",""0"",""3966""
""blur"",""84"",""496075""
""focus"",""84"",""496340""
","""event"",""trial"",""time""
""blur"",""84"",""496075""
","""event"",""trial"",""time""
""focus"",""84"",""496340""
","""event"",""trial"",""time""
""fullscreenenter"",""0"",""3966""
","
",415,,,,,,,,50,"0,0,1",1,mountain,67,probe-57,0.067436255,0.301155147,0.65801743,0,,,,,,,,
,html-keyboard-response,227,961016,0.0-123.0-1.0,"""event"",""trial"",""time""
""fullscreenenter"",""0"",""3966""
""blur"",""84"",""496075""
""focus"",""84"",""496340""
","""event"",""trial"",""time""
""blur"",""84"",""496075""
","""event"",""trial"",""time""
""focus"",""84"",""496340""
","""event"",""trial"",""time""
""fullscreenenter"",""0"",""3966""
","
",null,<p></p>,null,,,,,,,,,,,,,,,,,,,,,,,
,do_trial,228,966985,0.0-124.0-0.0,"""event"",""trial"",""time""
""fullscreenenter"",""0"",""3966""
""blur"",""84"",""496075""
""focus"",""84"",""496340""
","""event"",""trial"",""time""
""blur"",""84"",""496075""
","""event"",""trial"",""time""
""focus"",""84"",""496340""
","""event"",""trial"",""time""
""fullscreenenter"",""0"",""3966""
","
",1399.6,,,,,,,,51,"0,1,1",1,mountain,68,probe-128,0.092086038,0.223876792,0.695473736,1,,,,,,,,
,html-keyboard-response,229,967999,0.0-124.0-1.0,"""event"",""trial"",""time""
""fullscreenenter"",""0"",""3966""
""blur"",""84"",""496075""
""focus"",""84"",""496340""
","""event"",""trial"",""time""
""blur"",""84"",""496075""
","""event"",""trial"",""time""
""focus"",""84"",""496340""
","""event"",""trial"",""time""
""fullscreenenter"",""0"",""3966""
","
",null,<p></p>,null,,,,,,,,,,,,,,,,,,,,,,,
,do_trial,230,973065,0.0-125.0-0.0,"""event"",""trial"",""time""
""fullscreenenter"",""0"",""3966""
""blur"",""84"",""496075""
""focus"",""84"",""496340""
","""event"",""trial"",""time""
""blur"",""84"",""496075""
","""event"",""trial"",""time""
""focus"",""84"",""496340""
","""event"",""trial"",""time""
""fullscreenenter"",""0"",""3966""
","
",485.3,,,,,,,,50,"0,0,0",1,mountain,69,probe-124,0.088916124,0.335682863,0.595165046,0,,,,,,,,
,html-keyboard-response,231,974072,0.0-125.0-1.0,"""event"",""trial"",""time""
""fullscreenenter"",""0"",""3966""
""blur"",""84"",""496075""
""focus"",""84"",""496340""
","""event"",""trial"",""time""
""blur"",""84"",""496075""
","""event"",""trial"",""time""
""focus"",""84"",""496340""
","""event"",""trial"",""time""
""fullscreenenter"",""0"",""3966""
","
",null,<p></p>,null,,,,,,,,,,,,,,,,,,,,,,,
,do_bye,232,975588,0.0-126.0-0.0,"""event"",""trial"",""time""
""fullscreenenter"",""0"",""3966""
""blur"",""84"",""496075""
""focus"",""84"",""496340""
","""event"",""trial"",""time""
""blur"",""84"",""496075""
","""event"",""trial"",""time""
""focus"",""84"",""496340""
","""event"",""trial"",""time""
""fullscreenenter"",""0"",""3966""
","
",null,,,,,,,,null,,,,,,,,,,,,,,,,,
,break,233,978184,0.0-126.0-1.0,"""event"",""trial"",""time""
""fullscreenenter"",""0"",""3966""
""blur"",""84"",""496075""
""focus"",""84"",""496340""
","""event"",""trial"",""time""
""blur"",""84"",""496075""
","""event"",""trial"",""time""
""focus"",""84"",""496340""
","""event"",""trial"",""time""
""fullscreenenter"",""0"",""3966""
","
",2594.9,"<div class='center'><p>Time to take a quick break! You have 2 minutes to rest, but you can move on sooner if you'd like.</p><p> Press the <b>space bar</b> to continue.</p></div>",32,,,,,,,,,,,,,,,,,,,,,,,
,do_travel,234,987190,0.0-127.0-0.0,"""event"",""trial"",""time""
""fullscreenenter"",""0"",""3966""
""blur"",""84"",""496075""
""focus"",""84"",""496340""
","""event"",""trial"",""time""
""blur"",""84"",""496075""
","""event"",""trial"",""time""
""focus"",""84"",""496340""
","""event"",""trial"",""time""
""fullscreenenter"",""0"",""3966""
","
",null,,,,,,,,null,,,,,,,,,,,,,,,,,
,do_welcome,235,991211,0.0-127.0-1.0,"""event"",""trial"",""time""
""fullscreenenter"",""0"",""3966""
""blur"",""84"",""496075""
""focus"",""84"",""496340""
","""event"",""trial"",""time""
""blur"",""84"",""496075""
","""event"",""trial"",""time""
""focus"",""84"",""496340""
