"success","trial_type","trial_index","time_elapsed","internal_node_id","rt","stimulus","key_press","subject_id","response","choice_outcomes","context_n","context_img_id","trial_n","probe_img_id","pR_red","pR_white","pR_black","outcome","contextArray_ind","validImageProbes","invalidImageProbes","pRew_Red","pRew_White","pRew_Black","availableForMemProbe","choice_blocks"
"true","fullscreen","0","3334","0.0-0.0","","","","","","","","","","","","","","","","","","","","","",""
"","pavlovia","1","3344","0.0-1.0","","","","","","","","","","","","","","","","","","","","","",""
"","html-keyboard-response","2","17080","0.0-2.0","13733.100000000559","<div class='center'><p>Welcome! This is the first day of the experiment which will last ~30 minutes. In this experiment, you are the head captain of a pirate ship traveling around the world to different places. You will complete several different tasks during this experiment. Here is an overview of these tasks:</p><br><p>Day 1</p><p>1. Tutorial and quiz</p><p>2. Pick a pirate game in 6 different places</p><br><p>Day 2</p><p>3. Pick a pirate game and memory game</p><p>4. Final questions and payment</p><br><p>If you complete the entire experiment, you will receive $15 and a possible bonus payment.</p><p><b>[Press the space bar to begin the tutorial]</b></p></div>","32","60ff7ab8aaa4c9e19aebce0b","","","","","","","","","","","","","","","","","",""
"","html-keyboard-response","3","25347","0.0-3.0","8261.799999999814","<div class='center'><p>You’ll stop at these 6 islands on your journey. You'll be able to see them in the distance from your ship.</p><p><img src='run_exp/static/images/contexts/all_contexts.png' height='500'></p><p><b>[Press the space bar to continue]</b></p></div>","32","","","","","","","","","","","","","","","","","","",""
"","html-keyboard-response","4","31290","0.0-4.0","5941","<div class='center'><p> The pirates on your ship will rob other ships as they leave island</p> These ships have just sold their things to the people living on the island, so they will have lots and lots of gold on them.</p><p><img src='run_exp/static/images/tutorial/ship_center.png' height='400'></p><p><b>[Press the space bar to continue]</b></p></div>","32","","","","","","","","","","","","","","","","","","",""
"","html-keyboard-response","5","40415","0.0-5.0","9121.399999999441","<div class='center'><p>As the head captain, you do not have to rob any ships yourself.</p><p>Another pirate will be doing the robbing for you. </p><p><img src='run_exp/static/images/tutorial/pirates_all_crop.png' height='200'></p><p>If they could rob the ship, then you will get a stack of gold coins like this:</p><p><img src='run_exp/static/images/tutorial/reward.png' height='150'></p><p> If they couldn't rob the ship, then you will get no gold coins and you'll see a big red x like this: </p><p><img src='run_exp/static/images/tutorial/reward_no.png' height='150'></p><p> How much bonus money you make is based on how many gold coins you collect.</p><p><b>[Press the space bar to continue]</b></p><div>","32","","","","","","","","","","","","","","","","","","",""
"","html-keyboard-response","6","55144","0.0-6.0","14705.799999999814","<div class='center'><p>Even the most skilled pirate can not rob EVERY ship.</p><p> Some ships will have very strong defenses against pirate attacks.</p><p> For example, blue beard, here, is very, very good at robbing ships.</p><p> You can press the <b>‘1’</b> button on the keyboard to choose him.</p><p> Try choosing him 10 times to see how often he can rob a ship. </p><p><img src='run_exp/static/images/tutorial/blue.png' height='500'></p></div>","49","","","","","","","","","","","","","","","","","","",""
"","html-keyboard-response","7","56649","0.0-7.0","null","<div class='center'><p><img src='run_exp/static/images/tutorial/blue_win.png' height='500'></p></div>","null","","","","","","","","","","","","","","","","","","",""
"","html-keyboard-response","8","58804","0.0-8.0","2151.7999999998137","<div class='center'><img src='run_exp/static/images/tutorial/blue.png' height='500'></p></div>","49","","","","","","","","","","","","","","","","","","",""
"","html-keyboard-response","9","60309","0.0-9.0","null","<div class='center'><p><img src='run_exp/static/images/tutorial/blue_win.png' height='500'></p></div>","null","","","","","","","","","","","","","","","","","","",""
"","html-keyboard-response","10","60965","0.0-10.0","652.3999999994412","<div class='center'><img src='run_exp/static/images/tutorial/blue.png' height='500'></p></div>","49","","","","","","","","","","","","","","","","","","",""
"","html-keyboard-response","11","62468","0.0-11.0","null","<div class='center'><p><img src='run_exp/static/images/tutorial/blue_win.png' height='500'></p></div>","null","","","","","","","","","","","","","","","","","","",""
"","html-keyboard-response","12","62791","0.0-12.0","319.8999999994412","<div class='center'><img src='run_exp/static/images/tutorial/blue.png' height='500'></p></div>","49","","","","","","","","","","","","","","","","","","",""
"","html-keyboard-response","13","64296","0.0-13.0","null","<div class='center'><p><img src='run_exp/static/images/tutorial/blue_no_win.png' height='500'></p></div>","null","","","","","","","","","","","","","","","","","","",""
"","html-keyboard-response","14","64572","0.0-14.0","272.59999999962747","<div class='center'><img src='run_exp/static/images/tutorial/blue.png' height='500'></p></div>","49","","","","","","","","","","","","","","","","","","",""
"","html-keyboard-response","15","66076","0.0-15.0","null","<div class='center'><p><img src='run_exp/static/images/tutorial/blue_win.png' height='500'></p></div>","null","","","","","","","","","","","","","","","","","","",""
"","html-keyboard-response","16","66362","0.0-16.0","279.6000000005588","<div class='center'><img src='run_exp/static/images/tutorial/blue.png' height='500'></p></div>","49","","","","","","","","","","","","","","","","","","",""
"","html-keyboard-response","17","67865","0.0-17.0","null","<div class='center'><p><img src='run_exp/static/images/tutorial/blue_win.png' height='500'></p></div>","null","","","","","","","","","","","","","","","","","","",""
"","html-keyboard-response","18","68109","0.0-18.0","240.1000000005588","<div class='center'><img src='run_exp/static/images/tutorial/blue.png' height='500'></p></div>","49","","","","","","","","","","","","","","","","","","",""
"","html-keyboard-response","19","69614","0.0-19.0","null","<div class='center'><p><img src='run_exp/static/images/tutorial/blue_win.png' height='500'></p></div>","null","","","","","","","","","","","","","","","","","","",""
"","html-keyboard-response","20","69870","0.0-20.0","252.79999999981374","<div class='center'><img src='run_exp/static/images/tutorial/blue.png' height='500'></p></div>","49","","","","","","","","","","","","","","","","","","",""
"","html-keyboard-response","21","71372","0.0-21.0","null","<div class='center'><p><img src='run_exp/static/images/tutorial/blue_no_win.png' height='500'></p></div>","null","","","","","","","","","","","","","","","","","","",""
"","html-keyboard-response","22","71605","0.0-22.0","230.30000000074506","<div class='center'><img src='run_exp/static/images/tutorial/blue.png' height='500'></p></div>","49","","","","","","","","","","","","","","","","","","",""
"","html-keyboard-response","23","73108","0.0-23.0","null","<div class='center'><p><img src='run_exp/static/images/tutorial/blue_win.png' height='500'></p></div>","null","","","","","","","","","","","","","","","","","","",""
"","html-keyboard-response","24","73491","0.0-24.0","379.40000000037253","<div class='center'><img src='run_exp/static/images/tutorial/blue.png' height='500'></p></div>","49","","","","","","","","","","","","","","","","","","",""
"","html-keyboard-response","25","74994","0.0-25.0","null","<div class='center'><p><img src='run_exp/static/images/tutorial/blue_win.png' height='500'></p></div>","null","","","","","","","","","","","","","","","","","","",""
"","html-keyboard-response","26","78019","0.0-26.0","3022.2000000001863","<div class='center'><p> See, he could rob the ships most of the time but not every time. </p><p><b>[Press the space bar to continue]</b></p></div>","32","","","","","","","","","","","","","","","","","","",""
"","html-keyboard-response","27","88853","0.0-27.0","10831.900000000373","<div class='center'><p>You will get to choose which of three pirates you want to rob the next ship. <p>Press the <b>‘1’</b> button on your keyboard to pick the pirate with the red beard.</p><p> Press <b>‘2’</b> to pick the pirate with the white beard.</p><p> Press <b>‘3’</b> to pick the pirate with the black beard.</p><p>Try picking a pirate now!</p><p><img src='run_exp/static/images/tutorial/all_pirates.png' height='500'></p></div>","51","","","","","","","","","","","","","","","","","","",""
"","html-keyboard-response","28","90740","0.0-28.0-0.0","1876.7999999998137","<div class='center'><p>This pirate could rob the ship!</p><p><img src='run_exp/static/images/tutorial/black_win.png' height='500'></p><p><b>[Press the space bar to continue]</b></p></div>","32","","","","","","","","","","","","","","","","","","",""
"","html-keyboard-response","29","92919","0.0-28.0-1.0","2172.7999999998137","<div class='center'><p>Now try choosing another</p><p><img src='run_exp/static/images/tutorial/all_pirates.png' height='500'></p></div>","49","","","","","","","","","","","","","","","","","","",""
"","html-keyboard-response","30","93963","0.0-29.0-0.0","1039.5","<div class='center'><p>This pirate could not rob the ship.</p><p><img src='run_exp/static/images/tutorial/red_no_win.png' height='500'></p><p><b>[Press the space bar to continue]</b></p></div>","32","","","","","","","","","","","","","","","","","","",""
"","html-keyboard-response","31","99424","0.0-30.0-0.0","5458.399999999441","<div class='center'><p>If you don’t make your choice fast enough, you’ll have to wait a few seconds before you can make another one. </p><p>You can’t collect more gold coins. You just have to sit and wait.</p><p><img src='run_exp/static/images/miscellaneous/hurry_up.png' height='500'></p><p><b>[Press the space bar to continue]</b></p></div>","32","","","","","","","","","","","","","","","","","","",""
"","html-keyboard-response","32","119496","0.0-30.0-1.0","20068","<div class='center'><p>Once you choose a pirate, you’ll be shown the ship they are robbing.</p><p>You will never rob the same ship twice.</p><p>Ships can be told apart from one another by the image on them.</p><p> Every time you see a ship, you will have to remember on which island you saw it.</p><p> Remembering correctly will help you win more bonus money!</p><p>A helpful strategy is to try to come up with a story of the object on the ship interacting with the current island scene.</p><p> For example, here, you could imagine a mug full of water in the desert. </p><p>For a ship with an apple on it on the forest island, you could imagine an apple falling from a tree in the forest.</p><p><img src='run_exp/static/images/tutorial/example_probe.png' height='500'></p><p><b>[Press the space bar to continue]</b></p></div>","32","","","","","","","","","","","","","","","","","","",""
"","html-keyboard-response","33","126721","0.0-30.0-2.0","7222","<div class='center'><p>How good a pirate is at robbing ships will depend on the current island.</p><p> A pirate may have visited the island many times before and gained a lot of practice robbing ships there.</p><p>So, they're more likely to bring back gold coins than a pirate who has never visited this island before. </p><p><b>[Press the space bar to continue]</b></p></div>","32","","","","","","","","","","","","","","","","","","",""
"","html-keyboard-response","34","139595","0.0-30.0-3.0","12869.799999999814","<div class='center'><p>How good a pirate is at robbing ships can also change over the time spent on the island<p> Ships may hear from islanders about the pirates coming and will improve their protection against the attack. This may make it harder to rob them.</p><p> Ships may also become lazy and lower their protection. This may make it easier to rob them.</p><br><p>Things are always changing on the high seas! So, try your best to pay attention!</p><p><img src='run_exp/static/images/tutorial/contingency.png' height='500'></p><p><b>[Press the space bar to continue]</b></p></div>","32","","","","","","","","","","","","","","","","","","",""
"","html-keyboard-response","35","163725","0.0-30.0-4.0","24125.900000000373","<div class='center'><p>Let's go over the instructions quickly again.You have two important things to do: </p><b><p> 1. Pick the pirate who is the best at robbing ships on the current island.</p></b><b><p> 2. Remember on which island a ship was robbed.</p> </b><p>How much bonus money you make is based on both. </p><br><p>Let’s try a practice game. The game will start by showing you the pirates. First pick a pirate using the <b> 1, 2, 3 </b> buttons on your keyboard. When you are shown a ship, try to remember the island you’re on by making up a story.</p><p> You only have 3 seconds to pick a pirate, so please make a choice quickly! If you are too slow, you’ll have to wait a bit during the time out.</p><p> Don’t feel rushed, but please do try to make a choice every time.</p><p>This is just a practice game, so you’re not playing for money. </p><p> Good luck, remember press <b>'1'</b> to choose red beard, <b>'2'</b> to choose white beard, and <b>'3'</b> to choose black beard</p><p><b>[Press the space bar to begin the practice game]</b></p></div>","32","","","","","","","","","","","","","","","","","","",""
"","do_welcome","36","165242","0.0-30.0-5.0","null","","","","null","","","","","","","","","","","","","","","","",""
"","do_trial","37","170607","0.0-30.0-6.0","848.1000000005588","","","","49","1,0,0","","","","","","","","","","","","","","","",""
"","html-keyboard-response","38","171610","0.0-31.0-0.0","null","<p></p>","null","","","","","","","","","","","","","","","","","","",""
"","do_trial","39","178567","0.0-31.0-1.0","2440.5999999996275","","","","49","1,1,0","","","","","","","","","","","","","","","",""
"","html-keyboard-response","40","179571","0.0-32.0-0.0","null","<p></p>","null","","","","","","","","","","","","","","","","","","",""
"","do_trial","41","186109","0.0-32.0-1.0","2012.800000000745","","","","49","1,0,1","","","","","","","","","","","","","","","",""
"","html-keyboard-response","42","187112","0.0-33.0-0.0","null","<p></p>","null","","","","","","","","","","","","","","","","","","",""
"","do_trial","43","192438","0.0-33.0-1.0","816.5","","","","49","0,1,0","","","","","","","","","","","","","","","",""
"","html-keyboard-response","44","193441","0.0-34.0-0.0","null","<p></p>","null","","","","","","","","","","","","","","","","","","",""
"","do_trial","45","198574","0.0-34.0-1.0","622.7999999998137","","","","50","1,0,0","","","","","","","","","","","","","","","",""
"","do_bye","46","200083","0.0-35.0-0.0","null","","","","null","","","","","","","","","","","","","","","","",""
"","do_travel","47","206087","0.0-35.0-1.0","null","","","","null","","","","","","","","","","","","","","","","",""
"","do_welcome","48","207602","0.0-35.0-2.0","null","","","","null","","","","","","","","","","","","","","","","",""
"","do_trial","49","213278","0.0-35.0-3.0","1158.2999999998137","","","","49","1,0,0","","","","","","","","","","","","","","","",""
"","html-keyboard-response","50","214280","0.0-36.0-0.0","null","<p></p>","null","","","","","","","","","","","","","","","","","","",""
"","do_trial","51","219320","0.0-36.0-1.0","527.8000000007451","","","","50","1,0,1","","","","","","","","","","","","","","","",""
"","html-keyboard-response","52","220325","0.0-37.0-0.0","null","<p></p>","null","","","","","","","","","","","","","","","","","","",""
"","do_trial","53","225385","0.0-37.0-1.0","544.4000000003725","","","","51","1,1,0","","","","","","","","","","","","","","","",""
"","html-keyboard-response","54","226390","0.0-38.0-0.0","null","<p></p>","null","","","","","","","","","","","","","","","","","","",""
"","do_trial","55","231425","0.0-38.0-1.0","524.7999999998137","","","","51","0,0,1","","","","","","","","","","","","","","","",""
"","html-keyboard-response","56","232431","0.0-39.0-0.0","null","<p></p>","null","","","","","","","","","","","","","","","","","","",""
"","do_trial","57","237346","0.0-39.0-1.0","390.70000000018626","","","","51","1,0,1","","","","","","","","","","","","","","","",""
"","html-keyboard-response","58","243042","0.0-40.0-0.0","5684.799999999814","<div class='center'><p><img src='run_exp/static/images/tutorial/prac_best_pirate.png'  height='500'></p></div>","49","","","","","","","","","","","","","","","","","","",""
"","html-keyboard-response","59","244880","0.0-41.0-0.0","1832.6000000005588","<div class='center'><p>That's correct! Red beard was the best.</p><p><b>[Press the space bar to continue]</b></p></div>","32","","","","","","","","","","","","","","","","","","",""
"","html-keyboard-response","60","249858","0.0-41.0-1.0","4970.5","<div class='center'><p><img src='run_exp/static/images/tutorial/prac_source.png'  height='500'></p></div>","50","","","","","","","","","","","","","","","","","","",""
"","html-keyboard-response","61","251031","0.0-42.0-0.0","1168.7000000001863","<div class='center'><p>That's correct! You saw this ship on the cavern island.</p><p><b>[Press the space bar to continue]</b></p></div>","32","","","","","","","","","","","","","","","","","","",""
"","html-keyboard-response","62","257147","0.0-42.0-1.0","6113.799999999814","<div class='center'><p>Good job on the practice game! Now, you will be asked you some true or false questions to make sure you really understand the rules of the game.</p><p> Press <b>'1'</b> on the keyboard for true and press <b>'2'</b> for false.</p><p><b>[Press the space bar to begin the quiz]</b></p></div>","32","","","","","","","","","","","","","","","","","","",""
"","html-keyboard-response","63","260050","0.0-42.0-2.0","2900","<div class='center'><p>You win bonus money by making choices as fast as possible.</p><p>Press 1 for true and press  2 for false.</p></div>","50","","","","","","","","","","","","","","","","","","",""
"","html-keyboard-response","64","260877","0.0-43.0-0.0","819.7000000001863","<div class='center'><p>That's correct!</p> <p><b>[press the space bar to continue with the quiz]</b></p></div>","32","","","","","","","","","","","","","","","","","","",""
"","html-keyboard-response","65","264821","0.0-43.0-1.0","3939.7999999998137","<div class='center'><p>You press the <b>‘3’</b> button on the keyboard to choose the red bearded pirate. </p><p>Press 1 for true and press  2 for false.</p></div>","50","","","","","","","","","","","","","","","","","","",""
"","html-keyboard-response","66","265367","0.0-44.0-0.0","542","<div class='center'><p>That's correct!</p> <p><b>[press the space bar to continue with the quiz]</b></p></div>","32","","","","","","","","","","","","","","","","","","",""
"","html-keyboard-response","67","270749","0.0-44.0-1.0","5379.300000000745","<div class='center'><p>The pirate who is the best at robbing ships on the first island will be the best on every other island.</p><p>Press 1 for true and press  2 for false.</p></div>","50","","","","","","","","","","","","","","","","","","",""
"","html-keyboard-response","68","271279","0.0-45.0-0.0","526.2000000001863","<div class='center'><p>That's correct!</p> <p><b>[press the space bar to continue with the quiz]</b></p></div>","32","","","","","","","","","","","","","","","","","","",""
"","html-keyboard-response","69","273849","0.0-45.0-1.0","2565.2999999998137","<div class='center'><p>You should remember the island where a pirate robbed a ship.</p><p>Press 1 for true and press  2 for false.</p></div>","49","","","","","","","","","","","","","","","","","","",""
"","html-keyboard-response","70","274299","0.0-46.0-0.0","407.90000000037253","<div class='center'><p>That's correct!</p> <p><b>[press the space bar to continue with the quiz]</b></p></div>","32","","","","","","","","","","","","","","","","","","",""
"","html-keyboard-response","71","278448","0.0-47.0-0.0","4143.5","<div class='center'><p>Good job! You’re now ready to move on to the real game!</p> <p><br>[press the space bar to begin!]</br></p></div>","32","","","","","","","","","","","","","","","","","","",""
"","do_welcome","72","279962","0.0-48.0-0.0","null","","","","null","","","","","","","","","","","","","","","","",""
"","do_trial","73","285969","0.0-49.0-0.0","1334.5","","","","49","1,0,0","0","mountain","0","probe-221","0.6","0.3","0.1","1","","","","","","","",""
"","html-keyboard-response","74","286974","0.0-49.0-1.0","null","<p></p>","null","","","","","","","","","","","","","","","","","","",""
"","do_trial","75","292134","0.0-50.0-0.0","552.6000000005588","","","","49","1,0,0","0","mountain","1","probe-46","0.6942017025664072","0.4469377581015972","0.05902749956094714","1","","","","","","","",""
"","html-keyboard-response","76","293136","0.0-50.0-1.0","null","<p></p>","null","","","","","","","","","","","","","","","","","","",""
"","do_trial","77","298118","0.0-51.0-0.0","385","","","","50","0,1,0","0","mountain","2","probe-72","0.7429735485239297","0.5720633638283088","0.08883593292937413","1","","","","","","","",""
"","html-keyboard-response","78","299121","0.0-51.0-1.0","null","<p></p>","null","","","","","","","","","","","","","","","","","","",""
"","do_trial","79","304479","0.0-52.0-0.0","749.0999999996275","","","","50","1,0,0","0","mountain","3","probe-171","0.5501072611427644","0.46101729768447963","0.09634419505818138","0","","","","","","","",""
"","html-keyboard-response","80","305483","0.0-52.0-1.0","null","<p></p>","null","","","","","","","","","","","","","","","","","","",""
"","do_trial","81","310348","0.0-53.0-0.0","256.20000000018626","","","","51","0,1,0","0","mountain","4","probe-78","0.5939069309453231","0.46211326891940707","0.09251509894962151","0","","","","","","","",""
"","html-keyboard-response","82","311351","0.0-53.0-1.0","null","<p></p>","null","","","","","","","","","","","","","","","","","","",""
"","do_trial","83","316358","0.0-54.0-0.0","400.5","","","","49","0,0,1","0","mountain","5","probe-212","0.5032218380571645","0.33693021323885697","0.12226062093517666","0","","","","","","","",""
"","html-keyboard-response","84","317365","0.0-54.0-1.0","null","<p></p>","null","","","","","","","","","","","","","","","","","","",""
"","do_trial","85","322323","0.0-55.0-0.0","336.40000000037253","","","","49","0,0,0","0","mountain","6","probe-102","0.5306950276440344","0.2634028913900837","0.07172460001455527","0","","","","","","","",""
"","html-keyboard-response","86","323327","0.0-55.0-1.0","null","<p></p>","null","","","","","","","","","","","","","","","","","","",""
"","do_trial","87","328915","0.0-56.0-0.0","984.4000000003725","","","","50","0,0,0","0","mountain","7","probe-33","0.4896133180478937","0.18717118212204276","0.08576557493636379","0","","","","","","","",""
"","html-keyboard-response","88","329921","0.0-56.0-1.0","null","<p></p>","null","","","","","","","","","","","","","","","","","","",""
"","do_trial","89","334884","0.0-57.0-0.0","352.6000000005588","","","","50","1,1,0","0","mountain","8","probe-58","0.5207892424753088","0.2842990642430609","0.15072031156791924","1","","","","","","","",""
"","html-keyboard-response","90","335890","0.0-57.0-1.0","null","<p></p>","null","","","","","","","","","","","","","","","","","","",""
"","do_trial","91","341153","0.0-58.0-0.0","648.2999999998137","","","","50","0,0,0","0","mountain","9","probe-84","0.5499511315544237","0.25136983616257746","0.11546062266587141","0","","","","","","","",""
"","html-keyboard-response","92","342159","0.0-58.0-1.0","null","<p></p>","null","","","","","","","","","","","","","","","","","","",""
"","do_trial","93","347051","0.0-59.0-0.0","287.29999999981374","","","","51","1,1,0","0","mountain","10","probe-205","0.6555151419328529","0.2645082787942784","0.1569033191727308","0","","","","","","","",""
"","html-keyboard-response","94","348057","0.0-59.0-1.0","null","<p></p>","null","","","","","","","","","","","","","","","","","","",""
"","do_trial","95","353156","0.0-60.0-0.0","499.79999999981374","","","","49","1,0,1","0","mountain","11","probe-99","0.5877603153171301","0.2836967682468832","0.196070713160426","1","","","","","","","",""
"","html-keyboard-response","96","354159","0.0-60.0-1.0","null","<p></p>","null","","","","","","","","","","","","","","","","","","",""
"","do_trial","97","359811","0.0-61.0-0.0","1054.2999999998137","","","","50","1,0,0","0","mountain","12","probe-32","0.6274042407625985","0.25441402146069464","0.05617671235567121","0","","","","","","","",""
"","html-keyboard-response","98","360816","0.0-61.0-1.0","null","<p></p>","null","","","","","","","","","","","","","","","","","","",""
"","do_trial","99","365668","0.0-62.0-0.0","241.09999999962747","","","","49","1,0,0","0","mountain","13","probe-166","0.6222766245465834","0.24876704907516825","0.06721484753405813","1","","","","","","","",""
"","html-keyboard-response","100","366673","0.0-62.0-1.0","null","<p></p>","null","","","","","","","","","","","","","","","","","","",""
"","do_trial","101","371590","0.0-63.0-0.0","310.40000000037253","","","","49","1,1,0","0","mountain","14","probe-14","0.6584567138480931","0.2047665163823503","0.07296661366918168","1","","","","","","","",""
"","html-keyboard-response","102","372593","0.0-63.0-1.0","null","<p></p>","null","","","","","","","","","","","","","","","","","","",""
"","do_trial","103","377521","0.0-64.0-0.0","323.29999999981374","","","","49","1,0,0","0","mountain","15","probe-207","0.6987964408643562","0.21898797491399066","0.050576583126454064","1","","","","","","","",""
"","html-keyboard-response","104","378524","0.0-64.0-1.0","null","<p></p>","null","","","","","","","","","","","","","","","","","","",""
"","do_trial","105","383402","0.0-65.0-0.0","267.79999999981374","","","","49","1,0,1","0","mountain","16","probe-114","0.6387826687039008","0.16906279952272132","0.1488879411986475","1","","","","","","","",""
"","html-keyboard-response","106","384407","0.0-65.0-1.0","null","<p></p>","null","","","","","","","","","","","","","","","","","","",""
"","do_trial","107","389262","0.0-66.0-0.0","253.29999999981374","","","","49","0,1,1","0","mountain","17","probe-18","0.672514714099142","0.13076766390191133","0.1920071933766249","0","","","","","","","",""
"","html-keyboard-response","108","390266","0.0-66.0-1.0","null","<p></p>","null","","","","","","","","","","","","","","","","","","",""
"","do_trial","109","395119","0.0-67.0-0.0","257.59999999962747","","","","49","1,0,0","0","mountain","18","probe-146","0.6045839432181822","0.2315439897014192","0.1642967845189625","1","","","","","","","",""
"","html-keyboard-response","110","396121","0.0-67.0-1.0","null","<p></p>","null","","","","","","","","","","","","","","","","","","",""
"","do_trial","111","400995","0.0-68.0-0.0","273.29999999981374","","","","49","0,0,0","0","mountain","19","probe-172","0.4927753697609731","0.3340515697815815","0.2579776836614873","0","","","","","","","",""
"","html-keyboard-response","112","402000","0.0-68.0-1.0","null","<p></p>","null","","","","","","","","","","","","","","","","","","",""
"","do_trial","113","407588","0.0-69.0-0.0","968.5","","","","49","1,0,1","0","mountain","20","probe-131","0.6565242155871011","0.219178934958802","0.3679229499603359","1","","","","","","","",""
"","html-keyboard-response","114","408592","0.0-69.0-1.0","null","<p></p>","null","","","","","","","","","","","","","","","","","","",""
"","do_trial","115","413478","0.0-70.0-0.0","274.20000000018626","","","","49","1,1,1","0","mountain","21","probe-200","0.6751987426373939","0.43972032102560643","0.2906812940734782","1","","","","","","","",""
"","html-keyboard-response","116","414482","0.0-70.0-1.0","null","<p></p>","null","","","","","","","","","","","","","","","","","","",""
"","do_trial","117","419091","0.0-71.0-0.0","0.39999999944120646","","","","49","1,0,0","0","mountain","22","probe-45","0.5343261200010939","0.27771657427388446","0.15522863355236743","1","","","","","","","",""
"","html-keyboard-response","118","420099","0.0-71.0-1.0","null","<p></p>","null","","","","","","","","","","","","","","","","","","",""
"","do_trial","119","424735","0.0-72.0-0.0","19.200000000186265","","","","49","0,0,0","0","mountain","23","probe-176","0.5618914267608274","0.22096430579766232","0.2633925347620796","0","","","","","","","",""
"","html-keyboard-response","120","425741","0.0-72.0-1.0","null","<p></p>","null","","","","","","","","","","","","","","","","","","",""
"","do_trial","121","430702","0.0-73.0-0.0","344.69999999925494","","","","49","1,0,0","0","mountain","24","probe-38","0.5574108091950842","0.2818072112780928","0.321804864998493","1","","","","","","","",""
"","html-keyboard-response","122","431710","0.0-73.0-1.0","null","<p></p>","null","","","","","","","","","","","","","","","","","","",""
"","do_trial","123","436605","0.0-74.0-0.0","285.90000000037253","","","","49","0,0,1","0","mountain","25","probe-188","0.48722268790706097","0.30962478567954493","0.1808713909227709","0","","","","","","","",""
"","html-keyboard-response","124","437609","0.0-74.0-1.0","null","<p></p>","null","","","","","","","","","","","","","","","","","","",""
"","do_trial","125","443104","0.0-75.0-0.0","891.8000000007451","","","","49","1,0,0","0","mountain","26","probe-113","0.6792672792462942","0.15757665612819285","0.11206831622044851","1","","","","","","","",""
"","html-keyboard-response","126","444111","0.0-75.0-1.0","null","<p></p>","null","","","","","","","","","","","","","","","","","","",""
"","do_trial","127","449077","0.0-76.0-0.0","364.79999999981374","","","","49","0,0,0","0","mountain","27","probe-118","0.605721849411359","0.17954564318905386","0.07725860240506431","0","","","","","","","",""
"","html-keyboard-response","128","450080","0.0-76.0-1.0","null","<p></p>","null","","","","","","","","","","","","","","","","","","",""
"","do_trial","129","457664","0.0-77.0-0.0","2976.2000000001863","","","","49","1,0,0","0","mountain","28","probe-208","0.5569739814612532","0.19156400954918568","0.11003129266702039","1","","","","","","","",""
"","html-keyboard-response","130","458668","0.0-77.0-1.0","null","<p></p>","null","","","","","","","","","","","","","","","","","","",""
"","do_trial","131","463575","0.0-78.0-0.0","303.80000000074506","","","","49","0,0,0","0","mountain","29","probe-106","0.6647682969414253","0.21565080448595744","0.06980440064098456","0","","","","","","","",""
"","html-keyboard-response","132","464583","0.0-78.0-1.0","null","<p></p>","null","","","","","","","","","","","","","","","","","","",""
"","do_bye","133","466101","0.0-79.0-0.0","null","","","","null","","","","","","","","","","","","","","","","",""
"","do_travel","134","472105","0.0-80.0-0.0","null","","","","null","","","","","","","","","","","","","","","","",""
"","do_welcome","135","473624","0.0-80.0-1.0","null","","","","null","","","","","","","","","","","","","","","","",""
"","do_trial","136","478753","0.0-81.0-0.0","528","","","","50","1,0,0","1","countryside","30","probe-36","1","0.3478461086741717","0.15769391741432773","0","","","","","","","",""
"","html-keyboard-response","137","479756","0.0-81.0-1.0","null","<p></p>","null","","","","","","","","","","","","","","","","","","",""
"","do_trial","138","484714","0.0-82.0-0.0","355.80000000074506","","","","51","1,1,1","1","countryside","31","probe-26","1","0.2375086917377131","0.2181497187763217","1","","","","","","","",""
"","html-keyboard-response","139","485718","0.0-82.0-1.0","null","<p></p>","null","","","","","","","","","","","","","","","","","","",""
"","do_trial","140","490597","0.0-83.0-0.0","268.6000000005588","","","","51","1,0,0","1","countryside","32","probe-54","1","0.3220649467242716","0.24137355507509625","0","","","","","","","",""
"","html-keyboard-response","141","491600","0.0-83.0-1.0","null","<p></p>","null","","","","","","","","","","","","","","","","","","",""
"","do_trial","142","496259","0.0-84.0-0.0","58.60000000055879","","","","49","1,0,0","1","countryside","33","probe-62","0.6216541988650532","0.15917758086868908","0.1283687689234328","1","","","","","","","",""
"","html-keyboard-response","143","497262","0.0-84.0-1.0","null","<p></p>","null","","","","","","","","","","","","","","","","","","",""
"","do_trial","144","502145","0.0-85.0-0.0","276.09999999962747","","","","49","0,0,0","1","countryside","34","probe-88","0.6645174713157462","0.29259603027124165","0.15697474923386392","0","","","","","","","",""
"","html-keyboard-response","145","503147","0.0-85.0-1.0","null","<p></p>","null","","","","","","","","","","","","","","","","","","",""
"","do_trial","146","508013","0.0-86.0-0.0","268.59999999962747","","","","50","1,1,0","1","countryside","35","probe-96","0.6831852566696783","0.3411088915587698","0.14747370786416233","1","","","","","","","",""
"","html-keyboard-response","147","509016","0.0-86.0-1.0","null","<p></p>","null","","","","","","","","","","","","","","","","","","",""
"","do_trial","148","513878","0.0-87.0-0.0","254.1000000005588","","","","50","0,1,0","1","countryside","36","probe-183","0.7197478845682496","0.4264450081998523","0.07914110461048803","1","","","","","","","",""
"","html-keyboard-response","149","514883","0.0-87.0-1.0","null","<p></p>","null","","","","","","","","","","","","","","","","","","",""
"","do_trial","150","519726","0.0-88.0-0.0","236.20000000018626","","","","50","1,1,0","1","countryside","37","probe-125","0.6520057771489267","0.4027586399040291","0.06715446709398236","1","","","","","","","",""
"","html-keyboard-response","151","520731","0.0-88.0-1.0","null","<p></p>","null","","","","","","","","","","","","","","","","","","",""
"","do_trial","152","525590","0.0-89.0-0.0","251.8999999994412","","","","50","1,0,0","1","countryside","38","probe-159","0.770141740337329","0.37255473375844034","0.07224649469480916","0","","","","","","","",""
"","html-keyboard-response","153","526597","0.0-89.0-1.0","null","<p></p>","null","","","","","","","","","","","","","","","","","","",""
"","do_trial","154","531554","0.0-90.0-0.0","339.29999999981374","","","","51","1,1,0","1","countryside","39","probe-167","0.6952064647025752","0.3565857953139203","0.08952481051405724","0","","","","","","","",""
"","html-keyboard-response","155","532561","0.0-90.0-1.0","null","<p></p>","null","","","","","","","","","","","","","","","","","","",""
"","do_trial","156","537516","0.0-91.0-0.0","342.90000000037253","","","","49","1,0,0","1","countryside","40","probe-168","0.787584002082466","0.31608479418554986","0.1267580707738929","1","","","","","","","",""
"","html-keyboard-response","157","538522","0.0-91.0-1.0","null","<p></p>","null","","","","","","","","","","","","","","","","","","",""
"","do_trial","158","543421","0.0-92.0-0.0","288.29999999981374","","","","49","1,1,1","1","countryside","41","probe-40","0.6630871315704531","0.31207371480841384","0.1824656339290172","1","","","","","","","",""
"","html-keyboard-response","159","544424","0.0-92.0-1.0","null","<p></p>","null","","","","","","","","","","","","","","","","","","",""
"","do_trial","160","549358","0.0-93.0-0.0","337.90000000037253","","","","49","0,0,1","1","countryside","42","probe-09","0.48004677709970445","0.4838524375205417","0.28755486704966077","0","","","","","","","",""
"","html-keyboard-response","161","550364","0.0-93.0-1.0","null","<p></p>","null","","","","","","","","","","","","","","","","","","",""
"","do_trial","162","555261","0.0-94.0-0.0","296.8999999994412","","","","50","0,1,0","1","countryside","43","probe-92","0.38466486059369664","0.5745289881468324","0.35695293241889603","1","","","","","","","",""
"","html-keyboard-response","163","556265","0.0-94.0-1.0","null","<p></p>","null","","","","","","","","","","","","","","","","","","",""
"","do_trial","164","561136","0.0-95.0-0.0","273.90000000037253","","","","50","0,0,0","1","countryside","44","probe-95","0.2001091429073381","0.47574866929436743","0.46486172122854563","0","","","","","","","",""
"","html-keyboard-response","165","562139","0.0-95.0-1.0","null","<p></p>","null","","","","","","","","","","","","","","","","","","",""
"","do_trial","166","567330","0.0-96.0-0.0","593.9000000003725","","","","51","0,1,0","1","countryside","45","probe-93","0.19115241288902254","0.5118471786021174","0.43248331428895365","0","","","","","","","",""
"","html-keyboard-response","167","568333","0.0-96.0-1.0","null","<p></p>","null","","","","","","","","","","","","","","","","","","",""
"","do_trial","168","573231","0.0-97.0-0.0","296.79999999981374","","","","49","0,0,0","1","countryside","46","probe-162","0.15977357732668346","0.5840787031905433","0.333540845921587","0","","","","","","","",""
"","html-keyboard-response","169","574235","0.0-97.0-1.0","null","<p></p>","null","","","","","","","","","","","","","","","","","","",""
"","do_trial","170","579144","0.0-98.0-0.0","303.1000000005588","","","","50","0,0,1","1","countryside","47","probe-215","0.24749856138390247","0.5673209906586018","0.3607975555522431","0","","","","","","","",""
"","html-keyboard-response","171","580148","0.0-98.0-1.0","null","<p></p>","null","","","","","","","","","","","","","","","","","","",""
"","do_trial","172","585091","0.0-99.0-0.0","345.79999999981374","","","","51","1,1,1","1","countryside","48","probe-37","0.27978751180472256","0.6106970469258032","0.3932880123604258","1","","","","","","","",""
"","html-keyboard-response","173","586098","0.0-99.0-1.0","null","<p></p>","null","","","","","","","","","","","","","","","","","","",""
"","do_trial","174","591174","0.0-100.0-0.0","469.20000000018626","","","","51","0,1,1","1","countryside","49","probe-53","0.21561354180434872","0.685013383517085","0.22254146633942892","1","","","","","","","",""
"","html-keyboard-response","175","592177","0.0-100.0-1.0","null","<p></p>","null","","","","","","","","","","","","","","","","","","",""
"","do_trial","176","597036","0.0-101.0-0.0","262.59999999962747","","","","51","0,1,1","1","countryside","50","probe-126","0.2301257180003978","0.6377534996785235","0.327143973377549","1","","","","","","","",""
"","html-keyboard-response","177","598044","0.0-101.0-1.0","null","<p></p>","null","","","","","","","","","","","","","","","","","","",""
"","do_trial","178","602919","0.0-102.0-0.0","263.5","","","","51","1,1,0","1","countryside","51","probe-44","0.07189304458020407","0.521094723292643","0.25083135141189716","0","","","","","","","",""
"","html-keyboard-response","179","603926","0.0-102.0-1.0","null","<p></p>","null","","","","","","","","","","","","","","","","","","",""
"","do_trial","180","608786","0.0-103.0-0.0","246.8999999994412","","","","49","0,0,1","1","countryside","52","probe-97","0.21127055255449606","0.5977599899838159","0.14839884945803966","0","","","","","","","",""
"","html-keyboard-response","181","609791","0.0-103.0-1.0","null","<p></p>","null","","","","","","","","","","","","","","","","","","",""
"","do_trial","182","614615","0.0-104.0-0.0","225.29999999981374","","","","50","0,1,1","1","countryside","53","probe-74","0.15860698384321503","0.712357251570957","0.120836292952942","1","","","","","","","",""
"","html-keyboard-response","183","615622","0.0-104.0-1.0","null","<p></p>","null","","","","","","","","","","","","","","","","","","",""
"","do_trial","184","620518","0.0-105.0-0.0","282.8999999994412","","","","50","0,1,0","1","countryside","54","probe-20","0.15488385722822298","0.73328613553511","0.11081654195317608","1","","","","","","","",""
"","html-keyboard-response","185","621522","0.0-105.0-1.0","null","<p></p>","null","","","","","","","","","","","","","","","","","","",""
"","do_trial","186","626433","0.0-106.0-0.0","303.29999999981374","","","","50","1,1,0","1","countryside","55","probe-127","0.15559159084590804","0.6057511048631334","0.19249694167894837","1","","","","","","","",""
"","html-keyboard-response","187","627437","0.0-106.0-1.0","null","<p></p>","null","","","","","","","","","","","","","","","","","","",""
"","do_trial","188","632309","0.0-107.0-0.0","265.6000000005588","","","","50","0,0,0","1","countryside","56","probe-35","0.19347131293709546","0.5220149984137439","0.17995992601019875","0","","","","","","","",""
"","html-keyboard-response","189","633316","0.0-107.0-1.0","null","<p></p>","null","","","","","","","","","","","","","","","","","","",""
"","do_trial","190","638365","0.0-108.0-0.0","452.09999999962747","","","","51","0,0,0","1","countryside","57","probe-181","0.060786104168137615","0.6155839530993327","0.18124877393647235","0","","","","","","","",""
"","html-keyboard-response","191","639370","0.0-108.0-1.0","null","<p></p>","null","","","","","","","","","","","","","","","","","","",""
"","do_trial","192","644213","0.0-109.0-0.0","230.6000000005588","","","","49","0,0,1","1","countryside","58","probe-161","0.1169094299695597","0.6293583855684001","0.20535787146552154","0","","","","","","","",""
"","html-keyboard-response","193","645216","0.0-109.0-1.0","null","<p></p>","null","","","","","","","","","","","","","","","","","","",""
"","do_trial","194","650108","0.0-110.0-0.0","293.3999999994412","","","","50","1,1,0","1","countryside","59","probe-101","0.14909878090462012","0.7740406819820546","0.18073090783048953","1","","","","","","","",""
"","html-keyboard-response","195","651113","0.0-110.0-1.0","null","<p></p>","null","","","","","","","","","","","","","","","","","","",""
"","do_trial","196","655999","0.0-111.0-0.0","279.79999999981374","","","","50","0,1,0","1","countryside","60","probe-139","0.09816361746220105","0.5453850625448825","0.18163184806167454","1","","","","","","","",""
"","html-keyboard-response","197","657003","0.0-111.0-1.0","null","<p></p>","null","","","","","","","","","","","","","","","","","","",""
"","do_trial","198","662080","0.0-112.0-0.0","457.09999999962747","","","","50","0,0,0","1","countryside","61","probe-203","0.13185391912660696","0.527936275315309","0.21392049683740016","0","","","","","","","",""
"","html-keyboard-response","199","663084","0.0-112.0-1.0","null","<p></p>","null","","","","","","","","","","","","","","","","","","",""
"","do_trial","200","668042","0.0-113.0-0.0","352.90000000037253","","","","50","0,1,0","1","countryside","62","probe-13","0.17951498212543202","0.44364475586567226","0.24298159737656833","1","","","","","","","",""
"","html-keyboard-response","201","669049","0.0-113.0-1.0","null","<p></p>","null","","","","","","","","","","","","","","","","","","",""
"","do_trial","202","673668","0.0-114.0-0.0","5.7000000001862645","","","","50","0,1,1","1","countryside","63","probe-216","0.2159855008677455","0.5435229182902921","0.24090657918335304","1","","","","","","","",""
"","html-keyboard-response","203","674673","0.0-114.0-1.0","null","<p></p>","null","","","","","","","","","","","","","","","","","","",""
"","do_trial","204","679274","0.0-115.0-0.0","0.40000000037252903","","","","50","1,1,0","1","countryside","64","probe-182","0.14785806429450493","0.393752432271735","0.2796345399650375","1","","","","","","","",""
"","html-keyboard-response","205","680277","0.0-115.0-1.0","null","<p></p>","null","","","","","","","","","","","","","","","","","","",""
"","do_trial","206","684976","0.0-116.0-0.0","104.80000000074506","","","","50","0,1,1","1","countryside","65","probe-143","0.24707166338193268","0.4506445952874379","0.31151846458555965","1","","","","","","","",""
"","html-keyboard-response","207","685979","0.0-116.0-1.0","null","<p></p>","null","","","","","","","","","","","","","","","","","","",""
"","do_trial","208","690903","0.0-117.0-0.0","319.70000000018626","","","","50","0,0,0","1","countryside","66","probe-137","0.1743369940445852","0.6249789726246493","0.3426696456102238","0","","","","","","","",""
"","html-keyboard-response","209","691911","0.0-117.0-1.0","null","<p></p>","null","","","","","","","","","","","","","","","","","","",""
"","do_trial","210","696676","0.0-118.0-0.0","144.79999999981374","","","","51","0,1,0","1","countryside","67","probe-19","0.18278406572593558","0.7184697530188315","0.29697328158030095","0","","","","","","","",""
"","html-keyboard-response","211","697682","0.0-118.0-1.0","null","<p></p>","null","","","","","","","","","","","","","","","","","","",""
"","do_trial","212","702689","0.0-119.0-0.0","403.79999999981374","","","","49","0,1,0","1","countryside","68","probe-119","0.22869899081083694","0.6396125533379182","0.31812686728942874","0","","","","","","","",""
"","html-keyboard-response","213","703696","0.0-119.0-1.0","null","<p></p>","null","","","","","","","","","","","","","","","","","","",""
"","do_trial","214","709200","0.0-120.0-0.0","880.2999999998137","","","","49","0,0,1","1","countryside","69","probe-04","0.25526982532786546","0.726311591123664","0.5301205512599151","0","","","","","","","",""
"","html-keyboard-response","215","710203","0.0-120.0-1.0","null","<p></p>","null","","","","","","","","","","","","","","","","","","",""
"","do_bye","216","711709","0.0-121.0-0.0","null","","","","null","","","","","","","","","","","","","","","","",""
"","do_travel","217","717714","0.0-122.0-0.0","null","","","","null","","","","","","","","","","","","","","","","",""
"","do_welcome","218","719233","0.0-122.0-1.0","null","","","","null","","","","","","","","","","","","","","","","",""
"","do_trial","219","724238","0.0-123.0-0.0","406.69999999925494","","","","49","0,1,0","2","city","70","probe-136","0.13754949324705315","1","0.5203416935489574","0","","","","","","","",""
"","html-keyboard-response","220","725242","0.0-123.0-1.0","null","<p></p>","null","","","","","","","","","","","","","","","","","","",""
"","do_trial","221","730132","0.0-124.0-0.0","291.19999999925494","","","","50","1,1,1","2","city","71","probe-43","0.14383449316147467","1","0.4787780085076655","1","","","","","","","",""
"","html-keyboard-response","222","731136","0.0-124.0-1.0","null","<p></p>","null","","","","","","","","","","","","","","","","","","",""
"","do_trial","223","736039","0.0-125.0-0.0","297.5","","","","50","1,1,1","2","city","72","probe-190","0.09525215047102588","0.8685111123838316","0.6200380638348099","1","","","","","","","",""
"","html-keyboard-response","224","737045","0.0-125.0-1.0","null","<p></p>","null","","","","","","","","","","","","","","","","","","",""
"","do_trial","225","741980","0.0-126.0-0.0","329","","","","50","0,1,0","2","city","73","probe-27","0.23793133684570714","0.6876365908660442","0.4012309591401278","1","","","","","","","",""
"","html-keyboard-response","226","742984","0.0-126.0-1.0","null","<p></p>","null","","","","","","","","","","","","","","","","","","",""
"","do_trial","227","749095","0.0-127.0-0.0","null","","","","null","0,1,0","2","city","74","probe-206","0.30507324942125086","0.6596706452185035","0.4211547623025124","","","","","","","","",""
"","html-keyboard-response","228","750101","0.0-127.0-1.0","null","<p></p>","null","","","","","","","","","","","","","","","","","","",""
"","do_trial","229","754952","0.0-128.0-0.0","248.90000000037253","","","","50","1,1,1","2","city","75","probe-153","0.293794147445187","0.7786293202261808","0.543046087979919","1","","","","","","","",""
"","html-keyboard-response","230","755958","0.0-128.0-1.0","null","<p></p>","null","","","","","","","","","","","","","","","","","","",""
"","do_trial","231","761032","0.0-129.0-0.0","462.20000000018626","","","","50","1,1,1","2","city","76","probe-186","0.37834783146760786","0.7506558341081919","0.4969468328058541","1","","","","","","","",""
"","html-keyboard-response","232","762037","0.0-129.0-1.0","null","<p></p>","null","","","","","","","","","","","","","","","","","","",""
"","do_trial","233","766953","0.0-130.0-0.0","300.20000000018626","","","","50","0,1,0","2","city","77","probe-164","0.1460349342560455","0.7012305259712476","0.4280496478375044","1","","","","","","","",""
"","html-keyboard-response","234","767956","0.0-130.0-1.0","null","<p></p>","null","","","","","","","","","","","","","","","","","","",""
"","do_trial","235","772950","0.0-131.0-0.0","389","","","","50","0,1,0","2","city","78","probe-105","0.10218762122070832","0.7787889019741657","0.4370823271084101","1","","","","","","","",""
"","html-keyboard-response","236","773956","0.0-131.0-1.0","null","<p></p>","null","","","","","","","","","","","","","","","","","","",""
"","do_trial","237","778575","0.0-132.0-0.0","10.800000000745058","","","","50","0,1,1","2","city","79","probe-08","0.08942504869301426","0.6985948376596757","0.4414441338797955","1","","","","","","","",""
"","html-keyboard-response","238","779580","0.0-132.0-1.0","null","<p></p>","null","","","","","","","","","","","","","","","","","","",""
"","do_trial","239","784619","0.0-133.0-0.0","433.59999999962747","","","","50","0,0,0","2","city","80","probe-132","0.05429979956443479","0.6567088271768932","0.538877195350745","0","","","","","","","",""
"","html-keyboard-response","240","785625","0.0-133.0-1.0","null","<p></p>","null","","","","","","","","","","","","","","","","","","",""
"","do_trial","241","790533","0.0-134.0-0.0","299.20000000018626","","","","51","1,0,0","2","city","81","probe-55","0.09886702732049603","0.47820553801538895","0.3931265494967009","0","","","","","","","",""
"","html-keyboard-response","242","791536","0.0-134.0-1.0","null","<p></p>","null","","","","","","","","","","","","","","","","","","",""
"","do_trial","243","796497","0.0-135.0-0.0","358.29999999981374","","","","49","0,0,1","2","city","82","probe-77","0.21831148996654157","0.3639608029220694","0.5262723103914444","0","","","","","","","",""
"","html-keyboard-response","244","797500","0.0-135.0-1.0","null","<p></p>","null","","","","","","","","","","","","","","","","","","",""
"","do_trial","245","803241","0.0-136.0-0.0","1145.9000000003725","","","","50","0,0,0","2","city","83","probe-49","0.1303574663950063","0.09726078806337025","0.5082325990772403","0","","","","","","","",""
"","html-keyboard-response","246","804244","0.0-136.0-1.0","null","<p></p>","null","","","","","","","","","","","","","","","","","","",""
"","do_trial","247","809140","0.0-137.0-0.0","291.09999999962747","","","","51","0,0,0","2","city","84","probe-155","0.27273493942990157","0.13358426029400722","0.5448283227918266","0","","","","","","","",""
"","html-keyboard-response","248","810142","0.0-137.0-1.0","null","<p></p>","null","","","","","","","","","","","","","","","","","","",""
"","do_trial","249","815108","0.0-138.0-0.0","366","","","","49","0,0,1","2","city","85","probe-07","0.34403119277330696","0.08128076417141449","0.6253327446290436","0","","","","","","","",""
"","html-keyboard-response","250","816114","0.0-138.0-1.0","null","<p></p>","null","","","","","","","","","","","","","","","","","","",""
"","do_trial","251","820962","0.0-139.0-0.0","246","","","","50","1,0,0","2","city","86","probe-174","0.4042983795547515","0.11504266888570434","0.5656976598320557","0","","","","","","","",""
"","html-keyboard-response","252","821968","0.0-139.0-1.0","null","<p></p>","null","","","","","","","","","","","","","","","","","","",""
"","do_trial","253","826877","0.0-140.0-0.0","301.29999999981374","","","","50","1,1,0","2","city","87","probe-83","0.3881914954515194","0.20723857804107781","0.7239847415652616","1","","","","","","","",""
"","html-keyboard-response","254","827881","0.0-140.0-1.0","null","<p></p>","null","","","","","","","","","","","","","","","","","","",""
"","do_trial","255","832840","0.0-141.0-0.0","352.90000000037253","","","","50","1,0,1","2","city","88","probe-10","0.39350226434591234","0.18115745846960807","0.6960394142509511","0","","","","","","","",""
"","html-keyboard-response","256","833844","0.0-141.0-1.0","null","<p></p>","null","","","","","","","","","","","","","","","","","","",""
"","do_trial","257","838735","0.0-142.0-0.0","286.1000000005588","","","","49","0,0,1","2","city","89","probe-50","0.3165670197943307","0.29697432618723524","0.7210266008498084","0","","","","","","","",""
"","html-keyboard-response","258","839742","0.0-142.0-1.0","null","<p></p>","null","","","","","","","","","","","","","","","","","","",""
"","do_trial","259","844691","0.0-143.0-0.0","328.90000000037253","","","","51","0,0,1","2","city","90","probe-80","0.34130496089173773","0.0969280755299647","0.6793151095828531","1","","","","","","","",""
"","html-keyboard-response","260","845694","0.0-143.0-1.0","null","<p></p>","null","","","","","","","","","","","","","","","","","","",""
"","do_trial","261","850618","0.0-144.0-0.0","323.79999999981374","","","","51","0,0,1","2","city","91","probe-147","0.3308913281173534","0.05091697517231216","0.6369791866706497","1","","","","","","","",""
"","html-keyboard-response","262","851621","0.0-144.0-1.0","null","<p></p>","null","","","","","","","","","","","","","","","","","","",""
"","do_trial","263","856799","0.0-145.0-0.0","574.5","","","","51","0,0,0","2","city","92","probe-180","0.3765490272278881","0.08103916315387341","0.6388945091816104","0","","","","","","","",""
"","html-keyboard-response","264","857804","0.0-145.0-1.0","null","<p></p>","null","","","","","","","","","","","","","","","","","","",""
"","do_trial","265","862966","0.0-146.0-0.0","549.2999999998137","","","","50","0,0,0","2","city","93","probe-157","0.40237276372290726","0.090445680159801","0.5398083793001139","0","","","","","","","",""
"","html-keyboard-response","266","863969","0.0-146.0-1.0","null","<p></p>","null","","","","","","","","","","","","","","","","","","",""
"","do_trial","267","868881","0.0-147.0-0.0","313.09999999962747","","","","51","1,0,1","2","city","94","probe-128","0.4632492929220552","0.0927181820602825","0.5167720848526651","1","","","","","","","",""
"","html-keyboard-response","268","869886","0.0-147.0-1.0","null","<p></p>","null","","","","","","","","","","","","","","","","","","",""
"","do_trial","269","875118","0.0-148.0-0.0","612.9000000003725","","","","51","0,0,1","2","city","95","probe-142","0.3167403576275824","0.14564408486542568","0.5599539654912262","1","","","","","","","",""
"","html-keyboard-response","270","876121","0.0-148.0-1.0","null","<p></p>","null","","","","","","","","","","","","","","","","","","",""
"","do_trial","271","881058","0.0-149.0-0.0","335.3999999994412","","","","51","0,0,0","2","city","96","probe-112","0.31683401535543293","0.06786757608493937","0.5498503647663413","0","","","","","","","",""
"","html-keyboard-response","272","882065","0.0-149.0-1.0","null","<p></p>","null","","","","","","","","","","","","","","","","","","",""
"","do_trial","273","887201","0.0-150.0-0.0","522.7999999998137","","","","50","0,0,1","2","city","97","probe-75","0.24580917341132985","0.15334454226751057","0.5070010342938263","0","","","","","","","",""
"","html-keyboard-response","274","888204","0.0-150.0-1.0","null","<p></p>","null","","","","","","","","","","","","","","","","","","",""
"","do_trial","275","893155","0.0-151.0-0.0","356.5","","","","51","0,0,0","2","city","98","probe-226","0.3743097557843506","0.0632344899499847","0.5096486659226149","0","","","","","","","",""
"","html-keyboard-response","276","894158","0.0-151.0-1.0","null","<p></p>","null","","","","","","","","","","","","","","","","","","",""
"","do_trial","277","899364","0.0-152.0-0.0","606.5999999996275","","","","51","1,0,1","2","city","99","probe-67","0.49697093084213806","0.09204096441302044","0.57535270634183","1","","","","","","","",""
"","html-keyboard-response","278","900373","0.0-152.0-1.0","null","<p></p>","null","","","","","","","","","","","","","","","","","","",""
"","do_trial","279","905402","0.0-153.0-0.0","413.80000000074506","","","","51","1,1,1","2","city","100","probe-148","0.5345473910258681","0.11183242324922774","0.584660204856439","1","","","","","","","",""
"","html-keyboard-response","280","906408","0.0-153.0-1.0","null","<p></p>","null","","","","","","","","","","","","","","","","","","",""
"","do_trial","281","911540","0.0-154.0-0.0","525.3999999994412","","","","51","1,0,1","2","city","101","probe-108","0.5059014762363734","0.08323833274141139","0.5850582117534197","1","","","","","","","",""
"","html-keyboard-response","282","912544","0.0-154.0-1.0","null","<p></p>","null","","","","","","","","","","","","","","","","","","",""
"","do_trial","283","917428","0.0-155.0-0.0","286.19999999925494","","","","51","0,0,1","2","city","102","probe-228","0.4715524796401418","0.08109587367671676","0.6861914506298946","1","","","","","","","",""
"","html-keyboard-response","284","918435","0.0-155.0-1.0","null","<p></p>","null","","","","","","","","","","","","","","","","","","",""
"","do_trial","285","923403","0.0-156.0-0.0","364.69999999925494","","","","51","0,1,1","2","city","103","probe-107","0.3821796846125307","0.11982483778555497","0.7393033937773226","1","","","","","","","",""
"","html-keyboard-response","286","924408","0.0-156.0-1.0","null","<p></p>","null","","","","","","","","","","","","","","","","","","",""
"","do_trial","287","929674","0.0-157.0-0.0","655.6000000005588","","","","51","0,0,0","2","city","104","probe-94","0.21005235831282845","0.1812223161202455","0.6662801190150798","0","","","","","","","",""
"","html-keyboard-response","288","930680","0.0-157.0-1.0","null","<p></p>","null","","","","","","","","","","","","","","","","","","",""
"","do_trial","289","935645","0.0-158.0-0.0","351.19999999925494","","","","49","0,0,0","2","city","105","probe-141","0.23974351390785187","0.07981732208741754","0.7210731103980382","0","","","","","","","",""
"","html-keyboard-response","290","936651","0.0-158.0-1.0","null","<p></p>","null","","","","","","","","","","","","","","","","","","",""
"","do_trial","291","941705","0.0-159.0-0.0","447.29999999981374","","","","50","0,0,1","2","city","106","probe-87","0.42886678099665004","0.0630864208343371","0.6976790088058213","0","","","","","","","",""
"","html-keyboard-response","292","942710","0.0-159.0-1.0","null","<p></p>","null","","","","","","","","","","","","","","","","","","",""
"","do_trial","293","947556","0.0-160.0-0.0","237.59999999962747","","","","50","1,1,1","2","city","107","probe-129","0.2715464040314715","0.16655107695460453","0.669731503728507","1","","","","","","","",""
"","html-keyboard-response","294","948562","0.0-160.0-1.0","null","<p></p>","null","","","","","","","","","","","","","","","","","","",""
"","do_trial","295","953459","0.0-161.0-0.0","298.70000000018626","","","","50","0,0,1","2","city","108","probe-56","0.2328707064313106","0.3000459351308686","0.7072652811869903","0","","","","","","","",""
"","html-keyboard-response","296","954463","0.0-161.0-1.0","null","<p></p>","null","","","","","","","","","","","","","","","","","","",""
"","do_trial","297","959461","0.0-162.0-0.0","401.40000000037253","","","","51","0,1,0","2","city","109","probe-158","0.3647030645506324","0.10078418123222553","0.6726106745439594","0","","","","","","","",""
"","html-keyboard-response","298","960465","0.0-162.0-1.0","null","<p></p>","null","","","","","","","","","","","","","","","","","","",""
"","do_bye","299","961982","0.0-163.0-0.0","null","","","","null","","","","","","","","","","","","","","","","",""
"","do_travel","300","967988","0.0-164.0-0.0","null","","","","null","","","","","","","","","","","","","","","","",""
"","do_welcome","301","969509","0.0-164.0-1.0","null","","","","null","","","","","","","","","","","","","","","","",""
"","do_trial","302","975111","0.0-165.0-0.0","1001.9000000003725","","","","49","0,0,1","3","forest","110","probe-100","0.376114236844064","0.0993475721182638","1","0","","","","","","","",""
"","html-keyboard-response","303","976115","0.0-165.0-1.0","null","<p></p>","null","","","","","","","","","","","","","","","","","","",""
"","do_trial","304","981098","0.0-166.0-0.0","374.40000000037253","","","","50","0,0,1","3","forest","111","probe-109","0.20033346982104935","0.09169719429201419","1","0","","","","","","","",""
"","html-keyboard-response","305","982104","0.0-166.0-1.0","null","<p></p>","null","","","","","","","","","","","","","","","","","","",""
"","do_trial","306","987174","0.0-167.0-0.0","468","","","","51","1,1,1","3","forest","112","probe-66","0.21878176841531827","0.08749969715508486","0.8348899110439496","1","","","","","","","",""
"","html-keyboard-response","307","988177","0.0-167.0-1.0","null","<p></p>","null","","","","","","","","","","","","","","","","","","",""
"","do_trial","308","993167","0.0-168.0-0.0","394","","","","51","1,0,1","3","forest","113","probe-199","0.25816886959527907","0.055149425713998605","0.8440341937739784","1","","","","","","","",""
"","html-keyboard-response","309","994169","0.0-168.0-1.0","null","<p></p>","null","","","","","","","","","","","","","","","","","","",""
"","do_trial","310","999280","0.0-169.0-0.0","512","","","","51","0,1,1","3","forest","114","probe-47","0.29057163132760017","0.10811874010715404","0.6653681401152357","1","","","","","","","",""
"","html-keyboard-response","311","1000283","0.0-169.0-1.0","null","<p></p>","null","","","","","","","","","","","","","","","","","","",""
"","do_trial","312","1005603","0.0-170.0-0.0","723.1000000005588","","","","51","0,0,0","3","forest","115","probe-63","0.3384685442845738","0.09878270348245302","0.683441027164421","0","","","","","","","",""
"","html-keyboard-response","313","1006606","0.0-170.0-1.0","null","<p></p>","null","","","","","","","","","","","","","","","","","","",""
"","do_trial","314","1011754","0.0-171.0-0.0","542.7999999998137","","","","50","0,1,0","3","forest","116","probe-196","0.4887544646929979","0.22554737451520296","0.7008286773543853","1","","","","","","","",""
"","html-keyboard-response","315","1012760","0.0-171.0-1.0","null","<p></p>","null","","","","","","","","","","","","","","","","","","",""
"","do_trial","316","1017678","0.0-172.0-0.0","318.30000000074506","","","","50","1,0,0","3","forest","117","probe-64","0.36074359950663654","0.12313680193861622","0.7325184596841043","0","","","","","","","",""
"","html-keyboard-response","317","1018684","0.0-172.0-1.0","null","<p></p>","null","","","","","","","","","","","","","","","","","","",""
"","do_trial","318","1023645","0.0-173.0-0.0","352.5","","","","49","0,1,0","3","forest","118","probe-194","0.23321511443070214","0.31258696642615974","0.6195483885501302","0","","","","","","","",""
"","html-keyboard-response","319","1024648","0.0-173.0-1.0","null","<p></p>","null","","","","","","","","","","","","","","","","","","",""
"","do_trial","320","1030726","0.0-174.0-0.0","1483","","","","50","1,0,0","3","forest","119","probe-198","0.2594873629171553","0.499140809633531","0.5344933337480844","0","","","","","","","",""
"","html-keyboard-response","321","1031731","0.0-174.0-1.0","null","<p></p>","null","","","","","","","","","","","","","","","","","","",""
"","do_trial","322","1036787","0.0-175.0-0.0","441","","","","51","0,1,0","3","forest","120","probe-22","0.37950102073847775","0.5549337735753972","0.5685672613962468","0","","","","","","","",""
"","html-keyboard-response","323","1037795","0.0-175.0-1.0","null","<p></p>","null","","","","","","","","","","","","","","","","","","",""
"","do_trial","324","1043003","0.0-176.0-0.0","594.7000000001863","","","","49","0,1,1","3","forest","121","probe-177","0.4183851074469513","0.5297884731789437","0.6119321674286612","0","","","","","","","",""
"","html-keyboard-response","325","1044007","0.0-176.0-1.0","null","<p></p>","null","","","","","","","","","","","","","","","","","","",""
"","do_trial","326","1050162","0.0-177.0-0.0","1540.2000000001863","","","","49","0,0,1","3","forest","122","probe-178","0.5338458714769001","0.2950860311260785","0.5469560001779172","0","","","","","","","",""
"","html-keyboard-response","327","1051168","0.0-177.0-1.0","null","<p></p>","null","","","","","","","","","","","","","","","","","","",""
"","do_trial","328","1056102","0.0-178.0-0.0","328.09999999962747","","","","50","1,0,0","3","forest","123","probe-210","0.48453492308473034","0.19678774901595955","0.40907486615536875","0","","","","","","","",""
"","html-keyboard-response","329","1057105","0.0-178.0-1.0","null","<p></p>","null","","","","","","","","","","","","","","","","","","",""
"","do_trial","330","1062027","0.0-179.0-0.0","317.59999999962747","","","","51","0,0,0","3","forest","124","probe-197","0.548687602932707","0.1353303664023948","0.32952685074714694","0","","","","","","","",""
"","html-keyboard-response","331","1063030","0.0-179.0-1.0","null","<p></p>","null","","","","","","","","","","","","","","","","","","",""
"","do_trial","332","1068377","0.0-180.0-0.0","744.2000000001863","","","","49","1,0,1","3","forest","125","probe-03","0.6335349499807705","0.14634945286538553","0.3025004631211001","1","","","","","","","",""
"","html-keyboard-response","333","1069384","0.0-180.0-1.0","null","<p></p>","null","","","","","","","","","","","","","","","","","","",""
"","do_trial","334","1074499","0.0-181.0-0.0","511.79999999981374","","","","50","1,0,0","3","forest","126","probe-103","0.7357327180484575","0.1970088194763588","0.11993828804628834","0","","","","","","","",""
"","html-keyboard-response","335","1075502","0.0-181.0-1.0","null","<p></p>","null","","","","","","","","","","","","","","","","","","",""
"","do_trial","336","1080487","0.0-182.0-0.0","375.79999999981374","","","","51","1,0,1","3","forest","127","probe-121","0.5761012829157021","0.32236461210584066","0.28312683055699417","1","","","","","","","",""
"","html-keyboard-response","337","1081493","0.0-182.0-1.0","null","<p></p>","null","","","","","","","","","","","","","","","","","","",""
"","do_trial","338","1086580","0.0-183.0-0.0","472.70000000018626","","","","49","0,0,1","3","forest","128","probe-223","0.4944311192752862","0.19855794709087027","0.36075929378149163","0","","","","","","","",""
"","html-keyboard-response","339","1087585","0.0-183.0-1.0","null","<p></p>","null","","","","","","","","","","","","","","","","","","",""
"","do_trial","340","1093064","0.0-184.0-0.0","877.5","","","","50","1,0,0","3","forest","129","probe-29","0.5954204870062239","0.15476552523087386","0.29031958101264815","0","","","","","","","",""
"","html-keyboard-response","341","1094070","0.0-184.0-1.0","null","<p></p>","null","","","","","","","","","","","","","","","","","","",""
"","do_trial","342","1098999","0.0-185.0-0.0","319.40000000037253","","","","49","0,0,0","3","forest","130","probe-90","0.6967030365099464","0.059142584339505436","0.339537437731831","0","","","","","","","",""
"","html-keyboard-response","343","1100003","0.0-185.0-1.0","null","<p></p>","null","","","","","","","","","","","","","","","","","","",""
"","do_trial","344","1104932","0.0-186.0-0.0","309.20000000018626","","","","50","1,0,1","3","forest","131","probe-140","0.7570827112247078","0.05262274084000823","0.4138356108952179","0","","","","","","","",""
"","html-keyboard-response","345","1105936","0.0-186.0-1.0","null","<p></p>","null","","","","","","","","","","","","","","","","","","",""
"","do_trial","346","1110917","0.0-187.0-0.0","366.59999999962747","","","","51","1,0,0","3","forest","132","probe-195","0.807141325484956","0.10393271140058544","0.39431151161715977","0","","","","","","","",""
"","html-keyboard-response","347","1111924","0.0-187.0-1.0","null","<p></p>","null","","","","","","","","","","","","","","","","","","",""
"","do_trial","348","1117048","0.0-188.0-0.0","517.2000000001863","","","","50","1,0,0","3","forest","133","probe-120","0.7136972362838838","0.12917702978106066","0.29685453723423205","0","","","","","","","",""
"","html-keyboard-response","349","1118056","0.0-188.0-1.0","null","<p></p>","null","","","","","","","","","","","","","","","","","","",""
"","do_trial","350","1123375","0.0-189.0-0.0","707.2999999998137","","","","49","1,0,0","3","forest","134","probe-17","0.6420539744965954","0.16254148298452906","0.3864512800103775","1","","","","","","","",""
"","html-keyboard-response","351","1124380","0.0-189.0-1.0","null","<p></p>","null","","","","","","","","","","","","","","","","","","",""
"","do_trial","352","1129369","0.0-190.0-0.0","388.3999999994412","","","","49","0,0,0","3","forest","135","probe-225","0.6999459798714173","0.13701920930567607","0.37075506832543526","0","","","","","","","",""
"","html-keyboard-response","353","1130372","0.0-190.0-1.0","null","<p></p>","null","","","","","","","","","","","","","","","","","","",""
"","do_trial","354","1135331","0.0-191.0-0.0","357.40000000037253","","","","50","1,0,0","3","forest","136","probe-224","0.7070279821950815","0.08299980283766387","0.4681413787878283","0","","","","","","","",""
"","html-keyboard-response","355","1136335","0.0-191.0-1.0","null","<p></p>","null","","","","","","","","","","","","","","","","","","",""
"","do_trial","356","1141275","0.0-192.0-0.0","329.40000000037253","","","","51","1,0,1","3","forest","137","probe-151","0.6452556744361263","0.1900877333317803","0.41643854449399825","1","","","","","","","",""
"","html-keyboard-response","357","1142278","0.0-192.0-1.0","null","<p></p>","null","","","","","","","","","","","","","","","","","","",""
"","do_trial","358","1147936","0.0-193.0-0.0","1060.4000000003725","","","","51","0,0,1","3","forest","138","probe-170","0.5454000124472245","0.25500062796341","0.4531794974644373","1","","","","","","","",""
"","html-keyboard-response","359","1148941","0.0-193.0-1.0","null","<p></p>","null","","","","","","","","","","","","","","","","","","",""
"","do_trial","360","1153966","0.0-194.0-0.0","412.69999999925494","","","","51","1,0,0","3","forest","139","probe-219","0.5480139241876115","0.17763775814845675","0.45158000383091057","0","","","","","","","",""
"","html-keyboard-response","361","1154970","0.0-194.0-1.0","null","<p></p>","null","","","","","","","","","","","","","","","","","","",""
"","do_trial","362","1161253","0.0-195.0-0.0","1680.7000000001863","","","","50","0,0,0","3","forest","140","probe-110","0.41086015734266895","0.27623981611122533","0.47812898946667776","0","","","","","","","",""
"","html-keyboard-response","363","1162257","0.0-195.0-1.0","null","<p></p>","null","","","","","","","","","","","","","","","","","","",""
"","do_trial","364","1167187","0.0-196.0-0.0","330.59999999962747","","","","49","0,0,1","3","forest","141","probe-91","0.5451387875527172","0.2108027695124823","0.33352431193229787","0","","","","","","","",""
"","html-keyboard-response","365","1168193","0.0-196.0-1.0","null","<p></p>","null","","","","","","","","","","","","","","","","","","",""
"","do_trial","366","1172982","0.0-197.0-0.0","182","","","","49","1,0,0","3","forest","142","probe-76","0.5272152652300116","0.05475449561059725","0.27154395536685555","1","","","","","","","",""
"","html-keyboard-response","367","1173989","0.0-197.0-1.0","null","<p></p>","null","","","","","","","","","","","","","","","","","","",""
"","do_trial","368","1179036","0.0-198.0-0.0","435.79999999981374","","","","49","0,1,0","3","forest","143","probe-39","0.5921014740853331","0.1842619438915606","0.33494594784797665","0","","","","","","","",""
"","html-keyboard-response","369","1180043","0.0-198.0-1.0","null","<p></p>","null","","","","","","","","","","","","","","","","","","",""
"","do_trial","370","1184952","0.0-199.0-0.0","306.6000000005588","","","","49","0,0,1","3","forest","144","probe-122","0.544835173608291","0.20097538258464606","0.5041252312481236","0","","","","","","","",""
"","html-keyboard-response","371","1185956","0.0-199.0-1.0","null","<p></p>","null","","","","","","","","","","","","","","","","","","",""
"","do_trial","372","1190979","0.0-200.0-0.0","416.29999999981374","","","","49","0,1,0","3","forest","145","probe-144","0.6574285196468255","0.17525031589581494","0.4328680607765674","0","","","","","","","",""
"","html-keyboard-response","373","1191987","0.0-200.0-1.0","null","<p></p>","null","","","","","","","","","","","","","","","","","","",""
"","do_trial","374","1196868","0.0-201.0-0.0","275.30000000074506","","","","49","1,0,0","3","forest","146","probe-111","0.6017671972482008","0.2506433528140515","0.4316488034889835","1","","","","","","","",""
"","html-keyboard-response","375","1197874","0.0-201.0-1.0","null","<p></p>","null","","","","","","","","","","","","","","","","","","",""
"","do_trial","376","1203052","0.0-202.0-0.0","563.8000000007451","","","","49","1,0,0","3","forest","147","probe-211","0.5462125387040058","0.10073432535137997","0.5132370824263469","1","","","","","","","",""
"","html-keyboard-response","377","1204056","0.0-202.0-1.0","null","<p></p>","null","","","","","","","","","","","","","","","","","","",""
"","do_trial","378","1209612","0.0-203.0-0.0","947.4000000003725","","","","49","0,0,1","3","forest","148","probe-192","0.5248796974755429","0.16611034354637866","0.3930712609780487","0","","","","","","","",""
"","html-keyboard-response","379","1210618","0.0-203.0-1.0","null","<p></p>","null","","","","","","","","","","","","","","","","","","",""
"","do_trial","380","1215609","0.0-204.0-0.0","390.70000000018626","","","","50","1,0,0","3","forest","149","probe-187","0.5032830639607242","0.0823518792089586","0.31774858939341527","0","","","","","","","",""
"","html-keyboard-response","381","1216629","0.0-204.0-1.0","null","<p></p>","null","","","","","","","","","","","","","","","","","","",""
"","do_bye","382","1218148","0.0-205.0-0.0","null","","","","null","","","","","","","","","","","","","","","","",""
"","do_travel","383","1224152","0.0-206.0-0.0","null","","","","null","","","","","","","","","","","","","","","","",""
"","do_welcome","384","1225661","0.0-206.0-1.0","null","","","","null","","","","","","","","","","","","","","","","",""
"","do_trial","385","1231053","0.0-207.0-0.0","793.1000000005588","","","","51","1,0,0","4","coast","150","probe-70","1","0.08933594025316037","0.261113213994798","0","","","","","","","",""
"","html-keyboard-response","386","1232059","0.0-207.0-1.0","null","<p></p>","null","","","","","","","","","","","","","","","","","","",""
"","do_trial","387","1237141","0.0-208.0-0.0","467","","","","50","1,0,0","4","coast","151","probe-34","1","0.06307206370853251","0.1938418427872246","0","","","","","","","",""
"","html-keyboard-response","388","1238145","0.0-208.0-1.0","null","<p></p>","null","","","","","","","","","","","","","","","","","","",""
"","do_trial","389","1243436","0.0-209.0-0.0","693.7000000001863","","","","50","1,1,0","4","coast","152","probe-21","0.8525649567487105","0.1894478721671689","0.056025719257545424","1","","","","","","","",""
"","html-keyboard-response","390","1244439","0.0-209.0-1.0","null","<p></p>","null","","","","","","","","","","","","","","","","","","",""
"","do_trial","391","1250108","0.0-210.0-0.0","1065.7000000001863","","","","50","1,0,0","4","coast","153","probe-179","0.6737001518620218","0.21290630996638882","0.08288189951196696","0","","","","","","","",""
"","html-keyboard-response","392","1251117","0.0-210.0-1.0","null","<p></p>","null","","","","","","","","","","","","","","","","","","",""
"","do_trial","393","1256210","0.0-211.0-0.0","484.59999999962747","","","","49","1,0,1","4","coast","154","probe-165","0.5482457172218174","0.08258041044123798","0.1860263050726477","1","","","","","","","",""
"","html-keyboard-response","394","1257214","0.0-211.0-1.0","null","<p></p>","null","","","","","","","","","","","","","","","","","","",""
"","do_trial","395","1262329","0.0-212.0-0.0","512.7000000001863","","","","49","1,0,0","4","coast","155","probe-15","0.6080725985683969","0.08712511508238734","0.2667530041767035","1","","","","","","","",""
"","html-keyboard-response","396","1263332","0.0-212.0-1.0","null","<p></p>","null","","","","","","","","","","","","","","","","","","",""
"","do_trial","397","1268251","0.0-213.0-0.0","320.6000000005588","","","","50","1,0,0","4","coast","156","probe-220","0.6827921650250767","0.11440448926388908","0.30241142087292106","0","","","","","","","",""
"","html-keyboard-response","398","1269260","0.0-213.0-1.0","null","<p></p>","null","","","","","","","","","","","","","","","","","","",""
"","do_trial","399","1274584","0.0-214.0-0.0","713.2000000001863","","","","51","1,0,1","4","coast","157","probe-69","0.7346664911630879","0.10449186293336606","0.4410388327228702","1","","","","","","","",""
"","html-keyboard-response","400","1275588","0.0-214.0-1.0","null","<p></p>","null","","","","","","","","","","","","","","","","","","",""
"","do_trial","401","1280555","0.0-215.0-0.0","361.20000000018626","","","","49","0,1,1","4","coast","158","probe-104","0.70007036449996","0.15990102267473888","0.29228985475165936","0","","","","","","","",""
"","html-keyboard-response","402","1281559","0.0-215.0-1.0","null","<p></p>","null","","","","","","","","","","","","","","","","","","",""
"","do_trial","403","1286471","0.0-216.0-0.0","315.80000000074506","","","","51","0,0,1","4","coast","159","probe-149","0.5176985233616032","0.11813942129377189","0.4335596984186518","1","","","","","","","",""
"","html-keyboard-response","404","1287475","0.0-216.0-1.0","null","<p></p>","null","","","","","","","","","","","","","","","","","","",""
"","do_trial","405","1292500","0.0-217.0-0.0","409.6000000005588","","","","49","1,1,1","4","coast","160","probe-16","0.4202696880362291","0.18436123441520033","0.43833473740751167","1","","","","","","","",""
"","html-keyboard-response","406","1293505","0.0-217.0-1.0","null","<p></p>","null","","","","","","","","","","","","","","","","","","",""
"","do_trial","407","1298422","0.0-218.0-0.0","305.59999999962747","","","","49","1,0,0","4","coast","161","probe-60","0.4980927591253806","0.05196041106031917","0.5142870097251369","1","","","","","","","",""
"","html-keyboard-response","408","1299426","0.0-218.0-1.0","null","<p></p>","null","","","","","","","","","","","","","","","","","","",""
"","do_trial","409","1304339","0.0-219.0-0.0","311.79999999981374","","","","49","0,0,0","4","coast","162","probe-30","0.2667128955171223","0.2225743312130156","0.40070485860846816","0","","","","","","","",""
"","html-keyboard-response","410","1305345","0.0-219.0-1.0","null","<p></p>","null","","","","","","","","","","","","","","","","","","",""
"","do_trial","411","1310200","0.0-220.0-0.0","247","","","","50","0,0,1","4","coast","163","probe-145","0.26974573162699284","0.2456466800304118","0.49904001283779537","0","","","","","","","",""
"","html-keyboard-response","412","1311204","0.0-220.0-1.0","null","<p></p>","null","","","","","","","","","","","","","","","","","","",""
"","do_trial","413","1316154","0.0-221.0-0.0","343.70000000018626","","","","49","0,1,1","4","coast","164","probe-229","0.1765556024427552","0.28078249433727315","0.5164762759775441","0","","","","","","","",""
"","html-keyboard-response","414","1317158","0.0-221.0-1.0","null","<p></p>","null","","","","","","","","","","","","","","","","","","",""
"","do_trial","415","1322090","0.0-222.0-0.0","334","","","","49","0,1,0","4","coast","165","probe-152","0.14487190790880256","0.15515239832359412","0.540498506317425","0","","","","","","","",""
"","html-keyboard-response","416","1323095","0.0-222.0-1.0","null","<p></p>","null","","","","","","","","","","","","","","","","","","",""
"","do_trial","417","1328009","0.0-223.0-0.0","295.8999999994412","","","","50","0,0,0","4","coast","166","probe-11","0.12776653956714143","0.17926094492464323","0.37178053302167313","0","","","","","","","",""
"","html-keyboard-response","418","1329013","0.0-223.0-1.0","null","<p></p>","null","","","","","","","","","","","","","","","","","","",""
"","do_trial","419","1333911","0.0-224.0-0.0","291.80000000074506","","","","51","0,0,0","4","coast","167","probe-204","0.14467222569137494","0.31534530822810686","0.4583447311621436","0","","","","","","","",""
"","html-keyboard-response","420","1334914","0.0-224.0-1.0","null","<p></p>","null","","","","","","","","","","","","","","","","","","",""
"","do_trial","421","1339866","0.0-225.0-0.0","344.90000000037253","","","","49","0,0,0","4","coast","168","probe-184","0.2416477581125969","0.24065329758616075","0.4024273504786207","0","","","","","","","",""
"","html-keyboard-response","422","1340872","0.0-225.0-1.0","null","<p></p>","null","","","","","","","","","","","","","","","","","","",""
"","do_trial","423","1346033","0.0-226.0-0.0","545.7999999998137","","","","51","0,0,1","4","coast","169","probe-79","0.21400541657015898","0.2466998926338247","0.38215382218462923","1","","","","","","","",""
"","html-keyboard-response","424","1347038","0.0-226.0-1.0","null","<p></p>","null","","","","","","","","","","","","","","","","","","",""
"","do_trial","425","1351952","0.0-227.0-0.0","309.70000000018626","","","","51","1,0,0","4","coast","170","probe-71","0.12966249155347165","0.10720215969360535","0.2764370929222434","0","","","","","","","",""
"","html-keyboard-response","426","1352957","0.0-227.0-1.0","null","<p></p>","null","","","","","","","","","","","","","","","","","","",""
"","do_trial","427","1358381","0.0-228.0-0.0","812.2999999998137","","","","50","0,0,0","4","coast","171","probe-06","0.0541995520184612","0.06787292816123289","0.3872358813010128","0","","","","","","","",""
"","html-keyboard-response","428","1359386","0.0-228.0-1.0","null","<p></p>","null","","","","","","","","","","","","","","","","","","",""
"","do_trial","429","1364419","0.0-229.0-0.0","415.09999999962747","","","","50","1,0,0","4","coast","172","probe-115","0.13874944536571648","0.20189923413086697","0.4980529216524739","0","","","","","","","",""
"","html-keyboard-response","430","1365427","0.0-229.0-1.0","null","<p></p>","null","","","","","","","","","","","","","","","","","","",""
"","do_trial","431","1370304","0.0-230.0-0.0","267.79999999981374","","","","49","0,0,0","4","coast","173","probe-160","0.20823291795497637","0.12240551638032318","0.5283833483185844","0","","","","","","","",""
"","html-keyboard-response","432","1371309","0.0-230.0-1.0","null","<p></p>","null","","","","","","","","","","","","","","","","","","",""
"","do_trial","433","1376184","0.0-231.0-0.0","275.20000000018626","","","","51","0,0,1","4","coast","174","probe-51","0.1871511139611083","0.20665972341740507","0.567755011579229","1","","","","","","","",""
"","html-keyboard-response","434","1377187","0.0-231.0-1.0","null","<p></p>","null","","","","","","","","","","","","","","","","","","",""
"","do_trial","435","1382460","0.0-232.0-0.0","666.3999999994412","","","","50","0,0,1","4","coast","175","probe-116","0.06929842202202995","0.254881538034569","0.5238930770409089","0","","","","","","","",""
"","html-keyboard-response","436","1383464","0.0-232.0-1.0","null","<p></p>","null","","","","","","","","","","","","","","","","","","",""
"","do_trial","437","1388373","0.0-233.0-0.0","305.59999999962747","","","","49","0,0,0","4","coast","176","probe-98","0.1435298533471714","0.32387875610753064","0.4946700332259081","0","","","","","","","",""
"","html-keyboard-response","438","1389379","0.0-233.0-1.0","null","<p></p>","null","","","","","","","","","","","","","","","","","","",""
"","do_trial","439","1394260","0.0-234.0-0.0","264.09999999962747","","","","51","0,1,0","4","coast","177","probe-185","0.13963315331665144","0.39853746693185843","0.6413166788380265","0","","","","","","","",""
"","html-keyboard-response","440","1395265","0.0-234.0-1.0","null","<p></p>","null","","","","","","","","","","","","","","","","","","",""
"","do_trial","441","1401319","0.0-235.0-0.0","1451.8999999994412","","","","50","0,0,1","4","coast","178","probe-193","0.1324186684700479","0.49871403266956055","0.6244753806618756","0","","","","","","","",""
"","html-keyboard-response","442","1402323","0.0-235.0-1.0","null","<p></p>","null","","","","","","","","","","","","","","","","","","",""
"","do_trial","443","1408296","0.0-236.0-0.0","1364.0999999996275","","","","50","0,0,1","4","coast","179","probe-05","0.056600938551347284","0.27914642939865564","0.5759567506481317","0","","","","","","","",""
"","html-keyboard-response","444","1409301","0.0-236.0-1.0","null","<p></p>","null","","","","","","","","","","","","","","","","","","",""
"","do_trial","445","1414298","0.0-237.0-0.0","381.79999999981374","","","","49","0,0,0","4","coast","180","probe-41","0.12311980262318929","0.3426260200780913","0.6617887922881811","0","","","","","","","",""
"","html-keyboard-response","446","1415302","0.0-237.0-1.0","null","<p></p>","null","","","","","","","","","","","","","","","","","","",""
"","do_trial","447","1420421","0.0-238.0-0.0","506.59999999962747","","","","50","0,0,1","4","coast","181","probe-25","0.17691713644326498","0.3093642987840486","0.7173553284904232","0","","","","","","","",""
"","html-keyboard-response","448","1421427","0.0-238.0-1.0","null","<p></p>","null","","","","","","","","","","","","","","","","","","",""
"","do_trial","449","1426313","0.0-239.0-0.0","273.90000000037253","","","","49","0,0,0","4","coast","182","probe-86","0.16298507917183722","0.442651010114447","0.6455130383993484","0","","","","","","","",""
"","html-keyboard-response","450","1427321","0.0-239.0-1.0","null","<p></p>","null","","","","","","","","","","","","","","","","","","",""
"","do_trial","451","1432834","0.0-240.0-0.0","903.2999999998137","","","","49","0,0,1","4","coast","183","probe-175","0.23298767263127992","0.45334037618087036","0.7190746941496807","0","","","","","","","",""
"","html-keyboard-response","452","1433837","0.0-240.0-1.0","null","<p></p>","null","","","","","","","","","","","","","","","","","","",""
"","do_trial","453","1439134","0.0-241.0-0.0","699.2999999998137","","","","49","0,1,1","4","coast","184","probe-138","0.1935504685406134","0.4389862257628073","0.6428986980697112","0","","","","","","","",""
"","html-keyboard-response","454","1440140","0.0-241.0-1.0","null","<p></p>","null","","","","","","","","","","","","","","","","","","",""
"","do_trial","455","1445817","0.0-242.0-0.0","1074.300000000745","","","","49","0,1,0","4","coast","185","probe-57","0.15515157091871865","0.25114445399757207","0.6118703828073027","0","","","","","","","",""
"","html-keyboard-response","456","1446823","0.0-242.0-1.0","null","<p></p>","null","","","","","","","","","","","","","","","","","","",""
"","do_trial","457","1452451","0.0-243.0-0.0","1020.5999999996275","","","","51","0,0,1","4","coast","186","probe-02","0.06051789088936101","0.3372387706487072","0.7482397704915466","1","","","","","","","",""
"","html-keyboard-response","458","1453457","0.0-243.0-1.0","null","<p></p>","null","","","","","","","","","","","","","","","","","","",""
"","do_trial","459","1458342","0.0-244.0-0.0","278.70000000018626","","","","49","0,0,1","4","coast","187","probe-12","0.08606509792429963","0.12573886986079594","0.7111345088923022","0","","","","","","","",""
"","html-keyboard-response","460","1459345","0.0-244.0-1.0","null","<p></p>","null","","","","","","","","","","","","","","","","","","",""
"","do_trial","461","1464349","0.0-245.0-0.0","400.6000000005588","","","","50","0,0,0","4","coast","188","probe-81","0.09943249459328278","0.14942443893936397","0.6666248971957142","0","","","","","","","",""
"","html-keyboard-response","462","1465356","0.0-245.0-1.0","null","<p></p>","null","","","","","","","","","","","","","","","","","","",""
"","do_trial","463","1471819","0.0-246.0-0.0","1862.8999999994412","","","","51","0,0,1","4","coast","189","probe-218","0.0669935793215376","0.21780331178924064","0.5174489194105175","1","","","","","","","",""
"","html-keyboard-response","464","1472823","0.0-246.0-1.0","null","<p></p>","null","","","","","","","","","","","","","","","","","","",""
"","do_bye","465","1474343","0.0-247.0-0.0","null","","","","null","","","","","","","","","","","","","","","","",""
"","do_travel","466","1480347","0.0-248.0-0.0","null","","","","null","","","","","","","","","","","","","","","","",""
"","do_welcome","467","1481860","0.0-248.0-1.0","null","","","","null","","","","","","","","","","","","","","","","",""
"","do_trial","468","1487549","0.0-249.0-0.0","1090.6000000005588","","","","49","0,1,1","5","highway","190","probe-59","0.165940578682218","0.32006891851305985","1","0","","","","","","","",""
"","html-keyboard-response","469","1488556","0.0-249.0-1.0","null","<p></p>","null","","","","","","","","","","","","","","","","","","",""
"","do_trial","470","1493534","0.0-250.0-0.0","366.79999999981374","","","","51","0,0,1","5","highway","191","probe-169","0.11536872341837047","0.14743087405023342","1","1","","","","","","","",""
"","html-keyboard-response","471","1494538","0.0-250.0-1.0","null","<p></p>","null","","","","","","","","","","","","","","","","","","",""
"","do_trial","472","1499681","0.0-251.0-0.0","538.1000000005588","","","","49","0,0,1","5","highway","192","probe-24","0.06238591343132702","0.2439713808490409","0.9266261376388147","0","","","","","","","",""
"","html-keyboard-response","473","1500686","0.0-251.0-1.0","null","<p></p>","null","","","","","","","","","","","","","","","","","","",""
"","do_trial","474","1505651","0.0-252.0-0.0","337.59999999962747","","","","49","0,1,1","5","highway","193","probe-23","0.06510564097718807","0.26043108459201203","0.8563438597339257","0","","","","","","","",""
"","html-keyboard-response","475","1506657","0.0-252.0-1.0","null","<p></p>","null","","","","","","","","","","","","","","","","","","",""
"","do_trial","476","1511985","0.0-253.0-0.0","717.6999999992549","","","","50","0,0,1","5","highway","194","probe-156","0.15784668747903438","0.16873501695026932","0.6954289356239788","0","","","","","","","",""
"","html-keyboard-response","477","1512992","0.0-253.0-1.0","null","<p></p>","null","","","","","","","","","","","","","","","","","","",""
"","do_trial","478","1517992","0.0-254.0-0.0","393.8999999994412","","","","51","0,0,1","5","highway","195","probe-117","0.053898768238524915","0.44825965932364525","0.7192417943898863","1","","","","","","","",""
"","html-keyboard-response","479","1518995","0.0-254.0-1.0","null","<p></p>","null","","","","","","","","","","","","","","","","","","",""
"","do_trial","480","1524287","0.0-255.0-0.0","685.6000000005588","","","","49","0,1,0","5","highway","196","probe-01","0.05076307089872284","0.43540914650959955","0.5572440010386881","0","","","","","","","",""
"","html-keyboard-response","481","1525292","0.0-255.0-1.0","null","<p></p>","null","","","","","","","","","","","","","","","","","","",""
"","do_trial","482","1530404","0.0-256.0-0.0","503","","","","50","0,0,1","5","highway","197","probe-163","0.078490724941543","0.4148054481501342","0.5272135361710936","0","","","","","","","",""
"","html-keyboard-response","483","1531412","0.0-256.0-1.0","null","<p></p>","null","","","","","","","","","","","","","","","","","","",""
"","do_trial","484","1536430","0.0-257.0-0.0","410.09999999962747","","","","51","0,0,1","5","highway","198","probe-189","0.06515421567491916","0.2977007111036829","0.6195458668611934","1","","","","","","","",""
"","html-keyboard-response","485","1537435","0.0-257.0-1.0","null","<p></p>","null","","","","","","","","","","","","","","","","","","",""
"","do_trial","486","1542558","0.0-258.0-0.0","508.70000000018626","","","","49","0,1,0","5","highway","199","probe-191","0.07552104874926856","0.33714500027547395","0.560879154123599","0","","","","","","","",""
"","html-keyboard-response","487","1543565","0.0-258.0-1.0","null","<p></p>","null","","","","","","","","","","","","","","","","","","",""
"","do_trial","488","1548565","0.0-259.0-0.0","398","","","","50","0,0,1","5","highway","200","probe-227","0.23068057589366814","0.2515357665980871","0.5451865920965338","0","","","","","","","",""
"","html-keyboard-response","489","1549571","0.0-259.0-1.0","null","<p></p>","null","","","","","","","","","","","","","","","","","","",""
"","do_trial","490","1554481","0.0-260.0-0.0","306.29999999981374","","","","50","0,0,1","5","highway","201","probe-222","0.1519338011600973","0.1987449628400541","0.6070027027099582","0","","","","","","","",""
"","html-keyboard-response","491","1555488","0.0-260.0-1.0","null","<p></p>","null","","","","","","","","","","","","","","","","","","",""
"","do_trial","492","1560786","0.0-261.0-0.0","685.9000000003725","","","","51","0,0,0","5","highway","202","probe-130","0.11418959915630848","0.32565964454918717","0.3140657604086702","0","","","","","","","",""
"","html-keyboard-response","493","1561794","0.0-261.0-1.0","null","<p></p>","null","","","","","","","","","","","","","","","","","","",""
"","do_trial","494","1567011","0.0-262.0-0.0","599.7000000001863","","","","49","0,0,0","5","highway","203","probe-154","0.20866614473999065","0.510544627765427","0.24336388099688946","0","","","","","","","",""
"","html-keyboard-response","495","1568015","0.0-262.0-1.0","null","<p></p>","null","","","","","","","","","","","","","","","","","","",""
"","do_trial","496","1573492","0.0-263.0-0.0","879.7000000001863","","","","50","1,1,1","5","highway","204","probe-230","0.29995182233796963","0.5942417820285276","0.21956452073911772","1","","","","","","","",""
"","html-keyboard-response","497","1574497","0.0-263.0-1.0","null","<p></p>","null","","","","","","","","","","","","","","","","","","",""
"","do_trial","498","1580065","0.0-264.0-0.0","955.7000000001863","","","","51","1,0,0","5","highway","205","probe-133","0.37475000153148535","0.6058513203341325","0.12319896623909905","0","","","","","","","",""
"","html-keyboard-response","499","1581070","0.0-264.0-1.0","null","<p></p>","null","","","","","","","","","","","","","","","","","","",""
"","do_trial","500","1586849","0.0-265.0-0.0","1176.8999999994412","","","","50","1,1,1","5","highway","206","probe-201","0.3541086084249951","0.6296817100752852","0.23181685053628698","1","","","","","","","",""
"","html-keyboard-response","501","1587852","0.0-265.0-1.0","null","<p></p>","null","","","","","","","","","","","","","","","","","","",""
"","do_trial","502","1593766","0.0-266.0-0.0","1310.4000000003725","","","","49","0,0,1","5","highway","207","probe-82","0.15747098516626395","0.5777961128416511","0.24914219125526035","0","","","","","","","",""
"","html-keyboard-response","503","1594776","0.0-266.0-1.0","null","<p></p>","null","","","","","","","","","","","","","","","","","","",""
"","do_trial","504","1599826","0.0-267.0-0.0","443.29999999981374","","","","50","1,1,1","5","highway","208","probe-61","0.296004759369696","0.604561294557599","0.18100151054069627","1","","","","","","","",""
"","html-keyboard-response","505","1600831","0.0-267.0-1.0","null","<p></p>","null","","","","","","","","","","","","","","","","","","",""
"","do_trial","506","1606255","0.0-268.0-0.0","812.2000000001863","","","","51","1,1,0","5","highway","209","probe-150","0.30335530632178465","0.7557956329853885","0.14070854382672995","0","","","","","","","",""
"","html-keyboard-response","507","1607258","0.0-268.0-1.0","null","<p></p>","null","","","","","","","","","","","","","","","","","","",""
"","do_trial","508","1612551","0.0-269.0-0.0","695","","","","49","0,1,0","5","highway","210","probe-65","0.2113458934143106","0.6952072656711314","0.20182380542237055","0","","","","","","","",""
"","html-keyboard-response","509","1613556","0.0-269.0-1.0","null","<p></p>","null","","","","","","","","","","","","","","","","","","",""
"","do_trial","510","1618532","0.0-270.0-0.0","370.29999999981374","","","","50","0,1,0","5","highway","211","probe-213","0.18173333798569155","0.593984668089823","0.13474033681221906","1","","","","","","","",""
"","html-keyboard-response","511","1619540","0.0-270.0-1.0","null","<p></p>","null","","","","","","","","","","","","","","","","","","",""
"","do_trial","512","1624908","0.0-271.0-0.0","753.2000000001863","","","","51","0,1,0","5","highway","212","probe-73","0.22826751153894886","0.6281743300939513","0.06326843273424376","0","","","","","","","",""
"","html-keyboard-response","513","1625914","0.0-271.0-1.0","null","<p></p>","null","","","","","","","","","","","","","","","","","","",""
"","do_trial","514","1631066","0.0-272.0-0.0","538.2000000001863","","","","50","0,0,0","5","highway","213","probe-48","0.21944969995304295","0.5621174932417068","0.11311278611994376","0","","","","","","","",""
"","html-keyboard-response","515","1632069","0.0-272.0-1.0","null","<p></p>","null","","","","","","","","","","","","","","","","","","",""
"","do_trial","516","1637216","0.0-273.0-0.0","543.0999999996275","","","","49","0,0,0","5","highway","214","probe-28","0.2882762566421409","0.5005930311108535","0.16190491197600376","0","","","","","","","",""
"","html-keyboard-response","517","1638222","0.0-273.0-1.0","null","<p></p>","null","","","","","","","","","","","","","","","","","","",""
"","do_trial","518","1643188","0.0-274.0-0.0","368","","","","50","1,1,0","5","highway","215","probe-52","0.2745053052154846","0.6270367967634765","0.10519729585772457","1","","","","","","","",""
"","html-keyboard-response","519","1644191","0.0-274.0-1.0","null","<p></p>","null","","","","","","","","","","","","","","","","","","",""
"","do_trial","520","1649196","0.0-275.0-0.0","407.1000000005588","","","","50","0,1,0","5","highway","216","probe-123","0.29352579562242515","0.5499574107502122","0.4063920551286485","1","","","","","","","",""
"","html-keyboard-response","521","1650199","0.0-275.0-1.0","null","<p></p>","null","","","","","","","","","","","","","","","","","","",""
"","do_trial","522","1655605","0.0-276.0-0.0","802","","","","51","1,1,1","5","highway","217","probe-68","0.45844073521875617","0.48144818595455163","0.1959075344839631","1","","","","","","","",""
"","html-keyboard-response","523","1656608","0.0-276.0-1.0","null","<p></p>","null","","","","","","","","","","","","","","","","","","",""
"","do_trial","524","1661850","0.0-277.0-0.0","634.5","","","","49","0,0,0","5","highway","218","probe-214","0.4260877445740882","0.44672073595153877","0.057620796696201","0","","","","","","","",""
"","html-keyboard-response","525","1662854","0.0-277.0-1.0","null","<p></p>","null","","","","","","","","","","","","","","","","","","",""
"","do_trial","526","1668535","0.0-278.0-0.0","1074.2000000001863","","","","49","1,0,1","5","highway","219","probe-124","0.370919624553294","0.6761115878133991","0.15531326117632116","1","","","","","","","",""
"","html-keyboard-response","527","1669544","0.0-278.0-1.0","null","<p></p>","null","","","","","","","","","","","","","","","","","","",""
"","do_trial","528","1674632","0.0-279.0-0.0","478.20000000018626","","","","50","0,0,0","5","highway","220","probe-209","0.4032689190094644","0.7277093635465873","0.1459482922010168","0","","","","","","","",""
"","html-keyboard-response","529","1675639","0.0-279.0-1.0","null","<p></p>","null","","","","","","","","","","","","","","","","","","",""
