"success","trial_type","trial_index","time_elapsed","internal_node_id","rt","stimulus","key_press","subject_id","response","choice_outcomes","context_n","context_img_id","trial_n","probe_img_id","pR_red","pR_white","pR_black","outcome","contextArray_ind","validImageProbes","invalidImageProbes","pRew_Red","pRew_White","pRew_Black","availableForMemProbe","choice_blocks"
"true","fullscreen","0","4412","0.0-0.0","","","","","","","","","","","","","","","","","","","","","",""
"","pavlovia","1","4416","0.0-1.0","","","","","","","","","","","","","","","","","","","","","",""
"","html-keyboard-response","2","24888","0.0-2.0","20471.69999998808","<div class='center'><p>Welcome! This is the first day of the experiment which will last ~30 minutes. In this experiment, you are the head captain of a pirate ship traveling around the world to different places. You will complete several different tasks during this experiment. Here is an overview of these tasks:</p><br><p>Day 1</p><p>1. Tutorial and quiz</p><p>2. Pick a pirate game in 6 different places</p><br><p>Day 2</p><p>3. Pick a pirate game and memory game</p><p>4. Final questions and payment</p><br><p>If you complete the entire experiment, you will receive $15 and a possible bonus payment.</p><p><b>[Press the space bar to begin the tutorial]</b></p></div>","32","6149255c91a3107294681f07","","","","","","","","","","","","","","","","","",""
"","html-keyboard-response","3","39201","0.0-3.0","14311.899999976158","<div class='center'><p>You are the head captain of a pirate ship.</p><p> Your pirates rob other ships as they leave the marketplace port.</p> These ships have just sold all their goods at the marketplace, so they have lots and lots of gold on them.</p><p><img src='run_exp/static/images/ship_center.png' height='400'></p><p><b>[Press the space bar to continue]</b></p></div>","32","","","","","","","","","","","","","","","","","","",""
"","html-keyboard-response","4","61629","0.0-4.0","22428","<div class='center'><p>As the head captain, you do not have to rob any ships yourself.</p><p>You get to choose which pirate you want to rob the next ship. </p><p>If they are successful at robbing the ship, then you will get gold coins.</p><p> If they are not successful, then you will get no gold coins.</p><p> The more coins you collect, the more bonus money you will win. So, choose your pirate wisely.</p><p><img src='run_exp/static/images/goal.png' height='400'></p><p><b>[Press the space bar to continue]</b></p><div>","32","","","","","","","","","","","","","","","","","","",""
"","html-keyboard-response","5","81049","0.0-5.0","19419","<div class='center'><p>Even the most skilled pirate will not be able to rob EVERY ship.</p><p> Some ships will have very strong defenses against attacks.</p><p> For example, blue beard, here,  is very good at robbing ships.</p><p> You can press the <b>‘1’</b> button on the keyboard to choose him.</p><p> Try choosing him 10 times to see how often he is successful at robbing ships. </p><p><img src='run_exp/static/images/blue.png' height='500'></p></div>","49","","","","","","","","","","","","","","","","","","",""
"","html-keyboard-response","6","82551","0.0-6.0","null","<br><br><br><br><p><img src='run_exp/static/images/blue_win.png' height='500'></p>","null","","","","","","","","","","","","","","","","","","",""
"","html-keyboard-response","7","84285","0.0-7.0","1732.8999999761581","<br><br><br><br><p><img src='run_exp/static/images/blue.png' height='500'></p>","49","","","","","","","","","","","","","","","","","","",""
"","html-keyboard-response","8","85789","0.0-8.0","null","<br><br><br><br><p><img src='run_exp/static/images/blue_win.png' height='500'></p>","null","","","","","","","","","","","","","","","","","","",""
"","html-keyboard-response","9","88010","0.0-9.0","2220.899999976158","<br><br><br><br><p><img src='run_exp/static/images/blue.png' height='500'></p>","49","","","","","","","","","","","","","","","","","","",""
"","html-keyboard-response","10","89518","0.0-10.0","null","<br><br><br><br><p><img src='run_exp/static/images/blue_win.png' height='500'></p>","null","","","","","","","","","","","","","","","","","","",""
"","html-keyboard-response","11","90630","0.0-11.0","1111.3999999761581","<br><br><br><br><p><img src='run_exp/static/images/blue.png' height='500'></p>","49","","","","","","","","","","","","","","","","","","",""
"","html-keyboard-response","12","92135","0.0-12.0","null","<br><br><br><br><p><img src='run_exp/static/images/blue_no_win.png' height='500'></p>","null","","","","","","","","","","","","","","","","","","",""
"","html-keyboard-response","13","93088","0.0-13.0","951.8999999761581","<br><br><br><br><p><img src='run_exp/static/images/blue.png' height='500'></p>","49","","","","","","","","","","","","","","","","","","",""
"","html-keyboard-response","14","94590","0.0-14.0","null","<br><br><br><br><p><img src='run_exp/static/images/blue_win.png' height='500'></p>","null","","","","","","","","","","","","","","","","","","",""
"","html-keyboard-response","15","95322","0.0-15.0","730.6999999880791","<br><br><br><br><p><img src='run_exp/static/images/blue.png' height='500'></p>","49","","","","","","","","","","","","","","","","","","",""
"","html-keyboard-response","16","96834","0.0-16.0","null","<br><br><br><br><p><img src='run_exp/static/images/blue_win.png' height='500'></p>","null","","","","","","","","","","","","","","","","","","",""
"","html-keyboard-response","17","97564","0.0-17.0","728.5","<br><br><br><br><p><img src='run_exp/static/images/blue.png' height='500'></p>","49","","","","","","","","","","","","","","","","","","",""
"","html-keyboard-response","18","99066","0.0-18.0","null","<br><br><br><br><p><img src='run_exp/static/images/blue_win.png' height='500'></p>","null","","","","","","","","","","","","","","","","","","",""
"","html-keyboard-response","19","99818","0.0-19.0","750.3999999761581","<br><br><br><br><p><img src='run_exp/static/images/blue.png' height='500'></p>","49","","","","","","","","","","","","","","","","","","",""
"","html-keyboard-response","20","101326","0.0-20.0","null","<br><br><br><br><p><img src='run_exp/static/images/blue_no_win.png' height='500'></p>","null","","","","","","","","","","","","","","","","","","",""
"","html-keyboard-response","21","102332","0.0-21.0","1005.5","<br><br><br><br><p><img src='run_exp/static/images/blue.png' height='500'></p>","49","","","","","","","","","","","","","","","","","","",""
"","html-keyboard-response","22","103840","0.0-22.0","null","<br><br><br><br><p><img src='run_exp/static/images/blue_win.png' height='500'></p>","null","","","","","","","","","","","","","","","","","","",""
"","html-keyboard-response","23","104520","0.0-23.0","677.6999999880791","<br><br><br><br><p><img src='run_exp/static/images/blue.png' height='500'></p>","49","","","","","","","","","","","","","","","","","","",""
"","html-keyboard-response","24","106032","0.0-24.0","null","<br><br><br><br><p><img src='run_exp/static/images/blue_win.png' height='500'></p>","null","","","","","","","","","","","","","","","","","","",""
"","html-keyboard-response","25","108959","0.0-25.0","2926","<div class='center'><p> See, he was successful at robbing the ships most of the time but not every time. </p><p><b>[Press the space bar to continue]</b></p></div>","32","","","","","","","","","","","","","","","","","","",""
"","html-keyboard-response","26","115706","0.0-26.0","6745.800000011921","<div class='center'><p>In the game, you will get to choose which of three pirates you want to rob the next ship. <p>Press the <b>‘1’</b> button on your keyboard to pick the pirate with the red beard.</p><p> Press <b>‘2’</b> to pick the pirate with the white beard.</p><p> Press <b>‘3’</b> to pick the pirate with the black beard.</p><p>Try picking a pirate now!</p><p><img src='run_exp/static/images/all_pirates.png' height='500'></p></div>","50","","","","","","","","","","","","","","","","","","",""
"","html-keyboard-response","27","119108","0.0-27.0-0.0","3399.300000011921","<div class='center'><p>This pirate was successful at robbing the ship!</p><p><img src='run_exp/static/images/white_win.png' height='500'></p><p><b>[Press the space bar to continue]</b></p></div>","32","","","","","","","","","","","","","","","","","","",""
"","html-keyboard-response","28","121302","0.0-27.0-1.0","2193","<div class='center'><p>Now try choosing another</p><p><img src='run_exp/static/images/all_pirates.png' height='500'></p></div>","49","","","","","","","","","","","","","","","","","","",""
"","html-keyboard-response","29","123203","0.0-28.0-0.0","1899.300000011921","<div class='center'><p>This pirate was not successful at robbing the ship!</p><p><img src='run_exp/static/images/red_no_win.png' height='500'></p><p><b>[Press the space bar to continue]</b></p></div>","32","","","","","","","","","","","","","","","","","","",""
"","html-keyboard-response","30","128580","0.0-29.0-0.0","5375.900000035763","<div class='center'><p>You’ll stop at these 6 places on your journey.</p><p><img src='run_exp/static/images/all_contexts.png' height='500'></p><p><b>[Press the space bar to continue]</b></p></div>","32","","","","","","","","","","","","","","","","","","",""
"","html-keyboard-response","31","135243","0.0-29.0-1.0","6661.900000035763","<div class='center'><p>How good a pirate is at robbing ships will depend on the current place.</p><p> Some pirates will have been to the place before, and will have more experience robbing ships there.</p><p>So, they will be more successful at stealing gold and bringing it back to you.</p><p><b>[Press the space bar to continue]</b></p></div>","32","","","","","","","","","","","","","","","","","","",""
"","html-keyboard-response","32","153292","0.0-29.0-2.0","18047.80000001192","<div class='center'><p>How successful a pirate is at robbing ships can also change in a place.<p> Ships may hear about the pirates coming and will improve their defenses. This may make it more difficult to rob them.</p><p> Ships may also grow lazy and lower their defenses. This may make it easier to rob them.</p><br><p>Things are always changing on the high seas! So, try your best to pay attention!</p><p><img src='run_exp/static/images/contingency.png' height='500'></p><p><b>[Press the space bar to continue]</b></p></div>","32","","","","","","","","","","","","","","","","","","",""
"","html-keyboard-response","33","266532","0.0-29.0-3.0","113239.40000003576","<div class='center'><p>Once you choose a pirate to rob a ship, you’ll be shown the ship they are robbing.</p><p>The ship will have a picture of the item they sold at the marketplace.</p><p> Try your best to remember the ship and where you saw the ship.</p><p> You’ll have to remember this for later, and remembering this correctly will help you win more bonus money!</p><p>You can remember the ship by remembering the item they sold at the marketplace</p><p>A helpful strategy is to try to come up with a story of the chosen pirate and ship’s item interacting with the scene.</p><p> For example, a ship might have sold travel mugs and you could imagine red beard walking through the city with a travel mug. </p><p>Or imagine an apple falling from a tree into white beard's hands in the forest.</p><p><img src='run_exp/static/images/example_probe.png' height='500'></p><p><b>[Press the space bar to continue]</b></p></div>","32","","","","","","","","","","","","","","","","","","",""
"","html-keyboard-response","34","273069","0.0-29.0-4.0","6535.599999964237","<div class='center'><p>If you don’t make your choice fast enough, you’ll have to wait a few seconds before you can make another one. </p><p>You can’t win more gold. You just have to sit and wait.</p><p><img src='run_exp/static/images/hurry_up.png' height='500'></p><p><b>[Press the space bar to continue]</b></p></div>","32","","","","","","","","","","","","","","","","","","",""
"","html-keyboard-response","35","310875","0.0-29.0-5.0","37804.69999998808","<div class='center'><p>Again, you have two important things to do: </p><b><p> 1. Pick the pirate who you think will be most successful at robbing the next ship.</p></b><b><p> 2. Remember where a pirate robbed a ship.</p> </b><p>Both are important in determining how much bonus money you’ll win.</p><br><p>Let’s try a practice game. The game will start by showing you the pirates. First pick a pirate using the <b> 1, 2, 3 </b> buttons on your keyboard. When you are shown a ship, try to remember the place you’re in by making up a story.</p><p> You only have 3 seconds to pick a pirate, so please make a choice quickly! If you are too slow, you’ll have to wait a bit during the time out.</p><p> Don’t feel rushed, but please do try to make a choice every time.</p><p>How good a pirate is at robbing a ship will change depending on the place they are in and how good the defenses are of the ship.</p> <p>This is just a practice game, so you’re not playing for money. </p><p>You’ll receive a bag which may or may not contain gold coins.</p><p> In the real game, though, you’ll be able to see whether or not you received the gold coins.</p><p> Good luck, remember press <b>'1'</b> to choose red beard, <b>'2'</b> to choose white beard, and <b>'3'</b> to choose black beard</p><p><b>[Press the space bar to begin the practice game]</b></p></div>","32","","","","","","","","","","","","","","","","","","",""
"","do_trial_prac","36","317093","0.0-29.0-6.0","1693.699999988079","","","","50","","","","","","","","","","","","","","","","",""
"","do_trial_prac","37","323100","0.0-29.0-7.0","1486.0999999642372","","","","51","","","","","","","","","","","","","","","","",""
"","do_trial_prac","38","329678","0.0-29.0-8.0","2064.400000035763","","","","49","","","","","","","","","","","","","","","","",""
"","do_trial_prac","39","335766","0.0-29.0-9.0","1572.8999999761581","","","","51","","","","","","","","","","","","","","","","",""
"","do_trial_prac","40","342201","0.0-29.0-10.0","1920.7999999523163","","","","50","","","","","","","","","","","","","","","","",""
"","html-keyboard-response","41","355721","0.0-29.0-11.0","13518.5","<div class='center'><p>Great job on the practice game!</p><p> Now, you will be asked you some true or false questions to make sure you really understand the rules of the game.</p><p> Press <b>'1'</b> on the keyboard for true and press <b>'2'</b> for false.</p><p><b>[Press the space bar to begin the quiz]</b></p></div>","32","","","","","","","","","","","","","","","","","","",""
"","html-keyboard-response","42","362595","0.0-29.0-12.0","6873","<div class='center'><p>You win bonus money by making choices as fast as possible.</p><p>Press 1 for true and press  2 for false.</p></div>","50","","","","","","","","","","","","","","","","","","",""
"","html-keyboard-response","43","364248","0.0-30.0-0.0","1650.5999999642372","<br><br><br><br><p>That's correct!</p> <p><b>[press the space bar to continue with the quiz]</b></p>","32","","","","","","","","","","","","","","","","","","",""
"","html-keyboard-response","44","368466","0.0-30.0-1.0","4217.900000035763","<div class='center'><p>You press the <b>‘3’</b> button on the keyboard to choose the red bearded pirate? </p><p>Press 1 for true and press  2 for false.</p></div>","50","","","","","","","","","","","","","","","","","","",""
"","html-keyboard-response","45","370482","0.0-31.0-0.0","2013.6000000238419","<br><br><br><br><p>That's correct!</p> <p><b>[press the space bar to continue with the quiz]</b></p>","32","","","","","","","","","","","","","","","","","","",""
"","html-keyboard-response","46","373813","0.0-31.0-1.0","3330.100000023842","<div class='center'><p>A pirate will always be equally successful at robbing ships in each place</p><p>Press 1 for true and press  2 for false.</p></div>","50","","","","","","","","","","","","","","","","","","",""
"","html-keyboard-response","47","374832","0.0-32.0-0.0","1018","<br><br><br><br><p>That's correct!</p> <p><b>[press the space bar to continue with the quiz]</b></p>","32","","","","","","","","","","","","","","","","","","",""
"","html-keyboard-response","48","377083","0.0-32.0-1.0","2250.199999988079","<div class='center'><p>You should remember the place where a pirate robbed a ship.</p><p>Press 1 for true and press  2 for false.</p></div>","49","","","","","","","","","","","","","","","","","","",""
"","html-keyboard-response","49","379639","0.0-33.0-0.0","2545.600000023842","<br><br><br><br><p>That's correct!</p> <p><b>[press the space bar to continue with the quiz]</b></p>","32","","","","","","","","","","","","","","","","","","",""
"","html-keyboard-response","50","391239","0.0-34.0-0.0","11598","<br><br><br><br><p>Good job! You’re now ready to move on to the real game!</p> <p><br>[press the space bar to begin!]</br></p>","32","","","","","","","","","","","","","","","","","","",""
"","do_welcome","51","392753","0.0-35.0-0.0","null","","","","null","","","","","","","","","","","","","","","","",""
"","do_trial","52","398650","0.0-36.0-0.0","1336.699999988079","","","","49","1,0,0","0","highway","0","probe-98","1","0.4","0.1","1","","","","","","","",""
"","do_trial","53","404019","0.0-37.0-0.0","824.3000000119209","","","","50","1,1,0","0","highway","1","probe-94","1","0.40634419522268483","0.061422775619267414","1","","","","","","","",""
"","do_trial","54","409180","0.0-38.0-0.0","611.6999999880791","","","","49","1,1,0","0","highway","2","probe-127","1","0.4251083106159647","0.14529478111901692","1","","","","","","","",""
"","do_trial","55","414198","0.0-39.0-0.0","459.30000001192093","","","","51","1,0,1","0","highway","3","probe-221","1","0.27965411812346047","0.05267667816482885","1","","","","","","","",""
"","do_trial","56","419880","0.0-40.0-0.0","1117","","","","50","1,0,0","0","highway","4","probe-207","0.9036396636443946","0.4199596916520625","0.11531731174935062","0","","","","","","","",""
"","do_trial","57","426334","0.0-41.0-0.0","1881.199999988079","","","","49","1,0,0","0","highway","5","probe-131","0.8328443783400628","0.3018988311448673","0.12324585786081693","1","","","","","","","",""
"","do_trial","58","432513","0.0-42.0-0.0","1603","","","","49","1,1,1","0","highway","6","probe-23","0.9073266324043185","0.4542629511532985","0.1626513645272398","1","","","","","","","",""
"","do_trial","59","438111","0.0-43.0-0.0","1024","","","","51","1,0,0","0","highway","7","probe-72","0.9109519607119306","0.5527358720937566","0.3403536721634983","0","","","","","","","",""
"","do_trial","60","443696","0.0-44.0-0.0","1006.5","","","","50","1,0,1","0","highway","8","probe-115","0.7964688481338991","0.3708154231322579","0.2689298335448757","0","","","","","","","",""
"","do_trial","61","449208","0.0-45.0-0.0","937","","","","49","1,1,0","0","highway","9","probe-91","0.6963705445761516","0.3996008519390665","0.16636717581493343","1","","","","","","","",""
"","do_trial","62","454977","0.0-46.0-0.0","1219.6000000238419","","","","49","0,1,0","0","highway","10","probe-212","0.490239734959952","0.43802811697340494","0.37837184143117797","0","","","","","","","",""
"","do_trial","63","462298","0.0-47.0-0.0","2770.7000000476837","","","","50","1,1,1","0","highway","11","probe-204","0.5165304005373114","0.41340730773952344","0.4436717280861963","1","","","","","","","",""
"","do_trial","64","468275","0.0-48.0-0.0","1427.5","","","","51","0,0,0","0","highway","12","probe-215","0.29847163197772536","0.12549273597136484","0.5213870129258009","0","","","","","","","",""
"","do_trial","65","473892","0.0-49.0-0.0","1056","","","","49","0,0,0","0","highway","13","probe-67","0.3878584051094083","0.07776443145353845","0.7798551156228005","0","","","","","","","",""
"","do_trial","66","479712","0.0-50.0-0.0","1230","","","","50","1,0,0","0","highway","14","probe-17","0.3308544748567976","0.06893545806898944","0.704868338113448","0","","","","","","","",""
"","do_trial","67","485830","0.0-51.0-0.0","1537.199999988079","","","","51","1,0,0","0","highway","15","probe-50","0.3316910160978429","0.13208531943063767","0.7076229860969733","0","","","","","","","",""
"","do_trial","68","491956","0.0-52.0-0.0","1563.4000000357628","","","","49","1,0,1","0","highway","16","probe-229","0.48886494693685023","0.2117410255187275","0.771588584461534","1","","","","","","","",""
"","do_trial","69","498103","0.0-53.0-0.0","1569.699999988079","","","","51","0,0,1","0","highway","17","probe-47","0.41358933765957484","0.2421189715202636","0.6250938950882565","1","","","","","","","",""
"","do_trial","70","504798","0.0-54.0-0.0","2120.900000035763","","","","50","1,0,0","0","highway","18","probe-186","0.3427422915881316","0.10075724658053653","0.693796850232059","0","","","","","","","",""
"","do_trial","71","511344","0.0-55.0-0.0","1974.300000011921","","","","51","1,0,0","0","highway","19","probe-126","0.29533176253052207","0.19301285969073195","0.6346368625485614","0","","","","","","","",""
"","do_trial","72","518354","0.0-56.0-0.0","2438.099999964237","","","","50","0,0,0","0","highway","20","probe-179","0.25034031158179715","0.13020479223892045","0.7167674799716702","0","","","","","","","",""
"","do_trial","73","524559","0.0-57.0-0.0","1628.699999988079","","","","49","1,0,1","0","highway","21","probe-183","0.2695906864123432","0.14187520731448144","0.6062167048019902","1","","","","","","","",""
"","do_trial","74","529577","0.0-58.0-0.0","471.39999997615814","","","","49","0,1,1","0","highway","22","probe-87","0.2776418865037859","0.2381210325485077","0.7840606461443896","0","","","","","","","",""
"","do_trial","75","536143","0.0-59.0-0.0","2020.300000011921","","","","51","0,1,0","0","highway","23","probe-198","0.33550467130430345","0.2450163586387722","0.8177229239850052","0","","","","","","","",""
"","do_trial","76","542566","0.0-60.0-0.0","1867.8999999761581","","","","50","1,0,0","0","highway","24","probe-82","0.23506825863202746","0.1012647585342588","0.7842912952501118","0","","","","","","","",""
"","do_trial","77","549246","0.0-61.0-0.0","2105.699999988079","","","","49","0,0,1","0","highway","25","probe-34","0.15481462689082792","0.2894747565492129","0.7089802036512546","0","","","","","","","",""
"","do_trial","78","554819","0.0-62.0-0.0","1015.1000000238419","","","","49","0,0,1","0","highway","26","probe-228","0.14320288893005534","0.15006766186324558","0.8733904706646705","0","","","","","","","",""
"","do_trial","79","560729","0.0-63.0-0.0","1356.199999988079","","","","50","1,0,1","0","highway","27","probe-160","0.19886605833681475","0.05276385505885012","0.7132791045223966","0","","","","","","","",""
"","do_trial","80","567370","0.0-64.0-0.0","2085.900000035763","","","","50","0,1,0","0","highway","28","probe-109","0.1953969635038613","0.13713575286387414","0.7028815667032796","1","","","","","","","",""
"","do_trial","81","573628","0.0-65.0-0.0","1680.800000011921","","","","51","1,0,1","0","highway","29","probe-159","0.3160432427171415","0.1135292274417955","0.7189832169083203","1","","","","","","","",""
"","do_trial","82","580930","0.0-66.0-0.0","2732.100000023842","","","","51","1,0,1","0","highway","30","probe-232","0.40753209277159363","0.07301236589651745","0.8839791075468841","1","","","","","","","",""
"","do_trial","83","586953","0.0-67.0-0.0","1435.2000000476837","","","","49","1,0,1","0","highway","31","probe-220","0.33915083650256983","0.1821995280824056","0.8738010599415366","1","","","","","","","",""
"","do_trial","84","592451","0.0-68.0-0.0","952.3999999761581","","","","49","1,0,1","0","highway","32","probe-195","0.32415538159364554","0.05441840538924801","0.8217344113985311","1","","","","","","","",""
"","do_trial","85","598346","0.0-69.0-0.0","1322.1000000238419","","","","49","0,0,1","0","highway","33","probe-219","0.2517342573510619","0.0862104196660304","0.8038946652120761","0","","","","","","","",""
"","do_trial","86","604066","0.0-70.0-0.0","1165.800000011921","","","","50","1,0,1","0","highway","34","probe-203","0.2831024478183603","0.10048480920664102","0.9249072863794916","0","","","","","","","",""
"","do_trial","87","610975","0.0-71.0-0.0","2360.800000011921","","","","51","1,0,1","0","highway","35","probe-33","0.26966779833157684","0.2598164769869522","0.9425800488502794","1","","","","","","","",""
"","do_trial","88","617024","0.0-72.0-0.0","null","","","","null","0,1,1","0","highway","36","probe-173","0.3027654194221318","0.2932348537417291","0.8383206012610738","","","","","","","","",""
"","do_trial","89","622253","0.0-73.0-0.0","648.0999999642372","","","","51","0,0,1","0","highway","37","probe-185","0.48518144999869045","0.21567115975672763","0.875887665758822","1","","","","","","","",""
"","do_trial","90","627598","0.0-74.0-0.0","789.5","","","","51","1,0,1","0","highway","38","probe-14","0.3653586889852947","0.18156746849516187","0.674246355252873","1","","","","","","","",""
"","do_trial","91","632981","0.0-75.0-0.0","805.5","","","","51","1,0,0","0","highway","39","probe-217","0.3510257585160189","0.31307165278458715","0.7014029136756025","0","","","","","","","",""
"","do_bye","92","634501","0.0-76.0-0.0","null","","","","null","","","","","","","","","","","","","","","","",""
"","do_travel","93","640505","0.0-77.0-0.0","null","","","","null","","","","","","","","","","","","","","","","",""
"","do_welcome","94","642015","0.0-77.0-1.0","null","","","","null","","","","","","","","","","","","","","","","",""
"","do_trial","95","649138","0.0-78.0-0.0","2554.699999988079","","","","49","0,1,1","1","city","40","probe-36","0.30401992008907225","0.3358510476841132","1","0","","","","","","","",""
"","do_trial","96","654817","0.0-79.0-0.0","1129.800000011921","","","","50","1,1,1","1","city","41","probe-114","0.30213077287922757","0.3887809534334878","1","1","","","","","","","",""
"","do_trial","97","661149","0.0-80.0-0.0","1783.8999999761581","","","","50","0,0,1","1","city","42","probe-146","0.4716197435526891","0.3394464610728789","1","0","","","","","","","",""
"","do_trial","98","666792","0.0-81.0-0.0","1084.6000000238419","","","","51","1,0,1","1","city","43","probe-130","0.46764017343608244","0.2635507745960766","1","1","","","","","","","",""
"","do_trial","99","671753","0.0-82.0-0.0","414","","","","51","0,0,1","1","city","44","probe-09","0.48694661282050006","0.1606813563642983","0.8724214812128515","1","","","","","","","",""
"","do_trial","100","677013","0.0-83.0-0.0","710.1999999880791","","","","51","1,0,0","1","city","45","probe-144","0.4957180604788534","0.19418875014569778","0.8150360013696212","0","","","","","","","",""
"","do_trial","101","682980","0.0-84.0-0.0","1420.5","","","","51","0,0,1","1","city","46","probe-22","0.49283789667206285","0.18946103506925094","0.8402870975027439","1","","","","","","","",""
"","do_trial","102","687872","0.0-85.0-0.0","341.10000002384186","","","","51","1,0,1","1","city","47","probe-119","0.5877212905937028","0.21725152582783672","0.8619767792342993","1","","","","","","","",""
"","do_trial","103","692770","0.0-86.0-0.0","348.39999997615814","","","","51","0,0,1","1","city","48","probe-147","0.5439812566420585","0.08440820405942195","0.8361026844069119","1","","","","","","","",""
"","do_trial","104","699882","0.0-87.0-0.0","2534.899999976158","","","","50","0,0,1","1","city","49","probe-123","0.4595953622255577","0.15224154270909704","0.8114357820813268","0","","","","","","","",""
"","do_trial","105","706189","0.0-88.0-0.0","1739.699999988079","","","","49","0,0,0","1","city","50","probe-28","0.5733322494797151","0.22375736311696834","0.454652222262866","0","","","","","","","",""
"","do_trial","106","711045","0.0-89.0-0.0","300.80000001192093","","","","51","1,1,0","1","city","51","probe-171","0.7591223663701852","0.3656050853660174","0.28044270929269405","0","","","","","","","",""
"","do_trial","107","717406","0.0-90.0-0.0","1808.6000000238419","","","","51","1,1,1","1","city","52","probe-84","0.787242296968303","0.41437336077402104","0.3893691926721411","1","","","","","","","",""
"","do_trial","108","722926","0.0-91.0-0.0","932.1000000238419","","","","50","1,0,0","1","city","53","probe-153","0.8085011363359046","0.30211389142320205","0.19813563674148973","0","","","","","","","",""
"","do_trial","109","728558","0.0-92.0-0.0","1082.199999988079","","","","50","1,0,0","1","city","54","probe-66","0.9038442414024671","0.2670658404598783","0.19347068396300088","0","","","","","","","",""
"","do_trial","110","733862","0.0-93.0-0.0","725.8000000119209","","","","49","1,0,1","1","city","55","probe-86","0.7910484823434901","0.5286158207190184","0.15800086832611457","1","","","","","","","",""
"","do_trial","111","739174","0.0-94.0-0.0","736.6000000238419","","","","49","1,1,1","1","city","56","probe-103","0.7977778982921835","0.38794774628580075","0.23496249951223522","1","","","","","","","",""
"","do_trial","112","744504","0.0-95.0-0.0","765.1999999880791","","","","49","0,0,0","1","city","57","probe-156","0.5935717280968936","0.4639193903441248","0.15783656105693333","0","","","","","","","",""
"","do_trial","113","750285","0.0-96.0-0.0","1215.300000011921","","","","49","1,0,0","1","city","58","probe-116","0.7004869695857611","0.5316551300398473","0.11244851326971389","1","","","","","","","",""
"","do_trial","114","755461","0.0-97.0-0.0","598.9000000357628","","","","49","1,1,0","1","city","59","probe-145","0.8017629004850946","0.405322993466593","0.23732110398750145","1","","","","","","","",""
"","do_trial","115","761609","0.0-98.0-0.0","1582.1000000238419","","","","49","1,1,0","1","city","60","probe-201","0.8088534696566637","0.4133760538186978","0.21844145302152862","1","","","","","","","",""
"","do_trial","116","766489","0.0-99.0-0.0","296.39999997615814","","","","49","1,1,0","1","city","61","probe-101","0.7925779744517254","0.34895728350390487","0.15354700410752897","1","","","","","","","",""
"","do_trial","117","771947","0.0-100.0-0.0","883.6000000238419","","","","49","0,1,0","1","city","62","probe-230","0.7638913046432912","0.4118126574738939","0.06352473583907564","0","","","","","","","",""
"","do_trial","118","777637","0.0-101.0-0.0","1148.800000011921","","","","50","1,0,1","1","city","63","probe-213","0.7723467326750365","0.30713341954346723","0.22537745665587708","0","","","","","","","",""
"","do_trial","119","784022","0.0-102.0-0.0","1807.199999988079","","","","51","0,1,0","1","city","64","probe-122","0.7279962429938872","0.37021068617322783","0.24589362341823967","0","","","","","","","",""
"","do_trial","120","790335","0.0-103.0-0.0","1745","","","","51","0,0,0","1","city","65","probe-170","0.7529369503282713","0.4129241328515245","0.1656741363538956","0","","","","","","","",""
"","do_trial","121","796044","0.0-104.0-0.0","1119.199999988079","","","","51","0,0,0","1","city","66","probe-52","0.8760507293595143","0.3361146224256962","0.1619121986995334","0","","","","","","","",""
"","do_trial","122","801903","0.0-105.0-0.0","1306.1000000238419","","","","49","1,1,0","1","city","67","probe-78","0.7973619111889899","0.297086881620997","0.06827252293422667","1","","","","","","","",""
"","do_trial","123","806779","0.0-106.0-0.0","319.4000000357628","","","","49","1,1,0","1","city","68","probe-200","0.7357335283118239","0.36186692496158523","0.058509658807525816","1","","","","","","","",""
"","do_trial","124","812251","0.0-107.0-0.0","916.8999999761581","","","","49","1,0,0","1","city","69","probe-95","0.5765276673875684","0.2399216907711518","0.07473173770779665","1","","","","","","","",""
"","do_trial","125","817815","0.0-108.0-0.0","1015.1000000238419","","","","49","0,0,0","1","city","70","probe-73","0.6763516438842712","0.22124558612079218","0.0863863986758632","0","","","","","","","",""
"","do_trial","126","823893","0.0-109.0-0.0","null","","","","null","1,0,0","1","city","71","probe-58","0.6701200363804614","0.3377350141013044","0.06666569834196798","","","","","","","","",""
"","do_trial","127","828761","0.0-110.0-0.0","294.0999999642372","","","","50","0,1,0","1","city","72","probe-59","0.6177142048486028","0.29304280986545467","0.06659355448971128","1","","","","","","","",""
"","do_trial","128","834066","0.0-111.0-0.0","732.5","","","","50","1,1,0","1","city","73","probe-124","0.7424973031146711","0.3375813764940332","0.09018821376084699","1","","","","","","","",""
"","do_trial","129","840123","0.0-112.0-0.0","1470.4000000357628","","","","50","1,1,0","1","city","74","probe-63","0.9358707676831619","0.45309215619125065","0.13448347735235786","1","","","","","","","",""
"","do_trial","130","845186","0.0-113.0-0.0","482.30000001192093","","","","50","1,1,0","1","city","75","probe-227","0.9038956298118737","0.48893302533633","0.08567344997718959","1","","","","","","","",""
"","do_trial","131","850182","0.0-114.0-0.0","432.19999998807907","","","","50","1,0,0","1","city","76","probe-169","0.8914122419864592","0.48968713308661105","0.13182933729407878","0","","","","","","","",""
"","do_trial","132","855369","0.0-115.0-0.0","636.6999999880791","","","","51","1,0,0","1","city","77","probe-19","0.813036441738611","0.465741929043576","0.11167338784604777","0","","","","","","","",""
"","do_trial","133","860454","0.0-116.0-0.0","540.1000000238419","","","","51","1,1,0","1","city","78","probe-39","0.864572394026054","0.5343961868976108","0.07552318478637846","0","","","","","","","",""
"","do_trial","134","865535","0.0-117.0-0.0","486.9000000357628","","","","51","0,1,0","1","city","79","probe-184","0.787462070970806","0.5299881701824216","0.18126170409125672","0","","","","","","","",""
"","do_bye","135","867061","0.0-118.0-0.0","null","","","","null","","","","","","","","","","","","","","","","",""
"","do_travel","136","873068","0.0-119.0-0.0","null","","","","null","","","","","","","","","","","","","","","","",""
"","do_welcome","137","874575","0.0-119.0-1.0","null","","","","null","","","","","","","","","","","","","","","","",""
"","do_trial","138","880653","0.0-120.0-0.0","null","","","","null","1,1,1","2","forest","80","probe-178","1","0.6173241299559711","0.1788218325895505","","","","","","","","",""
"","do_trial","139","886541","0.0-121.0-0.0","1312.199999988079","","","","49","1,0,0","2","forest","81","probe-194","1","0.5435816349671503","0.161351907760674","1","","","","","","","",""
"","do_trial","140","891491","0.0-122.0-0.0","413.60000002384186","","","","49","1,1,1","2","forest","82","probe-226","1","0.4129822506548164","0.1392611957807896","1","","","","","","","",""
"","do_trial","141","896409","0.0-123.0-0.0","370.60000002384186","","","","49","1,1,1","2","forest","83","probe-180","1","0.3052391047736835","0.08721182163579727","1","","","","","","","",""
"","do_trial","142","902211","0.0-124.0-0.0","1207.300000011921","","","","49","1,0,0","2","forest","84","probe-46","0.9062293627042177","0.30386168799246444","0.061907275519444374","1","","","","","","","",""
"","do_trial","143","907863","0.0-125.0-0.0","1074","","","","49","1,0,1","2","forest","85","probe-56","0.8581084501296954","0.29826492231728674","0.09798050198361118","1","","","","","","","",""
"","do_trial","144","913232","0.0-126.0-0.0","821.5","","","","49","0,1,0","2","forest","86","probe-125","0.802142156570473","0.45566535938661645","0.08026787729913938","0","","","","","","","",""
"","do_trial","145","918589","0.0-127.0-0.0","781.0999999642372","","","","51","1,1,0","2","forest","87","probe-53","0.8493255695275348","0.242199308323224","0.07448073044884077","0","","","","","","","",""
"","do_trial","146","923927","0.0-128.0-0.0","756","","","","51","1,0,0","2","forest","88","probe-192","0.9353679863672665","0.2897309029670099","0.06265475503663626","0","","","","","","","",""
"","do_trial","147","929031","0.0-129.0-0.0","530.8000000119209","","","","51","0,1,0","2","forest","89","probe-121","0.9172299591196955","0.25215645668573244","0.1331206416461626","0","","","","","","","",""
"","do_trial","148","934872","0.0-130.0-0.0","1289.5","","","","50","1,0,0","2","forest","90","probe-41","0.8079144614721545","0.2631071482294647","0.18510497504599915","0","","","","","","","",""
"","do_trial","149","939796","0.0-131.0-0.0","378.89999997615814","","","","50","1,0,0","2","forest","91","probe-136","0.6544722239357388","0.4898707756258607","0.15147296121541312","0","","","","","","","",""
"","do_trial","150","944803","0.0-132.0-0.0","432.2999999523163","","","","50","1,0,0","2","forest","92","probe-172","0.43956568965862264","0.5704772662609027","0.1423577708611302","0","","","","","","","",""
"","do_trial","151","950219","0.0-133.0-0.0","838.7999999523163","","","","50","1,0,0","2","forest","93","probe-106","0.559391747599723","0.7500758291618539","0.13806774022230023","0","","","","","","","",""
"","do_trial","152","956860","0.0-134.0-0.0","2056.400000035763","","","","51","0,1,0","2","forest","94","probe-62","0.517891314010012","0.7796409836795195","0.12455783055418154","0","","","","","","","",""
"","do_trial","153","961707","0.0-135.0-0.0","297.89999997615814","","","","49","0,0,0","2","forest","95","probe-75","0.4803695933934737","0.8912827089287438","0.19622368253183722","0","","","","","","","",""
"","do_trial","154","966895","0.0-136.0-0.0","631.8999999761581","","","","49","1,1,0","2","forest","96","probe-163","0.2493910474108619","0.9363264860307272","0.16026636152287627","1","","","","","","","",""
"","do_trial","155","971824","0.0-137.0-0.0","386","","","","49","1,1,1","2","forest","97","probe-40","0.4058422156825206","0.9481148894849285","0.1225658622489664","1","","","","","","","",""
"","do_trial","156","976685","0.0-138.0-0.0","282.39999997615814","","","","49","0,1,0","2","forest","98","probe-133","0.42339332576952277","0.9178192187554121","0.08299565975804513","0","","","","","","","",""
"","do_trial","157","981968","0.0-139.0-0.0","701.3999999761581","","","","51","0,1,0","2","forest","99","probe-03","0.4925226675537243","0.913347404047506","0.1382525127461916","0","","","","","","","",""
"","do_trial","158","987020","0.0-140.0-0.0","471.80000001192093","","","","51","0,1,0","2","forest","100","probe-55","0.36854840903145586","0.8325164660576652","0.14051054601483873","0","","","","","","","",""
"","do_trial","159","992475","0.0-141.0-0.0","881.8999999761581","","","","51","0,1,1","2","forest","101","probe-105","0.3350268779047226","0.9226257421482956","0.17208828644787746","1","","","","","","","",""
"","do_trial","160","998079","0.0-142.0-0.0","1022.1999999880791","","","","50","0,1,0","2","forest","102","probe-176","0.3755161849592715","0.887106828232674","0.3181179207143174","1","","","","","","","",""
"","do_trial","161","1002912","0.0-143.0-0.0","260.60000002384186","","","","50","1,1,1","2","forest","103","probe-44","0.4865535337928704","0.7529114508704194","0.20259079967625584","1","","","","","","","",""
"","do_trial","162","1007928","0.0-144.0-0.0","473.39999997615814","","","","50","0,1,0","2","forest","104","probe-142","0.5194641462299711","0.636539972342023","0.16655502718071138","1","","","","","","","",""
"","do_trial","163","1012736","0.0-145.0-0.0","256.0999999642372","","","","50","1,1,0","2","forest","105","probe-120","0.43061508517452546","0.6678903167248929","0.08873346234678366","1","","","","","","","",""
"","do_trial","164","1017592","0.0-146.0-0.0","317.30000001192093","","","","50","0,0,1","2","forest","106","probe-45","0.4271092532783649","0.7713292319967423","0.13187397551982194","0","","","","","","","",""
"","do_trial","165","1022710","0.0-147.0-0.0","539","","","","51","0,1,0","2","forest","107","probe-26","0.40234736472581795","0.5843267520460634","0.29466576978387077","0","","","","","","","",""
"","do_trial","166","1027930","0.0-148.0-0.0","645.4000000357628","","","","49","1,1,0","2","forest","108","probe-208","0.4228248932841552","0.5946338641541739","0.23629597653455256","1","","","","","","","",""
"","do_trial","167","1032949","0.0-149.0-0.0","447.7000000476837","","","","49","0,1,0","2","forest","109","probe-93","0.3301881437143257","0.686672496324322","0.08862847577619624","0","","","","","","","",""
"","do_trial","168","1037939","0.0-150.0-0.0","441.2999999523163","","","","50","0,1,1","2","forest","110","probe-29","0.3486317527501537","0.8560164989279376","0.18499245298155792","1","","","","","","","",""
"","do_trial","169","1043460","0.0-151.0-0.0","962.6000000238419","","","","50","1,0,0","2","forest","111","probe-140","0.3731379143250129","0.7264172488603794","0.1511642472682757","0","","","","","","","",""
"","do_trial","170","1049610","0.0-152.0-0.0","1602.199999988079","","","","51","0,1,0","2","forest","112","probe-154","0.3763068648834124","0.7828221745470686","0.11880449243162985","0","","","","","","","",""
"","do_trial","171","1054746","0.0-153.0-0.0","561","","","","51","1,0,0","2","forest","113","probe-05","0.4101936499853515","0.8218898913224597","0.149972791657196","0","","","","","","","",""
"","do_trial","172","1059855","0.0-154.0-0.0","539.5","","","","49","0,1,0","2","forest","114","probe-139","0.38859960326247217","0.7801115055699305","0.11937604888901256","0","","","","","","","",""
"","do_trial","173","1064798","0.0-155.0-0.0","391.5","","","","50","1,0,0","2","forest","115","probe-65","0.3574863025055501","0.7634731398678268","0.25614781742251036","0","","","","","","","",""
"","do_trial","174","1070555","0.0-156.0-0.0","1215.2999999523163","","","","49","0,1,0","2","forest","116","probe-236","0.3655992907995334","0.8033595353527743","0.2633938391070382","0","","","","","","","",""
"","do_trial","175","1075396","0.0-157.0-0.0","267.4000000357628","","","","49","1,1,1","2","forest","117","probe-38","0.37573962137490063","0.7829749314244401","0.2925232554421078","1","","","","","","","",""
"","do_trial","176","1080754","0.0-158.0-0.0","777.6000000238419","","","","49","0,1,0","2","forest","118","probe-211","0.31010577860093724","0.692166565789441","0.18660630274990223","0","","","","","","","",""
"","do_trial","177","1086460","0.0-159.0-0.0","1135.800000011921","","","","49","0,1,1","2","forest","119","probe-161","0.4456862654919945","0.6844639205336941","0.23211310382570152","0","","","","","","","",""
"","do_bye","178","1087977","0.0-160.0-0.0","null","","","","null","","","","","","","","","","","","","","","","",""
"","do_travel","179","1093983","0.0-161.0-0.0","null","","","","null","","","","","","","","","","","","","","","","",""
"","do_welcome","180","1095493","0.0-161.0-1.0","null","","","","null","","","","","","","","","","","","","","","","",""
"","do_trial","181","1101641","0.0-162.0-0.0","1570.1000000238419","","","","49","0,1,1","3","mountain","120","probe-11","0.3205771553896804","1","0.42826374128657535","0","","","","","","","",""
"","do_trial","182","1106928","0.0-163.0-0.0","707.8000000119209","","","","50","0,1,0","3","mountain","121","probe-143","0.2138885750471411","1","0.45961359552765907","1","","","","","","","",""
"","do_trial","183","1112636","0.0-164.0-0.0","1136.5","","","","50","0,1,0","3","mountain","122","probe-137","0.2295830198627177","1","0.343486540114176","1","","","","","","","",""
"","do_trial","184","1117667","0.0-165.0-0.0","457.19999998807907","","","","50","0,1,0","3","mountain","123","probe-15","0.29558091014419957","1","0.2959475223561946","1","","","","","","","",""
"","do_trial","185","1122269","0.0-166.0-0.0","28","","","","50","1,1,0","3","mountain","124","probe-04","0.37743357047504517","0.9031099842048192","0.35786198338549957","1","","","","","","","",""
"","do_trial","186","1127140","0.0-167.0-0.0","304.69999998807907","","","","50","1,0,1","3","mountain","125","probe-13","0.3710812404369601","0.9322958438497879","0.23365851449682665","0","","","","","","","",""
"","do_trial","187","1132415","0.0-168.0-0.0","697.1000000238419","","","","51","0,1,0","3","mountain","126","probe-187","0.34068987994025307","0.9077453823714449","0.14953237936972663","0","","","","","","","",""
"","do_trial","188","1137323","0.0-169.0-0.0","365.60000002384186","","","","49","0,1,0","3","mountain","127","probe-24","0.3837610169847268","0.7048851749198299","0.1310139570963472","0","","","","","","","",""
"","do_trial","189","1142242","0.0-170.0-0.0","356.10000002384186","","","","50","0,1,0","3","mountain","128","probe-177","0.33707492391768","0.8887183497240259","0.14385085482469942","1","","","","","","","",""
"","do_trial","190","1147031","0.0-171.0-0.0","239.39999997615814","","","","50","1,1,0","3","mountain","129","probe-60","0.28855332442319237","0.8733443894442141","0.12151241120214122","1","","","","","","","",""
"","do_trial","191","1151894","0.0-172.0-0.0","312.69999998807907","","","","50","0,1,1","3","mountain","130","probe-134","0.4284080652498533","0.5517225474432804","0.2719673928466233","1","","","","","","","",""
"","do_trial","192","1156770","0.0-173.0-0.0","314","","","","50","0,1,0","3","mountain","131","probe-218","0.6616018370187429","0.2361000378332072","0.3766188353362323","1","","","","","","","",""
"","do_trial","193","1161802","0.0-174.0-0.0","479.9000000357628","","","","50","0,0,0","3","mountain","132","probe-237","0.6838850775163628","0.10667020174621589","0.30906800420037817","0","","","","","","","",""
"","do_trial","194","1166701","0.0-175.0-0.0","349.7000000476837","","","","51","1,1,1","3","mountain","133","probe-88","0.7325656268774963","0.2451023919975402","0.5367536449576455","1","","","","","","","",""
"","do_trial","195","1171625","0.0-176.0-0.0","382.2000000476837","","","","51","1,0,0","3","mountain","134","probe-117","0.7914371840768523","0.16300032358588565","0.6036560668622772","0","","","","","","","",""
"","do_trial","196","1176903","0.0-177.0-0.0","732.6000000238419","","","","49","1,0,1","3","mountain","135","probe-30","0.8542244238932384","0.2147283066591239","0.5736499700320391","1","","","","","","","",""
"","do_trial","197","1182404","0.0-178.0-0.0","952.1999999880791","","","","49","0,0,0","3","mountain","136","probe-16","0.882054898791054","0.32071254592123366","0.4079685341671726","0","","","","","","","",""
"","do_trial","198","1187865","0.0-179.0-0.0","882.6000000238419","","","","50","1,1,0","3","mountain","137","probe-202","0.7258463593875176","0.2526045665723538","0.4173821987541427","1","","","","","","","",""
"","do_trial","199","1193552","0.0-180.0-0.0","1112.3999999761581","","","","50","1,0,1","3","mountain","138","probe-54","0.8683995636916981","0.26779125691781086","0.18059481287630103","0","","","","","","","",""
"","do_trial","200","1199126","0.0-181.0-0.0","992.0999999642372","","","","51","1,0,0","3","mountain","139","probe-205","0.7669740397036879","0.11616730124833206","0.18076910408886995","0","","","","","","","",""
"","do_trial","201","1204397","0.0-182.0-0.0","725.8000000119209","","","","49","1,0,1","3","mountain","140","probe-164","0.6848842579098385","0.12957563859081647","0.36293742086900904","1","","","","","","","",""
"","do_trial","202","1209358","0.0-183.0-0.0","404.0999999642372","","","","49","1,0,0","3","mountain","141","probe-08","0.7835681617832291","0.06641339191034074","0.33152019718842335","1","","","","","","","",""
"","do_trial","203","1214599","0.0-184.0-0.0","694.4000000357628","","","","49","1,0,1","3","mountain","142","probe-231","0.805299769996314","0.10318129882660718","0.3641119432888079","1","","","","","","","",""
"","do_trial","204","1219760","0.0-185.0-0.0","611.1000000238419","","","","49","1,0,0","3","mountain","143","probe-49","0.8006814886395585","0.07591860055686066","0.290964209594908","1","","","","","","","",""
"","do_trial","205","1225099","0.0-186.0-0.0","787.8999999761581","","","","49","0,0,1","3","mountain","144","probe-76","0.9127066885652871","0.08683719783161738","0.3576891608151877","0","","","","","","","",""
"","do_trial","206","1229905","0.0-187.0-0.0","255.80000001192093","","","","50","1,0,0","3","mountain","145","probe-206","0.9176927180153015","0.0829946233844228","0.5260799794270107","0","","","","","","","",""
"","do_trial","207","1235488","0.0-188.0-0.0","990.1999999880791","","","","51","1,0,1","3","mountain","146","probe-57","0.8004109104745607","0.11269060742486196","0.5449340247470379","1","","","","","","","",""
"","do_trial","208","1240370","0.0-189.0-0.0","314.19999998807907","","","","51","1,0,0","3","mountain","147","probe-89","0.7873308390946788","0.17923520138554072","0.3977451793409281","0","","","","","","","",""
"","do_trial","209","1245340","0.0-190.0-0.0","394.5","","","","49","1,0,1","3","mountain","148","probe-21","0.9302944757199274","0.20048300138007946","0.31041836383296484","1","","","","","","","",""
"","do_trial","210","1250612","0.0-191.0-0.0","683.5","","","","49","1,0,0","3","mountain","149","probe-74","0.9397012040408764","0.17036120863719062","0.44130389513329915","1","","","","","","","",""
"","do_trial","211","1255315","0.0-192.0-0.0","129.89999997615814","","","","49","1,0,0","3","mountain","150","probe-235","0.8027741147084805","0.10483056950399398","0.28950995511611355","1","","","","","","","",""
"","do_trial","212","1260280","0.0-193.0-0.0","414.80000001192093","","","","49","1,0,0","3","mountain","151","probe-216","0.7325693221131424","0.16408487819846912","0.4177288415858065","1","","","","","","","",""
"","do_trial","213","1266558","0.0-194.0-0.0","1736.199999988079","","","","49","1,0,1","3","mountain","152","probe-77","0.8520262093721338","0.1306425295103354","0.4229421823344594","1","","","","","","","",""
"","do_trial","214","1271756","0.0-195.0-0.0","614.5","","","","49","1,0,1","3","mountain","153","probe-135","0.7510535543931878","0.0656492016946989","0.40472726317267776","1","","","","","","","",""
"","do_trial","215","1276532","0.0-196.0-0.0","180.5","","","","49","0,0,1","3","mountain","154","probe-162","0.7565686236978484","0.13964356472879008","0.504903584423635","0","","","","","","","",""
"","do_trial","216","1282064","0.0-197.0-0.0","984.3000000119209","","","","50","1,0,0","3","mountain","155","probe-193","0.9414819579999315","0.15981030994272188","0.525591322855633","0","","","","","","","",""
"","do_trial","217","1287261","0.0-198.0-0.0","616.4000000357628","","","","50","1,0,1","3","mountain","156","probe-189","0.863583706798523","0.07969825772072717","0.37988342434021316","0","","","","","","","",""
"","do_trial","218","1292100","0.0-199.0-0.0","267.5","","","","51","1,0,1","3","mountain","157","probe-06","0.7800280601239271","0.13815884914866103","0.31088042460130966","1","","","","","","","",""
"","do_trial","219","1296964","0.0-200.0-0.0","295.60000002384186","","","","51","1,0,0","3","mountain","158","probe-69","0.841061062405545","0.1567778061559292","0.3690374668489444","0","","","","","","","",""
"","do_trial","220","1301819","0.0-201.0-0.0","275.10000002384186","","","","49","1,0,0","3","mountain","159","probe-199","0.9341821090755386","0.19391559473811876","0.4009036387883709","1","","","","","","","",""
"","do_bye","221","1303338","0.0-202.0-0.0","null","","","","null","","","","","","","","","","","","","","","","",""
"","do_travel","222","1309351","0.0-203.0-0.0","null","","","","null","","","","","","","","","","","","","","","","",""
"","do_welcome","223","1310859","0.0-203.0-1.0","null","","","","null","","","","","","","","","","","","","","","","",""
"","do_trial","224","1317568","0.0-204.0-0.0","2140.100000023842","","","","49","1,0,0","4","coast","160","probe-70","1","0.09691453186263368","0.5698157776277311","1","","","","","","","",""
"","do_trial","225","1323101","0.0-205.0-0.0","953.0999999642372","","","","50","1,0,0","4","coast","161","probe-99","1","0.05294817825706117","0.5948015178685525","0","","","","","","","",""
"","do_trial","226","1329777","0.0-206.0-0.0","2130.899999976158","","","","51","1,0,1","4","coast","162","probe-02","1","0.05059695990842793","0.398870906028487","1","","","","","","","",""
"","do_trial","227","1335168","0.0-207.0-0.0","804","","","","51","1,0,0","4","coast","163","probe-35","1","0.10910208884396032","0.3642300595037408","0","","","","","","","",""
"","do_trial","228","1340393","0.0-208.0-0.0","648.5","","","","49","1,0,0","4","coast","164","probe-80","0.9300849409473078","0.15407512632826417","0.20971512120202873","1","","","","","","","",""
"","do_trial","229","1345722","0.0-209.0-0.0","789.0999999642372","","","","49","1,0,0","4","coast","165","probe-174","0.8613298675843715","0.2442532445027266","0.2756649702205302","1","","","","","","","",""
"","do_trial","230","1350822","0.0-210.0-0.0","527.8000000119209","","","","49","1,0,0","4","coast","166","probe-96","0.6789529208463155","0.31508174527864036","0.20223509564477318","1","","","","","","","",""
"","do_trial","231","1356164","0.0-211.0-0.0","791.5","","","","49","1,0,0","4","coast","167","probe-61","0.5465103232930568","0.22311990171337304","0.16384377763152044","1","","","","","","","",""
"","do_trial","232","1361026","0.0-212.0-0.0","302.9000000357628","","","","49","0,1,0","4","coast","168","probe-07","0.47886417687150484","0.20211279060599352","0.2086872924869427","0","","","","","","","",""
"","do_trial","233","1366610","0.0-213.0-0.0","1009.1999999880791","","","","50","1,0,1","4","coast","169","probe-167","0.6443040226379694","0.11392209615244545","0.30293782517864315","0","","","","","","","",""
"","do_trial","234","1371399","0.0-214.0-0.0","251.80000001192093","","","","51","1,0,0","4","coast","170","probe-239","0.6225571489397408","0.35498445452727617","0.25503000124470815","0","","","","","","","",""
"","do_trial","235","1376312","0.0-215.0-0.0","341.10000002384186","","","","51","0,1,1","4","coast","171","probe-168","0.45083699516611064","0.5697730627564345","0.2677229216594347","1","","","","","","","",""
"","do_trial","236","1381037","0.0-216.0-0.0","188.30000001192093","","","","51","0,1,0","4","coast","172","probe-188","0.4532811290703488","0.6920314429824147","0.39851611138349297","0","","","","","","","",""
"","do_trial","237","1386680","0.0-217.0-0.0","1094.300000011921","","","","49","0,1,0","4","coast","173","probe-32","0.33345241321089475","0.6374281378856944","0.4410862981611256","0","","","","","","","",""
"","do_trial","238","1391495","0.0-218.0-0.0","274.30000001192093","","","","50","0,0,0","4","coast","174","probe-196","0.28900446281635156","0.7765752148231502","0.4111857897903394","0","","","","","","","",""
"","do_trial","239","1396359","0.0-219.0-0.0","295.7000000476837","","","","50","0,1,0","4","coast","175","probe-152","0.16468785750433243","0.8124216366707491","0.4344310867975989","1","","","","","","","",""
"","do_trial","240","1403420","0.0-220.0-0.0","2490","","","","50","0,0,1","4","coast","176","probe-100","0.11272856219887588","0.7542322782918152","0.2869209919806472","0","","","","","","","",""
"","do_trial","241","1408892","0.0-221.0-0.0","898.5","","","","51","0,1,1","4","coast","177","probe-83","0.14796184290201186","0.7416034985295445","0.42125805951809925","1","","","","","","","",""
"","do_trial","242","1413836","0.0-222.0-0.0","376.5999999642372","","","","51","0,1,1","4","coast","178","probe-158","0.1380968265458082","0.6650801589566203","0.5540139563355247","1","","","","","","","",""
"","do_trial","243","1418669","0.0-223.0-0.0","257.0999999642372","","","","51","0,1,0","4","coast","179","probe-128","0.21489928200994735","0.794643677272355","0.4698577116636793","0","","","","","","","",""
"","do_trial","244","1424279","0.0-224.0-0.0","1025.300000011921","","","","49","0,1,0","4","coast","180","probe-197","0.10479955054149849","0.9279694302216175","0.4040050016668355","0","","","","","","","",""
"","do_trial","245","1429232","0.0-225.0-0.0","411.2999999523163","","","","49","1,1,0","4","coast","181","probe-18","0.1434285713244192","0.9154014763604328","0.3024373553079156","1","","","","","","","",""
"","do_trial","246","1435371","0.0-226.0-0.0","1595.5","","","","49","0,1,0","4","coast","182","probe-71","0.1297623386596986","0.8979100407247651","0.4321799738763755","0","","","","","","","",""
"","do_trial","247","1441428","0.0-227.0-0.0","1468.2000000476837","","","","49","0,1,0","4","coast","183","probe-175","0.10208198752523469","0.7804736316073789","0.45089061142764075","0","","","","","","","",""
"","do_trial","248","1446095","0.0-228.0-0.0","79.39999997615814","","","","49","0,1,0","4","coast","184","probe-214","0.19243267199338945","0.8616546513951591","0.5245139879937485","0","","","","","","","",""
"","do_trial","249","1451672","0.0-229.0-0.0","990.6999999880791","","","","50","0,1,0","4","coast","185","probe-148","0.20744329077453302","0.9137978065930122","0.23886116815851982","1","","","","","","","",""
"","do_trial","250","1456539","0.0-230.0-0.0","323.9000000357628","","","","50","0,1,0","4","coast","186","probe-165","0.1962535079169078","0.9386819429467933","0.1422951805272875","1","","","","","","","",""
"","do_trial","251","1461812","0.0-231.0-0.0","699.8000000119209","","","","50","0,1,0","4","coast","187","probe-224","0.17356149881252225","0.8383276210863515","0.24610281275136792","1","","","","","","","",""
"","do_trial","252","1466893","0.0-232.0-0.0","538.1999999880791","","","","50","0,1,0","4","coast","188","probe-51","0.13897861374299708","0.7970872336468549","0.295728143216088","1","","","","","","","",""
"","do_trial","253","1471724","0.0-233.0-0.0","262.19999998807907","","","","50","0,1,1","4","coast","189","probe-110","0.1384239642158641","0.7483063207380287","0.3390310769818104","1","","","","","","","",""
"","do_trial","254","1476580","0.0-234.0-0.0","301.89999997615814","","","","50","0,1,1","4","coast","190","probe-112","0.2101775648213151","0.747283230130659","0.35317706060137655","1","","","","","","","",""
"","do_trial","255","1481764","0.0-235.0-0.0","631.6999999880791","","","","50","0,1,0","4","coast","191","probe-149","0.05338329472147688","0.7032556099532229","0.40693118404886547","1","","","","","","","",""
"","do_trial","256","1486628","0.0-236.0-0.0","324.19999998807907","","","","50","0,1,1","4","coast","192","probe-10","0.0645550925480223","0.7249399473637695","0.5551578055857198","1","","","","","","","",""
"","do_trial","257","1491585","0.0-237.0-0.0","401.39999997615814","","","","50","0,1,1","4","coast","193","probe-138","0.08005172919314457","0.8262914701493373","0.5301053382679062","1","","","","","","","",""
"","do_trial","258","1496399","0.0-238.0-0.0","253.30000001192093","","","","50","0,1,1","4","coast","194","probe-129","0.0735341055797615","0.9212182422942757","0.5822267145249055","1","","","","","","","",""
"","do_trial","259","1501665","0.0-239.0-0.0","691.5","","","","50","0,1,0","4","coast","195","probe-132","0.1312414980970063","0.8927354595402113","0.516318428568471","1","","","","","","","",""
"","do_trial","260","1506709","0.0-240.0-0.0","491.30000001192093","","","","50","0,1,0","4","coast","196","probe-190","0.07295483600144059","0.8266207096525576","0.5003651962025495","1","","","","","","","",""
"","do_trial","261","1511650","0.0-241.0-0.0","365.60000002384186","","","","50","0,1,0","4","coast","197","probe-210","0.11768826732222003","0.7919861616644578","0.6190045531575661","1","","","","","","","",""
"","do_trial","262","1516748","0.0-242.0-0.0","552.6000000238419","","","","50","0,1,1","4","coast","198","probe-155","0.05161713268932792","0.7101761887664292","0.5390483815301698","1","","","","","","","",""
"","do_trial","263","1522558","0.0-243.0-0.0","1251.199999988079","","","","50","1,1,0","4","coast","199","probe-12","0.08298538607136574","0.6971275588763493","0.4590988332030809","1","","","","","","","",""
"","do_bye","264","1524063","0.0-244.0-0.0","null","","","","null","","","","","","","","","","","","","","","","",""
"","do_travel","265","1530071","0.0-245.0-0.0","null","","","","null","","","","","","","","","","","","","","","","",""
"","do_welcome","266","1531590","0.0-245.0-1.0","null","","","","null","","","","","","","","","","","","","","","","",""
"","do_trial","267","1538385","0.0-246.0-0.0","2226.5","","","","50","0,1,1","5","countryside","200","probe-48","0.07651744119191792","1","0.39575976045116645","1","","","","","","","",""
"","do_trial","268","1543878","0.0-247.0-0.0","904.6999999880791","","","","50","0,1,0","5","countryside","201","probe-85","0.05048949535236364","1","0.3083367460984826","1","","","","","","","",""
"","do_trial","269","1548697","0.0-248.0-0.0","251.60000002384186","","","","50","0,1,0","5","countryside","202","probe-191","0.10489928982590098","1","0.28107157075175193","1","","","","","","","",""
"","do_trial","270","1553801","0.0-249.0-0.0","537","","","","50","0,1,0","5","countryside","203","probe-113","0.16111691312082133","1","0.25991929354431953","1","","","","","","","",""
"","do_trial","271","1559465","0.0-250.0-0.0","1080.0999999642372","","","","50","0,1,1","5","countryside","204","probe-37","0.06952337683068124","0.91227029435077","0.38321038494945825","1","","","","","","","",""
"","do_trial","272","1564289","0.0-251.0-0.0","275.7000000476837","","","","50","1,0,1","5","countryside","205","probe-43","0.10701410133048189","0.8489855892462923","0.4080351289699133","0","","","","","","","",""
"","do_trial","273","1569919","0.0-252.0-0.0","1070.2999999523163","","","","51","0,1,1","5","countryside","206","probe-81","0.09383031913121245","0.7224081212736377","0.15688618470802596","1","","","","","","","",""
"","do_trial","274","1575166","0.0-253.0-0.0","694.7000000476837","","","","51","0,1,0","5","countryside","207","probe-182","0.11970534894736329","0.847838409238278","0.23309969526861526","0","","","","","","","",""
"","do_trial","275","1580457","0.0-254.0-0.0","738.3000000119209","","","","51","1,1,1","5","countryside","208","probe-97","0.23271881645830292","0.9276541221185327","0.3792054503362536","1","","","","","","","",""
"","do_trial","276","1585329","0.0-255.0-0.0","305","","","","51","0,0,0","5","countryside","209","probe-150","0.24351640577420225","0.8380010328834923","0.3717528680108515","0","","","","","","","",""
"","do_trial","277","1590332","0.0-256.0-0.0","443.30000001192093","","","","49","1,1,0","5","countryside","210","probe-111","0.48292460237866763","0.6771335837805461","0.3796862716328277","1","","","","","","","",""
"","do_trial","278","1595580","0.0-257.0-0.0","699.6999999880791","","","","49","1,1,0","5","countryside","211","probe-151","0.6325837483868739","0.4864224190657083","0.2301182290325264","1","","","","","","","",""
"","do_trial","279","1600597","0.0-258.0-0.0","471.4000000357628","","","","49","0,1,0","5","countryside","212","probe-233","0.6477458990015825","0.5397578878915483","0.14911651323986078","0","","","","","","","",""
"","do_trial","280","1605419","0.0-259.0-0.0","250.5999999642372","","","","50","0,1,0","5","countryside","213","probe-107","0.6294544687801695","0.541383357611997","0.19362593776825437","1","","","","","","","",""
"","do_trial","281","1610288","0.0-260.0-0.0","296.0999999642372","","","","50","1,1,0","5","countryside","214","probe-104","0.8083500589662895","0.4089965178440899","0.07170091564622708","1","","","","","","","",""
"","do_trial","282","1615189","0.0-261.0-0.0","309.89999997615814","","","","50","1,0,0","5","countryside","215","probe-108","0.8190929126792758","0.4541945106718485","0.10564005202073183","0","","","","","","","",""
"","do_trial","283","1622102","0.0-262.0-0.0","2366.400000035763","","","","51","1,0,0","5","countryside","216","probe-240","0.6925906320108827","0.49278175965295073","0.05145302944710414","0","","","","","","","",""
"","do_trial","284","1627160","0.0-263.0-0.0","490.39999997615814","","","","51","1,0,0","5","countryside","217","probe-118","0.7191858688075018","0.49704751688001625","0.09818333261228473","0","","","","","","","",""
"","do_trial","285","1631960","0.0-264.0-0.0","220.5","","","","49","1,0,0","5","countryside","218","probe-31","0.7113536620388484","0.5750383885780791","0.10570430382579046","1","","","","","","","",""
"","do_trial","286","1636782","0.0-265.0-0.0","245.0999999642372","","","","49","1,0,0","5","countryside","219","probe-222","0.9326763391725831","0.3824500944270375","0.08445812472943874","1","","","","","","","",""
"","do_trial","287","1641685","0.0-266.0-0.0","326.10000002384186","","","","49","1,0,0","5","countryside","220","probe-79","0.8705152625441238","0.378309809910121","0.06532987771437584","1","","","","","","","",""
"","do_trial","288","1646792","0.0-267.0-0.0","515.3999999761581","","","","49","1,1,1","5","countryside","221","probe-42","0.8788461359717862","0.3420696314914541","0.21577470965736847","1","","","","","","","",""
"","do_trial","289","1651803","0.0-268.0-0.0","468.5999999642372","","","","49","1,0,0","5","countryside","222","probe-238","0.7914628084313666","0.36713191168150566","0.13963888769143198","1","","","","","","","",""
"","do_trial","290","1656698","0.0-269.0-0.0","317.30000001192093","","","","49","1,0,1","5","countryside","223","probe-166","0.8187857683325658","0.4619441171189541","0.05379833215561331","1","","","","","","","",""
"","do_trial","291","1661945","0.0-270.0-0.0","660.5999999642372","","","","49","0,0,0","5","countryside","224","probe-90","0.7325814312700857","0.24642985983548474","0.05634898334524972","0","","","","","","","",""
"","do_trial","292","1668482","0.0-271.0-0.0","1988.3999999761581","","","","50","0,1,0","5","countryside","225","probe-141","0.6724485904222024","0.3434286653057987","0.09876842912357954","1","","","","","","","",""
"","do_trial","293","1673378","0.0-272.0-0.0","316.19999998807907","","","","50","0,1,0","5","countryside","226","probe-68","0.6631574120486019","0.202421050435902","0.06942006658726753","1","","","","","","","",""
"","do_trial","294","1678608","0.0-273.0-0.0","675.4000000357628","","","","50","0,0,0","5","countryside","227","probe-209","0.6301215929793073","0.1303977932858928","0.15458810317226734","0","","","","","","","",""
"","do_trial","295","1684275","0.0-274.0-0.0","1088.800000011921","","","","51","1,0,0","5","countryside","228","probe-157","0.8233863071327937","0.1305524457662893","0.1032108664273138","0","","","","","","","",""
"","do_trial","296","1690645","0.0-275.0-0.0","1785.800000011921","","","","50","1,1,0","5","countryside","229","probe-102","0.8648772888452443","0.3137796528175163","0.2422710955195531","1","","","","","","","",""
"","do_trial","297","1696423","0.0-276.0-0.0","1198","","","","50","0,0,0","5","countryside","230","probe-181","0.9423710383050893","0.2943197428631283","0.23781408068468488","0","","","","","","","",""
"","do_trial","298","1701839","0.0-277.0-0.0","865.8000000119209","","","","49","1,0,0","5","countryside","231","probe-225","0.9475548817125489","0.3390820611549445","0.0697170187038817","1","","","","","","","",""
"","do_trial","299","1707067","0.0-278.0-0.0","655.3000000119209","","","","49","1,0,1","5","countryside","232","probe-234","0.9376245554993902","0.35774475029931","0.0845799729666126","1","","","","","","","",""
"","do_trial","300","1711957","0.0-279.0-0.0","314.89999997615814","","","","49","1,1,0","5","countryside","233","probe-27","0.8150043056940166","0.40734937580434394","0.2412766755923432","1","","","","","","","",""
"","do_trial","301","1716875","0.0-280.0-0.0","341.39999997615814","","","","49","1,0,0","5","countryside","234","probe-20","0.8795811902485702","0.4151183160223293","0.19719037491430452","1","","","","","","","",""
"","do_trial","302","1722006","0.0-281.0-0.0","548","","","","49","1,0,1","5","countryside","235","probe-223","0.9422957155820622","0.48127103175776675","0.2916101182852237","1","","","","","","","",""
"","do_trial","303","1726951","0.0-282.0-0.0","366.5","","","","49","1,0,0","5","countryside","236","probe-64","0.9332151782660074","0.3503934144638587","0.39876346271280966","1","","","","","","","",""
"","do_trial","304","1731773","0.0-283.0-0.0","251.79999995231628","","","","49","1,1,0","5","countryside","237","probe-92","0.6714011939126374","0.47235901176473094","0.2751917234271856","1","","","","","","","",""
"","do_trial","305","1737416","0.0-284.0-0.0","1076.8999999761581","","","","49","1,0,0","5","countryside","238","probe-01","0.9088842368667598","0.4928211268507867","0.2199136407931553","1","","","","","","","",""
"","do_trial","306","1742410","0.0-285.0-0.0","449.39999997615814","","","","49","1,1,0","5","countryside","239","probe-25","0.8346216147248806","0.5308525024876639","0.24761010713360915","1","","","","","","","",""
"","do_bye","307","1743935","0.0-286.0-0.0","null","","","","null","","","","","","","","","","","","","","","","",""
"","html-keyboard-response","308","1751080","0.0-286.0-1.0","7143.5","<div class='center'>You are all done with the first part of the experiment! Thank you for participating. Tomorrow, you will recieve an invite to participate in the next phase of the experiment which you must complete by the end of the day. <p><b>[Press the space bar to end the experiment]</b></p></div>","32","","","","","","","","","","","","4,5,3,2,0,1","97,93,126,220,206,130,22,71,114,90,211,203,214,66,16,49,228,46,185,125,178,182,86,197,81,33,227,159,108,158,231,219,194,218,202,32,172,184,13,216,35,113,145,129,8,143,21,118,146,122,27,170,83,152,65,85,102,155,115,144,200,100,229,212,121,169,51,77,199,94,72,57,58,123,62,226,168,18,38,183,177,193,225,179,45,55,124,52,191,120,40,135,171,105,61,74,162,39,132,2,54,104,175,43,141,119,44,25,207,92,28,139,153,4,138,64,235,37,210,160,10,142,136,14,3,12,186,23,176,59,133,217,236,87,116,29,15,201,53,204,163,7,230,48,75,205,56,88,20,73,234,215,76,134,161,192,188,5,68,198,69,98,1,34,79,173,95,60,6,166,238,167,187,31,195,151,99,82,157,127,196,17,70,174,213,147,164,223,50,109,111,148,9,137,128,131,189,209,154,11,47,84,190,112,36,42,80,181,96,149,110,150,232,106,103,107,239,117,30,221,78,41,237,165,89,140,67,208,156,101,180,224,233,26,19,222,63,91,0,24","2,3,0,9,5,18,10,16,1,11,6,17,12,15,13,8,7,4,14","1,0.8935153181219241,0.811534377847713,0.7937113785720382,0.8517177037218656,0.8813571437942009,0.7145578531301565,0.9320351732042894,0.9339112090013693,0.8085084285695061,0.685985856967312,0.5763752394247998,0.5756788121148962,0.5157926499517452,0.41070833424593445,0.2797542246045918,0.32094343641903317,0.2582252854353028,0.3631083791178456,0.4226475191336375,0.4790388095727065,0.3698473593851337,0.34314708802981597,0.4176322169596932,0.3146753728679859,0.30095799358749475,0.3037265073689309,0.40189174287648477,0.4848880037444321,0.5202888957959274,0.5849566794759054,0.3479455396047858,0.28955309677086827,0.4940481173539169,0.45738980928876255,0.5903566512192148,0.4361417723610904,0.3788001424736709,0.4253194305064676,0.34784839950966967,0.4292795680125609,0.4771696120330075,0.45999706141796354,0.42817743604492203,0.36148609332452347,0.3743718913207803,0.31888664009847256,0.337313448387809,0.49893227350813724,0.405764624365703,0.30540855543267953,0.3542097270102333,0.34986169790233645,0.34191903427629716,0.3963694156916468,0.499018234590376,0.4607747960991179,0.36391784597069193,0.41865555536608157,0.38388730422799233,0.3973007522792382,0.4622311535781164,0.4935569992459488,0.5313685172692943,0.5779253681532425,0.4548789312669534,0.6252380128119286,0.5441332819747908,0.4899297804011843,0.4355017333246663,0.31498291584803406,0.25533584913482066,0.24504895484831815,0.32194598992859197,0.42599506936376985,0.4573100316052776,0.431662358763002,0.4385742133156169,0.2869881149500937,0.3607703553426432,0.34670878768290075,0.28559395117047565,0.2859742529303601,0.35955985474761887,0.46045340417706376,0.3968924219952705,0.30624831633846383,0.3469061946335303,0.49311431485112817,0.5159472267860952,0.5555889301956504,0.5263562746949405,0.4854972741898649,0.4737583248326927,0.4165866014168077,0.3803066547035951,0.42591636074847883,0.44913300702640235,0.5473091117526856,0.35975360921922933,0.5172856849536961,0.5122917440957541,0.6086051181271759,0.7264091372776715,0.791505639071284,0.8925072731900165,0.8822210455860018,0.9171453500079595,0.9143466465210449,0.7996622643570931,0.726329969871485,0.7123358674490028,0.7623817401983297,0.681503423896514,0.6180210223970698,0.7175586711918307,0.7803904452861758,0.769587785495957,0.815041925172694,0.7309476355706035,1,0.8451055863980047,0.6940397340525009,0.6911079231867513,0.7235790254417408,0.6948294162490471,0.5754613647613188,0.536155160488967,0.6246363656411701,0.7368168234481415,0.7125295874557733,0.7362838366704412,0.7078266173324499,0.7813788540243456,0.8455762732858924,0.7912996916642103,0.8385076687565202,0.7932539044085613,0.8964094063598534,0.5531283509541459,0.4893089126471187,0.433877423234263,0.5529120176938681,0.3853967819345583,0.3416367427677515,0.4281397890764519,0.5179319073787203,0.3856710959211573,0.3266046007793726,0.42042230306610023,0.3584591330692851,0.36969099597974064,0.5013255356186987,0.4632928468068963,0.4033323335521164,0.33804524283593573,0.444896197276933,0.3985167919584041,0.2854332901307941,0.30192347126767194,0.2035658931813078,0.10272371807493419,0.15974520164958583,0.06835853183840825,0.06853043430362556,0.07861228104190562,0.06550893276293294,0.23254499507569754,0.29464109931348764,0.2176874663889003,0.21393238515938073,0.2508555782464149,0.20542602161393905,0.06001776064268464,0.16718260945189947,0.14192121354412543,0.24979846114225254,0.23740423842341762,0.18829401635909856,0.3498956532844581","0.6382949878093062,0.6648771849678816,0.6290533881932645,0.6795550387344756,0.6749580407441994,0.5188522476151529,0.5757521436052332,0.45982647788180714,0.31241740186835737,0.3246680076892079,0.3114458513143041,0.17853404946678836,0.18586273374699186,0.1049614254319194,0.10471162306013768,0.1584765289263909,0.2455288102573519,0.22983841423640974,0.35516394699342196,0.29085511538531,0.14167309371842485,0.13459785158620668,0.13218449526044104,0.12490069974846252,0.07251595276933219,0.14212285605978298,0.29150135850588194,0.3804730174427112,0.2269670580803087,0.0506526707654972,0.13954951647863412,0.09258997636854895,0.11026079518870618,0.06546154561126415,0.15177461821675584,0.11642085608891325,0.2059743800939278,0.11630824522098618,0.20072239966617164,0.12116943672894427,0.11983898104518588,0.22834042808108648,0.41320521452476905,0.3558349619715439,0.5113826668480375,0.6892039837785667,0.7738350269533598,0.7740426336537783,0.9111454686633955,0.8347711231926652,0.8684759704290117,0.7886884386439955,0.6869207759847312,0.7384380470495363,0.6829222554625927,0.6937226115926041,0.6931317701491432,0.7695018415381156,0.941634926074558,0.9478567020122295,1,0.851820845804092,0.8176898832837494,0.7805332897756077,0.928725632171313,0.8415396409545914,0.7275949123356668,0.7793969958206992,0.7587182901716658,0.7924955181979041,0.5502511998525182,0.4052912106343375,0.23071940935844765,0.3168047131129185,0.05162571332155345,0.07649763350448387,0.06958754315345188,0.09507994061506,0.1686341241046612,0.14062163786210455,0.052824528182927606,0.1914584549964578,0.1320922199087662,0.10726892950651225,0.23062129969891698,0.08472070770567319,0.07134614151529363,0.07182140499767528,0.08043837771993802,0.1015796230628376,0.09262428523665754,0.16610550145069972,0.1210417732665952,0.0788884211468248,0.11596652740671692,0.25732868555275246,0.18956443127266684,0.06103057525579123,0.17948260531634191,0.07689317688530674,0.1499905744059611,0.14819187403640388,0.18500025290243235,0.27753631763306624,0.2770531155633856,0.27820935179170675,0.25307299506321773,0.3847513614477963,0.2926131861211681,0.3426399092846134,0.4046929275065266,0.47022192579352934,0.6295713348469376,0.5488341761857892,0.5352525696469637,0.40176125227380566,0.2700210130948613,0.2970443027142889,0.4221831170415388,0.3570699675819185,0.3320168621156811,0.34920422512466315,0.36853187852596087,0.41089439326125965,0.3460041115820377,0.4289235507259773,0.3668258737303275,0.3783700571686783,0.44385645107221694,0.4520319808966905,0.46079444682015835,0.41378745416130663,0.42883995405043995,0.2876975602130113,0.2682769775124521,0.3249267831106025,0.3969449623415811,0.34812016782527117,0.34043687516614035,0.5790813210279915,0.5718524319402173,0.6741040037547726,0.7807113164037104,0.7286921000897668,0.7771529201962056,0.8187238883256227,0.6993703652363322,0.7288949460348354,0.7895993231824369,0.8991966987736362,1,0.7835494328756021,0.7286493832524122,0.8122057369372984,0.6720489143832815,0.7902364596478507,0.747386414744398,0.6087867139750318,0.6541591453167689,0.8075551490035577,0.7419568230579275,0.7694292132314283,0.513376635939701,0.39934238152255996,0.3786531320657797,0.48479892019243487,0.397789738626189,0.42105728756640143,0.5207534017737565,0.4374310431430219,0.39935792621205424,0.4462835031254542,0.4827804581904569,0.48442453543830355,0.41444776428016666,0.5707271619497515,0.544319795580362,0.4485139006261213,0.41254501675202565,0.5445636787424767","0.329906696546751,0.3277586173213913,0.1975863026880068,0.4025162850491185,0.2067775128015686,0.09534738256682342,0.09503147366839183,0.11280535167580315,0.07207813488107083,0.07659519445879287,0.3342438080709199,0.5732723178661792,0.5883517712714393,0.7886986969831586,0.7538732762055212,0.6866303759352801,0.5972434863270714,0.8853908620926947,0.7848548931091781,0.597212095876381,0.6819838607808275,0.6026302634438921,0.6514504646240475,0.7650602821287181,0.7702603196012675,0.944597277785695,0.8510407838670949,0.9414319978719032,0.8134074408908053,0.8857539937823738,1,0.873411835616553,0.7569812639103856,0.7291712230581594,0.7780535058466981,0.7874552971132771,0.7958682950702999,0.8372462601070351,0.7435663617800664,0.6090636770914813,0.6249763360023858,0.6239995977544193,0.44383763732135373,0.39032436926576664,0.3099055410059631,0.07935954146887138,0.08947865134266231,0.0500934201280745,0.08134334672824516,0.057415047488361966,0.0670538492321812,0.09762977199893628,0.16942537250322445,0.08010691591576403,0.15909571286748247,0.14128556946787277,0.11886216921550911,0.09513867945525395,0.14063945492825755,0.1472191227250055,0.14111551638300626,0.11670389752614824,0.13514677193151803,0.13738995677058483,0.14666144012595855,0.19778464266344484,0.2505304695036597,0.1832820522180293,0.1297659954918483,0.10634974498553249,0.28648703778497286,0.5293010278216282,0.6750658302705506,0.7737246971165908,0.7351863537479832,0.9277212764509761,0.9031009256631225,0.7550241913168121,0.8420037790945899,0.8128025288718561,0.6368077942344516,0.6481958672409361,0.6465885625696933,0.6720041554895574,0.7438867754113164,0.7030692275154127,0.7334763672364412,0.8496267701513336,0.7339738249397599,0.7566980114229571,1,0.9410267842028509,0.8310774895066428,0.9158950203973271,0.7367046685089294,0.8443393067195365,0.8190052912214902,0.868346047784345,0.8214598620309314,0.7565634137753903,0.3939694870828093,0.3769431999226445,0.1529372026834436,0.25198060708172626,0.35234626121519386,0.211342535301349,0.25338942340337595,0.2825687121149387,0.1678772600960432,0.08649041053837316,0.106253795878237,0.11035345901198079,0.12805137237874012,0.22850762039455838,0.13998583354880156,0.16891628620026364,0.13307585032079694,0.18725442589799732,0.2006867664543375,0.15035835182101445,0.2551236768355184,0.29505484829595374,0.31752407886200773,0.21273026237771622,0.27329908408514797,0.16487598600605843,0.15615686391346126,0.10537894667034824,0.2889031180589226,0.26342486792470693,0.18081151835185655,0.17392408554778704,0.18757544645767774,0.13383225191979536,0.15094045191750396,0.06619965757270839,0.0882998680130053,0.1313671442943004,0.1870375724162725,0.1839783199896904,0.1292951744526406,0.053276769960610704,0.12398310119863819,0.1906805674028281,0.19165103967225056,0.1654623621530163,0.1742577754196268,0.17646566863939014,0.19479408197107537,0.22541784606731935,0.0941278862609388,0.13856910959221572,0.1297368552839498,0.1531765644722115,0.17583189630171864,0.08382601283380484,0.11619322429265683,0.17885164406242016,0.12320960167686085,0.12540824000266254,0.17900534328061263,0.15060869228381332,0.4644320672846978,0.6730849558907005,0.690687653213363,0.6941935285458714,0.7412687892613491,0.8395655294117191,0.8531707848233799,0.8340977439882115,0.782709059688683,0.8437534614183622,0.8962169662801772,0.7458613874959474,0.9495382806884151,0.8667253605656359,0.8306820873783081,0.8544784411936999,0.8312335689308676,0.7985239779060871","164,203,44,43,85,126,47,204,201,122,167,163,160,84,169,121,205,89,162,48,82,83,81,40,168,200,125,124,209,42,88,206,161,207,120,202,208,49,166,45,46,128,165,86,129,87,123,41,127","2,1,1,5,1,1,5,3,1,2,5,1,1,1,1,1,3,1,1,2,1,1,1,1,5,1,1,1,1,1,1,3,2,3,5,3,1,1,1,1,3,1,1,1,2,1,1,1,1,4,6,4,1,3,1,1,1,2,4,7"
