"success","trial_type","trial_index","time_elapsed","internal_node_id","interactions","blur_events","focus_events","fullscreenenter_events","fullscreenexit_events","rt","stimulus","key_press","subject_id","participant_id","age","gender","prompt","response","choice_outcomes","context_n","context_img_id","trial_n","probe_img_id","pR_red","pR_white","pR_black","outcome","contextArray_ind","validImageProbes","invalidImageProbes","pRew_Red","pRew_White","pRew_Black","availableForMemProbe","choice_blocks"
"true","fullscreen","0","5564","0.0-0.0","""event"",""trial"",""time""
""fullscreenenter"",""0"",""4584""
","
","
","""event"",""trial"",""time""
""fullscreenenter"",""0"",""4584""
","
","","","","","","","","","","","","","","","","","","","","","","","","","",""
"","pavlovia","1","5568","0.0-1.0","""event"",""trial"",""time""
""fullscreenenter"",""0"",""4584""
","
","
","""event"",""trial"",""time""
""fullscreenenter"",""0"",""4584""
","
","","","","","","","","","","","","","","","","","","","","","","","","","",""
"","instruc1","2","50803","0.0-2.0","""event"",""trial"",""time""
""fullscreenenter"",""0"",""4584""
","
","
","""event"",""trial"",""time""
""fullscreenenter"",""0"",""4584""
","
","null","run_exp/static/audio/clip_1_welcome.m4a","null","928","1059","22","Male","<div class='center'><p>Welcome! This is the first part of the study. It will last ~30 minutes. In part 1 and part 2 of the study, you are the head captain of a pirate ship traveling around the world to different islands. You will play a few different games throughout these two parts. Here is an overview of them:</p><br><p>Part 1 (today)</p><p>1. Instructions, practice game, and quiz</p><p>2. Pick a pirate game on 6 different islands</p><br><p>Part 2 (tomorrow)</p><p>3. Pick a pirate game and memory game</p><p>4. Where did you see this ship? </p></div>","","","","","","","","","","","","","","","","","",""
"","html-keyboard-response","3","52077","0.0-3.0","""event"",""trial"",""time""
""fullscreenenter"",""0"",""4584""
","
","
","""event"",""trial"",""time""
""fullscreenenter"",""0"",""4584""
","
","1272.8999999999942","<div class='center'><p>Welcome! This is the first part of the study. It will last ~30 minutes. In part 1 and part 2 of the study, you are the head captain of a pirate ship traveling around the world to different islands. You will play a few different games throughout these two parts. Here is an overview of them:</p><br><p>Part 1 (today)</p><p>1. Instructions, practice game, and quiz</p><p>2. Pick a pirate game on 6 different islands</p><br><p>Part 2 (tomorrow)</p><p>3. Pick a pirate game and memory game</p><p>4. Where did you see this ship? </p><p><b>[Press the space bar to continue]</b></p></div>","32","","","","","","","","","","","","","","","","","","","","","","",""
"","instruc2","4","57397","0.0-4.0","""event"",""trial"",""time""
""fullscreenenter"",""0"",""4584""
","
","
","""event"",""trial"",""time""
""fullscreenenter"",""0"",""4584""
","
","null","run_exp/static/audio/clip_2_different_places.m4a","null","","","","","<div class='center'><p>Today, you’ll visit these 6 islands on your journey. You'll be able to see these islands from your ship.</p><p><img src='run_exp/static/images/contexts/all_contexts.png' height='500'></p></div>","","","","","","","","","","","","","","","","","",""
"","html-keyboard-response","5","60404","0.0-5.0","""event"",""trial"",""time""
""fullscreenenter"",""0"",""4584""
","
","
","""event"",""trial"",""time""
""fullscreenenter"",""0"",""4584""
","
","3006.2000000000116","<div class='center'><p>Today, you’ll visit these 6 islands on your journey. You'll be able to see these islands from your ship.</p><p><img src='run_exp/static/images/contexts/all_contexts.png' height='500'></p><p><b>[Press the space bar to continue]</b></p></div>","32","","","","","","","","","","","","","","","","","","","","","","",""
"","instruc3","6","70121","0.0-6.0","""event"",""trial"",""time""
""fullscreenenter"",""0"",""4584""
","
","
","""event"",""trial"",""time""
""fullscreenenter"",""0"",""4584""
","
","null","run_exp/static/audio/clip_3_goal_of_game_1.m4a","null","","","","","<div class='center'><p> The pirates on your ship will rob other ships as they leave the island.</p> These ships have just sold their goods to the islanders, so they will be filled with lots and lots of gold.</p><p><img src='run_exp/static/images/tutorial/ship_center.png' height='400'></p></div>","","","","","","","","","","","","","","","","","",""
"","html-keyboard-response","7","71978","0.0-7.0","""event"",""trial"",""time""
""fullscreenenter"",""0"",""4584""
","
","
","""event"",""trial"",""time""
""fullscreenenter"",""0"",""4584""
","
","1854.8999999999942","<div class='center'><p> The pirates on your ship will rob other ships as they leave the island.</p> These ships have just sold their goods to the islanders, so they will be filled with lots and lots of gold.</p><p><img src='run_exp/static/images/tutorial/ship_center.png' height='400'></p><p><b>[Press the space bar to continue]</b></p></div>","32","","","","","","","","","","","","","","","","","","","","","","",""
"","instruc4","8","99982","0.0-8.0","""event"",""trial"",""time""
""fullscreenenter"",""0"",""4584""
","
","
","""event"",""trial"",""time""
""fullscreenenter"",""0"",""4584""
","
","null","run_exp/static/audio/clip_4_goal_of_game_2.m4a","null","","","","","<div class='center'><p>As the head captain, you do not have to rob any ships yourself. Another pirate will be doing the robbing for you. First, you will choose a pirate to rob the next ship.</p><p><img src='run_exp/static/images/tutorial/pirates_all_crop.png' height='200'></p><p>Then, you'll see if the pirate successfully robbed the ship of their gold. If they were successful, then you'll get a stack of gold coins like this:</p><p><img src='run_exp/static/images/tutorial/reward.png' height='150'></p><p> If they were <b>not</b> successful, then you'll get no gold coins, and you'll see a big red x like this: </p><p><img src='run_exp/static/images/tutorial/reward_no.png' height='150'></p><p> How much bonus money you make is based on how many gold coins you collect.</p><div>","","","","","","","","","","","","","","","","","",""
"","html-keyboard-response","9","101010","0.0-9.0","""event"",""trial"",""time""
""fullscreenenter"",""0"",""4584""
","
","
","""event"",""trial"",""time""
""fullscreenenter"",""0"",""4584""
","
","1025.8000000000466","<div class='center'><p>As the head captain, you do not have to rob any ships yourself. Another pirate will be doing the robbing for you. First, you will choose a pirate to rob the next ship.</p><p><img src='run_exp/static/images/tutorial/pirates_all_crop.png' height='200'></p><p>Then, you'll see if the pirate successfully robbed the ship of their gold. If they were successful, then you'll get a stack of gold coins like this:</p><p><img src='run_exp/static/images/tutorial/reward.png' height='150'></p><p> If they were <b>not</b> successful, then you'll get no gold coins, and you'll see a big red x like this: </p><p><img src='run_exp/static/images/tutorial/reward_no.png' height='150'></p><p> How much bonus money you make is based on how many gold coins you collect.</p<p><b>[Press the space bar to continue]</b></p></div>","32","","","","","","","","","","","","","","","","","","","","","","",""
"","instruc5","10","121738","0.0-10.0","""event"",""trial"",""time""
""fullscreenenter"",""0"",""4584""
","
","
","""event"",""trial"",""time""
""fullscreenenter"",""0"",""4584""
","
","20727.20000000001","run_exp/static/audio/clip_5_probabilistic.m4a","49","","","","","<div class='center'><p>Even the most skilled pirate can not rob EVERY ship.</p><p> Some ships will have very strong protections against pirate attacks.</p><p> Blue beard, here, is very, very good at robbing ships, but he won't be successful every time he tries to rob one.</p><p> You can press the <b>‘1’</b> key on the keyboard to choose him.</p><p> Try choosing him 10 times to see how often he succeeds at robbing a ship. </p><p><img src='run_exp/static/images/tutorial/blue.png' height='500'></p></div>","","","","","","","","","","","","","","","","","",""
"","html-keyboard-response","11","123241","0.0-11.0","""event"",""trial"",""time""
""fullscreenenter"",""0"",""4584""
","
","
","""event"",""trial"",""time""
""fullscreenenter"",""0"",""4584""
","
","null","<div class='center'><p><img src='run_exp/static/images/tutorial/blue_win.png' height='500'></p></div>","null","","","","","","","","","","","","","","","","","","","","","","",""
"","html-keyboard-response","12","124265","0.0-12.0","""event"",""trial"",""time""
""fullscreenenter"",""0"",""4584""
","
","
","""event"",""trial"",""time""
""fullscreenenter"",""0"",""4584""
","
","1023","<div class='center'><img src='run_exp/static/images/tutorial/blue.png' height='500'></p></div>","49","","","","","","","","","","","","","","","","","","","","","","",""
"","html-keyboard-response","13","125771","0.0-13.0","""event"",""trial"",""time""
""fullscreenenter"",""0"",""4584""
","
","
","""event"",""trial"",""time""
""fullscreenenter"",""0"",""4584""
","
","null","<div class='center'><p><img src='run_exp/static/images/tutorial/blue_win.png' height='500'></p></div>","null","","","","","","","","","","","","","","","","","","","","","","",""
"","html-keyboard-response","14","127697","0.0-14.0","""event"",""trial"",""time""
""fullscreenenter"",""0"",""4584""
","
","
","""event"",""trial"",""time""
""fullscreenenter"",""0"",""4584""
","
","1925.5999999999767","<div class='center'><img src='run_exp/static/images/tutorial/blue.png' height='500'></p></div>","49","","","","","","","","","","","","","","","","","","","","","","",""
"","html-keyboard-response","15","129203","0.0-15.0","""event"",""trial"",""time""
""fullscreenenter"",""0"",""4584""
","
","
","""event"",""trial"",""time""
""fullscreenenter"",""0"",""4584""
","
","null","<div class='center'><p><img src='run_exp/static/images/tutorial/blue_win.png' height='500'></p></div>","null","","","","","","","","","","","","","","","","","","","","","","",""
"","html-keyboard-response","16","130705","0.0-16.0","""event"",""trial"",""time""
""fullscreenenter"",""0"",""4584""
","
","
","""event"",""trial"",""time""
""fullscreenenter"",""0"",""4584""
","
","1500.8000000000466","<div class='center'><img src='run_exp/static/images/tutorial/blue.png' height='500'></p></div>","49","","","","","","","","","","","","","","","","","","","","","","",""
"","html-keyboard-response","17","132211","0.0-17.0","""event"",""trial"",""time""
""fullscreenenter"",""0"",""4584""
","
","
","""event"",""trial"",""time""
""fullscreenenter"",""0"",""4584""
","
","null","<div class='center'><p><img src='run_exp/static/images/tutorial/blue_no_win.png' height='500'></p></div>","null","","","","","","","","","","","","","","","","","","","","","","",""
"","html-keyboard-response","18","132746","0.0-18.0","""event"",""trial"",""time""
""fullscreenenter"",""0"",""4584""
","
","
","""event"",""trial"",""time""
""fullscreenenter"",""0"",""4584""
","
","533.7000000000116","<div class='center'><img src='run_exp/static/images/tutorial/blue.png' height='500'></p></div>","49","","","","","","","","","","","","","","","","","","","","","","",""
"","html-keyboard-response","19","134252","0.0-19.0","""event"",""trial"",""time""
""fullscreenenter"",""0"",""4584""
","
","
","""event"",""trial"",""time""
""fullscreenenter"",""0"",""4584""
","
","null","<div class='center'><p><img src='run_exp/static/images/tutorial/blue_win.png' height='500'></p></div>","null","","","","","","","","","","","","","","","","","","","","","","",""
"","html-keyboard-response","20","134721","0.0-20.0","""event"",""trial"",""time""
""fullscreenenter"",""0"",""4584""
","
","
","""event"",""trial"",""time""
""fullscreenenter"",""0"",""4584""
","
","468.9000000000233","<div class='center'><img src='run_exp/static/images/tutorial/blue.png' height='500'></p></div>","49","","","","","","","","","","","","","","","","","","","","","","",""
"","html-keyboard-response","21","136227","0.0-21.0","""event"",""trial"",""time""
""fullscreenenter"",""0"",""4584""
","
","
","""event"",""trial"",""time""
""fullscreenenter"",""0"",""4584""
","
","null","<div class='center'><p><img src='run_exp/static/images/tutorial/blue_win.png' height='500'></p></div>","null","","","","","","","","","","","","","","","","","","","","","","",""
"","html-keyboard-response","22","136609","0.0-22.0","""event"",""trial"",""time""
""fullscreenenter"",""0"",""4584""
","
","
","""event"",""trial"",""time""
""fullscreenenter"",""0"",""4584""
","
","381","<div class='center'><img src='run_exp/static/images/tutorial/blue.png' height='500'></p></div>","49","","","","","","","","","","","","","","","","","","","","","","",""
"","html-keyboard-response","23","138115","0.0-23.0","""event"",""trial"",""time""
""fullscreenenter"",""0"",""4584""
","
","
","""event"",""trial"",""time""
""fullscreenenter"",""0"",""4584""
","
","null","<div class='center'><p><img src='run_exp/static/images/tutorial/blue_win.png' height='500'></p></div>","null","","","","","","","","","","","","","","","","","","","","","","",""
"","html-keyboard-response","24","138881","0.0-24.0","""event"",""trial"",""time""
""fullscreenenter"",""0"",""4584""
","
","
","""event"",""trial"",""time""
""fullscreenenter"",""0"",""4584""
","
","765","<div class='center'><img src='run_exp/static/images/tutorial/blue.png' height='500'></p></div>","49","","","","","","","","","","","","","","","","","","","","","","",""
"","html-keyboard-response","25","140385","0.0-25.0","""event"",""trial"",""time""
""fullscreenenter"",""0"",""4584""
","
","
","""event"",""trial"",""time""
""fullscreenenter"",""0"",""4584""
","
","null","<div class='center'><p><img src='run_exp/static/images/tutorial/blue_no_win.png' height='500'></p></div>","null","","","","","","","","","","","","","","","","","","","","","","",""
"","html-keyboard-response","26","140729","0.0-26.0","""event"",""trial"",""time""
""fullscreenenter"",""0"",""4584""
","
","
","""event"",""trial"",""time""
""fullscreenenter"",""0"",""4584""
","
","343","<div class='center'><img src='run_exp/static/images/tutorial/blue.png' height='500'></p></div>","49","","","","","","","","","","","","","","","","","","","","","","",""
"","html-keyboard-response","27","142235","0.0-27.0","""event"",""trial"",""time""
""fullscreenenter"",""0"",""4584""
","
","
","""event"",""trial"",""time""
""fullscreenenter"",""0"",""4584""
","
","null","<div class='center'><p><img src='run_exp/static/images/tutorial/blue_win.png' height='500'></p></div>","null","","","","","","","","","","","","","","","","","","","","","","",""
"","html-keyboard-response","28","142769","0.0-28.0","""event"",""trial"",""time""
""fullscreenenter"",""0"",""4584""
","
","
","""event"",""trial"",""time""
""fullscreenenter"",""0"",""4584""
","
","533.5","<div class='center'><img src='run_exp/static/images/tutorial/blue.png' height='500'></p></div>","49","","","","","","","","","","","","","","","","","","","","","","",""
"","html-keyboard-response","29","144275","0.0-29.0","""event"",""trial"",""time""
""fullscreenenter"",""0"",""4584""
","
","
","""event"",""trial"",""time""
""fullscreenenter"",""0"",""4584""
","
","null","<div class='center'><p><img src='run_exp/static/images/tutorial/blue_win.png' height='500'></p></div>","null","","","","","","","","","","","","","","","","","","","","","","",""
"","instruc6","30","149683","0.0-30.0","""event"",""trial"",""time""
""fullscreenenter"",""0"",""4584""
","
","
","""event"",""trial"",""time""
""fullscreenenter"",""0"",""4584""
","
","null","run_exp/static/audio/clip_6_blue_beard_outcome.m4a","null","","","","","<div class='center'><p> See, he succeeded in robbing the ships most of the time but not every time. </p></div>","","","","","","","","","","","","","","","","","",""
"","html-keyboard-response","31","151473","0.0-31.0","""event"",""trial"",""time""
""fullscreenenter"",""0"",""4584""
","
","
","""event"",""trial"",""time""
""fullscreenenter"",""0"",""4584""
","
","1789.7999999999884","<div class='center'><p> See, he succeeded in robbing the ships most of the time but not every time. </p><p><b>[Press the space bar to continue]</b></p></div>","32","","","","","","","","","","","","","","","","","","","","","","",""
"","audio-keyboard-response","32","165714","0.0-32.0","""event"",""trial"",""time""
""fullscreenenter"",""0"",""4584""
","
","
","""event"",""trial"",""time""
""fullscreenenter"",""0"",""4584""
","
","14239.299999999988","run_exp/static/audio/clip_7_pick_pirate.m4a","51","","","","","","","","","","","","","","","","","","","","","","",""
"","audio-keyboard-response","33","167953","0.0-33.0-0.0","""event"",""trial"",""time""
""fullscreenenter"",""0"",""4584""
","
","
","""event"",""trial"",""time""
""fullscreenenter"",""0"",""4584""
","
","2237.7999999999884","run_exp/static/audio/clip_8_chosen_pirate_win.m4a","32","","","","","","","","","","","","","","","","","","","","","","",""
"","audio-keyboard-response","34","170049","0.0-33.0-1.0","""event"",""trial"",""time""
""fullscreenenter"",""0"",""4584""
","
","
","""event"",""trial"",""time""
""fullscreenenter"",""0"",""4584""
","
","2094.7999999999884","run_exp/static/audio/clip_9_pick_a_pirate_again.m4a","50","","","","","","","","","","","","","","","","","","","","","","",""
"","audio-keyboard-response","35","173881","0.0-34.0-0.0","""event"",""trial"",""time""
""fullscreenenter"",""0"",""4584""
","
","
","""event"",""trial"",""time""
""fullscreenenter"",""0"",""4584""
","
","3830.2000000000116","run_exp/static/audio/clip_10_chosen_pirate_loss.m4a","32","","","","","","","","","","","","","","","","","","","","","","",""
"","instruc9","36","179381","0.0-35.0-0.0","""event"",""trial"",""time""
""fullscreenenter"",""0"",""4584""
","
","
","""event"",""trial"",""time""
""fullscreenenter"",""0"",""4584""
","
","null","run_exp/static/audio/clip_11_time_out.m4a","null","","","","","<div class='center'><p>If you don’t make your choice fast enough, you’ll have to wait a few seconds before you can make another one. </p><p><img src='run_exp/static/images/miscellaneous/hurry_up.png' height='500'></p></div>","","","","","","","","","","","","","","","","","",""
"","html-keyboard-response","37","180690","0.0-35.0-1.0","""event"",""trial"",""time""
""fullscreenenter"",""0"",""4584""
","
","
","""event"",""trial"",""time""
""fullscreenenter"",""0"",""4584""
","
","1307.2999999999884","<div class='center'><p>If you don’t make your choice fast enough, you’ll have to wait a few seconds before you can make another one. </p><p><img src='run_exp/static/images/miscellaneous/hurry_up.png' height='500'></p><p><b>[Press the space bar to continue]</b></p></div>","32","","","","","","","","","","","","","","","","","","","","","","",""
"","instruc10","38","219784","0.0-35.0-2.0","""event"",""trial"",""time""
""fullscreenenter"",""0"",""4584""
","
","
","""event"",""trial"",""time""
""fullscreenenter"",""0"",""4584""
","
","null","run_exp/static/audio/clip_12_probe.m4a","null","","","","","<div class='center'><p>Once you've chosen a pirate, you’ll be shown the ship they are robbing. You will never rob the same ship twice. Ships can be told apart from one another by the image on them. These are the goods that they sell. See, this ship has a travel mug on it. </p><p> You’ll have to remember which island you saw each ship on. You will win more gold coins and hence more bonus money if you remember correctly! To help you remember, you can imagine a story. For example, here, you could imagine a mug full of water in the desert. Or, as another example, if on the forest island, your pirate robbed a ship with an apple on it, you could imagine an apple falling from a tree in the forest. </p><p><img src='run_exp/static/images/tutorial/example_probe.png' height='500'></p></div>","","","","","","","","","","","","","","","","","",""
"","html-keyboard-response","39","220833","0.0-35.0-3.0","""event"",""trial"",""time""
""fullscreenenter"",""0"",""4584""
","
","
","""event"",""trial"",""time""
""fullscreenenter"",""0"",""4584""
","
","1048.4000000000233","<div class='center'><p>Once you've chosen a pirate, you’ll be shown the ship they are robbing. You will never rob the same ship twice. Ships can be told apart from one another by the image on them. These are the goods that they sell. See, this ship has a travel mug on it. </p><p> You’ll have to remember which island you saw each ship on. You will win more gold coins and hence more bonus money if you remember correctly! To help you remember, you can imagine a story. For example, here, you could imagine a mug full of water in the desert. Or, as another example, if on the forest island, your pirate robbed a ship with an apple on it, you could imagine an apple falling from a tree in the forest. </p><p><img src='run_exp/static/images/tutorial/example_probe.png' height='500'></p><p><b>[Press the space bar to continue]</b></p></div>","32","","","","","","","","","","","","","","","","","","","","","","",""
"","instruc11","40","237245","0.0-35.0-4.0","""event"",""trial"",""time""
""fullscreenenter"",""0"",""4584""
","
","
","""event"",""trial"",""time""
""fullscreenenter"",""0"",""4584""
","
","null","run_exp/static/audio/clip_13_changepoint.m4a","null","","","","","<div class='center'><p>How successful a pirate is at robbing ships will depend on the island you’re on.</p><p> A pirate may have visited this island many times before and gained a lot of practice robbing ships there.</p><p>So, they’re more likely to be successful than a pirate who has never visited the island before.</p></div>","","","","","","","","","","","","","","","","","",""
"","html-keyboard-response","41","238466","0.0-35.0-5.0","""event"",""trial"",""time""
""fullscreenenter"",""0"",""4584""
","
","
","""event"",""trial"",""time""
""fullscreenenter"",""0"",""4584""
","
","1219.6999999999534","<div class='center'><p>How successful a pirate is at robbing ships will depend on the island you’re on.</p><p> A pirate may have visited this island many times before and gained a lot of practice robbing ships there.</p><p>So, they’re more likely to be successful than a pirate who has never visited the island before.</p><p><b>[Press the space bar to continue]</b></p></div>","32","","","","","","","","","","","","","","","","","","","","","","",""
"","instruc12","42","279575","0.0-35.0-6.0","""event"",""trial"",""time""
""fullscreenenter"",""0"",""4584""
","
","
","""event"",""trial"",""time""
""fullscreenenter"",""0"",""4584""
","
","null","run_exp/static/audio/clip_14_drift.m4a","null","","","","","<div class='center'><p>How successful a pirate is at robbing ships can also change over the time spent on the island. </p><p> Ships may hear from islanders about the pirates coming and will improve their protections against the attack. This may make it harder to rob them.</p><p> Ships may also become lazy and weaken the strength of their protections. This may make it easier to rob them.</p><br><p>Things are always changing on the high seas! So, try your best to pay attention!</p><p><img src='run_exp/static/images/tutorial/contingency.png' height='500'></p></div>","","","","","","","","","","","","","","","","","",""
"","html-keyboard-response","43","282394","0.0-35.0-7.0","""event"",""trial"",""time""
""fullscreenenter"",""0"",""4584""
","
","
","""event"",""trial"",""time""
""fullscreenenter"",""0"",""4584""
","
","2817.2999999999884","<div class='center'><p>How successful a pirate is at robbing ships can also change over the time spent on the island. </p><p> Ships may hear from islanders about the pirates coming and will improve their protections against the attack. This may make it harder to rob them.</p><p> Ships may also become lazy and weaken the strength of their protections. This may make it easier to rob them.</p><br><p>Things are always changing on the high seas! So, try your best to pay attention!</p><p><img src='run_exp/static/images/tutorial/contingency.png' height='500'></p><p><b>[Press the space bar to continue]</b></p></div>","32","","","","","","","","","","","","","","","","","","","","","","",""
"","instruc13","44","317610","0.0-35.0-8.0","""event"",""trial"",""time""
""fullscreenenter"",""0"",""4584""
","
","
","""event"",""trial"",""time""
""fullscreenenter"",""0"",""4584""
","
","null","run_exp/static/audio/clip_15_summary.m4a","null","","","","","<div class='center'><p>Let's go over the instructions quickly again. You have two important things to do: </p><b><p> 1. Pick the pirate who is the best at robbing ships on the current island. </p></b><b><p> 2. Remember on which island a ship was robbed.</p> </b><p>The amount of bonus money you can win depends on both.</p><p><br><p>Let’s try a practice game. The game will start by showing you the pirates. First, pick a pirate using the <b> 1, 2, 3 </b> keys on your keyboard. When you are shown a ship, try to remember which island you’re on by making up a story.</p><p>This is just a practice game, so you’re not playing for money. </p><p> Good luck! This game will be very difficult but try your best!</p></div>","","","","","","","","","","","","","","","","","",""
"","html-keyboard-response","45","320505","0.0-35.0-9.0","""event"",""trial"",""time""
""fullscreenenter"",""0"",""4584""
","
","
","""event"",""trial"",""time""
""fullscreenenter"",""0"",""4584""
","
","2894.6999999999534","<div class='center'><p>Let's go over the instructions quickly again. You have two important things to do: </p><b><p> 1. Pick the pirate who is the best at robbing ships on the current island. </p></b><b><p> 2. Remember on which island a ship was robbed.</p> </b><p>The amount of bonus money you can win depends on both.</p><p><br><p>Let’s try a practice game. The game will start by showing you the pirates. First, pick a pirate using the <b> 1, 2, 3 </b> keys on your keyboard. When you are shown a ship, try to remember which island you’re on by making up a story.</p><p>This is just a practice game, so you’re not playing for money. </p><p> Good luck! This game will be very difficult but try your best!</p><p><b>[Press the space bar to continue]</b></p></div>","32","","","","","","","","","","","","","","","","","","","","","","",""
"","do_welcome","46","324513","0.0-35.0-10.0","""event"",""trial"",""time""
""fullscreenenter"",""0"",""4584""
","
","
","""event"",""trial"",""time""
""fullscreenenter"",""0"",""4584""
","
","null","","","","","","","","null","","","","","","","","","","","","","","","","",""
"","do_trial","47","330610","0.0-35.0-11.0","""event"",""trial"",""time""
""fullscreenenter"",""0"",""4584""
","
","
","""event"",""trial"",""time""
""fullscreenenter"",""0"",""4584""
","
","1586.7000000000116","","","","","","","","49","1,0,0","","","","","","","","","","","","","","","",""
"","html-keyboard-response","48","331615","0.0-36.0-0.0","""event"",""trial"",""time""
""fullscreenenter"",""0"",""4584""
","
","
","""event"",""trial"",""time""
""fullscreenenter"",""0"",""4584""
","
","null","<p></p>","null","","","","","","","","","","","","","","","","","","","","","","",""
"","do_trial","49","336703","0.0-36.0-1.0","""event"",""trial"",""time""
""fullscreenenter"",""0"",""4584""
","
","
","""event"",""trial"",""time""
""fullscreenenter"",""0"",""4584""
","
","581","","","","","","","","49","1,1,0","","","","","","","","","","","","","","","",""
"","html-keyboard-response","50","337709","0.0-37.0-0.0","""event"",""trial"",""time""
""fullscreenenter"",""0"",""4584""
","
","
","""event"",""trial"",""time""
""fullscreenenter"",""0"",""4584""
","
","null","<p></p>","null","","","","","","","","","","","","","","","","","","","","","","",""
"","do_trial","51","342762","0.0-37.0-1.0","""event"",""trial"",""time""
""fullscreenenter"",""0"",""4584""
","
","
","""event"",""trial"",""time""
""fullscreenenter"",""0"",""4584""
","
","542.9000000000233","","","","","","","","50","1,0,1","","","","","","","","","","","","","","","",""
"","html-keyboard-response","52","343765","0.0-38.0-0.0","""event"",""trial"",""time""
""fullscreenenter"",""0"",""4584""
","
","
","""event"",""trial"",""time""
""fullscreenenter"",""0"",""4584""
","
","null","<p></p>","null","","","","","","","","","","","","","","","","","","","","","","",""
"","do_trial","53","348811","0.0-38.0-1.0","""event"",""trial"",""time""
""fullscreenenter"",""0"",""4584""
","
","
","""event"",""trial"",""time""
""fullscreenenter"",""0"",""4584""
","
","534.4000000000233","","","","","","","","50","0,1,0","","","","","","","","","","","","","","","",""
"","html-keyboard-response","54","349817","0.0-39.0-0.0","""event"",""trial"",""time""
""fullscreenenter"",""0"",""4584""
","
","
","""event"",""trial"",""time""
""fullscreenenter"",""0"",""4584""
","
","null","<p></p>","null","","","","","","","","","","","","","","","","","","","","","","",""
"","do_trial","55","355187","0.0-39.0-1.0","""event"",""trial"",""time""
""fullscreenenter"",""0"",""4584""
","
","
","""event"",""trial"",""time""
""fullscreenenter"",""0"",""4584""
","
","858.5","","","","","","","","51","1,0,0","","","","","","","","","","","","","","","",""
"","do_bye","56","356697","0.0-40.0-0.0","""event"",""trial"",""time""
""fullscreenenter"",""0"",""4584""
","
","
","""event"",""trial"",""time""
""fullscreenenter"",""0"",""4584""
","
","null","","","","","","","","null","","","","","","","","","","","","","","","","",""
"","do_travel","57","365702","0.0-40.0-1.0","""event"",""trial"",""time""
""fullscreenenter"",""0"",""4584""
","
","
","""event"",""trial"",""time""
""fullscreenenter"",""0"",""4584""
","
","null","","","","","","","","null","","","","","","","","","","","","","","","","",""
"","do_welcome","58","369711","0.0-40.0-2.0","""event"",""trial"",""time""
""fullscreenenter"",""0"",""4584""
","
","
","""event"",""trial"",""time""
""fullscreenenter"",""0"",""4584""
","
","null","","","","","","","","null","","","","","","","","","","","","","","","","",""
"","do_trial","59","375726","0.0-40.0-3.0","""event"",""trial"",""time""
""fullscreenenter"",""0"",""4584""
","
","
","""event"",""trial"",""time""
""fullscreenenter"",""0"",""4584""
","
","null","","","","","","","","null","1,0,0","","","","","","","","","","","","","","","",""
"","do_bye","60","377235","0.0-41.0-0.0","""event"",""trial"",""time""
""fullscreenenter"",""0"",""4584""
","
","
","""event"",""trial"",""time""
""fullscreenenter"",""0"",""4584""
","
","null","","","","","","","","null","","","","","","","","","","","","","","","","",""
"","do_travel","61","386243","0.0-41.0-1.0","""event"",""trial"",""time""
""fullscreenenter"",""0"",""4584""
","
","
","""event"",""trial"",""time""
""fullscreenenter"",""0"",""4584""
","
","null","","","","","","","","null","","","","","","","","","","","","","","","","",""
"","do_welcome","62","390254","0.0-41.0-2.0","""event"",""trial"",""time""
""fullscreenenter"",""0"",""4584""
","
","
","""event"",""trial"",""time""
""fullscreenenter"",""0"",""4584""
","
","null","","","","","","","","null","","","","","","","","","","","","","","","","",""
"","do_trial","63","395307","0.0-41.0-3.0","""event"",""trial"",""time""
""fullscreenenter"",""0"",""4584""
","
","
","""event"",""trial"",""time""
""fullscreenenter"",""0"",""4584""
","
","542.5","","","","","","","","51","1,0,0","","","","","","","","","","","","","","","",""
"","html-keyboard-response","64","396309","0.0-42.0-0.0","""event"",""trial"",""time""
""fullscreenenter"",""0"",""4584""
","
","
","""event"",""trial"",""time""
""fullscreenenter"",""0"",""4584""
","
","null","<p></p>","null","","","","","","","","","","","","","","","","","","","","","","",""
"","do_trial","65","401179","0.0-42.0-1.0","""event"",""trial"",""time""
""fullscreenenter"",""0"",""4584""
","
","
","""event"",""trial"",""time""
""fullscreenenter"",""0"",""4584""
","
","358.5","","","","","","","","50","1,0,1","","","","","","","","","","","","","","","",""
"","html-keyboard-response","66","402184","0.0-43.0-0.0","""event"",""trial"",""time""
""fullscreenenter"",""0"",""4584""
","
","
","""event"",""trial"",""time""
""fullscreenenter"",""0"",""4584""
","
","null","<p></p>","null","","","","","","","","","","","","","","","","","","","","","","",""
"","do_trial","67","407010","0.0-43.0-1.0","""event"",""trial"",""time""
""fullscreenenter"",""0"",""4584""
","
","
","""event"",""trial"",""time""
""fullscreenenter"",""0"",""4584""
","
","316","","","","","","","","49","1,1,0","","","","","","","","","","","","","","","",""
"","html-keyboard-response","68","408016","0.0-44.0-0.0","""event"",""trial"",""time""
""fullscreenenter"",""0"",""4584""
","
","
","""event"",""trial"",""time""
""fullscreenenter"",""0"",""4584""
","
","null","<p></p>","null","","","","","","","","","","","","","","","","","","","","","","",""
"","do_trial","69","413126","0.0-44.0-1.0","""event"",""trial"",""time""
""fullscreenenter"",""0"",""4584""
","
","
","""event"",""trial"",""time""
""fullscreenenter"",""0"",""4584""
","
","603.0999999999767","","","","","","","","49","0,0,1","","","","","","","","","","","","","","","",""
"","html-keyboard-response","70","414132","0.0-45.0-0.0","""event"",""trial"",""time""
""fullscreenenter"",""0"",""4584""
","
","
","""event"",""trial"",""time""
""fullscreenenter"",""0"",""4584""
","
","null","<p></p>","null","","","","","","","","","","","","","","","","","","","","","","",""
"","do_trial","71","419091","0.0-45.0-1.0","""event"",""trial"",""time""
""fullscreenenter"",""0"",""4584""
","
","
","""event"",""trial"",""time""
""fullscreenenter"",""0"",""4584""
","
","449.0999999999767","","","","","","","","50","1,0,1","","","","","","","","","","","","","","","",""
"","html-keyboard-response","72","422817","0.0-46.0-0.0","""event"",""trial"",""time""
""fullscreenenter"",""0"",""4584""
","
","
","""event"",""trial"",""time""
""fullscreenenter"",""0"",""4584""
","
","3724.9000000000233","<div class='center'><p><img src='run_exp/static/images/tutorial/prac_best_pirate.png'  height='500'></p></div>","49","","","","","","","","","","","","","","","","","","","","","","",""
"","html-keyboard-response","73","424393","0.0-47.0-0.0","""event"",""trial"",""time""
""fullscreenenter"",""0"",""4584""
","
","
","""event"",""trial"",""time""
""fullscreenenter"",""0"",""4584""
","
","1574.6999999999534","<div class='center'><p>That's correct! Red beard was the best.</p><p><b>[Press the space bar to continue]</b></p></div>","32","","","","","","","","","","","","","","","","","","","","","","",""
"","html-keyboard-response","74","427641","0.0-47.0-1.0","""event"",""trial"",""time""
""fullscreenenter"",""0"",""4584""
","
","
","""event"",""trial"",""time""
""fullscreenenter"",""0"",""4584""
","
","3247.4000000000233","<div class='center'><p><img src='run_exp/static/images/tutorial/prac_source.png'  height='500'></p></div>","50","","","","","","","","","","","","","","","","","","","","","","",""
"","html-keyboard-response","75","428929","0.0-48.0-0.0","""event"",""trial"",""time""
""fullscreenenter"",""0"",""4584""
","
","
","""event"",""trial"",""time""
""fullscreenenter"",""0"",""4584""
","
","1287.2999999999302","<div class='center'><p>That's correct! You saw this ship on the cavern island.</p><p><b>[Press the space bar to continue]</b></p></div>","32","","","","","","","","","","","","","","","","","","","","","","",""
"","quiz_beginning","76","440136","0.0-48.0-1.0","""event"",""trial"",""time""
""fullscreenenter"",""0"",""4584""
","
","
","""event"",""trial"",""time""
""fullscreenenter"",""0"",""4584""
","
","null","run_exp/static/audio/clip_16_quiz_intro.m4a","null","","","","","<div class='center'><p>Good job on the practice game! Now, you will be asked some true or false questions to make sure you really understand the rules of the game.</p><p> Press <b>'1'</b> on the keyboard for true and press <b>'2'</b> for false.</p></div>","","","","","","","","","","","","","","","","","",""
"","audio-keyboard-response","77","449673","0.0-48.0-2.0","""event"",""trial"",""time""
""fullscreenenter"",""0"",""4584""
","
","
","""event"",""trial"",""time""
""fullscreenenter"",""0"",""4584""
","
","9536.199999999953","run_exp/static/audio/clip_17_q1.m4a","49","","","","","","","","","","","","","","","","","","","","","","",""
"","correct","78","452094","0.0-49.0-0.0","""event"",""trial"",""time""
""fullscreenenter"",""0"",""4584""
","
","
","""event"",""trial"",""time""
""fullscreenenter"",""0"",""4584""
","
","null","run_exp/static/audio/clip_18_correct.m4a","null","","","","","<div class='center'><p>That's correct!</p></div>","","","","","","","","","","","","","","","","","",""
"","html-keyboard-response","79","453017","0.0-49.0-1.0","""event"",""trial"",""time""
""fullscreenenter"",""0"",""4584""
","
","
","""event"",""trial"",""time""
""fullscreenenter"",""0"",""4584""
","
","922.2999999999302","<div class='center'><p>That's correct!</p><p><b>[Press the space bar to continue]</b></p></div>","32","","","","","","","","","","","","","","","","","","","","","","",""
"","audio-keyboard-response","80","457786","0.0-49.0-2.0","""event"",""trial"",""time""
""fullscreenenter"",""0"",""4584""
","
","
","""event"",""trial"",""time""
""fullscreenenter"",""0"",""4584""
","
","4767.5","run_exp/static/audio/clip_20_q2.m4a","50","","","","","","","","","","","","","","","","","","","","","","",""
"","correct","81","460198","0.0-50.0-0.0","""event"",""trial"",""time""
""fullscreenenter"",""0"",""4584""
","
","
","""event"",""trial"",""time""
""fullscreenenter"",""0"",""4584""
","
","null","run_exp/static/audio/clip_18_correct.m4a","null","","","","","<div class='center'><p>That's correct!</p></div>","","","","","","","","","","","","","","","","","",""
"","html-keyboard-response","82","461113","0.0-50.0-1.0","""event"",""trial"",""time""
""fullscreenenter"",""0"",""4584""
","
","
","""event"",""trial"",""time""
""fullscreenenter"",""0"",""4584""
","
","914.5999999999767","<div class='center'><p>That's correct!</p><p><b>[Press the space bar to continue]</b></p></div>","32","","","","","","","","","","","","","","","","","","","","","","",""
"","audio-keyboard-response","83","466553","0.0-50.0-2.0","""event"",""trial"",""time""
""fullscreenenter"",""0"",""4584""
","
","
","""event"",""trial"",""time""
""fullscreenenter"",""0"",""4584""
","
","5439.29999999993","run_exp/static/audio/clip_22_q3.m4a","50","","","","","","","","","","","","","","","","","","","","","","",""
"","correct","84","468952","0.0-51.0-0.0","""event"",""trial"",""time""
""fullscreenenter"",""0"",""4584""
","
","
","""event"",""trial"",""time""
""fullscreenenter"",""0"",""4584""
","
","null","run_exp/static/audio/clip_18_correct.m4a","null","","","","","<div class='center'><p>That's correct!</p></div>","","","","","","","","","","","","","","","","","",""
"","html-keyboard-response","85","469281","0.0-51.0-1.0","""event"",""trial"",""time""
""fullscreenenter"",""0"",""4584""
","
","
","""event"",""trial"",""time""
""fullscreenenter"",""0"",""4584""
","
","328.80000000004657","<div class='center'><p>That's correct!</p><p><b>[Press the space bar to continue]</b></p></div>","32","","","","","","","","","","","","","","","","","","","","","","",""
"","audio-keyboard-response","86","473257","0.0-51.0-2.0","""event"",""trial"",""time""
""fullscreenenter"",""0"",""4584""
","
","
","""event"",""trial"",""time""
""fullscreenenter"",""0"",""4584""
","
","3975.0999999999767","run_exp/static/audio/clip_24_q4.m4a","49","","","","","","","","","","","","","","","","","","","","","","",""
"","correct","87","475709","0.0-52.0-0.0","""event"",""trial"",""time""
""fullscreenenter"",""0"",""4584""
","
","
","""event"",""trial"",""time""
""fullscreenenter"",""0"",""4584""
","
","null","run_exp/static/audio/clip_18_correct.m4a","null","","","","","<div class='center'><p>That's correct!</p></div>","","","","","","","","","","","","","","","","","",""
"","html-keyboard-response","88","476026","0.0-52.0-1.0","""event"",""trial"",""time""
""fullscreenenter"",""0"",""4584""
","
","
","""event"",""trial"",""time""
""fullscreenenter"",""0"",""4584""
","
","315.39999999990687","<div class='center'><p>That's correct!</p><p><b>[Press the space bar to continue]</b></p></div>","32","","","","","","","","","","","","","","","","","","","","","","",""
"","q_all_corr","89","484533","0.0-53.0-0.0","""event"",""trial"",""time""
""fullscreenenter"",""0"",""4584""
","
","
","""event"",""trial"",""time""
""fullscreenenter"",""0"",""4584""
","
","null","run_exp/static/audio/clip_27_quiz_all_correct.m4a","null","","","","","<div class='center'><p>Good job! You’re now ready to move on to the real game! Remember this game will be difficult but don't get discouraged and try your best!</p></div>","","","","","","","","","","","","","","","","","",""
"","html-keyboard-response","90","486770","0.0-53.0-1.0","""event"",""trial"",""time""
""fullscreenenter"",""0"",""4584""
","
","
","""event"",""trial"",""time""
""fullscreenenter"",""0"",""4584""
","
","2236","<div class='center'><p>Good job! You’re now ready to move on to the real game! Remember this game will be difficult but don't get discouraged and try your best!</p><p><b>[Press the space bar to continue]</b></p></div>","32","","","","","","","","","","","","","","","","","","","","","","",""
"","do_welcome","91","490779","0.0-54.0-0.0","""event"",""trial"",""time""
""fullscreenenter"",""0"",""4584""
","
","
","""event"",""trial"",""time""
""fullscreenenter"",""0"",""4584""
","
","null","","","","","","","","null","","","","","","","","","","","","","","","","",""
"","do_trial","92","496107","0.0-55.0-0.0","""event"",""trial"",""time""
""fullscreenenter"",""0"",""4584""
","
","
","""event"",""trial"",""time""
""fullscreenenter"",""0"",""4584""
","
","784.0999999999767","","","","","","","","49","1,1,0","0","coast","0","probe-162","0.6","0.3","0.1","1","","","","","","","",""
"","html-keyboard-response","93","497114","0.0-55.0-1.0","""event"",""trial"",""time""
""fullscreenenter"",""0"",""4584""
","
","
","""event"",""trial"",""time""
""fullscreenenter"",""0"",""4584""
","
","null","<p></p>","null","","","","","","","","","","","","","","","","","","","","","","",""
"","do_trial","94","502150","0.0-56.0-0.0","""event"",""trial"",""time""
""fullscreenenter"",""0"",""4584""
","
","
","""event"",""trial"",""time""
""fullscreenenter"",""0"",""4584""
","
","498.60000000009313","","","","","","","","49","0,0,0","0","coast","1","probe-171","0.5782343454051797","0.3216119121991254","0.09187853974387725","0","","","","","","","",""
"","html-keyboard-response","95","503156","0.0-56.0-1.0","""event"",""trial"",""time""
""fullscreenenter"",""0"",""4584""
","
","
","""event"",""trial"",""time""
""fullscreenenter"",""0"",""4584""
","
","null","<p></p>","null","","","","","","","","","","","","","","","","","","","","","","",""
"","do_trial","96","508067","0.0-57.0-0.0","""event"",""trial"",""time""
""fullscreenenter"",""0"",""4584""
","
","
","""event"",""trial"",""time""
""fullscreenenter"",""0"",""4584""
","
","368.29999999993015","","","","","","","","51","0,0,0","0","coast","2","probe-227","0.6347320322641048","0.30763513397656306","0.0951084444008025","0","","","","","","","",""
"","html-keyboard-response","97","509073","0.0-57.0-1.0","""event"",""trial"",""time""
""fullscreenenter"",""0"",""4584""
","
","
","""event"",""trial"",""time""
""fullscreenenter"",""0"",""4584""
","
","null","<p></p>","null","","","","","","","","","","","","","","","","","","","","","","",""
"","do_trial","98","513915","0.0-58.0-0.0","""event"",""trial"",""time""
""fullscreenenter"",""0"",""4584""
","
","
","""event"",""trial"",""time""
""fullscreenenter"",""0"",""4584""
","
","299.9000000000233","","","","","","","","50","0,0,0","0","coast","3","probe-151","0.5217448616546901","0.3213939102220102","0.09003505818498062","0","","","","","","","",""
"","html-keyboard-response","99","514921","0.0-58.0-1.0","""event"",""trial"",""time""
""fullscreenenter"",""0"",""4584""
","
","
","""event"",""trial"",""time""
""fullscreenenter"",""0"",""4584""
","
","null","<p></p>","null","","","","","","","","","","","","","","","","","","","","","","",""
"","do_trial","100","520011","0.0-59.0-0.0","""event"",""trial"",""time""
""fullscreenenter"",""0"",""4584""
","
","
","""event"",""trial"",""time""
""fullscreenenter"",""0"",""4584""
","
","547.5999999999767","","","","","","","","49","1,0,0","0","coast","4","probe-40","0.6743662611595095","0.36696708340856743","0.2509666897346826","1","","","","","","","",""
"","html-keyboard-response","101","521015","0.0-59.0-1.0","""event"",""trial"",""time""
""fullscreenenter"",""0"",""4584""
","
","
","""event"",""trial"",""time""
""fullscreenenter"",""0"",""4584""
","
","null","<p></p>","null","","","","","","","","","","","","","","","","","","","","","","",""
"","do_trial","102","526547","0.0-60.0-0.0","""event"",""trial"",""time""
""fullscreenenter"",""0"",""4584""
","
","
","""event"",""trial"",""time""
""fullscreenenter"",""0"",""4584""
","
","990.2000000000116","","","","","","","","51","1,1,0","0","coast","5","probe-225","0.6607715295244515","0.3514898841474186","0.15402652969746525","0","","","","","","","",""
"","html-keyboard-response","103","527553","0.0-60.0-1.0","""event"",""trial"",""time""
""fullscreenenter"",""0"",""4584""
","
","
","""event"",""trial"",""time""
""fullscreenenter"",""0"",""4584""
","
","null","<p></p>","null","","","","","","","","","","","","","","","","","","","","","","",""
"","do_trial","104","533459","0.0-61.0-0.0","""event"",""trial"",""time""
""fullscreenenter"",""0"",""4584""
","
","
","""event"",""trial"",""time""
""fullscreenenter"",""0"",""4584""
","
","1363.8999999999069","","","","","","","","50","1,0,0","0","coast","6","probe-163","0.6047693002148128","0.33984832790789987","0.07295538168748195","0","","","","","","","",""
"","html-keyboard-response","105","534465","0.0-61.0-1.0","""event"",""trial"",""time""
""fullscreenenter"",""0"",""4584""
","
","
","""event"",""trial"",""time""
""fullscreenenter"",""0"",""4584""
","
","null","<p></p>","null","","","","","","","","","","","","","","","","","","","","","","",""
"","do_trial","106","539635","0.0-62.0-0.0","""event"",""trial"",""time""
""fullscreenenter"",""0"",""4584""
","
","
","""event"",""trial"",""time""
""fullscreenenter"",""0"",""4584""
","
","628.5","","","","","","","","49","1,0,0","0","coast","7","probe-38","0.5716839993014717","0.2203039835048524","0.11481354810020675","1","","","","","","","",""
"","html-keyboard-response","107","540636","0.0-62.0-1.0","""event"",""trial"",""time""
""fullscreenenter"",""0"",""4584""
","
","
","""event"",""trial"",""time""
""fullscreenenter"",""0"",""4584""
","
","null","<p></p>","null","","","","","","","","","","","","","","","","","","","","","","",""
"","do_trial","108","546315","0.0-63.0-0.0","""event"",""trial"",""time""
""fullscreenenter"",""0"",""4584""
","
","
","""event"",""trial"",""time""
""fullscreenenter"",""0"",""4584""
","
","1136.7000000001863","","","","","","","","51","1,0,0","0","coast","8","probe-92","0.5403756585234581","0.23049778618811392","0.15839465312701578","0","","","","","","","",""
"","html-keyboard-response","109","547321","0.0-63.0-1.0","""event"",""trial"",""time""
""fullscreenenter"",""0"",""4584""
","
","
","""event"",""trial"",""time""
""fullscreenenter"",""0"",""4584""
","
","null","<p></p>","null","","","","","","","","","","","","","","","","","","","","","","",""
"","do_trial","110","552138","0.0-64.0-0.0","""event"",""trial"",""time""
""fullscreenenter"",""0"",""4584""
","
","
","""event"",""trial"",""time""
""fullscreenenter"",""0"",""4584""
","
","275.9000000001397","","","","","","","","50","1,0,0","0","coast","9","probe-143","0.5625274687608698","0.28482778592305485","0.10915505482280648","0","","","","","","","",""
"","html-keyboard-response","111","553144","0.0-64.0-1.0","""event"",""trial"",""time""
""fullscreenenter"",""0"",""4584""
","
","
","""event"",""trial"",""time""
""fullscreenenter"",""0"",""4584""
","
","null","<p></p>","null","","","","","","","","","","","","","","","","","","","","","","",""
"","do_trial","112","557995","0.0-65.0-0.0","""event"",""trial"",""time""
""fullscreenenter"",""0"",""4584""
","
","
","""event"",""trial"",""time""
""fullscreenenter"",""0"",""4584""
","
","309.5","","","","","","","","49","1,1,0","0","coast","10","probe-208","0.6123436532219892","0.4176492566467451","0.05668758677187709","1","","","","","","","",""
"","html-keyboard-response","113","558996","0.0-65.0-1.0","""event"",""trial"",""time""
""fullscreenenter"",""0"",""4584""
","
","
","""event"",""trial"",""time""
""fullscreenenter"",""0"",""4584""
","
","null","<p></p>","null","","","","","","","","","","","","","","","","","","","","","","",""
"","do_trial","114","564531","0.0-66.0-0.0","""event"",""trial"",""time""
""fullscreenenter"",""0"",""4584""
","
","
","""event"",""trial"",""time""
""fullscreenenter"",""0"",""4584""
","
","992.5","","","","","","","","49","0,0,0","0","coast","11","probe-161","0.6826813307608494","0.3005258127171369","0.11031660759041581","0","","","","","","","",""
"","html-keyboard-response","115","565537","0.0-66.0-1.0","""event"",""trial"",""time""
""fullscreenenter"",""0"",""4584""
","
","
","""event"",""trial"",""time""
""fullscreenenter"",""0"",""4584""
","
","null","<p></p>","null","","","","","","","","","","","","","","","","","","","","","","",""
"","do_trial","116","570459","0.0-67.0-0.0","""event"",""trial"",""time""
""fullscreenenter"",""0"",""4584""
","
","
","""event"",""trial"",""time""
""fullscreenenter"",""0"",""4584""
","
","380.20000000018626","","","","","","","","51","0,1,0","0","coast","12","probe-128","0.5915384815065733","0.2830182910414819","0.17879172755380418","0","","","","","","","",""
"","html-keyboard-response","117","571465","0.0-67.0-1.0","""event"",""trial"",""time""
""fullscreenenter"",""0"",""4584""
","
","
","""event"",""trial"",""time""
""fullscreenenter"",""0"",""4584""
","
","null","<p></p>","null","","","","","","","","","","","","","","","","","","","","","","",""
"","do_trial","118","576387","0.0-68.0-0.0","""event"",""trial"",""time""
""fullscreenenter"",""0"",""4584""
","
","
","""event"",""trial"",""time""
""fullscreenenter"",""0"",""4584""
","
","380.69999999995343","","","","","","","","50","1,1,0","0","coast","13","probe-55","0.6932705772460309","0.26641358225042927","0.20897388259304783","1","","","","","","","",""
"","html-keyboard-response","119","577393","0.0-68.0-1.0","""event"",""trial"",""time""
""fullscreenenter"",""0"",""4584""
","
","
","""event"",""trial"",""time""
""fullscreenenter"",""0"",""4584""
","
","null","<p></p>","null","","","","","","","","","","","","","","","","","","","","","","",""
"","do_trial","120","583283","0.0-69.0-0.0","""event"",""trial"",""time""
""fullscreenenter"",""0"",""4584""
","
","
","""event"",""trial"",""time""
""fullscreenenter"",""0"",""4584""
","
","1347.8999999999069","","","","","","","","51","0,0,1","0","coast","14","probe-200","0.6271934584692067","0.2153131678495468","0.19173028094921882","1","","","","","","","",""
"","html-keyboard-response","121","584285","0.0-69.0-1.0","""event"",""trial"",""time""
""fullscreenenter"",""0"",""4584""
","
","
","""event"",""trial"",""time""
""fullscreenenter"",""0"",""4584""
","
","null","<p></p>","null","","","","","","","","","","","","","","","","","","","","","","",""
"","do_trial","122","590091","0.0-70.0-0.0","""event"",""trial"",""time""
""fullscreenenter"",""0"",""4584""
","
","
","""event"",""trial"",""time""
""fullscreenenter"",""0"",""4584""
","
","1263.8999999999069","","","","","","","","50","1,0,0","0","coast","15","probe-112","0.8370129091343512","0.20390388672765233","0.10645899687213266","0","","","","","","","",""
"","html-keyboard-response","123","591097","0.0-70.0-1.0","""event"",""trial"",""time""
""fullscreenenter"",""0"",""4584""
","
","
","""event"",""trial"",""time""
""fullscreenenter"",""0"",""4584""
","
","null","<p></p>","null","","","","","","","","","","","","","","","","","","","","","","",""
"","do_trial","124","595987","0.0-71.0-0.0","""event"",""trial"",""time""
""fullscreenenter"",""0"",""4584""
","
","
","""event"",""trial"",""time""
""fullscreenenter"",""0"",""4584""
","
","347.70000000018626","","","","","","","","49","1,0,0","0","coast","16","probe-35","0.7253158008065944","0.19139089066264448","0.13179972810065313","1","","","","","","","",""
"","html-keyboard-response","125","596991","0.0-71.0-1.0","""event"",""trial"",""time""
""fullscreenenter"",""0"",""4584""
","
","
","""event"",""trial"",""time""
""fullscreenenter"",""0"",""4584""
","
","null","<p></p>","null","","","","","","","","","","","","","","","","","","","","","","",""
"","do_trial","126","602051","0.0-72.0-0.0","""event"",""trial"",""time""
""fullscreenenter"",""0"",""4584""
","
","
","""event"",""trial"",""time""
""fullscreenenter"",""0"",""4584""
","
","518","","","","","","","","49","1,0,0","0","coast","17","probe-172","0.7265435217184927","0.22785243331281416","0.07236771658362497","1","","","","","","","",""
"","html-keyboard-response","127","603055","0.0-72.0-1.0","""event"",""trial"",""time""
""fullscreenenter"",""0"",""4584""
","
","
","""event"",""trial"",""time""
""fullscreenenter"",""0"",""4584""
","
","null","<p></p>","null","","","","","","","","","","","","","","","","","","","","","","",""
"","do_trial","128","607967","0.0-73.0-0.0","""event"",""trial"",""time""
""fullscreenenter"",""0"",""4584""
","
","
","""event"",""trial"",""time""
""fullscreenenter"",""0"",""4584""
","
","373.4000000001397","","","","","","","","51","0,0,0","0","coast","18","probe-145","0.6051839226244512","0.271852152516256","0.0722255986551594","0","","","","","","","",""
"","html-keyboard-response","129","608972","0.0-73.0-1.0","""event"",""trial"",""time""
""fullscreenenter"",""0"",""4584""
","
","
","""event"",""trial"",""time""
""fullscreenenter"",""0"",""4584""
","
","null","<p></p>","null","","","","","","","","","","","","","","","","","","","","","","",""
"","do_trial","130","613835","0.0-74.0-0.0","""event"",""trial"",""time""
""fullscreenenter"",""0"",""4584""
","
","
","""event"",""trial"",""time""
""fullscreenenter"",""0"",""4584""
","
","320.9000000001397","","","","","","","","50","1,0,0","0","coast","19","probe-206","0.5421592711930692","0.39293648150239757","0.14520382764871234","0","","","","","","","",""
"","html-keyboard-response","131","614841","0.0-74.0-1.0","""event"",""trial"",""time""
""fullscreenenter"",""0"",""4584""
","
","
","""event"",""trial"",""time""
""fullscreenenter"",""0"",""4584""
","
","null","<p></p>","null","","","","","","","","","","","","","","","","","","","","","","",""
"","do_trial","132","620619","0.0-75.0-0.0","""event"",""trial"",""time""
""fullscreenenter"",""0"",""4584""
","
","
","""event"",""trial"",""time""
""fullscreenenter"",""0"",""4584""
","
","1236.6999999999534","","","","","","","","49","1,0,0","0","coast","20","probe-28","0.5111878003325177","0.26534179716634987","0.20425411106642968","1","","","","","","","",""
"","html-keyboard-response","133","621622","0.0-75.0-1.0","""event"",""trial"",""time""
""fullscreenenter"",""0"",""4584""
","
","
","""event"",""trial"",""time""
""fullscreenenter"",""0"",""4584""
","
","null","<p></p>","null","","","","","","","","","","","","","","","","","","","","","","",""
"","do_trial","134","627259","0.0-76.0-0.0","""event"",""trial"",""time""
""fullscreenenter"",""0"",""4584""
","
","
","""event"",""trial"",""time""
""fullscreenenter"",""0"",""4584""
","
","1094.5","","","","","","","","51","0,0,0","0","coast","21","probe-19","0.4893553618157214","0.3433275360140591","0.19157189280793457","0","","","","","","","",""
"","html-keyboard-response","135","628265","0.0-76.0-1.0","""event"",""trial"",""time""
""fullscreenenter"",""0"",""4584""
","
","
","""event"",""trial"",""time""
""fullscreenenter"",""0"",""4584""
","
","null","<p></p>","null","","","","","","","","","","","","","","","","","","","","","","",""
"","do_trial","136","634099","0.0-77.0-0.0","""event"",""trial"",""time""
""fullscreenenter"",""0"",""4584""
","
","
","""event"",""trial"",""time""
""fullscreenenter"",""0"",""4584""
","
","1291.5","","","","","","","","50","1,0,0","0","coast","22","probe-156","0.5238794668642401","0.42352080699150835","0.2685778012716604","0","","","","","","","",""
"","html-keyboard-response","137","635105","0.0-77.0-1.0","""event"",""trial"",""time""
""fullscreenenter"",""0"",""4584""
","
","
","""event"",""trial"",""time""
""fullscreenenter"",""0"",""4584""
","
","null","<p></p>","null","","","","","","","","","","","","","","","","","","","","","","",""
"","do_trial","138","640760","0.0-78.0-0.0","""event"",""trial"",""time""
""fullscreenenter"",""0"",""4584""
","
","
","""event"",""trial"",""time""
""fullscreenenter"",""0"",""4584""
","
","1116.1000000000931","","","","","","","","49","1,1,1","0","coast","23","probe-176","0.6317291318416707","0.3193680699530869","0.24812824836790207","1","","","","","","","",""
"","html-keyboard-response","139","641764","0.0-78.0-1.0","""event"",""trial"",""time""
""fullscreenenter"",""0"",""4584""
","
","
","""event"",""trial"",""time""
""fullscreenenter"",""0"",""4584""
","
","null","<p></p>","null","","","","","","","","","","","","","","","","","","","","","","",""
"","do_trial","140","647539","0.0-79.0-0.0","""event"",""trial"",""time""
""fullscreenenter"",""0"",""4584""
","
","
","""event"",""trial"",""time""
""fullscreenenter"",""0"",""4584""
","
","1233","","","","","","","","49","1,0,1","0","coast","24","probe-75","0.6468531829674647","0.38194169667079486","0.23401212135751906","1","","","","","","","",""
"","html-keyboard-response","141","648545","0.0-79.0-1.0","""event"",""trial"",""time""
""fullscreenenter"",""0"",""4584""
","
","
","""event"",""trial"",""time""
""fullscreenenter"",""0"",""4584""
","
","null","<p></p>","null","","","","","","","","","","","","","","","","","","","","","","",""
"","do_trial","142","654067","0.0-80.0-0.0","""event"",""trial"",""time""
""fullscreenenter"",""0"",""4584""
","
","
","""event"",""trial"",""time""
""fullscreenenter"",""0"",""4584""
","
","980.1000000000931","","","","","","","","49","0,0,1","0","coast","25","probe-26","0.7512994514402459","0.40368882376613874","0.296451156607037","0","","","","","","","",""
"","html-keyboard-response","143","655073","0.0-80.0-1.0","""event"",""trial"",""time""
""fullscreenenter"",""0"",""4584""
","
","
","""event"",""trial"",""time""
""fullscreenenter"",""0"",""4584""
","
","null","<p></p>","null","","","","","","","","","","","","","","","","","","","","","","",""
"","do_trial","144","660787","0.0-81.0-0.0","""event"",""trial"",""time""
""fullscreenenter"",""0"",""4584""
","
","
","""event"",""trial"",""time""
""fullscreenenter"",""0"",""4584""
","
","1171.7000000001863","","","","","","","","50","1,0,0","0","coast","26","probe-39","0.7503787472139557","0.3871058624764608","0.1472599959232376","0","","","","","","","",""
"","html-keyboard-response","145","661793","0.0-81.0-1.0","""event"",""trial"",""time""
""fullscreenenter"",""0"",""4584""
","
","
","""event"",""trial"",""time""
""fullscreenenter"",""0"",""4584""
","
","null","<p></p>","null","","","","","","","","","","","","","","","","","","","","","","",""
"","do_trial","146","666595","0.0-82.0-0.0","""event"",""trial"",""time""
""fullscreenenter"",""0"",""4584""
","
","
","""event"",""trial"",""time""
""fullscreenenter"",""0"",""4584""
","
","260","","","","","","","","51","1,1,0","0","coast","27","probe-131","0.7520150496803721","0.4376846150098329","0.16625905829072984","0","","","","","","","",""
"","html-keyboard-response","147","667601","0.0-82.0-1.0","""event"",""trial"",""time""
""fullscreenenter"",""0"",""4584""
","
","
","""event"",""trial"",""time""
""fullscreenenter"",""0"",""4584""
","
","null","<p></p>","null","","","","","","","","","","","","","","","","","","","","","","",""
"","do_trial","148","673379","0.0-83.0-0.0","""event"",""trial"",""time""
""fullscreenenter"",""0"",""4584""
","
","
","""event"",""trial"",""time""
""fullscreenenter"",""0"",""4584""
","
","1235.8999999999069","","","","","","","","50","1,0,0","0","coast","28","probe-73","0.7754941022677917","0.3455804248504479","0.18711010144488482","0","","","","","","","",""
"","html-keyboard-response","149","674384","0.0-83.0-1.0","""event"",""trial"",""time""
""fullscreenenter"",""0"",""4584""
","
","
","""event"",""trial"",""time""
""fullscreenenter"",""0"",""4584""
","
","null","<p></p>","null","","","","","","","","","","","","","","","","","","","","","","",""
"","do_trial","150","679571","0.0-84.0-0.0","""event"",""trial"",""time""
""fullscreenenter"",""0"",""4584""
","
","
","""event"",""trial"",""time""
""fullscreenenter"",""0"",""4584""
","
","644.7999999998137","","","","","","","","51","1,0,0","0","coast","29","probe-142","0.7202151361550473","0.284730853408264","0.1969276136741194","0","","","","","","","",""
"","html-keyboard-response","151","680577","0.0-84.0-1.0","""event"",""trial"",""time""
""fullscreenenter"",""0"",""4584""
","
","
","""event"",""trial"",""time""
""fullscreenenter"",""0"",""4584""
","
","null","<p></p>","null","","","","","","","","","","","","","","","","","","","","","","",""
"","do_bye","152","682087","0.0-85.0-0.0","""event"",""trial"",""time""
""fullscreenenter"",""0"",""4584""
","
","
","""event"",""trial"",""time""
""fullscreenenter"",""0"",""4584""
","
","null","","","","","","","","null","","","","","","","","","","","","","","","","",""
"","break","153","686786","0.0-85.0-1.0","""event"",""trial"",""time""
""fullscreenenter"",""0"",""4584""
","
","
","""event"",""trial"",""time""
""fullscreenenter"",""0"",""4584""
","
","4698.199999999953","<div class='center'><p>Time to take a quick break! You have 2 minutes to rest, but you can move on sooner if you'd like.</p><p> Press the <b>space bar</b> to continue.</p></div>","32","","","","","","","","","","","","","","","","","","","","","","",""
"","do_travel","154","695793","0.0-86.0-0.0","""event"",""trial"",""time""
""fullscreenenter"",""0"",""4584""
","
","
","""event"",""trial"",""time""
""fullscreenenter"",""0"",""4584""
","
","null","","","","","","","","null","","","","","","","","","","","","","","","","",""
"","do_welcome","155","699800","0.0-86.0-1.0","""event"",""trial"",""time""
""fullscreenenter"",""0"",""4584""
","
","
","""event"",""trial"",""time""
""fullscreenenter"",""0"",""4584""
","
","null","","","","","","","","null","","","","","","","","","","","","","","","","",""
"","do_trial","156","706155","0.0-87.0-0.0","""event"",""trial"",""time""
""fullscreenenter"",""0"",""4584""
","
","
","""event"",""trial"",""time""
""fullscreenenter"",""0"",""4584""
","
","1810.3999999999069","","","","","","","","50","1,0,0","1","mountain","30","probe-09","1","0.32475500545839003","0.2991987748098652","0","","","","","","","",""
"","html-keyboard-response","157","707161","0.0-87.0-1.0","""event"",""trial"",""time""
""fullscreenenter"",""0"",""4584""
","
","
","""event"",""trial"",""time""
""fullscreenenter"",""0"",""4584""
","
","null","<p></p>","null","","","","","","","","","","","","","","","","","","","","","","",""
"","do_trial","158","712184","0.0-88.0-0.0","""event"",""trial"",""time""
""fullscreenenter"",""0"",""4584""
","
","
","""event"",""trial"",""time""
""fullscreenenter"",""0"",""4584""
","
","483.10000000009313","","","","","","","","51","1,1,1","1","mountain","31","probe-203","1","0.29064222132500706","0.2128909314721442","1","","","","","","","",""
"","html-keyboard-response","159","713187","0.0-88.0-1.0","""event"",""trial"",""time""
""fullscreenenter"",""0"",""4584""
","
","
","""event"",""trial"",""time""
""fullscreenenter"",""0"",""4584""
","
","null","<p></p>","null","","","","","","","","","","","","","","","","","","","","","","",""
"","do_trial","160","718763","0.0-89.0-0.0","""event"",""trial"",""time""
""fullscreenenter"",""0"",""4584""
","
","
","""event"",""trial"",""time""
""fullscreenenter"",""0"",""4584""
","
","1034.1999999999534","","","","","","","","49","1,0,1","1","mountain","32","probe-187","1","0.26665939781782283","0.12650634351889214","1","","","","","","","",""
"","html-keyboard-response","161","719767","0.0-89.0-1.0","""event"",""trial"",""time""
""fullscreenenter"",""0"",""4584""
","
","
","""event"",""trial"",""time""
""fullscreenenter"",""0"",""4584""
","
","null","<p></p>","null","","","","","","","","","","","","","","","","","","","","","","",""
"","do_trial","162","725243","0.0-90.0-0.0","""event"",""trial"",""time""
""fullscreenenter"",""0"",""4584""
","
","
","""event"",""trial"",""time""
""fullscreenenter"",""0"",""4584""
","
","933.3999999999069","","","","","","","","50","1,1,0","1","mountain","33","probe-193","0.8580309272709618","0.3371424115380743","0.1283738164276913","1","","","","","","","",""
"","html-keyboard-response","163","726247","0.0-90.0-1.0","""event"",""trial"",""time""
""fullscreenenter"",""0"",""4584""
","
","
","""event"",""trial"",""time""
""fullscreenenter"",""0"",""4584""
","
","null","<p></p>","null","","","","","","","","","","","","","","","","","","","","","","",""
"","do_trial","164","731859","0.0-91.0-0.0","""event"",""trial"",""time""
""fullscreenenter"",""0"",""4584""
","
","
","""event"",""trial"",""time""
""fullscreenenter"",""0"",""4584""
","
","1070","","","","","","","","51","1,0,0","1","mountain","34","probe-179","0.737920163142511","0.3623125545929961","0.2577469140999264","0","","","","","","","",""
"","html-keyboard-response","165","732865","0.0-91.0-1.0","""event"",""trial"",""time""
""fullscreenenter"",""0"",""4584""
","
","
","""event"",""trial"",""time""
""fullscreenenter"",""0"",""4584""
","
","null","<p></p>","null","","","","","","","","","","","","","","","","","","","","","","",""
"","do_trial","166","737787","0.0-92.0-0.0","""event"",""trial"",""time""
""fullscreenenter"",""0"",""4584""
","
","
","""event"",""trial"",""time""
""fullscreenenter"",""0"",""4584""
","
","380","","","","","","","","51","0,0,0","1","mountain","35","probe-33","0.7076522925180736","0.43240085324527117","0.2595205689359429","0","","","","","","","",""
"","html-keyboard-response","167","738789","0.0-92.0-1.0","""event"",""trial"",""time""
""fullscreenenter"",""0"",""4584""
","
","
","""event"",""trial"",""time""
""fullscreenenter"",""0"",""4584""
","
","null","<p></p>","null","","","","","","","","","","","","","","","","","","","","","","",""
"","do_trial","168","743674","0.0-93.0-0.0","""event"",""trial"",""time""
""fullscreenenter"",""0"",""4584""
","
","
","""event"",""trial"",""time""
""fullscreenenter"",""0"",""4584""
","
","344","","","","","","","","50","1,1,0","1","mountain","36","probe-224","0.6143948549440673","0.4349992264014647","0.2903643808481527","1","","","","","","","",""
"","html-keyboard-response","169","744680","0.0-93.0-1.0","""event"",""trial"",""time""
""fullscreenenter"",""0"",""4584""
","
","
","""event"",""trial"",""time""
""fullscreenenter"",""0"",""4584""
","
","null","<p></p>","null","","","","","","","","","","","","","","","","","","","","","","",""
"","do_trial","170","749683","0.0-94.0-0.0","""event"",""trial"",""time""
""fullscreenenter"",""0"",""4584""
","
","
","""event"",""trial"",""time""
""fullscreenenter"",""0"",""4584""
","
","460","","","","","","","","49","0,1,1","1","mountain","37","probe-108","0.4854874999134393","0.3628635560818257","0.3539774910455247","0","","","","","","","",""
"","html-keyboard-response","171","750687","0.0-94.0-1.0","""event"",""trial"",""time""
""fullscreenenter"",""0"",""4584""
","
","
","""event"",""trial"",""time""
""fullscreenenter"",""0"",""4584""
","
","null","<p></p>","null","","","","","","","","","","","","","","","","","","","","","","",""
"","do_trial","172","755579","0.0-95.0-0.0","""event"",""trial"",""time""
""fullscreenenter"",""0"",""4584""
","
","
","""event"",""trial"",""time""
""fullscreenenter"",""0"",""4584""
","
","349.9000000001397","","","","","","","","49","1,1,0","1","mountain","38","probe-107","0.6772079273205722","0.19046984067984912","0.298874462414093","1","","","","","","","",""
"","html-keyboard-response","173","756585","0.0-95.0-1.0","""event"",""trial"",""time""
""fullscreenenter"",""0"",""4584""
","
","
","""event"",""trial"",""time""
""fullscreenenter"",""0"",""4584""
","
","null","<p></p>","null","","","","","","","","","","","","","","","","","","","","","","",""
"","do_trial","174","761723","0.0-96.0-0.0","""event"",""trial"",""time""
""fullscreenenter"",""0"",""4584""
","
","
","""event"",""trial"",""time""
""fullscreenenter"",""0"",""4584""
","
","595.8999999999069","","","","","","","","50","0,0,0","1","mountain","39","probe-120","0.5677503436286603","0.2979190044447729","0.22011765080966084","0","","","","","","","",""
"","html-keyboard-response","175","762729","0.0-96.0-1.0","""event"",""trial"",""time""
""fullscreenenter"",""0"",""4584""
","
","
","""event"",""trial"",""time""
""fullscreenenter"",""0"",""4584""
","
","null","<p></p>","null","","","","","","","","","","","","","","","","","","","","","","",""
"","do_trial","176","767711","0.0-97.0-0.0","""event"",""trial"",""time""
""fullscreenenter"",""0"",""4584""
","
","
","""event"",""trial"",""time""
""fullscreenenter"",""0"",""4584""
","
","445.39999999990687","","","","","","","","51","0,0,0","1","mountain","40","probe-106","0.4893100677332454","0.3170050787727609","0.1451200118445393","0","","","","","","","",""
"","html-keyboard-response","177","768716","0.0-97.0-1.0","""event"",""trial"",""time""
""fullscreenenter"",""0"",""4584""
","
","
","""event"",""trial"",""time""
""fullscreenenter"",""0"",""4584""
","
","null","<p></p>","null","","","","","","","","","","","","","","","","","","","","","","",""
"","do_trial","178","773705","0.0-98.0-0.0","""event"",""trial"",""time""
""fullscreenenter"",""0"",""4584""
","
","
","""event"",""trial"",""time""
""fullscreenenter"",""0"",""4584""
","
","451.10000000009313","","","","","","","","50","0,1,0","1","mountain","41","probe-91","0.4130200481847057","0.42244994171071376","0.2607063456988662","1","","","","","","","",""
"","html-keyboard-response","179","774708","0.0-98.0-1.0","""event"",""trial"",""time""
""fullscreenenter"",""0"",""4584""
","
","
","""event"",""trial"",""time""
""fullscreenenter"",""0"",""4584""
","
","null","<p></p>","null","","","","","","","","","","","","","","","","","","","","","","",""
"","do_trial","180","779957","0.0-99.0-0.0","""event"",""trial"",""time""
""fullscreenenter"",""0"",""4584""
","
","
","""event"",""trial"",""time""
""fullscreenenter"",""0"",""4584""
","
","710.1999999999534","","","","","","","","49","0,1,1","1","mountain","42","probe-141","0.22967877546268922","0.30154957403642557","0.4294831666157208","0","","","","","","","",""
"","html-keyboard-response","181","780963","0.0-99.0-1.0","""event"",""trial"",""time""
""fullscreenenter"",""0"",""4584""
","
","
","""event"",""trial"",""time""
""fullscreenenter"",""0"",""4584""
","
","null","<p></p>","null","","","","","","","","","","","","","","","","","","","","","","",""
"","do_trial","182","786634","0.0-100.0-0.0","""event"",""trial"",""time""
""fullscreenenter"",""0"",""4584""
","
","
","""event"",""trial"",""time""
""fullscreenenter"",""0"",""4584""
","
","1131.8000000000466","","","","","","","","50","1,0,1","1","mountain","43","probe-164","0.23693609011662115","0.3632016715304603","0.6090972907774659","0","","","","","","","",""
"","html-keyboard-response","183","787640","0.0-100.0-1.0","""event"",""trial"",""time""
""fullscreenenter"",""0"",""4584""
","
","
","""event"",""trial"",""time""
""fullscreenenter"",""0"",""4584""
","
","null","<p></p>","null","","","","","","","","","","","","","","","","","","","","","","",""
"","do_trial","184","793012","0.0-101.0-0.0","""event"",""trial"",""time""
""fullscreenenter"",""0"",""4584""
","
","
","""event"",""trial"",""time""
""fullscreenenter"",""0"",""4584""
","
","836.4000000001397","","","","","","","","50","0,1,0","1","mountain","44","probe-48","0.13273628582327962","0.3887434451341445","0.5526829217776253","1","","","","","","","",""
"","html-keyboard-response","185","794018","0.0-101.0-1.0","""event"",""trial"",""time""
""fullscreenenter"",""0"",""4584""
","
","
","""event"",""trial"",""time""
""fullscreenenter"",""0"",""4584""
","
","null","<p></p>","null","","","","","","","","","","","","","","","","","","","","","","",""
"","do_trial","186","799607","0.0-102.0-0.0","""event"",""trial"",""time""
""fullscreenenter"",""0"",""4584""
","
","
","""event"",""trial"",""time""
""fullscreenenter"",""0"",""4584""
","
","1048.3000000000466","","","","","","","","51","0,0,1","1","mountain","45","probe-18","0.0684033760353008","0.23923200428693522","0.5889302999631166","1","","","","","","","",""
"","html-keyboard-response","187","800613","0.0-102.0-1.0","""event"",""trial"",""time""
""fullscreenenter"",""0"",""4584""
","
","
","""event"",""trial"",""time""
""fullscreenenter"",""0"",""4584""
","
","null","<p></p>","null","","","","","","","","","","","","","","","","","","","","","","",""
"","do_trial","188","806127","0.0-103.0-0.0","""event"",""trial"",""time""
""fullscreenenter"",""0"",""4584""
","
","
","""event"",""trial"",""time""
""fullscreenenter"",""0"",""4584""
","
","972","","","","","","","","51","0,1,1","1","mountain","46","probe-23","0.08124269906333298","0.2550950974106569","0.7048863257706866","1","","","","","","","",""
"","html-keyboard-response","189","807132","0.0-103.0-1.0","""event"",""trial"",""time""
""fullscreenenter"",""0"",""4584""
","
","
","""event"",""trial"",""time""
""fullscreenenter"",""0"",""4584""
","
","null","<p></p>","null","","","","","","","","","","","","","","","","","","","","","","",""
"","do_trial","190","812894","0.0-104.0-0.0","""event"",""trial"",""time""
""fullscreenenter"",""0"",""4584""
","
","
","""event"",""trial"",""time""
""fullscreenenter"",""0"",""4584""
","
","1220.3000000000466","","","","","","","","51","0,1,1","1","mountain","47","probe-34","0.23085007823146877","0.22736075622585483","0.6369768996833876","1","","","","","","","",""
"","html-keyboard-response","191","813899","0.0-104.0-1.0","""event"",""trial"",""time""
""fullscreenenter"",""0"",""4584""
","
","
","""event"",""trial"",""time""
""fullscreenenter"",""0"",""4584""
","
","null","<p></p>","null","","","","","","","","","","","","","","","","","","","","","","",""
"","do_trial","192","820557","0.0-105.0-0.0","""event"",""trial"",""time""
""fullscreenenter"",""0"",""4584""
","
","
","""event"",""trial"",""time""
""fullscreenenter"",""0"",""4584""
","
","2116.8000000000466","","","","","","","","50","0,0,1","1","mountain","48","probe-79","0.14207439857980603","0.43776624078276327","0.5219627383075752","0","","","","","","","",""
"","html-keyboard-response","193","821563","0.0-105.0-1.0","""event"",""trial"",""time""
""fullscreenenter"",""0"",""4584""
","
","
","""event"",""trial"",""time""
""fullscreenenter"",""0"",""4584""
","
","null","<p></p>","null","","","","","","","","","","","","","","","","","","","","","","",""
"","do_trial","194","827069","0.0-106.0-0.0","""event"",""trial"",""time""
""fullscreenenter"",""0"",""4584""
","
","
","""event"",""trial"",""time""
""fullscreenenter"",""0"",""4584""
","
","963.8000000000466","","","","","","","","51","1,0,0","1","mountain","49","probe-94","0.17883984434020817","0.2621189927150817","0.6457457897426663","0","","","","","","","",""
"","html-keyboard-response","195","828074","0.0-106.0-1.0","""event"",""trial"",""time""
""fullscreenenter"",""0"",""4584""
","
","
","""event"",""trial"",""time""
""fullscreenenter"",""0"",""4584""
","
","null","<p></p>","null","","","","","","","","","","","","","","","","","","","","","","",""
"","do_trial","196","833469","0.0-107.0-0.0","""event"",""trial"",""time""
""fullscreenenter"",""0"",""4584""
","
","
","""event"",""trial"",""time""
""fullscreenenter"",""0"",""4584""
","
","853.1000000000931","","","","","","","","49","0,0,0","1","mountain","50","probe-167","0.0643995355336222","0.21366331772092367","0.6872697665769454","0","","","","","","","",""
"","html-keyboard-response","197","834475","0.0-107.0-1.0","""event"",""trial"",""time""
""fullscreenenter"",""0"",""4584""
","
","
","""event"",""trial"",""time""
""fullscreenenter"",""0"",""4584""
","
","null","<p></p>","null","","","","","","","","","","","","","","","","","","","","","","",""
"","do_trial","198","840796","0.0-108.0-0.0","""event"",""trial"",""time""
""fullscreenenter"",""0"",""4584""
","
","
","""event"",""trial"",""time""
""fullscreenenter"",""0"",""4584""
","
","1779.5","","","","","","","","50","0,0,1","1","mountain","51","probe-129","0.055794308931877375","0.3670263906671605","0.6809127517985714","0","","","","","","","",""
"","html-keyboard-response","199","841801","0.0-108.0-1.0","""event"",""trial"",""time""
""fullscreenenter"",""0"",""4584""
","
","
","""event"",""trial"",""time""
""fullscreenenter"",""0"",""4584""
","
","null","<p></p>","null","","","","","","","","","","","","","","","","","","","","","","",""
"","do_trial","200","847596","0.0-109.0-0.0","""event"",""trial"",""time""
""fullscreenenter"",""0"",""4584""
","
","
","""event"",""trial"",""time""
""fullscreenenter"",""0"",""4584""
","
","1253.4000000001397","","","","","","","","51","0,0,1","1","mountain","52","probe-31","0.17304260753509776","0.31070401425733707","0.7449814126260763","1","","","","","","","",""
"","html-keyboard-response","201","848602","0.0-109.0-1.0","""event"",""trial"",""time""
""fullscreenenter"",""0"",""4584""
","
","
","""event"",""trial"",""time""
""fullscreenenter"",""0"",""4584""
","
","null","<p></p>","null","","","","","","","","","","","","","","","","","","","","","","",""
"","do_trial","202","854476","0.0-110.0-0.0","""event"",""trial"",""time""
""fullscreenenter"",""0"",""4584""
","
","
","""event"",""trial"",""time""
""fullscreenenter"",""0"",""4584""
","
","1331.6000000000931","","","","","","","","49","0,0,1","1","mountain","53","probe-46","0.14683667770488049","0.2593262336860584","0.7005623882139725","0","","","","","","","",""
"","html-keyboard-response","203","855482","0.0-110.0-1.0","""event"",""trial"",""time""
""fullscreenenter"",""0"",""4584""
","
","
","""event"",""trial"",""time""
""fullscreenenter"",""0"",""4584""
","
","null","<p></p>","null","","","","","","","","","","","","","","","","","","","","","","",""
"","do_trial","204","860784","0.0-111.0-0.0","""event"",""trial"",""time""
""fullscreenenter"",""0"",""4584""
","
","
","""event"",""trial"",""time""
""fullscreenenter"",""0"",""4584""
","
","763.9000000001397","","","","","","","","49","0,1,1","1","mountain","54","probe-42","0.19846602917160908","0.43590604246704445","0.6683101355774567","0","","","","","","","",""
"","html-keyboard-response","205","861790","0.0-111.0-1.0","""event"",""trial"",""time""
""fullscreenenter"",""0"",""4584""
","
","
","""event"",""trial"",""time""
""fullscreenenter"",""0"",""4584""
","
","null","<p></p>","null","","","","","","","","","","","","","","","","","","","","","","",""
"","do_trial","206","867448","0.0-112.0-0.0","""event"",""trial"",""time""
""fullscreenenter"",""0"",""4584""
","
","
","""event"",""trial"",""time""
""fullscreenenter"",""0"",""4584""
","
","1119.3000000000466","","","","","","","","49","0,1,0","1","mountain","55","probe-175","0.23658492729878824","0.3685134724457993","0.6819039340470566","0","","","","","","","",""
"","html-keyboard-response","207","868453","0.0-112.0-1.0","""event"",""trial"",""time""
""fullscreenenter"",""0"",""4584""
","
","
","""event"",""trial"",""time""
""fullscreenenter"",""0"",""4584""
","
","null","<p></p>","null","","","","","","","","","","","","","","","","","","","","","","",""
"","do_trial","208","874232","0.0-113.0-0.0","""event"",""trial"",""time""
""fullscreenenter"",""0"",""4584""
","
","
","""event"",""trial"",""time""
""fullscreenenter"",""0"",""4584""
","
","1240.8000000000466","","","","","","","","49","0,0,1","1","mountain","56","probe-36","0.1856903882273139","0.3488421998948797","0.7100700102663698","0","","","","","","","",""
"","html-keyboard-response","209","875238","0.0-113.0-1.0","""event"",""trial"",""time""
""fullscreenenter"",""0"",""4584""
","
","
","""event"",""trial"",""time""
""fullscreenenter"",""0"",""4584""
","
","null","<p></p>","null","","","","","","","","","","","","","","","","","","","","","","",""
"","do_trial","210","880371","0.0-114.0-0.0","""event"",""trial"",""time""
""fullscreenenter"",""0"",""4584""
","
","
","""event"",""trial"",""time""
""fullscreenenter"",""0"",""4584""
","
","590.8999999999069","","","","","","","","49","0,1,0","1","mountain","57","probe-226","0.10035152329579383","0.16802776872693856","0.6837953781526496","0","","","","","","","",""
"","html-keyboard-response","211","881377","0.0-114.0-1.0","""event"",""trial"",""time""
""fullscreenenter"",""0"",""4584""
","
","
","""event"",""trial"",""time""
""fullscreenenter"",""0"",""4584""
","
","null","<p></p>","null","","","","","","","","","","","","","","","","","","","","","","",""
"","do_trial","212","887155","0.0-115.0-0.0","""event"",""trial"",""time""
""fullscreenenter"",""0"",""4584""
","
","
","""event"",""trial"",""time""
""fullscreenenter"",""0"",""4584""
","
","1236.5","","","","","","","","50","0,0,1","1","mountain","58","probe-71","0.3026011316023698","0.1876938769896103","0.7790478747196435","0","","","","","","","",""
"","html-keyboard-response","213","888161","0.0-115.0-1.0","""event"",""trial"",""time""
""fullscreenenter"",""0"",""4584""
","
","
","""event"",""trial"",""time""
""fullscreenenter"",""0"",""4584""
","
","null","<p></p>","null","","","","","","","","","","","","","","","","","","","","","","",""
"","do_trial","214","893067","0.0-116.0-0.0","""event"",""trial"",""time""
""fullscreenenter"",""0"",""4584""
","
","
","""event"",""trial"",""time""
""fullscreenenter"",""0"",""4584""
","
","363.80000000004657","","","","","","","","49","0,0,1","1","mountain","59","probe-186","0.12322549765225121","0.28294182753862673","0.6094480571098199","0","","","","","","","",""
"","html-keyboard-response","215","894071","0.0-116.0-1.0","""event"",""trial"",""time""
""fullscreenenter"",""0"",""4584""
","
","
","""event"",""trial"",""time""
""fullscreenenter"",""0"",""4584""
","
","null","<p></p>","null","","","","","","","","","","","","","","","","","","","","","","",""
"","do_trial","216","899411","0.0-117.0-0.0","""event"",""trial"",""time""
""fullscreenenter"",""0"",""4584""
","
","
","""event"",""trial"",""time""
""fullscreenenter"",""0"",""4584""
","
","797.8999999999069","","","","","","","","51","0,1,1","1","mountain","60","probe-67","0.21997257889244087","0.3073884638065236","0.599233168981178","1","","","","","","","",""
"","html-keyboard-response","217","900417","0.0-117.0-1.0","""event"",""trial"",""time""
""fullscreenenter"",""0"",""4584""
","
","
","""event"",""trial"",""time""
""fullscreenenter"",""0"",""4584""
","
","null","<p></p>","null","","","","","","","","","","","","","","","","","","","","","","",""
"","do_trial","218","905683","0.0-118.0-0.0","""event"",""trial"",""time""
""fullscreenenter"",""0"",""4584""
","
","
","""event"",""trial"",""time""
""fullscreenenter"",""0"",""4584""
","
","724.0999999998603","","","","","","","","51","0,0,1","1","mountain","61","probe-44","0.10520462138326978","0.1545335117648533","0.588785825503075","1","","","","","","","",""
"","html-keyboard-response","219","906688","0.0-118.0-1.0","""event"",""trial"",""time""
""fullscreenenter"",""0"",""4584""
","
","
","""event"",""trial"",""time""
""fullscreenenter"",""0"",""4584""
","
","null","<p></p>","null","","","","","","","","","","","","","","","","","","","","","","",""
"","do_trial","220","911730","0.0-119.0-0.0","""event"",""trial"",""time""
""fullscreenenter"",""0"",""4584""
","
","
","""event"",""trial"",""time""
""fullscreenenter"",""0"",""4584""
","
","501","","","","","","","","51","0,0,1","1","mountain","62","probe-190","0.15628893487580306","0.27520251905084514","0.7623143739742614","1","","","","","","","",""
"","html-keyboard-response","221","912734","0.0-119.0-1.0","""event"",""trial"",""time""
""fullscreenenter"",""0"",""4584""
","
","
","""event"",""trial"",""time""
""fullscreenenter"",""0"",""4584""
","
","null","<p></p>","null","","","","","","","","","","","","","","","","","","","","","","",""
"","do_trial","222","918471","0.0-120.0-0.0","""event"",""trial"",""time""
""fullscreenenter"",""0"",""4584""
","
","
","""event"",""trial"",""time""
""fullscreenenter"",""0"",""4584""
","
","1198","","","","","","","","51","0,0,0","1","mountain","63","probe-158","0.10816702836850142","0.2579138886165546","0.6433133144653032","0","","","","","","","",""
"","html-keyboard-response","223","919477","0.0-120.0-1.0","""event"",""trial"",""time""
""fullscreenenter"",""0"",""4584""
","
","
","""event"",""trial"",""time""
""fullscreenenter"",""0"",""4584""
","
","null","<p></p>","null","","","","","","","","","","","","","","","","","","","","","","",""
"","do_trial","224","925353","0.0-121.0-0.0","""event"",""trial"",""time""
""fullscreenenter"",""0"",""4584""
","
","
","""event"",""trial"",""time""
""fullscreenenter"",""0"",""4584""
","
","1336.0999999998603","","","","","","","","51","0,0,1","1","mountain","64","probe-122","0.09661438801143174","0.333108671984161","0.6272215848464083","1","","","","","","","",""
"","html-keyboard-response","225","926357","0.0-121.0-1.0","""event"",""trial"",""time""
""fullscreenenter"",""0"",""4584""
","
","
","""event"",""trial"",""time""
""fullscreenenter"",""0"",""4584""
","
","null","<p></p>","null","","","","","","","","","","","","","","","","","","","","","","",""
"","do_trial","226","931730","0.0-122.0-0.0","""event"",""trial"",""time""
""fullscreenenter"",""0"",""4584""
","
","
","""event"",""trial"",""time""
""fullscreenenter"",""0"",""4584""
","
","830.6999999999534","","","","","","","","49","0,1,1","1","mountain","65","probe-214","0.09216399074050695","0.25598863487085227","0.6600394656200868","0","","","","","","","",""
"","html-keyboard-response","227","932736","0.0-122.0-1.0","""event"",""trial"",""time""
""fullscreenenter"",""0"",""4584""
","
","
","""event"",""trial"",""time""
""fullscreenenter"",""0"",""4584""
","
","null","<p></p>","null","","","","","","","","","","","","","","","","","","","","","","",""
"","do_trial","228","937898","0.0-123.0-0.0","""event"",""trial"",""time""
""fullscreenenter"",""0"",""4584""
","
","
","""event"",""trial"",""time""
""fullscreenenter"",""0"",""4584""
","
","620.7999999998137","","","","","","","","50","0,0,0","1","mountain","66","probe-127","0.14044560621489674","0.3690614280982386","0.5265256839399709","0","","","","","","","",""
"","html-keyboard-response","229","938904","0.0-123.0-1.0","""event"",""trial"",""time""
""fullscreenenter"",""0"",""4584""
","
","
","""event"",""trial"",""time""
""fullscreenenter"",""0"",""4584""
","
","null","<p></p>","null","","","","","","","","","","","","","","","","","","","","","","",""
"","do_trial","230","945546","0.0-124.0-0.0","""event"",""trial"",""time""
""fullscreenenter"",""0"",""4584""
","
","
","""event"",""trial"",""time""
""fullscreenenter"",""0"",""4584""
","
","2099.600000000093","","","","","","","","51","0,0,0","1","mountain","67","probe-76","0.15276741266119045","0.26655365544713494","0.5273140188937752","0","","","","","","","",""
"","html-keyboard-response","231","946550","0.0-124.0-1.0","""event"",""trial"",""time""
""fullscreenenter"",""0"",""4584""
","
","
","""event"",""trial"",""time""
""fullscreenenter"",""0"",""4584""
","
","null","<p></p>","null","","","","","","","","","","","","","","","","","","","","","","",""
"","do_trial","232","952090","0.0-125.0-0.0","""event"",""trial"",""time""
""fullscreenenter"",""0"",""4584""
","
","
","""event"",""trial"",""time""
""fullscreenenter"",""0"",""4584""
","
","998.2000000001863","","","","","","","","50","0,0,0","1","mountain","68","probe-147","0.15298133064310077","0.33570711584065566","0.5895329033214235","0","","","","","","","",""
"","html-keyboard-response","233","953096","0.0-125.0-1.0","""event"",""trial"",""time""
""fullscreenenter"",""0"",""4584""
","
","
","""event"",""trial"",""time""
""fullscreenenter"",""0"",""4584""
","
","null","<p></p>","null","","","","","","","","","","","","","","","","","","","","","","",""
"","do_trial","234","958474","0.0-126.0-0.0","""event"",""trial"",""time""
""fullscreenenter"",""0"",""4584""
","
","
","""event"",""trial"",""time""
""fullscreenenter"",""0"",""4584""
","
","836.2999999998137","","","","","","","","51","0,1,1","1","mountain","69","probe-183","0.12559621929856551","0.30838087578230405","0.5018356550293613","1","","","","","","","",""
"","html-keyboard-response","235","959479","0.0-126.0-1.0","""event"",""trial"",""time""
""fullscreenenter"",""0"",""4584""
","
","
","""event"",""trial"",""time""
""fullscreenenter"",""0"",""4584""
","
","null","<p></p>","null","","","","","","","","","","","","","","","","","","","","","","",""
"","do_bye","236","960988","0.0-127.0-0.0","""event"",""trial"",""time""
""fullscreenenter"",""0"",""4584""
","
","
","""event"",""trial"",""time""
""fullscreenenter"",""0"",""4584""
","
","null","","","","","","","","null","","","","","","","","","","","","","","","","",""
"","break","237","962888","0.0-127.0-1.0","""event"",""trial"",""time""
""fullscreenenter"",""0"",""4584""
","
","
","""event"",""trial"",""time""
""fullscreenenter"",""0"",""4584""
","
","1899.4000000001397","<div class='center'><p>Time to take a quick break! You have 2 minutes to rest, but you can move on sooner if you'd like.</p><p> Press the <b>space bar</b> to continue.</p></div>","32","","","","","","","","","","","","","","","","","","","","","","",""
"","do_travel","238","971895","0.0-128.0-0.0","""event"",""trial"",""time""
""fullscreenenter"",""0"",""4584""
","
","
","""event"",""trial"",""time""
""fullscreenenter"",""0"",""4584""
","
","null","","","","","","","","null","","","","","","","","","","","","","","","","",""
"","do_welcome","239","975901","0.0-128.0-1.0","""event"",""trial"",""time""
""fullscreenenter"",""0"",""4584""
","
","
","""event"",""trial"",""time""
""fullscreenenter"",""0"",""4584""
","
","null","","","","","","","","null","","","","","","","","","","","","","","","","",""
"","do_trial","240","982266","0.0-129.0-0.0","""event"",""trial"",""time""
""fullscreenenter"",""0"",""4584""
","
","
","""event"",""trial"",""time""
""fullscreenenter"",""0"",""4584""
","
","1821.4000000001397","","","","","","","","49","0,1,1","2","highway","70","probe-81","0.08105570682972157","0.46314584621449867","1","0","","","","","","","",""
"","html-keyboard-response","241","983271","0.0-129.0-1.0","""event"",""trial"",""time""
""fullscreenenter"",""0"",""4584""
","
","
","""event"",""trial"",""time""
""fullscreenenter"",""0"",""4584""
","
","null","<p></p>","null","","","","","","","","","","","","","","","","","","","","","","",""
"","do_trial","242","988481","0.0-130.0-0.0","""event"",""trial"",""time""
""fullscreenenter"",""0"",""4584""
","
","
","""event"",""trial"",""time""
""fullscreenenter"",""0"",""4584""
","
","667.5","","","","","","","","49","0,1,1","2","highway","71","probe-184","0.2026549532603049","0.3285701706261457","1","0","","","","","","","",""
"","html-keyboard-response","243","989487","0.0-130.0-1.0","""event"",""trial"",""time""
""fullscreenenter"",""0"",""4584""
","
","
","""event"",""trial"",""time""
""fullscreenenter"",""0"",""4584""
","
","null","<p></p>","null","","","","","","","","","","","","","","","","","","","","","","",""
"","do_trial","244","994629","0.0-131.0-0.0","""event"",""trial"",""time""
""fullscreenenter"",""0"",""4584""
","
","
","""event"",""trial"",""time""
""fullscreenenter"",""0"",""4584""
","
","604.4000000001397","","","","","","","","49","1,0,1","2","highway","72","probe-65","0.15997446478510535","0.3252420729562892","0.939986029511065","1","","","","","","","",""
"","html-keyboard-response","245","995634","0.0-131.0-1.0","""event"",""trial"",""time""
""fullscreenenter"",""0"",""4584""
","
","
","""event"",""trial"",""time""
""fullscreenenter"",""0"",""4584""
","
","null","<p></p>","null","","","","","","","","","","","","","","","","","","","","","","",""
"","do_trial","246","1000761","0.0-132.0-0.0","""event"",""trial"",""time""
""fullscreenenter"",""0"",""4584""
","
","
","""event"",""trial"",""time""
""fullscreenenter"",""0"",""4584""
","
","584","","","","","","","","50","0,1,1","2","highway","73","probe-37","0.08589113251609318","0.3182901203632262","0.8945247531848068","1","","","","","","","",""
"","html-keyboard-response","247","1001766","0.0-132.0-1.0","""event"",""trial"",""time""
""fullscreenenter"",""0"",""4584""
","
","
","""event"",""trial"",""time""
""fullscreenenter"",""0"",""4584""
","
","null","<p></p>","null","","","","","","","","","","","","","","","","","","","","","","",""
"","do_trial","248","1006688","0.0-133.0-0.0","""event"",""trial"",""time""
""fullscreenenter"",""0"",""4584""
","
","
","""event"",""trial"",""time""
""fullscreenenter"",""0"",""4584""
","
","380.19999999995343","","","","","","","","50","1,1,1","2","highway","74","probe-96","0.08013477780615152","0.2522244631485002","0.7528785919778941","1","","","","","","","",""
"","html-keyboard-response","249","1007694","0.0-133.0-1.0","""event"",""trial"",""time""
""fullscreenenter"",""0"",""4584""
","
","
","""event"",""trial"",""time""
""fullscreenenter"",""0"",""4584""
","
","null","<p></p>","null","","","","","","","","","","","","","","","","","","","","","","",""
"","do_trial","250","1012656","0.0-134.0-0.0","""event"",""trial"",""time""
""fullscreenenter"",""0"",""4584""
","
","
","""event"",""trial"",""time""
""fullscreenenter"",""0"",""4584""
","
","420.0999999998603","","","","","","","","51","0,0,1","2","highway","75","probe-30","0.16023595692260653","0.2573759335358912","0.6888283457062763","1","","","","","","","",""
"","html-keyboard-response","251","1013662","0.0-134.0-1.0","""event"",""trial"",""time""
""fullscreenenter"",""0"",""4584""
","
","
","""event"",""trial"",""time""
""fullscreenenter"",""0"",""4584""
","
","null","<p></p>","null","","","","","","","","","","","","","","","","","","","","","","",""
"","do_trial","252","1018729","0.0-135.0-0.0","""event"",""trial"",""time""
""fullscreenenter"",""0"",""4584""
","
","
","""event"",""trial"",""time""
""fullscreenenter"",""0"",""4584""
","
","524.8000000000466","","","","","","","","50","0,0,0","2","highway","76","probe-157","0.15337429641836392","0.3027995277457435","0.6289580585164879","0","","","","","","","",""
"","html-keyboard-response","253","1019734","0.0-135.0-1.0","""event"",""trial"",""time""
""fullscreenenter"",""0"",""4584""
","
","
","""event"",""trial"",""time""
""fullscreenenter"",""0"",""4584""
","
","null","<p></p>","null","","","","","","","","","","","","","","","","","","","","","","",""
"","do_trial","254","1024864","0.0-136.0-0.0","""event"",""trial"",""time""
""fullscreenenter"",""0"",""4584""
","
","
","""event"",""trial"",""time""
""fullscreenenter"",""0"",""4584""
","
","588.0999999998603","","","","","","","","51","0,1,1","2","highway","77","probe-205","0.2592516099779698","0.30025390676963","0.7354507418854859","1","","","","","","","",""
"","html-keyboard-response","255","1025870","0.0-136.0-1.0","""event"",""trial"",""time""
""fullscreenenter"",""0"",""4584""
","
","
","""event"",""trial"",""time""
""fullscreenenter"",""0"",""4584""
","
","null","<p></p>","null","","","","","","","","","","","","","","","","","","","","","","",""
"","do_trial","256","1030856","0.0-137.0-0.0","""event"",""trial"",""time""
""fullscreenenter"",""0"",""4584""
","
","
","""event"",""trial"",""time""
""fullscreenenter"",""0"",""4584""
","
","441.10000000009313","","","","","","","","49","0,0,1","2","highway","78","probe-07","0.18892959956664065","0.35376292493269246","0.7165236531190466","0","","","","","","","",""
"","html-keyboard-response","257","1031860","0.0-137.0-1.0","""event"",""trial"",""time""
""fullscreenenter"",""0"",""4584""
","
","
","""event"",""trial"",""time""
""fullscreenenter"",""0"",""4584""
","
","null","<p></p>","null","","","","","","","","","","","","","","","","","","","","","","",""
"","do_trial","258","1037096","0.0-138.0-0.0","""event"",""trial"",""time""
""fullscreenenter"",""0"",""4584""
","
","
","""event"",""trial"",""time""
""fullscreenenter"",""0"",""4584""
","
","693.1999999999534","","","","","","","","50","0,1,0","2","highway","79","probe-211","0.12595133135210757","0.4322954254175581","0.8485713527332054","1","","","","","","","",""
"","html-keyboard-response","259","1038098","0.0-138.0-1.0","""event"",""trial"",""time""
""fullscreenenter"",""0"",""4584""
","
","
","""event"",""trial"",""time""
""fullscreenenter"",""0"",""4584""
","
","null","<p></p>","null","","","","","","","","","","","","","","","","","","","","","","",""
"","do_trial","260","1043752","0.0-139.0-0.0","""event"",""trial"",""time""
""fullscreenenter"",""0"",""4584""
","
","
","""event"",""trial"",""time""
""fullscreenenter"",""0"",""4584""
","
","1111.5","","","","","","","","49","1,0,1","2","highway","80","probe-50","0.1660117269263666","0.5762999332122954","0.9182507774495712","1","","","","","","","",""
"","html-keyboard-response","261","1044758","0.0-139.0-1.0","""event"",""trial"",""time""
""fullscreenenter"",""0"",""4584""
","
","
","""event"",""trial"",""time""
""fullscreenenter"",""0"",""4584""
","
","null","<p></p>","null","","","","","","","","","","","","","","","","","","","","","","",""
"","do_trial","262","1049712","0.0-140.0-0.0","""event"",""trial"",""time""
""fullscreenenter"",""0"",""4584""
","
","
","""event"",""trial"",""time""
""fullscreenenter"",""0"",""4584""
","
