"success","trial_type","trial_index","time_elapsed","internal_node_id","interactions","blur_events","focus_events","fullscreenenter_events","fullscreenexit_events","rt","stimulus","key_press","subject_id","participant_id","age","gender","prompt","response","choice_outcomes","context_n","context_img_id","trial_n","probe_img_id","pR_red","pR_white","pR_black","outcome","contextArray_ind","validImageProbes","invalidImageProbes","pRew_Red","pRew_White","pRew_Black","availableForMemProbe","choice_blocks"
"true","fullscreen","0","20096","0.0-0.0","""event"",""trial"",""time""
""fullscreenenter"",""0"",""19116""
","
","
","""event"",""trial"",""time""
""fullscreenenter"",""0"",""19116""
","
","","","","","","","","","","","","","","","","","","","","","","","","","",""
"","pavlovia","1","20110","0.0-1.0","""event"",""trial"",""time""
""fullscreenenter"",""0"",""19116""
","
","
","""event"",""trial"",""time""
""fullscreenenter"",""0"",""19116""
","
","","","","","","","","","","","","","","","","","","","","","","","","","",""
"","instruc1","2","65345","0.0-2.0","""event"",""trial"",""time""
""fullscreenenter"",""0"",""19116""
","
","
","""event"",""trial"",""time""
""fullscreenenter"",""0"",""19116""
","
","null","run_exp/static/audio/clip_1_welcome.m4a","null","306","260","17","Male","<div class='center'><p>Welcome! This is the first part of the study. It will last ~30 minutes. In part 1 and part 2 of the study, you are the head captain of a pirate ship traveling around the world to different islands. You will play a few different games throughout these two parts. Here is an overview of them:</p><br><p>Part 1 (today)</p><p>1. Instructions, practice game, and quiz</p><p>2. Pick a pirate game on 6 different islands</p><br><p>Part 2 (tomorrow)</p><p>3. Pick a pirate game and memory game</p><p>4. Where did you see this ship? </p></div>","","","","","","","","","","","","","","","","","",""
"","html-keyboard-response","3","68845","0.0-3.0","""event"",""trial"",""time""
""fullscreenenter"",""0"",""19116""
","
","
","""event"",""trial"",""time""
""fullscreenenter"",""0"",""19116""
","
","3497.10000000149","<div class='center'><p>Welcome! This is the first part of the study. It will last ~30 minutes. In part 1 and part 2 of the study, you are the head captain of a pirate ship traveling around the world to different islands. You will play a few different games throughout these two parts. Here is an overview of them:</p><br><p>Part 1 (today)</p><p>1. Instructions, practice game, and quiz</p><p>2. Pick a pirate game on 6 different islands</p><br><p>Part 2 (tomorrow)</p><p>3. Pick a pirate game and memory game</p><p>4. Where did you see this ship? </p><p><b>[Press the space bar to continue]</b></p></div>","32","","","","","","","","","","","","","","","","","","","","","","",""
"","instruc2","4","74261","0.0-4.0","""event"",""trial"",""time""
""fullscreenenter"",""0"",""19116""
","
","
","""event"",""trial"",""time""
""fullscreenenter"",""0"",""19116""
","
","null","run_exp/static/audio/clip_2_different_places.m4a","null","","","","","<div class='center'><p>Today, you’ll visit these 6 islands on your journey. You'll be able to see these islands from your ship.</p><p><img src='run_exp/static/images/contexts/all_contexts.png' height='500'></p></div>","","","","","","","","","","","","","","","","","",""
"","html-keyboard-response","5","81082","0.0-5.0","""event"",""trial"",""time""
""fullscreenenter"",""0"",""19116""
","
","
","""event"",""trial"",""time""
""fullscreenenter"",""0"",""19116""
","
","6818.69999999553","<div class='center'><p>Today, you’ll visit these 6 islands on your journey. You'll be able to see these islands from your ship.</p><p><img src='run_exp/static/images/contexts/all_contexts.png' height='500'></p><p><b>[Press the space bar to continue]</b></p></div>","32","","","","","","","","","","","","","","","","","","","","","","",""
"","instruc3","6","90885","0.0-6.0","""event"",""trial"",""time""
""fullscreenenter"",""0"",""19116""
","
","
","""event"",""trial"",""time""
""fullscreenenter"",""0"",""19116""
","
","null","run_exp/static/audio/clip_3_goal_of_game_1.m4a","null","","","","","<div class='center'><p> The pirates on your ship will rob other ships as they leave the island.</p> These ships have just sold their goods to the islanders, so they will be filled with lots and lots of gold.</p><p><img src='run_exp/static/images/tutorial/ship_center.png' height='400'></p></div>","","","","","","","","","","","","","","","","","",""
"","html-keyboard-response","7","92071","0.0-7.0","""event"",""trial"",""time""
""fullscreenenter"",""0"",""19116""
""fullscreenexit"",""8"",""102668""
","
","
","""event"",""trial"",""time""
""fullscreenenter"",""0"",""19116""
","""event"",""trial"",""time""
""fullscreenexit"",""8"",""102668""
","1179.5","<div class='center'><p> The pirates on your ship will rob other ships as they leave the island.</p> These ships have just sold their goods to the islanders, so they will be filled with lots and lots of gold.</p><p><img src='run_exp/static/images/tutorial/ship_center.png' height='400'></p><p><b>[Press the space bar to continue]</b></p></div>","32","","","","","","","","","","","","","","","","","","","","","","",""
"","instruc4","8","120143","0.0-8.0","""event"",""trial"",""time""
""fullscreenenter"",""0"",""19116""
""fullscreenexit"",""8"",""102668""
","
","
","""event"",""trial"",""time""
""fullscreenenter"",""0"",""19116""
","""event"",""trial"",""time""
""fullscreenexit"",""8"",""102668""
","null","run_exp/static/audio/clip_4_goal_of_game_2.m4a","null","","","","","<div class='center'><p>As the head captain, you do not have to rob any ships yourself. Another pirate will be doing the robbing for you. First, you will choose a pirate to rob the next ship.</p><p><img src='run_exp/static/images/tutorial/pirates_all_crop.png' height='200'></p><p>Then, you'll see if the pirate successfully robbed the ship of their gold. If they were successful, then you'll get a stack of gold coins like this:</p><p><img src='run_exp/static/images/tutorial/reward.png' height='150'></p><p> If they were <b>not</b> successful, then you'll get no gold coins, and you'll see a big red x like this: </p><p><img src='run_exp/static/images/tutorial/reward_no.png' height='150'></p><p> How much bonus money you make is based on how many gold coins you collect.</p><div>","","","","","","","","","","","","","","","","","",""
"","html-keyboard-response","9","122147","0.0-9.0","""event"",""trial"",""time""
""fullscreenenter"",""0"",""19116""
""fullscreenexit"",""8"",""102668""
","
","
","""event"",""trial"",""time""
""fullscreenenter"",""0"",""19116""
","""event"",""trial"",""time""
""fullscreenexit"",""8"",""102668""
","2000.5","<div class='center'><p>As the head captain, you do not have to rob any ships yourself. Another pirate will be doing the robbing for you. First, you will choose a pirate to rob the next ship.</p><p><img src='run_exp/static/images/tutorial/pirates_all_crop.png' height='200'></p><p>Then, you'll see if the pirate successfully robbed the ship of their gold. If they were successful, then you'll get a stack of gold coins like this:</p><p><img src='run_exp/static/images/tutorial/reward.png' height='150'></p><p> If they were <b>not</b> successful, then you'll get no gold coins, and you'll see a big red x like this: </p><p><img src='run_exp/static/images/tutorial/reward_no.png' height='150'></p><p> How much bonus money you make is based on how many gold coins you collect.</p<p><b>[Press the space bar to continue]</b></p></div>","32","","","","","","","","","","","","","","","","","","","","","","",""
"","instruc5","10","149415","0.0-10.0","""event"",""trial"",""time""
""fullscreenenter"",""0"",""19116""
""fullscreenexit"",""8"",""102668""
","
","
","""event"",""trial"",""time""
""fullscreenenter"",""0"",""19116""
","""event"",""trial"",""time""
""fullscreenexit"",""8"",""102668""
","27262.5","run_exp/static/audio/clip_5_probabilistic.m4a","49","","","","","<div class='center'><p>Even the most skilled pirate can not rob EVERY ship.</p><p> Some ships will have very strong protections against pirate attacks.</p><p> Blue beard, here, is very, very good at robbing ships, but he won't be successful every time he tries to rob one.</p><p> You can press the <b>‘1’</b> key on the keyboard to choose him.</p><p> Try choosing him 10 times to see how often he succeeds at robbing a ship. </p><p><img src='run_exp/static/images/tutorial/blue.png' height='500'></p></div>","","","","","","","","","","","","","","","","","",""
"","html-keyboard-response","11","150918","0.0-11.0","""event"",""trial"",""time""
""fullscreenenter"",""0"",""19116""
""fullscreenexit"",""8"",""102668""
","
","
","""event"",""trial"",""time""
""fullscreenenter"",""0"",""19116""
","""event"",""trial"",""time""
""fullscreenexit"",""8"",""102668""
","null","<div class='center'><p><img src='run_exp/static/images/tutorial/blue_win.png' height='500'></p></div>","null","","","","","","","","","","","","","","","","","","","","","","",""
"","html-keyboard-response","12","150944","0.0-12.0","""event"",""trial"",""time""
""fullscreenenter"",""0"",""19116""
""fullscreenexit"",""8"",""102668""
","
","
","""event"",""trial"",""time""
""fullscreenenter"",""0"",""19116""
","""event"",""trial"",""time""
""fullscreenexit"",""8"",""102668""
","24.899999998509884","<div class='center'><img src='run_exp/static/images/tutorial/blue.png' height='500'></p></div>","49","","","","","","","","","","","","","","","","","","","","","","",""
"","html-keyboard-response","13","152446","0.0-13.0","""event"",""trial"",""time""
""fullscreenenter"",""0"",""19116""
""fullscreenexit"",""8"",""102668""
","
","
","""event"",""trial"",""time""
""fullscreenenter"",""0"",""19116""
","""event"",""trial"",""time""
""fullscreenexit"",""8"",""102668""
","null","<div class='center'><p><img src='run_exp/static/images/tutorial/blue_win.png' height='500'></p></div>","null","","","","","","","","","","","","","","","","","","","","","","",""
"","html-keyboard-response","14","155010","0.0-14.0","""event"",""trial"",""time""
""fullscreenenter"",""0"",""19116""
""fullscreenexit"",""8"",""102668""
","
","
","""event"",""trial"",""time""
""fullscreenenter"",""0"",""19116""
","""event"",""trial"",""time""
""fullscreenexit"",""8"",""102668""
","2562.3000000044703","<div class='center'><img src='run_exp/static/images/tutorial/blue.png' height='500'></p></div>","49","","","","","","","","","","","","","","","","","","","","","","",""
"","html-keyboard-response","15","156512","0.0-15.0","""event"",""trial"",""time""
""fullscreenenter"",""0"",""19116""
""fullscreenexit"",""8"",""102668""
","
","
","""event"",""trial"",""time""
""fullscreenenter"",""0"",""19116""
","""event"",""trial"",""time""
""fullscreenexit"",""8"",""102668""
","null","<div class='center'><p><img src='run_exp/static/images/tutorial/blue_win.png' height='500'></p></div>","null","","","","","","","","","","","","","","","","","","","","","","",""
"","html-keyboard-response","16","161001","0.0-16.0","""event"",""trial"",""time""
""fullscreenenter"",""0"",""19116""
""fullscreenexit"",""8"",""102668""
","
","
","""event"",""trial"",""time""
""fullscreenenter"",""0"",""19116""
","""event"",""trial"",""time""
""fullscreenexit"",""8"",""102668""
","4487.5","<div class='center'><img src='run_exp/static/images/tutorial/blue.png' height='500'></p></div>","49","","","","","","","","","","","","","","","","","","","","","","",""
"","html-keyboard-response","17","162503","0.0-17.0","""event"",""trial"",""time""
""fullscreenenter"",""0"",""19116""
""fullscreenexit"",""8"",""102668""
","
","
","""event"",""trial"",""time""
""fullscreenenter"",""0"",""19116""
","""event"",""trial"",""time""
""fullscreenexit"",""8"",""102668""
","null","<div class='center'><p><img src='run_exp/static/images/tutorial/blue_no_win.png' height='500'></p></div>","null","","","","","","","","","","","","","","","","","","","","","","",""
"","html-keyboard-response","18","163247","0.0-18.0","""event"",""trial"",""time""
""fullscreenenter"",""0"",""19116""
""fullscreenexit"",""8"",""102668""
","
","
","""event"",""trial"",""time""
""fullscreenenter"",""0"",""19116""
","""event"",""trial"",""time""
""fullscreenexit"",""8"",""102668""
","741.5","<div class='center'><img src='run_exp/static/images/tutorial/blue.png' height='500'></p></div>","49","","","","","","","","","","","","","","","","","","","","","","",""
"","html-keyboard-response","19","164749","0.0-19.0","""event"",""trial"",""time""
""fullscreenenter"",""0"",""19116""
""fullscreenexit"",""8"",""102668""
","
","
","""event"",""trial"",""time""
""fullscreenenter"",""0"",""19116""
","""event"",""trial"",""time""
""fullscreenexit"",""8"",""102668""
","null","<div class='center'><p><img src='run_exp/static/images/tutorial/blue_win.png' height='500'></p></div>","null","","","","","","","","","","","","","","","","","","","","","","",""
"","html-keyboard-response","20","167900","0.0-20.0","""event"",""trial"",""time""
""fullscreenenter"",""0"",""19116""
""fullscreenexit"",""8"",""102668""
","
","
","""event"",""trial"",""time""
""fullscreenenter"",""0"",""19116""
","""event"",""trial"",""time""
""fullscreenexit"",""8"",""102668""
","3149.2000000029802","<div class='center'><img src='run_exp/static/images/tutorial/blue.png' height='500'></p></div>","49","","","","","","","","","","","","","","","","","","","","","","",""
"","html-keyboard-response","21","169402","0.0-21.0","""event"",""trial"",""time""
""fullscreenenter"",""0"",""19116""
""fullscreenexit"",""8"",""102668""
","
","
","""event"",""trial"",""time""
""fullscreenenter"",""0"",""19116""
","""event"",""trial"",""time""
""fullscreenexit"",""8"",""102668""
","null","<div class='center'><p><img src='run_exp/static/images/tutorial/blue_win.png' height='500'></p></div>","null","","","","","","","","","","","","","","","","","","","","","","",""
"","html-keyboard-response","22","170143","0.0-22.0","""event"",""trial"",""time""
""fullscreenenter"",""0"",""19116""
""fullscreenexit"",""8"",""102668""
","
","
","""event"",""trial"",""time""
""fullscreenenter"",""0"",""19116""
","""event"",""trial"",""time""
""fullscreenexit"",""8"",""102668""
","738.1999999955297","<div class='center'><img src='run_exp/static/images/tutorial/blue.png' height='500'></p></div>","49","","","","","","","","","","","","","","","","","","","","","","",""
"","html-keyboard-response","23","171645","0.0-23.0","""event"",""trial"",""time""
""fullscreenenter"",""0"",""19116""
""fullscreenexit"",""8"",""102668""
","
","
","""event"",""trial"",""time""
""fullscreenenter"",""0"",""19116""
","""event"",""trial"",""time""
""fullscreenexit"",""8"",""102668""
","null","<div class='center'><p><img src='run_exp/static/images/tutorial/blue_win.png' height='500'></p></div>","null","","","","","","","","","","","","","","","","","","","","","","",""
"","html-keyboard-response","24","173248","0.0-24.0","""event"",""trial"",""time""
""fullscreenenter"",""0"",""19116""
""fullscreenexit"",""8"",""102668""
","
","
","""event"",""trial"",""time""
""fullscreenenter"",""0"",""19116""
","""event"",""trial"",""time""
""fullscreenexit"",""8"",""102668""
","1599.5","<div class='center'><img src='run_exp/static/images/tutorial/blue.png' height='500'></p></div>","49","","","","","","","","","","","","","","","","","","","","","","",""
"","html-keyboard-response","25","174753","0.0-25.0","""event"",""trial"",""time""
""fullscreenenter"",""0"",""19116""
""fullscreenexit"",""8"",""102668""
","
","
","""event"",""trial"",""time""
""fullscreenenter"",""0"",""19116""
","""event"",""trial"",""time""
""fullscreenexit"",""8"",""102668""
","null","<div class='center'><p><img src='run_exp/static/images/tutorial/blue_no_win.png' height='500'></p></div>","null","","","","","","","","","","","","","","","","","","","","","","",""
"","html-keyboard-response","26","175369","0.0-26.0","""event"",""trial"",""time""
""fullscreenenter"",""0"",""19116""
""fullscreenexit"",""8"",""102668""
","
","
","""event"",""trial"",""time""
""fullscreenenter"",""0"",""19116""
","""event"",""trial"",""time""
""fullscreenexit"",""8"",""102668""
","613.2999999970198","<div class='center'><img src='run_exp/static/images/tutorial/blue.png' height='500'></p></div>","49","","","","","","","","","","","","","","","","","","","","","","",""
"","html-keyboard-response","27","176872","0.0-27.0","""event"",""trial"",""time""
""fullscreenenter"",""0"",""19116""
""fullscreenexit"",""8"",""102668""
","
","
","""event"",""trial"",""time""
""fullscreenenter"",""0"",""19116""
","""event"",""trial"",""time""
""fullscreenexit"",""8"",""102668""
","null","<div class='center'><p><img src='run_exp/static/images/tutorial/blue_win.png' height='500'></p></div>","null","","","","","","","","","","","","","","","","","","","","","","",""
"","html-keyboard-response","28","177368","0.0-28.0","""event"",""trial"",""time""
""fullscreenenter"",""0"",""19116""
""fullscreenexit"",""8"",""102668""
","
","
","""event"",""trial"",""time""
""fullscreenenter"",""0"",""19116""
","""event"",""trial"",""time""
""fullscreenexit"",""8"",""102668""
","493.20000000298023","<div class='center'><img src='run_exp/static/images/tutorial/blue.png' height='500'></p></div>","49","","","","","","","","","","","","","","","","","","","","","","",""
"","html-keyboard-response","29","178871","0.0-29.0","""event"",""trial"",""time""
""fullscreenenter"",""0"",""19116""
""fullscreenexit"",""8"",""102668""
","
","
","""event"",""trial"",""time""
""fullscreenenter"",""0"",""19116""
","""event"",""trial"",""time""
""fullscreenexit"",""8"",""102668""
","null","<div class='center'><p><img src='run_exp/static/images/tutorial/blue_win.png' height='500'></p></div>","null","","","","","","","","","","","","","","","","","","","","","","",""
"","instruc6","30","184280","0.0-30.0","""event"",""trial"",""time""
""fullscreenenter"",""0"",""19116""
""fullscreenexit"",""8"",""102668""
","
","
","""event"",""trial"",""time""
""fullscreenenter"",""0"",""19116""
","""event"",""trial"",""time""
""fullscreenexit"",""8"",""102668""
","null","run_exp/static/audio/clip_6_blue_beard_outcome.m4a","null","","","","","<div class='center'><p> See, he succeeded in robbing the ships most of the time but not every time. </p></div>","","","","","","","","","","","","","","","","","",""
"","html-keyboard-response","31","186914","0.0-31.0","""event"",""trial"",""time""
""fullscreenenter"",""0"",""19116""
""fullscreenexit"",""8"",""102668""
","
","
","""event"",""trial"",""time""
""fullscreenenter"",""0"",""19116""
","""event"",""trial"",""time""
""fullscreenexit"",""8"",""102668""
","2629.2999999970198","<div class='center'><p> See, he succeeded in robbing the ships most of the time but not every time. </p><p><b>[Press the space bar to continue]</b></p></div>","32","","","","","","","","","","","","","","","","","","","","","","",""
"","audio-keyboard-response","32","206064","0.0-32.0","""event"",""trial"",""time""
""fullscreenenter"",""0"",""19116""
""fullscreenexit"",""8"",""102668""
","
","
","""event"",""trial"",""time""
""fullscreenenter"",""0"",""19116""
","""event"",""trial"",""time""
""fullscreenexit"",""8"",""102668""
","19144.89999999851","run_exp/static/audio/clip_7_pick_pirate.m4a","50","","","","","","","","","","","","","","","","","","","","","","",""
"","audio-keyboard-response","33","210734","0.0-33.0-0.0","""event"",""trial"",""time""
""fullscreenenter"",""0"",""19116""
""fullscreenexit"",""8"",""102668""
","
","
","""event"",""trial"",""time""
""fullscreenenter"",""0"",""19116""
","""event"",""trial"",""time""
""fullscreenexit"",""8"",""102668""
","4664.29999999702","run_exp/static/audio/clip_8_chosen_pirate_win.m4a","32","","","","","","","","","","","","","","","","","","","","","","",""
"","audio-keyboard-response","34","211487","0.0-33.0-1.0","""event"",""trial"",""time""
""fullscreenenter"",""0"",""19116""
""fullscreenexit"",""8"",""102668""
","
","
","""event"",""trial"",""time""
""fullscreenenter"",""0"",""19116""
","""event"",""trial"",""time""
""fullscreenexit"",""8"",""102668""
","747.5","run_exp/static/audio/clip_9_pick_a_pirate_again.m4a","49","","","","","","","","","","","","","","","","","","","","","","",""
"","audio-keyboard-response","35","212582","0.0-34.0-0.0","""event"",""trial"",""time""
""fullscreenenter"",""0"",""19116""
""fullscreenexit"",""8"",""102668""
","
","
","""event"",""trial"",""time""
""fullscreenenter"",""0"",""19116""
","""event"",""trial"",""time""
""fullscreenexit"",""8"",""102668""
","1089.1000000014901","run_exp/static/audio/clip_10_chosen_pirate_loss.m4a","32","","","","","","","","","","","","","","","","","","","","","","",""
"","instruc9","36","218181","0.0-35.0-0.0","""event"",""trial"",""time""
""fullscreenenter"",""0"",""19116""
""fullscreenexit"",""8"",""102668""
","
","
","""event"",""trial"",""time""
""fullscreenenter"",""0"",""19116""
","""event"",""trial"",""time""
""fullscreenexit"",""8"",""102668""
","null","run_exp/static/audio/clip_11_time_out.m4a","null","","","","","<div class='center'><p>If you don’t make your choice fast enough, you’ll have to wait a few seconds before you can make another one. </p><p><img src='run_exp/static/images/miscellaneous/hurry_up.png' height='500'></p></div>","","","","","","","","","","","","","","","","","",""
"","html-keyboard-response","37","218718","0.0-35.0-1.0","""event"",""trial"",""time""
""fullscreenenter"",""0"",""19116""
""fullscreenexit"",""8"",""102668""
","
","
","""event"",""trial"",""time""
""fullscreenenter"",""0"",""19116""
","""event"",""trial"",""time""
""fullscreenexit"",""8"",""102668""
","531","<div class='center'><p>If you don’t make your choice fast enough, you’ll have to wait a few seconds before you can make another one. </p><p><img src='run_exp/static/images/miscellaneous/hurry_up.png' height='500'></p><p><b>[Press the space bar to continue]</b></p></div>","32","","","","","","","","","","","","","","","","","","","","","","",""
"","instruc10","38","257931","0.0-35.0-2.0","""event"",""trial"",""time""
""fullscreenenter"",""0"",""19116""
""fullscreenexit"",""8"",""102668""
","
","
","""event"",""trial"",""time""
""fullscreenenter"",""0"",""19116""
","""event"",""trial"",""time""
""fullscreenexit"",""8"",""102668""
","null","run_exp/static/audio/clip_12_probe.m4a","null","","","","","<div class='center'><p>Once you've chosen a pirate, you’ll be shown the ship they are robbing. You will never rob the same ship twice. Ships can be told apart from one another by the image on them. These are the goods that they sell. See, this ship has a travel mug on it. </p><p> You’ll have to remember which island you saw each ship on. You will win more gold coins and hence more bonus money if you remember correctly! To help you remember, you can imagine a story. For example, here, you could imagine a mug full of water in the desert. Or, as another example, if on the forest island, your pirate robbed a ship with an apple on it, you could imagine an apple falling from a tree in the forest. </p><p><img src='run_exp/static/images/tutorial/example_probe.png' height='500'></p></div>","","","","","","","","","","","","","","","","","",""
"","html-keyboard-response","39","261932","0.0-35.0-3.0","""event"",""trial"",""time""
""fullscreenenter"",""0"",""19116""
""fullscreenexit"",""8"",""102668""
","
","
","""event"",""trial"",""time""
""fullscreenenter"",""0"",""19116""
","""event"",""trial"",""time""
""fullscreenexit"",""8"",""102668""
","3996.39999999851","<div class='center'><p>Once you've chosen a pirate, you’ll be shown the ship they are robbing. You will never rob the same ship twice. Ships can be told apart from one another by the image on them. These are the goods that they sell. See, this ship has a travel mug on it. </p><p> You’ll have to remember which island you saw each ship on. You will win more gold coins and hence more bonus money if you remember correctly! To help you remember, you can imagine a story. For example, here, you could imagine a mug full of water in the desert. Or, as another example, if on the forest island, your pirate robbed a ship with an apple on it, you could imagine an apple falling from a tree in the forest. </p><p><img src='run_exp/static/images/tutorial/example_probe.png' height='500'></p><p><b>[Press the space bar to continue]</b></p></div>","32","","","","","","","","","","","","","","","","","","","","","","",""
"","instruc11","40","278551","0.0-35.0-4.0","""event"",""trial"",""time""
""fullscreenenter"",""0"",""19116""
""fullscreenexit"",""8"",""102668""
","
","
","""event"",""trial"",""time""
""fullscreenenter"",""0"",""19116""
","""event"",""trial"",""time""
""fullscreenexit"",""8"",""102668""
","null","run_exp/static/audio/clip_13_changepoint.m4a","null","","","","","<div class='center'><p>How successful a pirate is at robbing ships will depend on the island you’re on.</p><p> A pirate may have visited this island many times before and gained a lot of practice robbing ships there.</p><p>So, they’re more likely to be successful than a pirate who has never visited the island before.</p></div>","","","","","","","","","","","","","","","","","",""
"","html-keyboard-response","41","279208","0.0-35.0-5.0","""event"",""trial"",""time""
""fullscreenenter"",""0"",""19116""
""fullscreenexit"",""8"",""102668""
","
","
","""event"",""trial"",""time""
""fullscreenenter"",""0"",""19116""
","""event"",""trial"",""time""
""fullscreenexit"",""8"",""102668""
","652.7000000029802","<div class='center'><p>How successful a pirate is at robbing ships will depend on the island you’re on.</p><p> A pirate may have visited this island many times before and gained a lot of practice robbing ships there.</p><p>So, they’re more likely to be successful than a pirate who has never visited the island before.</p><p><b>[Press the space bar to continue]</b></p></div>","32","","","","","","","","","","","","","","","","","","","","","","",""
"","instruc12","42","320441","0.0-35.0-6.0","""event"",""trial"",""time""
""fullscreenenter"",""0"",""19116""
""fullscreenexit"",""8"",""102668""
","
","
","""event"",""trial"",""time""
""fullscreenenter"",""0"",""19116""
","""event"",""trial"",""time""
""fullscreenexit"",""8"",""102668""
","null","run_exp/static/audio/clip_14_drift.m4a","null","","","","","<div class='center'><p>How successful a pirate is at robbing ships can also change over the time spent on the island. </p><p> Ships may hear from islanders about the pirates coming and will improve their protections against the attack. This may make it harder to rob them.</p><p> Ships may also become lazy and weaken the strength of their protections. This may make it easier to rob them.</p><br><p>Things are always changing on the high seas! So, try your best to pay attention!</p><p><img src='run_exp/static/images/tutorial/contingency.png' height='500'></p></div>","","","","","","","","","","","","","","","","","",""
"","html-keyboard-response","43","323898","0.0-35.0-7.0","""event"",""trial"",""time""
""fullscreenenter"",""0"",""19116""
""fullscreenexit"",""8"",""102668""
","
","
","""event"",""trial"",""time""
""fullscreenenter"",""0"",""19116""
","""event"",""trial"",""time""
""fullscreenexit"",""8"",""102668""
","3454.10000000149","<div class='center'><p>How successful a pirate is at robbing ships can also change over the time spent on the island. </p><p> Ships may hear from islanders about the pirates coming and will improve their protections against the attack. This may make it harder to rob them.</p><p> Ships may also become lazy and weaken the strength of their protections. This may make it easier to rob them.</p><br><p>Things are always changing on the high seas! So, try your best to pay attention!</p><p><img src='run_exp/static/images/tutorial/contingency.png' height='500'></p><p><b>[Press the space bar to continue]</b></p></div>","32","","","","","","","","","","","","","","","","","","","","","","",""
"","instruc13","44","359264","0.0-35.0-8.0","""event"",""trial"",""time""
""fullscreenenter"",""0"",""19116""
""fullscreenexit"",""8"",""102668""
","
","
","""event"",""trial"",""time""
""fullscreenenter"",""0"",""19116""
","""event"",""trial"",""time""
""fullscreenexit"",""8"",""102668""
","null","run_exp/static/audio/clip_15_summary.m4a","null","","","","","<div class='center'><p>Let's go over the instructions quickly again. You have two important things to do: </p><b><p> 1. Pick the pirate who is the best at robbing ships on the current island. </p></b><b><p> 2. Remember on which island a ship was robbed.</p> </b><p>The amount of bonus money you can win depends on both.</p><p><br><p>Let’s try a practice game. The game will start by showing you the pirates. First, pick a pirate using the <b> 1, 2, 3 </b> keys on your keyboard. When you are shown a ship, try to remember which island you’re on by making up a story.</p><p>This is just a practice game, so you’re not playing for money. </p><p> Good luck! This game will be very difficult but try your best!</p></div>","","","","","","","","","","","","","","","","","",""
"","html-keyboard-response","45","364257","0.0-35.0-9.0","""event"",""trial"",""time""
""fullscreenenter"",""0"",""19116""
""fullscreenexit"",""8"",""102668""
","
","
","""event"",""trial"",""time""
""fullscreenenter"",""0"",""19116""
","""event"",""trial"",""time""
""fullscreenexit"",""8"",""102668""
","4990.60000000149","<div class='center'><p>Let's go over the instructions quickly again. You have two important things to do: </p><b><p> 1. Pick the pirate who is the best at robbing ships on the current island. </p></b><b><p> 2. Remember on which island a ship was robbed.</p> </b><p>The amount of bonus money you can win depends on both.</p><p><br><p>Let’s try a practice game. The game will start by showing you the pirates. First, pick a pirate using the <b> 1, 2, 3 </b> keys on your keyboard. When you are shown a ship, try to remember which island you’re on by making up a story.</p><p>This is just a practice game, so you’re not playing for money. </p><p> Good luck! This game will be very difficult but try your best!</p><p><b>[Press the space bar to continue]</b></p></div>","32","","","","","","","","","","","","","","","","","","","","","","",""
"","do_welcome","46","368284","0.0-35.0-10.0","""event"",""trial"",""time""
""fullscreenenter"",""0"",""19116""
""fullscreenexit"",""8"",""102668""
","
","
","""event"",""trial"",""time""
""fullscreenenter"",""0"",""19116""
","""event"",""trial"",""time""
""fullscreenexit"",""8"",""102668""
","null","","","","","","","","null","","","","","","","","","","","","","","","","",""
"","do_trial","47","374714","0.0-35.0-11.0","""event"",""trial"",""time""
""fullscreenenter"",""0"",""19116""
""fullscreenexit"",""8"",""102668""
","
","
","""event"",""trial"",""time""
""fullscreenenter"",""0"",""19116""
","""event"",""trial"",""time""
""fullscreenexit"",""8"",""102668""
","1918.5","","","","","","","","50","1,0,0","","","","","","","","","","","","","","","",""
"","html-keyboard-response","48","375718","0.0-36.0-0.0","""event"",""trial"",""time""
""fullscreenenter"",""0"",""19116""
""fullscreenexit"",""8"",""102668""
","
","
","""event"",""trial"",""time""
""fullscreenenter"",""0"",""19116""
","""event"",""trial"",""time""
""fullscreenexit"",""8"",""102668""
","null","<p></p>","null","","","","","","","","","","","","","","","","","","","","","","",""
"","do_trial","49","383098","0.0-36.0-1.0","""event"",""trial"",""time""
""fullscreenenter"",""0"",""19116""
""fullscreenexit"",""8"",""102668""
","
","
","""event"",""trial"",""time""
""fullscreenenter"",""0"",""19116""
","""event"",""trial"",""time""
""fullscreenexit"",""8"",""102668""
","2869.7999999970198","","","","","","","","51","1,1,0","","","","","","","","","","","","","","","",""
"","html-keyboard-response","50","384101","0.0-37.0-0.0","""event"",""trial"",""time""
""fullscreenenter"",""0"",""19116""
""fullscreenexit"",""8"",""102668""
","
","
","""event"",""trial"",""time""
""fullscreenenter"",""0"",""19116""
","""event"",""trial"",""time""
""fullscreenexit"",""8"",""102668""
","null","<p></p>","null","","","","","","","","","","","","","","","","","","","","","","",""
"","do_trial","51","389116","0.0-37.0-1.0","""event"",""trial"",""time""
""fullscreenenter"",""0"",""19116""
""fullscreenexit"",""8"",""102668""
","
","
","""event"",""trial"",""time""
""fullscreenenter"",""0"",""19116""
","""event"",""trial"",""time""
""fullscreenexit"",""8"",""102668""
","503.59999999403954","","","","","","","","49","1,0,1","","","","","","","","","","","","","","","",""
"","html-keyboard-response","52","390118","0.0-38.0-0.0","""event"",""trial"",""time""
""fullscreenenter"",""0"",""19116""
""fullscreenexit"",""8"",""102668""
","
","
","""event"",""trial"",""time""
""fullscreenenter"",""0"",""19116""
","""event"",""trial"",""time""
""fullscreenexit"",""8"",""102668""
","null","<p></p>","null","","","","","","","","","","","","","","","","","","","","","","",""
"","do_trial","53","396104","0.0-38.0-1.0","""event"",""trial"",""time""
""fullscreenenter"",""0"",""19116""
""fullscreenexit"",""8"",""102668""
","
","
","""event"",""trial"",""time""
""fullscreenenter"",""0"",""19116""
","""event"",""trial"",""time""
""fullscreenexit"",""8"",""102668""
","1475.1999999955297","","","","","","","","49","0,1,0","","","","","","","","","","","","","","","",""
"","html-keyboard-response","54","397107","0.0-39.0-0.0","""event"",""trial"",""time""
""fullscreenenter"",""0"",""19116""
""fullscreenexit"",""8"",""102668""
","
","
","""event"",""trial"",""time""
""fullscreenenter"",""0"",""19116""
","""event"",""trial"",""time""
""fullscreenexit"",""8"",""102668""
","null","<p></p>","null","","","","","","","","","","","","","","","","","","","","","","",""
"","do_trial","55","403308","0.0-39.0-1.0","""event"",""trial"",""time""
""fullscreenenter"",""0"",""19116""
""fullscreenexit"",""8"",""102668""
","
","
","""event"",""trial"",""time""
""fullscreenenter"",""0"",""19116""
","""event"",""trial"",""time""
""fullscreenexit"",""8"",""102668""
","1693","","","","","","","","50","1,0,0","","","","","","","","","","","","","","","",""
"","do_bye","56","404817","0.0-40.0-0.0","""event"",""trial"",""time""
""fullscreenenter"",""0"",""19116""
""fullscreenexit"",""8"",""102668""
","
","
","""event"",""trial"",""time""
""fullscreenenter"",""0"",""19116""
","""event"",""trial"",""time""
""fullscreenexit"",""8"",""102668""
","null","","","","","","","","null","","","","","","","","","","","","","","","","",""
"","do_travel","57","413824","0.0-40.0-1.0","""event"",""trial"",""time""
""fullscreenenter"",""0"",""19116""
""fullscreenexit"",""8"",""102668""
","
","
","""event"",""trial"",""time""
""fullscreenenter"",""0"",""19116""
","""event"",""trial"",""time""
""fullscreenexit"",""8"",""102668""
","null","","","","","","","","null","","","","","","","","","","","","","","","","",""
"","do_welcome","58","417835","0.0-40.0-2.0","""event"",""trial"",""time""
""fullscreenenter"",""0"",""19116""
""fullscreenexit"",""8"",""102668""
","
","
","""event"",""trial"",""time""
""fullscreenenter"",""0"",""19116""
","""event"",""trial"",""time""
""fullscreenexit"",""8"",""102668""
","null","","","","","","","","null","","","","","","","","","","","","","","","","",""
"","do_trial","59","423378","0.0-40.0-3.0","""event"",""trial"",""time""
""fullscreenenter"",""0"",""19116""
""fullscreenexit"",""8"",""102668""
","
","
","""event"",""trial"",""time""
""fullscreenenter"",""0"",""19116""
","""event"",""trial"",""time""
""fullscreenexit"",""8"",""102668""
","1032.5","","","","","","","","51","1,0,0","","","","","","","","","","","","","","","",""
"","html-keyboard-response","60","424381","0.0-41.0-0.0","""event"",""trial"",""time""
""fullscreenenter"",""0"",""19116""
""fullscreenexit"",""8"",""102668""
","
","
","""event"",""trial"",""time""
""fullscreenenter"",""0"",""19116""
","""event"",""trial"",""time""
""fullscreenexit"",""8"",""102668""
","null","<p></p>","null","","","","","","","","","","","","","","","","","","","","","","",""
"","do_trial","61","429298","0.0-41.0-1.0","""event"",""trial"",""time""
""fullscreenenter"",""0"",""19116""
""fullscreenexit"",""8"",""102668""
","
","
","""event"",""trial"",""time""
""fullscreenenter"",""0"",""19116""
","""event"",""trial"",""time""
""fullscreenexit"",""8"",""102668""
","407.5","","","","","","","","50","1,0,1","","","","","","","","","","","","","","","",""
"","html-keyboard-response","62","430301","0.0-42.0-0.0","""event"",""trial"",""time""
""fullscreenenter"",""0"",""19116""
""fullscreenexit"",""8"",""102668""
","
","
","""event"",""trial"",""time""
""fullscreenenter"",""0"",""19116""
","""event"",""trial"",""time""
""fullscreenexit"",""8"",""102668""
","null","<p></p>","null","","","","","","","","","","","","","","","","","","","","","","",""
"","do_trial","63","435240","0.0-42.0-1.0","""event"",""trial"",""time""
""fullscreenenter"",""0"",""19116""
""fullscreenexit"",""8"",""102668""
","
","
","""event"",""trial"",""time""
""fullscreenenter"",""0"",""19116""
","""event"",""trial"",""time""
""fullscreenexit"",""8"",""102668""
","423.20000000298023","","","","","","","","49","1,1,0","","","","","","","","","","","","","","","",""
"","html-keyboard-response","64","436243","0.0-43.0-0.0","""event"",""trial"",""time""
""fullscreenenter"",""0"",""19116""
""fullscreenexit"",""8"",""102668""
","
","
","""event"",""trial"",""time""
""fullscreenenter"",""0"",""19116""
","""event"",""trial"",""time""
""fullscreenexit"",""8"",""102668""
","null","<p></p>","null","","","","","","","","","","","","","","","","","","","","","","",""
"","do_trial","65","443052","0.0-43.0-1.0","""event"",""trial"",""time""
""fullscreenenter"",""0"",""19116""
""fullscreenexit"",""8"",""102668""
","
","
","""event"",""trial"",""time""
""fullscreenenter"",""0"",""19116""
","""event"",""trial"",""time""
""fullscreenexit"",""8"",""102668""
","2298.2999999970198","","","","","","","","49","0,0,1","","","","","","","","","","","","","","","",""
"","html-keyboard-response","66","444055","0.0-44.0-0.0","""event"",""trial"",""time""
""fullscreenenter"",""0"",""19116""
""fullscreenexit"",""8"",""102668""
","
","
","""event"",""trial"",""time""
""fullscreenenter"",""0"",""19116""
","""event"",""trial"",""time""
""fullscreenexit"",""8"",""102668""
","null","<p></p>","null","","","","","","","","","","","","","","","","","","","","","","",""
"","do_trial","67","448994","0.0-44.0-1.0","""event"",""trial"",""time""
""fullscreenenter"",""0"",""19116""
""fullscreenexit"",""8"",""102668""
","
","
","""event"",""trial"",""time""
""fullscreenenter"",""0"",""19116""
","""event"",""trial"",""time""
""fullscreenexit"",""8"",""102668""
","428.8999999985099","","","","","","","","51","1,0,1","","","","","","","","","","","","","","","",""
"","html-keyboard-response","68","453259","0.0-45.0-0.0","""event"",""trial"",""time""
""fullscreenenter"",""0"",""19116""
""fullscreenexit"",""8"",""102668""
","
","
","""event"",""trial"",""time""
""fullscreenenter"",""0"",""19116""
","""event"",""trial"",""time""
""fullscreenexit"",""8"",""102668""
","4262.10000000149","<div class='center'><p><img src='run_exp/static/images/tutorial/prac_best_pirate.png'  height='500'></p></div>","51","","","","","","","","","","","","","","","","","","","","","","",""
"","html-keyboard-response","69","457971","0.0-46.0-0.0","""event"",""trial"",""time""
""fullscreenenter"",""0"",""19116""
""fullscreenexit"",""8"",""102668""
","
","
","""event"",""trial"",""time""
""fullscreenenter"",""0"",""19116""
","""event"",""trial"",""time""
""fullscreenexit"",""8"",""102668""
","4708.5","<div class='center'><p>That's incorrect! Red beard was the best.</p><p><b>[Press the space bar to continue]</b></p></div>","32","","","","","","","","","","","","","","","","","","","","","","",""
"","html-keyboard-response","70","472704","0.0-46.0-1.0","""event"",""trial"",""time""
""fullscreenenter"",""0"",""19116""
""fullscreenexit"",""8"",""102668""
","
","
","""event"",""trial"",""time""
""fullscreenenter"",""0"",""19116""
","""event"",""trial"",""time""
""fullscreenexit"",""8"",""102668""
","14730.69999999553","<div class='center'><p><img src='run_exp/static/images/tutorial/prac_source.png'  height='500'></p></div>","50","","","","","","","","","","","","","","","","","","","","","","",""
"","html-keyboard-response","71","474072","0.0-47.0-0.0","""event"",""trial"",""time""
""fullscreenenter"",""0"",""19116""
""fullscreenexit"",""8"",""102668""
""blur"",""72"",""484095""
","""event"",""trial"",""time""
""blur"",""72"",""484095""
","
","""event"",""trial"",""time""
""fullscreenenter"",""0"",""19116""
","""event"",""trial"",""time""
""fullscreenexit"",""8"",""102668""
","1366","<div class='center'><p>That's correct! You saw this ship on the cavern island.</p><p><b>[Press the space bar to continue]</b></p></div>","32","","","","","","","","","","","","","","","","","","","","","","",""
"","quiz_beginning","72","485424","0.0-47.0-1.0","""event"",""trial"",""time""
""fullscreenenter"",""0"",""19116""
""fullscreenexit"",""8"",""102668""
""blur"",""72"",""484095""
""focus"",""73"",""490231""
","""event"",""trial"",""time""
""blur"",""72"",""484095""
","""event"",""trial"",""time""
""focus"",""73"",""490231""
","""event"",""trial"",""time""
""fullscreenenter"",""0"",""19116""
","""event"",""trial"",""time""
""fullscreenexit"",""8"",""102668""
","null","run_exp/static/audio/clip_16_quiz_intro.m4a","null","","","","","<div class='center'><p>Good job on the practice game! Now, you will be asked some true or false questions to make sure you really understand the rules of the game.</p><p> Press <b>'1'</b> on the keyboard for true and press <b>'2'</b> for false.</p></div>","","","","","","","","","","","","","","","","","",""
"","audio-keyboard-response","73","510383","0.0-47.0-2.0","""event"",""trial"",""time""
""fullscreenenter"",""0"",""19116""
""fullscreenexit"",""8"",""102668""
""blur"",""72"",""484095""
""focus"",""73"",""490231""
","""event"",""trial"",""time""
""blur"",""72"",""484095""
","""event"",""trial"",""time""
""focus"",""73"",""490231""
","""event"",""trial"",""time""
""fullscreenenter"",""0"",""19116""
","""event"",""trial"",""time""
""fullscreenexit"",""8"",""102668""
","24955.39999999851","run_exp/static/audio/clip_17_q1.m4a","49","","","","","","","","","","","","","","","","","","","","","","",""
"","correct","74","512823","0.0-48.0-0.0","""event"",""trial"",""time""
""fullscreenenter"",""0"",""19116""
""fullscreenexit"",""8"",""102668""
""blur"",""72"",""484095""
""focus"",""73"",""490231""
","""event"",""trial"",""time""
""blur"",""72"",""484095""
","""event"",""trial"",""time""
""focus"",""73"",""490231""
","""event"",""trial"",""time""
""fullscreenenter"",""0"",""19116""
","""event"",""trial"",""time""
""fullscreenexit"",""8"",""102668""
","null","run_exp/static/audio/clip_18_correct.m4a","null","","","","","<div class='center'><p>That's correct!</p></div>","","","","","","","","","","","","","","","","","",""
"","html-keyboard-response","75","513948","0.0-48.0-1.0","""event"",""trial"",""time""
""fullscreenenter"",""0"",""19116""
""fullscreenexit"",""8"",""102668""
""blur"",""72"",""484095""
""focus"",""73"",""490231""
","""event"",""trial"",""time""
""blur"",""72"",""484095""
","""event"",""trial"",""time""
""focus"",""73"",""490231""
","""event"",""trial"",""time""
""fullscreenenter"",""0"",""19116""
","""event"",""trial"",""time""
""fullscreenexit"",""8"",""102668""
","1123.5","<div class='center'><p>That's correct!</p><p><b>[Press the space bar to continue]</b></p></div>","32","","","","","","","","","","","","","","","","","","","","","","",""
"","audio-keyboard-response","76","522427","0.0-48.0-2.0","""event"",""trial"",""time""
""fullscreenenter"",""0"",""19116""
""fullscreenexit"",""8"",""102668""
""blur"",""72"",""484095""
""focus"",""73"",""490231""
","""event"",""trial"",""time""
""blur"",""72"",""484095""
","""event"",""trial"",""time""
""focus"",""73"",""490231""
","""event"",""trial"",""time""
""fullscreenenter"",""0"",""19116""
","""event"",""trial"",""time""
""fullscreenexit"",""8"",""102668""
","8476.29999999702","run_exp/static/audio/clip_20_q2.m4a","50","","","","","","","","","","","","","","","","","","","","","","",""
"","correct","77","524991","0.0-49.0-0.0","""event"",""trial"",""time""
""fullscreenenter"",""0"",""19116""
""fullscreenexit"",""8"",""102668""
""blur"",""72"",""484095""
""focus"",""73"",""490231""
","""event"",""trial"",""time""
""blur"",""72"",""484095""
","""event"",""trial"",""time""
""focus"",""73"",""490231""
","""event"",""trial"",""time""
""fullscreenenter"",""0"",""19116""
","""event"",""trial"",""time""
""fullscreenexit"",""8"",""102668""
","null","run_exp/static/audio/clip_18_correct.m4a","null","","","","","<div class='center'><p>That's correct!</p></div>","","","","","","","","","","","","","","","","","",""
"","html-keyboard-response","78","525867","0.0-49.0-1.0","""event"",""trial"",""time""
""fullscreenenter"",""0"",""19116""
""fullscreenexit"",""8"",""102668""
""blur"",""72"",""484095""
""focus"",""73"",""490231""
","""event"",""trial"",""time""
""blur"",""72"",""484095""
","""event"",""trial"",""time""
""focus"",""73"",""490231""
","""event"",""trial"",""time""
""fullscreenenter"",""0"",""19116""
","""event"",""trial"",""time""
""fullscreenexit"",""8"",""102668""
","872.2000000029802","<div class='center'><p>That's correct!</p><p><b>[Press the space bar to continue]</b></p></div>","32","","","","","","","","","","","","","","","","","","","","","","",""
"","audio-keyboard-response","79","532582","0.0-49.0-2.0","""event"",""trial"",""time""
""fullscreenenter"",""0"",""19116""
""fullscreenexit"",""8"",""102668""
""blur"",""72"",""484095""
""focus"",""73"",""490231""
","""event"",""trial"",""time""
""blur"",""72"",""484095""
","""event"",""trial"",""time""
""focus"",""73"",""490231""
","""event"",""trial"",""time""
""fullscreenenter"",""0"",""19116""
","""event"",""trial"",""time""
""fullscreenexit"",""8"",""102668""
","6710.5999999940395","run_exp/static/audio/clip_22_q3.m4a","50","","","","","","","","","","","","","","","","","","","","","","",""
"","correct","80","535114","0.0-50.0-0.0","""event"",""trial"",""time""
""fullscreenenter"",""0"",""19116""
""fullscreenexit"",""8"",""102668""
""blur"",""72"",""484095""
""focus"",""73"",""490231""
","""event"",""trial"",""time""
""blur"",""72"",""484095""
","""event"",""trial"",""time""
""focus"",""73"",""490231""
","""event"",""trial"",""time""
""fullscreenenter"",""0"",""19116""
","""event"",""trial"",""time""
""fullscreenexit"",""8"",""102668""
","null","run_exp/static/audio/clip_18_correct.m4a","null","","","","","<div class='center'><p>That's correct!</p></div>","","","","","","","","","","","","","","","","","",""
"","html-keyboard-response","81","535764","0.0-50.0-1.0","""event"",""trial"",""time""
""fullscreenenter"",""0"",""19116""
""fullscreenexit"",""8"",""102668""
""blur"",""72"",""484095""
""focus"",""73"",""490231""
","""event"",""trial"",""time""
""blur"",""72"",""484095""
","""event"",""trial"",""time""
""focus"",""73"",""490231""
","""event"",""trial"",""time""
""fullscreenenter"",""0"",""19116""
","""event"",""trial"",""time""
""fullscreenexit"",""8"",""102668""
","647.0999999940395","<div class='center'><p>That's correct!</p><p><b>[Press the space bar to continue]</b></p></div>","32","","","","","","","","","","","","","","","","","","","","","","",""
"","audio-keyboard-response","82","540461","0.0-50.0-2.0","""event"",""trial"",""time""
""fullscreenenter"",""0"",""19116""
""fullscreenexit"",""8"",""102668""
""blur"",""72"",""484095""
""focus"",""73"",""490231""
","""event"",""trial"",""time""
""blur"",""72"",""484095""
","""event"",""trial"",""time""
""focus"",""73"",""490231""
","""event"",""trial"",""time""
""fullscreenenter"",""0"",""19116""
","""event"",""trial"",""time""
""fullscreenexit"",""8"",""102668""
","4693.39999999851","run_exp/static/audio/clip_24_q4.m4a","49","","","","","","","","","","","","","","","","","","","","","","",""
"","correct","83","543102","0.0-51.0-0.0","""event"",""trial"",""time""
""fullscreenenter"",""0"",""19116""
""fullscreenexit"",""8"",""102668""
""blur"",""72"",""484095""
""focus"",""73"",""490231""
","""event"",""trial"",""time""
""blur"",""72"",""484095""
","""event"",""trial"",""time""
""focus"",""73"",""490231""
","""event"",""trial"",""time""
""fullscreenenter"",""0"",""19116""
","""event"",""trial"",""time""
""fullscreenexit"",""8"",""102668""
","null","run_exp/static/audio/clip_18_correct.m4a","null","","","","","<div class='center'><p>That's correct!</p></div>","","","","","","","","","","","","","","","","","",""
"","html-keyboard-response","84","543879","0.0-51.0-1.0","""event"",""trial"",""time""
""fullscreenenter"",""0"",""19116""
""fullscreenexit"",""8"",""102668""
""blur"",""72"",""484095""
""focus"",""73"",""490231""
","""event"",""trial"",""time""
""blur"",""72"",""484095""
","""event"",""trial"",""time""
""focus"",""73"",""490231""
","""event"",""trial"",""time""
""fullscreenenter"",""0"",""19116""
","""event"",""trial"",""time""
""fullscreenexit"",""8"",""102668""
","774.2000000029802","<div class='center'><p>That's correct!</p><p><b>[Press the space bar to continue]</b></p></div>","32","","","","","","","","","","","","","","","","","","","","","","",""
"","q_all_corr","85","552483","0.0-52.0-0.0","""event"",""trial"",""time""
""fullscreenenter"",""0"",""19116""
""fullscreenexit"",""8"",""102668""
""blur"",""72"",""484095""
""focus"",""73"",""490231""
","""event"",""trial"",""time""
""blur"",""72"",""484095""
","""event"",""trial"",""time""
""focus"",""73"",""490231""
","""event"",""trial"",""time""
""fullscreenenter"",""0"",""19116""
","""event"",""trial"",""time""
""fullscreenexit"",""8"",""102668""
","null","run_exp/static/audio/clip_27_quiz_all_correct.m4a","null","","","","","<div class='center'><p>Good job! You’re now ready to move on to the real game! Remember this game will be difficult but don't get discouraged and try your best!</p></div>","","","","","","","","","","","","","","","","","",""
"","html-keyboard-response","86","553086","0.0-52.0-1.0","""event"",""trial"",""time""
""fullscreenenter"",""0"",""19116""
""fullscreenexit"",""8"",""102668""
""blur"",""72"",""484095""
""focus"",""73"",""490231""
","""event"",""trial"",""time""
""blur"",""72"",""484095""
","""event"",""trial"",""time""
""focus"",""73"",""490231""
","""event"",""trial"",""time""
""fullscreenenter"",""0"",""19116""
","""event"",""trial"",""time""
""fullscreenexit"",""8"",""102668""
","599.1000000014901","<div class='center'><p>Good job! You’re now ready to move on to the real game! Remember this game will be difficult but don't get discouraged and try your best!</p><p><b>[Press the space bar to continue]</b></p></div>","32","","","","","","","","","","","","","","","","","","","","","","",""
"","do_welcome","87","557096","0.0-53.0-0.0","""event"",""trial"",""time""
""fullscreenenter"",""0"",""19116""
""fullscreenexit"",""8"",""102668""
""blur"",""72"",""484095""
""focus"",""73"",""490231""
","""event"",""trial"",""time""
""blur"",""72"",""484095""
","""event"",""trial"",""time""
""focus"",""73"",""490231""
","""event"",""trial"",""time""
""fullscreenenter"",""0"",""19116""
","""event"",""trial"",""time""
""fullscreenexit"",""8"",""102668""
","null","","","","","","","","null","","","","","","","","","","","","","","","","",""
"","do_trial","88","563431","0.0-54.0-0.0","""event"",""trial"",""time""
""fullscreenenter"",""0"",""19116""
""fullscreenexit"",""8"",""102668""
""blur"",""72"",""484095""
""focus"",""73"",""490231""
","""event"",""trial"",""time""
""blur"",""72"",""484095""
","""event"",""trial"",""time""
""focus"",""73"",""490231""
","""event"",""trial"",""time""
""fullscreenenter"",""0"",""19116""
","""event"",""trial"",""time""
""fullscreenexit"",""8"",""102668""
","1768.2000000029802","","","","","","","","49","1,0,1","0","coast","0","probe-89","0.6","0.3","0.1","1","","","","","","","",""
"","html-keyboard-response","89","564435","0.0-54.0-1.0","""event"",""trial"",""time""
""fullscreenenter"",""0"",""19116""
""fullscreenexit"",""8"",""102668""
""blur"",""72"",""484095""
""focus"",""73"",""490231""
","""event"",""trial"",""time""
""blur"",""72"",""484095""
","""event"",""trial"",""time""
""focus"",""73"",""490231""
","""event"",""trial"",""time""
""fullscreenenter"",""0"",""19116""
","""event"",""trial"",""time""
""fullscreenexit"",""8"",""102668""
","null","<p></p>","null","","","","","","","","","","","","","","","","","","","","","","",""
"","do_trial","90","569469","0.0-55.0-0.0","""event"",""trial"",""time""
""fullscreenenter"",""0"",""19116""
""fullscreenexit"",""8"",""102668""
""blur"",""72"",""484095""
""focus"",""73"",""490231""
","""event"",""trial"",""time""
""blur"",""72"",""484095""
","""event"",""trial"",""time""
""focus"",""73"",""490231""
","""event"",""trial"",""time""
""fullscreenenter"",""0"",""19116""
","""event"",""trial"",""time""
""fullscreenexit"",""8"",""102668""
","467.70000000298023","","","","","","","","50","0,1,0","0","coast","1","probe-53","0.636026672373818","0.37947478801743606","0.06232696430904743","1","","","","","","","",""
"","html-keyboard-response","91","570472","0.0-55.0-1.0","""event"",""trial"",""time""
""fullscreenenter"",""0"",""19116""
""fullscreenexit"",""8"",""102668""
""blur"",""72"",""484095""
""focus"",""73"",""490231""
","""event"",""trial"",""time""
""blur"",""72"",""484095""
","""event"",""trial"",""time""
""focus"",""73"",""490231""
","""event"",""trial"",""time""
""fullscreenenter"",""0"",""19116""
","""event"",""trial"",""time""
""fullscreenexit"",""8"",""102668""
","null","<p></p>","null","","","","","","","","","","","","","","","","","","","","","","",""
"","do_trial","92","576121","0.0-56.0-0.0","""event"",""trial"",""time""
""fullscreenenter"",""0"",""19116""
""fullscreenexit"",""8"",""102668""
""blur"",""72"",""484095""
""focus"",""73"",""490231""
","""event"",""trial"",""time""
""blur"",""72"",""484095""
","""event"",""trial"",""time""
""focus"",""73"",""490231""
","""event"",""trial"",""time""
""fullscreenenter"",""0"",""19116""
","""event"",""trial"",""time""
""fullscreenexit"",""8"",""102668""
","1039.8999999985099","","","","","","","","51","0,1,0","0","coast","2","probe-163","0.7106029135325417","0.5979540809805394","0.12256415092167139","0","","","","","","","",""
"","html-keyboard-response","93","577124","0.0-56.0-1.0","""event"",""trial"",""time""
""fullscreenenter"",""0"",""19116""
""fullscreenexit"",""8"",""102668""
""blur"",""72"",""484095""
""focus"",""73"",""490231""
","""event"",""trial"",""time""
""blur"",""72"",""484095""
","""event"",""trial"",""time""
""focus"",""73"",""490231""
","""event"",""trial"",""time""
""fullscreenenter"",""0"",""19116""
","""event"",""trial"",""time""
""fullscreenexit"",""8"",""102668""
","null","<p></p>","null","","","","","","","","","","","","","","","","","","","","","","",""
"","do_trial","94","582861","0.0-57.0-0.0","""event"",""trial"",""time""
""fullscreenenter"",""0"",""19116""
""fullscreenexit"",""8"",""102668""
""blur"",""72"",""484095""
""focus"",""73"",""490231""
","""event"",""trial"",""time""
""blur"",""72"",""484095""
","""event"",""trial"",""time""
""focus"",""73"",""490231""
","""event"",""trial"",""time""
""fullscreenenter"",""0"",""19116""
","""event"",""trial"",""time""
""fullscreenexit"",""8"",""102668""
","1170.2999999970198","","","","","","","","50","1,0,0","0","coast","3","probe-195","0.7274939908087598","0.51162368994051","0.0945019051004574","0","","","","","","","",""
"","html-keyboard-response","95","583864","0.0-57.0-1.0","""event"",""trial"",""time""
""fullscreenenter"",""0"",""19116""
""fullscreenexit"",""8"",""102668""
""blur"",""72"",""484095""
""focus"",""73"",""490231""
","""event"",""trial"",""time""
""blur"",""72"",""484095""
","""event"",""trial"",""time""
""focus"",""73"",""490231""
","""event"",""trial"",""time""
""fullscreenenter"",""0"",""19116""
","""event"",""trial"",""time""
""fullscreenexit"",""8"",""102668""
","null","<p></p>","null","","","","","","","","","","","","","","","","","","","","","","",""
"","do_trial","96","588868","0.0-58.0-0.0","""event"",""trial"",""time""
""fullscreenenter"",""0"",""19116""
""fullscreenexit"",""8"",""102668""
""blur"",""72"",""484095""
""focus"",""73"",""490231""
","""event"",""trial"",""time""
""blur"",""72"",""484095""
","""event"",""trial"",""time""
""focus"",""73"",""490231""
","""event"",""trial"",""time""
""fullscreenenter"",""0"",""19116""
","""event"",""trial"",""time""
""fullscreenexit"",""8"",""102668""
","436.90000000596046","","","","","","","","49","1,0,0","0","coast","4","probe-144","0.7867135443714786","0.254361067887989","0.10765765996073698","1","","","","","","","",""
"","html-keyboard-response","97","589870","0.0-58.0-1.0","""event"",""trial"",""time""
""fullscreenenter"",""0"",""19116""
""fullscreenexit"",""8"",""102668""
""blur"",""72"",""484095""
""focus"",""73"",""490231""
","""event"",""trial"",""time""
""blur"",""72"",""484095""
","""event"",""trial"",""time""
""focus"",""73"",""490231""
","""event"",""trial"",""time""
""fullscreenenter"",""0"",""19116""
","""event"",""trial"",""time""
""fullscreenexit"",""8"",""102668""
","null","<p></p>","null","","","","","","","","","","","","","","","","","","","","","","",""
"","do_trial","98","595560","0.0-59.0-0.0","""event"",""trial"",""time""
""fullscreenenter"",""0"",""19116""
""fullscreenexit"",""8"",""102668""
""blur"",""72"",""484095""
""focus"",""73"",""490231""
","""event"",""trial"",""time""
""blur"",""72"",""484095""
","""event"",""trial"",""time""
""focus"",""73"",""490231""
","""event"",""trial"",""time""
""fullscreenenter"",""0"",""19116""
","""event"",""trial"",""time""
""fullscreenexit"",""8"",""102668""
","1124.6999999955297","","","","","","","","51","1,0,0","0","coast","5","probe-213","0.6817248839710075","0.28986859883748567","0.0994536936614644","0","","","","","","","",""
"","html-keyboard-response","99","596562","0.0-59.0-1.0","""event"",""trial"",""time""
""fullscreenenter"",""0"",""19116""
""fullscreenexit"",""8"",""102668""
""blur"",""72"",""484095""
""focus"",""73"",""490231""
","""event"",""trial"",""time""
""blur"",""72"",""484095""
","""event"",""trial"",""time""
""focus"",""73"",""490231""
","""event"",""trial"",""time""
""fullscreenenter"",""0"",""19116""
","""event"",""trial"",""time""
""fullscreenexit"",""8"",""102668""
","null","<p></p>","null","","","","","","","","","","","","","","","","","","","","","","",""
"","do_trial","100","602046","0.0-60.0-0.0","""event"",""trial"",""time""
""fullscreenenter"",""0"",""19116""
""fullscreenexit"",""8"",""102668""
""blur"",""72"",""484095""
""focus"",""73"",""490231""
","""event"",""trial"",""time""
""blur"",""72"",""484095""
","""event"",""trial"",""time""
""focus"",""73"",""490231""
","""event"",""trial"",""time""
""fullscreenenter"",""0"",""19116""
","""event"",""trial"",""time""
""fullscreenexit"",""8"",""102668""
","918.5","","","","","","","","50","1,0,0","0","coast","6","probe-105","0.7288797721669177","0.3617662251071002","0.05448823716209107","0","","","","","","","",""
"","html-keyboard-response","101","603049","0.0-60.0-1.0","""event"",""trial"",""time""
""fullscreenenter"",""0"",""19116""
""fullscreenexit"",""8"",""102668""
""blur"",""72"",""484095""
""focus"",""73"",""490231""
","""event"",""trial"",""time""
""blur"",""72"",""484095""
","""event"",""trial"",""time""
""focus"",""73"",""490231""
","""event"",""trial"",""time""
""fullscreenenter"",""0"",""19116""
","""event"",""trial"",""time""
""fullscreenexit"",""8"",""102668""
","null","<p></p>","null","","","","","","","","","","","","","","","","","","","","","","",""
"","do_trial","102","607950","0.0-61.0-0.0","""event"",""trial"",""time""
""fullscreenenter"",""0"",""19116""
""fullscreenexit"",""8"",""102668""
""blur"",""72"",""484095""
""focus"",""73"",""490231""
","""event"",""trial"",""time""
""blur"",""72"",""484095""
","""event"",""trial"",""time""
""focus"",""73"",""490231""
","""event"",""trial"",""time""
""fullscreenenter"",""0"",""19116""
","""event"",""trial"",""time""
""fullscreenexit"",""8"",""102668""
","337.09999999403954","","","","","","","","49","0,1,0","0","coast","7","probe-33","0.7199515123142524","0.5157381213037016","0.06392514991286914","0","","","","","","","",""
"","html-keyboard-response","103","608953","0.0-61.0-1.0","""event"",""trial"",""time""
""fullscreenenter"",""0"",""19116""
""fullscreenexit"",""8"",""102668""
""blur"",""72"",""484095""
""focus"",""73"",""490231""
","""event"",""trial"",""time""
""blur"",""72"",""484095""
","""event"",""trial"",""time""
""focus"",""73"",""490231""
","""event"",""trial"",""time""
""fullscreenenter"",""0"",""19116""
","""event"",""trial"",""time""
""fullscreenexit"",""8"",""102668""
","null","<p></p>","null","","","","","","","","","","","","","","","","","","","","","","",""
"","do_trial","104","613727","0.0-62.0-0.0","""event"",""trial"",""time""
""fullscreenenter"",""0"",""19116""
""fullscreenexit"",""8"",""102668""
""blur"",""72"",""484095""
""focus"",""73"",""490231""
","""event"",""trial"",""time""
""blur"",""72"",""484095""
","""event"",""trial"",""time""
""focus"",""73"",""490231""
","""event"",""trial"",""time""
""fullscreenenter"",""0"",""19116""
","""event"",""trial"",""time""
""fullscreenexit"",""8"",""102668""
","209.89999999850988","","","","","","","","50","1,0,0","0","coast","8","probe-220","0.7357279967917719","0.34598169964760916","0.06654818694880439","0","","","","","","","",""
"","html-keyboard-response","105","614730","0.0-62.0-1.0","""event"",""trial"",""time""
""fullscreenenter"",""0"",""19116""
""fullscreenexit"",""8"",""102668""
""blur"",""72"",""484095""
""focus"",""73"",""490231""
","""event"",""trial"",""time""
""blur"",""72"",""484095""
","""event"",""trial"",""time""
""focus"",""73"",""490231""
","""event"",""trial"",""time""
""fullscreenenter"",""0"",""19116""
","""event"",""trial"",""time""
""fullscreenexit"",""8"",""102668""
","null","<p></p>","null","","","","","","","","","","","","","","","","","","","","","","",""
"","do_trial","106","619377","0.0-63.0-0.0","""event"",""trial"",""time""
""fullscreenenter"",""0"",""19116""
""fullscreenexit"",""8"",""102668""
""blur"",""72"",""484095""
""focus"",""73"",""490231""
","""event"",""trial"",""time""
""blur"",""72"",""484095""
","""event"",""trial"",""time""
""focus"",""73"",""490231""
","""event"",""trial"",""time""
""fullscreenenter"",""0"",""19116""
","""event"",""trial"",""time""
""fullscreenexit"",""8"",""102668""
","82.20000000298023","","","","","","","","49","1,0,0","0","coast","9","probe-09","0.7389109628626082","0.3670039309708062","0.10105972332003446","1","","","","","","","",""
"","html-keyboard-response","107","620379","0.0-63.0-1.0","""event"",""trial"",""time""
""fullscreenenter"",""0"",""19116""
""fullscreenexit"",""8"",""102668""
""blur"",""72"",""484095""
""focus"",""73"",""490231""
","""event"",""trial"",""time""
""blur"",""72"",""484095""
","""event"",""trial"",""time""
""focus"",""73"",""490231""
","""event"",""trial"",""time""
""fullscreenenter"",""0"",""19116""
","""event"",""trial"",""time""
""fullscreenexit"",""8"",""102668""
","null","<p></p>","null","","","","","","","","","","","","","","","","","","","","","","",""
"","do_trial","108","624956","0.0-64.0-0.0","""event"",""trial"",""time""
""fullscreenenter"",""0"",""19116""
""fullscreenexit"",""8"",""102668""
""blur"",""72"",""484095""
""focus"",""73"",""490231""
","""event"",""trial"",""time""
""blur"",""72"",""484095""
","""event"",""trial"",""time""
""focus"",""73"",""490231""
","""event"",""trial"",""time""
""fullscreenenter"",""0"",""19116""
","""event"",""trial"",""time""
""fullscreenexit"",""8"",""102668""
","11.600000001490116","","","","","","","","51","1,1,1","0","coast","10","probe-43","0.8106663175048702","0.4320864865264151","0.2311536556339358","1","","","","","","","",""
"","html-keyboard-response","109","625959","0.0-64.0-1.0","""event"",""trial"",""time""
""fullscreenenter"",""0"",""19116""
""fullscreenexit"",""8"",""102668""
""blur"",""72"",""484095""
""focus"",""73"",""490231""
","""event"",""trial"",""time""
""blur"",""72"",""484095""
","""event"",""trial"",""time""
""focus"",""73"",""490231""
","""event"",""trial"",""time""
""fullscreenenter"",""0"",""19116""
","""event"",""trial"",""time""
""fullscreenexit"",""8"",""102668""
","null","<p></p>","null","","","","","","","","","","","","","","","","","","","","","","",""
"","do_trial","110","630796","0.0-65.0-0.0","""event"",""trial"",""time""
""fullscreenenter"",""0"",""19116""
""fullscreenexit"",""8"",""102668""
""blur"",""72"",""484095""
""focus"",""73"",""490231""
","""event"",""trial"",""time""
""blur"",""72"",""484095""
","""event"",""trial"",""time""
""focus"",""73"",""490231""
","""event"",""trial"",""time""
""fullscreenenter"",""0"",""19116""
","""event"",""trial"",""time""
""fullscreenexit"",""8"",""102668""
","271.5","","","","","","","","50","1,0,0","0","coast","11","probe-106","0.8773635363685637","0.40194389152565313","0.05994394119185777","0","","","","","","","",""
"","html-keyboard-response","111","631799","0.0-65.0-1.0","""event"",""trial"",""time""
""fullscreenenter"",""0"",""19116""
""fullscreenexit"",""8"",""102668""
""blur"",""72"",""484095""
""focus"",""73"",""490231""
","""event"",""trial"",""time""
""blur"",""72"",""484095""
","""event"",""trial"",""time""
""focus"",""73"",""490231""
","""event"",""trial"",""time""
""fullscreenenter"",""0"",""19116""
","""event"",""trial"",""time""
""fullscreenexit"",""8"",""102668""
","null","<p></p>","null","","","","","","","","","","","","","","","","","","","","","","",""
"","do_trial","112","636980","0.0-66.0-0.0","""event"",""trial"",""time""
""fullscreenenter"",""0"",""19116""
""fullscreenexit"",""8"",""102668""
""blur"",""72"",""484095""
""focus"",""73"",""490231""
","""event"",""trial"",""time""
""blur"",""72"",""484095""
","""event"",""trial"",""time""
""focus"",""73"",""490231""
","""event"",""trial"",""time""
""fullscreenenter"",""0"",""19116""
","""event"",""trial"",""time""
""fullscreenexit"",""8"",""102668""
","617.2999999970198","","","","","","","","51","0,1,0","0","coast","12","probe-205","0.640383720766862","0.4263664638016448","0.12863816732231237","0","","","","","","","",""
"","html-keyboard-response","113","637983","0.0-66.0-1.0","""event"",""trial"",""time""
""fullscreenenter"",""0"",""19116""
""fullscreenexit"",""8"",""102668""
""blur"",""72"",""484095""
""focus"",""73"",""490231""
","""event"",""trial"",""time""
""blur"",""72"",""484095""
","""event"",""trial"",""time""
""focus"",""73"",""490231""
","""event"",""trial"",""time""
""fullscreenenter"",""0"",""19116""
","""event"",""trial"",""time""
""fullscreenexit"",""8"",""102668""
","null","<p></p>","null","","","","","","","","","","","","","","","","","","","","","","",""
"","do_trial","114","642678","0.0-67.0-0.0","""event"",""trial"",""time""
""fullscreenenter"",""0"",""19116""
""fullscreenexit"",""8"",""102668""
""blur"",""72"",""484095""
""focus"",""73"",""490231""
","""event"",""trial"",""time""
""blur"",""72"",""484095""
","""event"",""trial"",""time""
""focus"",""73"",""490231""
","""event"",""trial"",""time""
""fullscreenenter"",""0"",""19116""
","""event"",""trial"",""time""
""fullscreenexit"",""8"",""102668""
","128.79999999701977","","","","","","","","49","1,1,0","0","coast","13","probe-187","0.6139884029074272","0.391709790318613","0.21310163540614852","1","","","","","","","",""
"","html-keyboard-response","115","643681","0.0-67.0-1.0","""event"",""trial"",""time""
""fullscreenenter"",""0"",""19116""
""fullscreenexit"",""8"",""102668""
""blur"",""72"",""484095""
""focus"",""73"",""490231""
","""event"",""trial"",""time""
""blur"",""72"",""484095""
","""event"",""trial"",""time""
""focus"",""73"",""490231""
","""event"",""trial"",""time""
""fullscreenenter"",""0"",""19116""
","""event"",""trial"",""time""
""fullscreenexit"",""8"",""102668""
","null","<p></p>","null","","","","","","","","","","","","","","","","","","","","","","",""
"","do_trial","116","648660","0.0-68.0-0.0","""event"",""trial"",""time""
""fullscreenenter"",""0"",""19116""
""fullscreenexit"",""8"",""102668""
""blur"",""72"",""484095""
""focus"",""73"",""490231""
","""event"",""trial"",""time""
""blur"",""72"",""484095""
","""event"",""trial"",""time""
""focus"",""73"",""490231""
","""event"",""trial"",""time""
""fullscreenenter"",""0"",""19116""
","""event"",""trial"",""time""
""fullscreenexit"",""8"",""102668""
","413.1000000014901","","","","","","","","50","1,0,0","0","coast","14","probe-230","0.5225415888372337","0.4074747406266987","0.13304113983130783","0","","","","","","","",""
"","html-keyboard-response","117","649662","0.0-68.0-1.0","""event"",""trial"",""time""
""fullscreenenter"",""0"",""19116""
""fullscreenexit"",""8"",""102668""
""blur"",""72"",""484095""
""focus"",""73"",""490231""
","""event"",""trial"",""time""
""blur"",""72"",""484095""
","""event"",""trial"",""time""
""focus"",""73"",""490231""
","""event"",""trial"",""time""
""fullscreenenter"",""0"",""19116""
","""event"",""trial"",""time""
""fullscreenexit"",""8"",""102668""
","null","<p></p>","null","","","","","","","","","","","","","","","","","","","","","","",""
"","do_trial","118","654237","0.0-69.0-0.0","""event"",""trial"",""time""
""fullscreenenter"",""0"",""19116""
""fullscreenexit"",""8"",""102668""
""blur"",""72"",""484095""
""focus"",""73"",""490231""
","""event"",""trial"",""time""
""blur"",""72"",""484095""
","""event"",""trial"",""time""
""focus"",""73"",""490231""
","""event"",""trial"",""time""
""fullscreenenter"",""0"",""19116""
","""event"",""trial"",""time""
""fullscreenexit"",""8"",""102668""
","0.3999999985098839","","","","","","","","49","1,1,0","0","coast","15","probe-63","0.519778372286914","0.4324406457984818","0.19167842584684625","1","","","","","","","",""
"","html-keyboard-response","119","655267","0.0-69.0-1.0","""event"",""trial"",""time""
""fullscreenenter"",""0"",""19116""
""fullscreenexit"",""8"",""102668""
""blur"",""72"",""484095""
""focus"",""73"",""490231""
","""event"",""trial"",""time""
""blur"",""72"",""484095""
","""event"",""trial"",""time""
""focus"",""73"",""490231""
","""event"",""trial"",""time""
""fullscreenenter"",""0"",""19116""
","""event"",""trial"",""time""
""fullscreenexit"",""8"",""102668""
","null","<p></p>","null","","","","","","","","","","","","","","","","","","","","","","",""
"","do_trial","120","660251","0.0-70.0-0.0","""event"",""trial"",""time""
""fullscreenenter"",""0"",""19116""
""fullscreenexit"",""8"",""102668""
""blur"",""72"",""484095""
""focus"",""73"",""490231""
","""event"",""trial"",""time""
""blur"",""72"",""484095""
","""event"",""trial"",""time""
""focus"",""73"",""490231""
","""event"",""trial"",""time""
""fullscreenenter"",""0"",""19116""
","""event"",""trial"",""time""
""fullscreenexit"",""8"",""102668""
","418.30000000447035","","","","","","","","49","1,0,0","0","coast","16","probe-188","0.6752875211306198","0.4708143849537346","0.15287487521405568","1","","","","","","","",""
"","html-keyboard-response","121","661253","0.0-70.0-1.0","""event"",""trial"",""time""
""fullscreenenter"",""0"",""19116""
""fullscreenexit"",""8"",""102668""
""blur"",""72"",""484095""
""focus"",""73"",""490231""
","""event"",""trial"",""time""
""blur"",""72"",""484095""
","""event"",""trial"",""time""
""focus"",""73"",""490231""
","""event"",""trial"",""time""
""fullscreenenter"",""0"",""19116""
","""event"",""trial"",""time""
""fullscreenexit"",""8"",""102668""
","null","<p></p>","null","","","","","","","","","","","","","","","","","","","","","","",""
"","do_trial","122","666240","0.0-71.0-0.0","""event"",""trial"",""time""
""fullscreenenter"",""0"",""19116""
""fullscreenexit"",""8"",""102668""
""blur"",""72"",""484095""
""focus"",""73"",""490231""
","""event"",""trial"",""time""
""blur"",""72"",""484095""
","""event"",""trial"",""time""
""focus"",""73"",""490231""
","""event"",""trial"",""time""
""fullscreenenter"",""0"",""19116""
","""event"",""trial"",""time""
""fullscreenexit"",""8"",""102668""
","408","","","","","","","","49","1,1,0","0","coast","17","probe-139","0.7216563212737864","0.36153665894195053","0.06111323747287248","1","","","","","","","",""
"","html-keyboard-response","123","667242","0.0-71.0-1.0","""event"",""trial"",""time""
""fullscreenenter"",""0"",""19116""
""fullscreenexit"",""8"",""102668""
""blur"",""72"",""484095""
""focus"",""73"",""490231""
","""event"",""trial"",""time""
""blur"",""72"",""484095""
","""event"",""trial"",""time""
""focus"",""73"",""490231""
","""event"",""trial"",""time""
""fullscreenenter"",""0"",""19116""
","""event"",""trial"",""time""
""fullscreenexit"",""8"",""102668""
","null","<p></p>","null","","","","","","","","","","","","","","","","","","","","","","",""
"","do_trial","124","672165","0.0-72.0-0.0","""event"",""trial"",""time""
""fullscreenenter"",""0"",""19116""
""fullscreenexit"",""8"",""102668""
""blur"",""72"",""484095""
""focus"",""73"",""490231""
","""event"",""trial"",""time""
""blur"",""72"",""484095""
","""event"",""trial"",""time""
""focus"",""73"",""490231""
","""event"",""trial"",""time""
""fullscreenenter"",""0"",""19116""
","""event"",""trial"",""time""
""fullscreenexit"",""8"",""102668""
","358.1000000014901","","","","","","","","49","1,0,0","0","coast","18","probe-110","0.7846835630929195","0.4643924978314456","0.18436294023628874","1","","","","","","","",""
"","html-keyboard-response","125","673167","0.0-72.0-1.0","""event"",""trial"",""time""
""fullscreenenter"",""0"",""19116""
""fullscreenexit"",""8"",""102668""
""blur"",""72"",""484095""
""focus"",""73"",""490231""
","""event"",""trial"",""time""
""blur"",""72"",""484095""
","""event"",""trial"",""time""
""focus"",""73"",""490231""
","""event"",""trial"",""time""
""fullscreenenter"",""0"",""19116""
","""event"",""trial"",""time""
""fullscreenexit"",""8"",""102668""
","null","<p></p>","null","","","","","","","","","","","","","","","","","","","","","","",""
"","do_trial","126","678013","0.0-73.0-0.0","""event"",""trial"",""time""
""fullscreenenter"",""0"",""19116""
""fullscreenexit"",""8"",""102668""
""blur"",""72"",""484095""
""focus"",""73"",""490231""
","""event"",""trial"",""time""
""blur"",""72"",""484095""
","""event"",""trial"",""time""
""focus"",""73"",""490231""
","""event"",""trial"",""time""
""fullscreenenter"",""0"",""19116""
","""event"",""trial"",""time""
""fullscreenexit"",""8"",""102668""
","280.3999999985099","","","","","","","","49","1,1,1","0","coast","19","probe-41","0.6911552087826134","0.5061463402697443","0.19037861082368085","1","","","","","","","",""
"","html-keyboard-response","127","679016","0.0-73.0-1.0","""event"",""trial"",""time""
""fullscreenenter"",""0"",""19116""
""fullscreenexit"",""8"",""102668""
""blur"",""72"",""484095""
""focus"",""73"",""490231""
","""event"",""trial"",""time""
""blur"",""72"",""484095""
","""event"",""trial"",""time""
""focus"",""73"",""490231""
","""event"",""trial"",""time""
""fullscreenenter"",""0"",""19116""
","""event"",""trial"",""time""
""fullscreenexit"",""8"",""102668""
","null","<p></p>","null","","","","","","","","","","","","","","","","","","","","","","",""
"","do_trial","128","683909","0.0-74.0-0.0","""event"",""trial"",""time""
""fullscreenenter"",""0"",""19116""
""fullscreenexit"",""8"",""102668""
""blur"",""72"",""484095""
""focus"",""73"",""490231""
","""event"",""trial"",""time""
""blur"",""72"",""484095""
","""event"",""trial"",""time""
""focus"",""73"",""490231""
","""event"",""trial"",""time""
""fullscreenenter"",""0"",""19116""
","""event"",""trial"",""time""
""fullscreenexit"",""8"",""102668""
","325.20000000298023","","","","","","","","49","0,0,0","0","coast","20","probe-175","0.6875854300956021","0.4967824123961036","0.1518686902050332","0","","","","","","","",""
"","html-keyboard-response","129","684912","0.0-74.0-1.0","""event"",""trial"",""time""
""fullscreenenter"",""0"",""19116""
""fullscreenexit"",""8"",""102668""
""blur"",""72"",""484095""
""focus"",""73"",""490231""
","""event"",""trial"",""time""
""blur"",""72"",""484095""
","""event"",""trial"",""time""
""focus"",""73"",""490231""
","""event"",""trial"",""time""
""fullscreenenter"",""0"",""19116""
","""event"",""trial"",""time""
""fullscreenexit"",""8"",""102668""
","null","<p></p>","null","","","","","","","","","","","","","","","","","","","","","","",""
"","do_trial","130","689512","0.0-75.0-0.0","""event"",""trial"",""time""
""fullscreenenter"",""0"",""19116""
""fullscreenexit"",""8"",""102668""
""blur"",""72"",""484095""
""focus"",""73"",""490231""
","""event"",""trial"",""time""
""blur"",""72"",""484095""
","""event"",""trial"",""time""
""focus"",""73"",""490231""
","""event"",""trial"",""time""
""fullscreenenter"",""0"",""19116""
","""event"",""trial"",""time""
""fullscreenexit"",""8"",""102668""
","33.399999998509884","","","","","","","","51","0,0,0","0","coast","21","probe-104","0.5601301203843917","0.26612478918753474","0.09908440628639557","0","","","","","","","",""
"","html-keyboard-response","131","690520","0.0-75.0-1.0","""event"",""trial"",""time""
""fullscreenenter"",""0"",""19116""
""fullscreenexit"",""8"",""102668""
""blur"",""72"",""484095""
""focus"",""73"",""490231""
","""event"",""trial"",""time""
""blur"",""72"",""484095""
","""event"",""trial"",""time""
""focus"",""73"",""490231""
","""event"",""trial"",""time""
""fullscreenenter"",""0"",""19116""
","""event"",""trial"",""time""
""fullscreenexit"",""8"",""102668""
","null","<p></p>","null","","","","","","","","","","","","","","","","","","","","","","",""
"","do_trial","132","695121","0.0-76.0-0.0","""event"",""trial"",""time""
""fullscreenenter"",""0"",""19116""
""fullscreenexit"",""8"",""102668""
""blur"",""72"",""484095""
""focus"",""73"",""490231""
","""event"",""trial"",""time""
""blur"",""72"",""484095""
","""event"",""trial"",""time""
""focus"",""73"",""490231""
","""event"",""trial"",""time""
""fullscreenenter"",""0"",""19116""
","""event"",""trial"",""time""
""fullscreenexit"",""8"",""102668""
","35.600000001490116","","","","","","","","50","0,1,0","0","coast","22","probe-84","0.6960837257548755","0.3752677307041191","0.056762981270034304","1","","","","","","","",""
"","html-keyboard-response","133","696124","0.0-76.0-1.0","""event"",""trial"",""time""
""fullscreenenter"",""0"",""19116""
""fullscreenexit"",""8"",""102668""
""blur"",""72"",""484095""
""focus"",""73"",""490231""
","""event"",""trial"",""time""
""blur"",""72"",""484095""
","""event"",""trial"",""time""
""focus"",""73"",""490231""
","""event"",""trial"",""time""
""fullscreenenter"",""0"",""19116""
","""event"",""trial"",""time""
""fullscreenexit"",""8"",""102668""
","null","<p></p>","null","","","","","","","","","","","","","","","","","","","","","","",""
"","do_trial","134","701082","0.0-77.0-0.0","""event"",""trial"",""time""
""fullscreenenter"",""0"",""19116""
""fullscreenexit"",""8"",""102668""
""blur"",""72"",""484095""
""focus"",""73"",""490231""
","""event"",""trial"",""time""
""blur"",""72"",""484095""
","""event"",""trial"",""time""
""focus"",""73"",""490231""
","""event"",""trial"",""time""
""fullscreenenter"",""0"",""19116""
","""event"",""trial"",""time""
""fullscreenexit"",""8"",""102668""
","393.30000000447035","","","","","","","","50","1,1,0","0","coast","23","probe-192","0.6899485357401208","0.36543851335142175","0.20499733177448437","1","","","","","","","",""
"","html-keyboard-response","135","702084","0.0-77.0-1.0","""event"",""trial"",""time""
""fullscreenenter"",""0"",""19116""
""fullscreenexit"",""8"",""102668""
""blur"",""72"",""484095""
""focus"",""73"",""490231""
","""event"",""trial"",""time""
""blur"",""72"",""484095""
","""event"",""trial"",""time""
""focus"",""73"",""490231""
","""event"",""trial"",""time""
""fullscreenenter"",""0"",""19116""
","""event"",""trial"",""time""
""fullscreenexit"",""8"",""102668""
","null","<p></p>","null","","","","","","","","","","","","","","","","","","","","","","",""
"","do_trial","136","707564","0.0-78.0-0.0","""event"",""trial"",""time""
""fullscreenenter"",""0"",""19116""
""fullscreenexit"",""8"",""102668""
""blur"",""72"",""484095""
""focus"",""73"",""490231""
","""event"",""trial"",""time""
""blur"",""72"",""484095""
","""event"",""trial"",""time""
""focus"",""73"",""490231""
","""event"",""trial"",""time""
""fullscreenenter"",""0"",""19116""
","""event"",""trial"",""time""
""fullscreenexit"",""8"",""102668""
","915.2000000029802","","","","","","","","50","0,0,0","0","coast","24","probe-210","0.5892533716117953","0.3415010298077505","0.21632222434199044","0","","","","","","","",""
"","html-keyboard-response","137","708566","0.0-78.0-1.0","""event"",""trial"",""time""
""fullscreenenter"",""0"",""19116""
""fullscreenexit"",""8"",""102668""
""blur"",""72"",""484095""
""focus"",""73"",""490231""
","""event"",""trial"",""time""
""blur"",""72"",""484095""
","""event"",""trial"",""time""
""focus"",""73"",""490231""
","""event"",""trial"",""time""
""fullscreenenter"",""0"",""19116""
","""event"",""trial"",""time""
""fullscreenexit"",""8"",""102668""
","null","<p></p>","null","","","","","","","","","","","","","","","","","","","","","","",""
"","do_trial","138","713131","0.0-79.0-0.0","""event"",""trial"",""time""
""fullscreenenter"",""0"",""19116""
""fullscreenexit"",""8"",""102668""
""blur"",""72"",""484095""
""focus"",""73"",""490231""
","""event"",""trial"",""time""
""blur"",""72"",""484095""
","""event"",""trial"",""time""
""focus"",""73"",""490231""
","""event"",""trial"",""time""
""fullscreenenter"",""0"",""19116""
","""event"",""trial"",""time""
""fullscreenexit"",""8"",""102668""
","0.3999999985098839","","","","","","","","49","0,0,1","0","coast","25","probe-102","0.5434612216667416","0.2482187563637808","0.2191006677812962","0","","","","","","","",""
"","html-keyboard-response","139","714134","0.0-79.0-1.0","""event"",""trial"",""time""
""fullscreenenter"",""0"",""19116""
""fullscreenexit"",""8"",""102668""
""blur"",""72"",""484095""
""focus"",""73"",""490231""
","""event"",""trial"",""time""
""blur"",""72"",""484095""
","""event"",""trial"",""time""
""focus"",""73"",""490231""
","""event"",""trial"",""time""
""fullscreenenter"",""0"",""19116""
","""event"",""trial"",""time""
""fullscreenexit"",""8"",""102668""
","null","<p></p>","null","","","","","","","","","","","","","","","","","","","","","","",""
"","do_trial","140","719579","0.0-80.0-0.0","""event"",""trial"",""time""
""fullscreenenter"",""0"",""19116""
""fullscreenexit"",""8"",""102668""
""blur"",""72"",""484095""
""focus"",""73"",""490231""
","""event"",""trial"",""time""
""blur"",""72"",""484095""
","""event"",""trial"",""time""
""focus"",""73"",""490231""
","""event"",""trial"",""time""
""fullscreenenter"",""0"",""19116""
","""event"",""trial"",""time""
""fullscreenexit"",""8"",""102668""
","877.7999999970198","","","","","","","","50","0,0,0","0","coast","26","probe-93","0.5606807597314003","0.2650565350245001","0.057038685715669044","0","","","","","","","",""
"","html-keyboard-response","141","720581","0.0-80.0-1.0","""event"",""trial"",""time""
""fullscreenenter"",""0"",""19116""
""fullscreenexit"",""8"",""102668""
""blur"",""72"",""484095""
""focus"",""73"",""490231""
","""event"",""trial"",""time""
""blur"",""72"",""484095""
","""event"",""trial"",""time""
""focus"",""73"",""490231""
","""event"",""trial"",""time""
""fullscreenenter"",""0"",""19116""
","""event"",""trial"",""time""
""fullscreenexit"",""8"",""102668""
","null","<p></p>","null","","","","","","","","","","","","","","","","","","","","","","",""
"","do_trial","142","725335","0.0-81.0-0.0","""event"",""trial"",""time""
""fullscreenenter"",""0"",""19116""
""fullscreenexit"",""8"",""102668""
""blur"",""72"",""484095""
""focus"",""73"",""490231""
","""event"",""trial"",""time""
""blur"",""72"",""484095""
","""event"",""trial"",""time""
""focus"",""73"",""490231""
","""event"",""trial"",""time""
""fullscreenenter"",""0"",""19116""
","""event"",""trial"",""time""
""fullscreenexit"",""8"",""102668""
","186","","","","","","","","51","1,0,0","0","coast","27","probe-202","0.6043963867445564","0.2166622372295405","0.20744599361433014","0","","","","","","","",""
"","html-keyboard-response","143","726338","0.0-81.0-1.0","""event"",""trial"",""time""
""fullscreenenter"",""0"",""19116""
""fullscreenexit"",""8"",""102668""
""blur"",""72"",""484095""
""focus"",""73"",""490231""
","""event"",""trial"",""time""
""blur"",""72"",""484095""
","""event"",""trial"",""time""
""focus"",""73"",""490231""
","""event"",""trial"",""time""
""fullscreenenter"",""0"",""19116""
","""event"",""trial"",""time""
""fullscreenexit"",""8"",""102668""
","null","<p></p>","null","","","","","","","","","","","","","","","","","","","","","","",""
"","do_trial","144","731282","0.0-82.0-0.0","""event"",""trial"",""time""
""fullscreenenter"",""0"",""19116""
""fullscreenexit"",""8"",""102668""
""blur"",""72"",""484095""
""focus"",""73"",""490231""
","""event"",""trial"",""time""
""blur"",""72"",""484095""
","""event"",""trial"",""time""
""focus"",""73"",""490231""
","""event"",""trial"",""time""
""fullscreenenter"",""0"",""19116""
","""event"",""trial"",""time""
""fullscreenexit"",""8"",""102668""
","379.09999999403954","","","","","","","","49","1,0,0","0","coast","28","probe-58","0.6207209989806682","0.10851927506739058","0.1395175904189404","1","","","","","","","",""
"","html-keyboard-response","145","732285","0.0-82.0-1.0","""event"",""trial"",""time""
""fullscreenenter"",""0"",""19116""
""fullscreenexit"",""8"",""102668""
""blur"",""72"",""484095""
""focus"",""73"",""490231""
","""event"",""trial"",""time""
""blur"",""72"",""484095""
","""event"",""trial"",""time""
""focus"",""73"",""490231""
","""event"",""trial"",""time""
""fullscreenenter"",""0"",""19116""
","""event"",""trial"",""time""
""fullscreenexit"",""8"",""102668""
","null","<p></p>","null","","","","","","","","","","","","","","","","","","","","","","",""
"","do_trial","146","736969","0.0-83.0-0.0","""event"",""trial"",""time""
""fullscreenenter"",""0"",""19116""
""fullscreenexit"",""8"",""102668""
""blur"",""72"",""484095""
""focus"",""73"",""490231""
","""event"",""trial"",""time""
""blur"",""72"",""484095""
","""event"",""trial"",""time""
""focus"",""73"",""490231""
","""event"",""trial"",""time""
""fullscreenenter"",""0"",""19116""
","""event"",""trial"",""time""
""fullscreenexit"",""8"",""102668""
","117.69999999552965","","","","","","","","49","1,0,0","0","coast","29","probe-06","0.4600493401032412","0.24058814250060756","0.10747828364046838","1","","","","","","","",""
"","html-keyboard-response","147","737973","0.0-83.0-1.0","""event"",""trial"",""time""
""fullscreenenter"",""0"",""19116""
""fullscreenexit"",""8"",""102668""
""blur"",""72"",""484095""
""focus"",""73"",""490231""
","""event"",""trial"",""time""
""blur"",""72"",""484095""
","""event"",""trial"",""time""
""focus"",""73"",""490231""
","""event"",""trial"",""time""
""fullscreenenter"",""0"",""19116""
","""event"",""trial"",""time""
""fullscreenexit"",""8"",""102668""
","null","<p></p>","null","","","","","","","","","","","","","","","","","","","","","","",""
"","do_bye","148","739479","0.0-84.0-0.0","""event"",""trial"",""time""
""fullscreenenter"",""0"",""19116""
""fullscreenexit"",""8"",""102668""
""blur"",""72"",""484095""
""focus"",""73"",""490231""
","""event"",""trial"",""time""
""blur"",""72"",""484095""
","""event"",""trial"",""time""
""focus"",""73"",""490231""
","""event"",""trial"",""time""
""fullscreenenter"",""0"",""19116""
","""event"",""trial"",""time""
""fullscreenexit"",""8"",""102668""
","null","","","","","","","","null","","","","","","","","","","","","","","","","",""
"","break","149","740956","0.0-84.0-1.0","""event"",""trial"",""time""
""fullscreenenter"",""0"",""19116""
""fullscreenexit"",""8"",""102668""
""blur"",""72"",""484095""
""focus"",""73"",""490231""
","""event"",""trial"",""time""
""blur"",""72"",""484095""
","""event"",""trial"",""time""
""focus"",""73"",""490231""
","""event"",""trial"",""time""
""fullscreenenter"",""0"",""19116""
","""event"",""trial"",""time""
""fullscreenexit"",""8"",""102668""
","1474.8999999985099","<div class='center'><p>Time to take a quick break! You have 2 minutes to rest, but you can move on sooner if you'd like.</p><p> Press the <b>space bar</b> to continue.</p></div>","32","","","","","","","","","","","","","","","","","","","","","","",""
"","do_travel","150","749961","0.0-85.0-0.0","""event"",""trial"",""time""
""fullscreenenter"",""0"",""19116""
""fullscreenexit"",""8"",""102668""
""blur"",""72"",""484095""
""focus"",""73"",""490231""
","""event"",""trial"",""time""
""blur"",""72"",""484095""
","""event"",""trial"",""time""
""focus"",""73"",""490231""
","""event"",""trial"",""time""
""fullscreenenter"",""0"",""19116""
","""event"",""trial"",""time""
""fullscreenexit"",""8"",""102668""
","null","","","","","","","","null","","","","","","","","","","","","","","","","",""
"","do_welcome","151","753971","0.0-85.0-1.0","""event"",""trial"",""time""
""fullscreenenter"",""0"",""19116""
""fullscreenexit"",""8"",""102668""
""blur"",""72"",""484095""
""focus"",""73"",""490231""
","""event"",""trial"",""time""
""blur"",""72"",""484095""
","""event"",""trial"",""time""
""focus"",""73"",""490231""
","""event"",""trial"",""time""
""fullscreenenter"",""0"",""19116""
","""event"",""trial"",""time""
""fullscreenexit"",""8"",""102668""
","null","","","","","","","","null","","","","","","","","","","","","","","","","",""
"","do_trial","152","760042","0.0-86.0-0.0","""event"",""trial"",""time""
""fullscreenenter"",""0"",""19116""
""fullscreenexit"",""8"",""102668""
""blur"",""72"",""484095""
""focus"",""73"",""490231""
","""event"",""trial"",""time""
""blur"",""72"",""484095""
","""event"",""trial"",""time""
""focus"",""73"",""490231""
","""event"",""trial"",""time""
""fullscreenenter"",""0"",""19116""
","""event"",""trial"",""time""
""fullscreenexit"",""8"",""102668""
","null","","","","","","","","null","1,0,1","1","city","30","probe-39","1","0.21977814416801614","0.14794683541625064","","","","","","","","",""
"","html-keyboard-response","153","761045","0.0-86.0-1.0","""event"",""trial"",""time""
""fullscreenenter"",""0"",""19116""
""fullscreenexit"",""8"",""102668""
""blur"",""72"",""484095""
""focus"",""73"",""490231""
","""event"",""trial"",""time""
""blur"",""72"",""484095""
","""event"",""trial"",""time""
""focus"",""73"",""490231""
","""event"",""trial"",""time""
""fullscreenenter"",""0"",""19116""
","""event"",""trial"",""time""
""fullscreenexit"",""8"",""102668""
","null","<p></p>","null","","","","","","","","","","","","","","","","","","","","","","",""
"","do_trial","154","765943","0.0-87.0-0.0","""event"",""trial"",""time""
""fullscreenenter"",""0"",""19116""
""fullscreenexit"",""8"",""102668""
""blur"",""72"",""484095""
""focus"",""73"",""490231""
","""event"",""trial"",""time""
""blur"",""72"",""484095""
","""event"",""trial"",""time""
""focus"",""73"",""490231""
","""event"",""trial"",""time""
""fullscreenenter"",""0"",""19116""
","""event"",""trial"",""time""
""fullscreenexit"",""8"",""102668""
","332","","","","","","","","49","1,1,0","1","city","31","probe-190","1","0.39701380317351775","0.13991338142857948","1","","","","","","","",""
"","html-keyboard-response","155","766946","0.0-87.0-1.0","""event"",""trial"",""time""
""fullscreenenter"",""0"",""19116""
""fullscreenexit"",""8"",""102668""
""blur"",""72"",""484095""
""focus"",""73"",""490231""
","""event"",""trial"",""time""
""blur"",""72"",""484095""
","""event"",""trial"",""time""
""focus"",""73"",""490231""
","""event"",""trial"",""time""
""fullscreenenter"",""0"",""19116""
","""event"",""trial"",""time""
""fullscreenexit"",""8"",""102668""
","null","<p></p>","null","","","","","","","","","","","","","","","","","","","","","","",""
"","do_trial","156","771589","0.0-88.0-0.0","""event"",""trial"",""time""
""fullscreenenter"",""0"",""19116""
""fullscreenexit"",""8"",""102668""
""blur"",""72"",""484095""
""focus"",""73"",""490231""
","""event"",""trial"",""time""
""blur"",""72"",""484095""
","""event"",""trial"",""time""
""focus"",""73"",""490231""
","""event"",""trial"",""time""
""fullscreenenter"",""0"",""19116""
","""event"",""trial"",""time""
""fullscreenexit"",""8"",""102668""
","74.89999999850988","","","","","","","","51","1,1,0","1","city","32","probe-44","1","0.4846646903780693","0.08719850091748539","0","","","","","","","",""
"","html-keyboard-response","157","772592","0.0-88.0-1.0","""event"",""trial"",""time""
""fullscreenenter"",""0"",""19116""
""fullscreenexit"",""8"",""102668""
""blur"",""72"",""484095""
""focus"",""73"",""490231""
","""event"",""trial"",""time""
""blur"",""72"",""484095""
","""event"",""trial"",""time""
""focus"",""73"",""490231""
","""event"",""trial"",""time""
""fullscreenenter"",""0"",""19116""
","""event"",""trial"",""time""
""fullscreenexit"",""8"",""102668""
","null","<p></p>","null","","","","","","","","","","","","","","","","","","","","","","",""
"","do_trial","158","777347","0.0-89.0-0.0","""event"",""trial"",""time""
""fullscreenenter"",""0"",""19116""
""fullscreenexit"",""8"",""102668""
""blur"",""72"",""484095""
""focus"",""73"",""490231""
","""event"",""trial"",""time""
""blur"",""72"",""484095""
","""event"",""trial"",""time""
""focus"",""73"",""490231""
","""event"",""trial"",""time""
""fullscreenenter"",""0"",""19116""
","""event"",""trial"",""time""
""fullscreenexit"",""8"",""102668""
","189.29999999701977","","","","","","","","49","0,1,0","1","city","33","probe-75","0.8879093508299783","0.4003780793776822","0.12962658319848624","0","","","","","","","",""
"","html-keyboard-response","159","778350","0.0-89.0-1.0","""event"",""trial"",""time""
""fullscreenenter"",""0"",""19116""
""fullscreenexit"",""8"",""102668""
""blur"",""72"",""484095""
""focus"",""73"",""490231""
","""event"",""trial"",""time""
""blur"",""72"",""484095""
","""event"",""trial"",""time""
""focus"",""73"",""490231""
","""event"",""trial"",""time""
""fullscreenenter"",""0"",""19116""
","""event"",""trial"",""time""
""fullscreenexit"",""8"",""102668""
","null","<p></p>","null","","","","","","","","","","","","","","","","","","","","","","",""
"","do_trial","160","783002","0.0-90.0-0.0","""event"",""trial"",""time""
""fullscreenenter"",""0"",""19116""
""fullscreenexit"",""8"",""102668""
""blur"",""72"",""484095""
""focus"",""73"",""490231""
","""event"",""trial"",""time""
""blur"",""72"",""484095""
","""event"",""trial"",""time""
""focus"",""73"",""490231""
","""event"",""trial"",""time""
""fullscreenenter"",""0"",""19116""
","""event"",""trial"",""time""
""fullscreenexit"",""8"",""102668""
","89","","","","","","","","50","1,0,0","1","city","34","probe-185","0.8674819542128962","0.32646394565533354","0.08444814160583841","0","","","","","","","",""
"","html-keyboard-response","161","784004","0.0-90.0-1.0","""event"",""trial"",""time""
""fullscreenenter"",""0"",""19116""
""fullscreenexit"",""8"",""102668""
""blur"",""72"",""484095""
""focus"",""73"",""490231""
","""event"",""trial"",""time""
""blur"",""72"",""484095""
","""event"",""trial"",""time""
""focus"",""73"",""490231""
","""event"",""trial"",""time""
""fullscreenenter"",""0"",""19116""
","""event"",""trial"",""time""
""fullscreenexit"",""8"",""102668""
","null","<p></p>","null","","","","","","","","","","","","","","","","","","","","","","",""
"","do_trial","162","788570","0.0-91.0-0.0","""event"",""trial"",""time""
""fullscreenenter"",""0"",""19116""
""fullscreenexit"",""8"",""102668""
""blur"",""72"",""484095""
""focus"",""73"",""490231""
","""event"",""trial"",""time""
""blur"",""72"",""484095""
","""event"",""trial"",""time""
""focus"",""73"",""490231""
","""event"",""trial"",""time""
""fullscreenenter"",""0"",""19116""
","""event"",""trial"",""time""
""fullscreenexit"",""8"",""102668""
","0.6000000014901161","","","","","","","","49","1,0,0","1","city","35","probe-127","0.7710417404840681","0.45372865953852554","0.15573106772934492","1","","","","","","","",""
"","html-keyboard-response","163","789571","0.0-91.0-1.0","""event"",""trial"",""time""
""fullscreenenter"",""0"",""19116""
""fullscreenexit"",""8"",""102668""
""blur"",""72"",""484095""
""focus"",""73"",""490231""
","""event"",""trial"",""time""
""blur"",""72"",""484095""
","""event"",""trial"",""time""
""focus"",""73"",""490231""
","""event"",""trial"",""time""
""fullscreenenter"",""0"",""19116""
","""event"",""trial"",""time""
""fullscreenexit"",""8"",""102668""
","null","<p></p>","null","","","","","","","","","","","","","","","","","","","","","","",""
"","do_trial","164","794315","0.0-92.0-0.0","""event"",""trial"",""time""
""fullscreenenter"",""0"",""19116""
""fullscreenexit"",""8"",""102668""
""blur"",""72"",""484095""
""focus"",""73"",""490231""
","""event"",""trial"",""time""
""blur"",""72"",""484095""
","""event"",""trial"",""time""
""focus"",""73"",""490231""
","""event"",""trial"",""time""
""fullscreenenter"",""0"",""19116""
","""event"",""trial"",""time""
""fullscreenexit"",""8"",""102668""
","178.80000000447035","","","","","","","","51","1,0,0","1","city","36","probe-116","0.7296748660934751","0.37985721754226276","0.08986894502945987","0","","","","","","","",""
"","html-keyboard-response","165","795318","0.0-92.0-1.0","""event"",""trial"",""time""
""fullscreenenter"",""0"",""19116""
""fullscreenexit"",""8"",""102668""
""blur"",""72"",""484095""
""focus"",""73"",""490231""
","""event"",""trial"",""time""
""blur"",""72"",""484095""
","""event"",""trial"",""time""
""focus"",""73"",""490231""
","""event"",""trial"",""time""
""fullscreenenter"",""0"",""19116""
","""event"",""trial"",""time""
""fullscreenexit"",""8"",""102668""
