"success","trial_type","trial_index","time_elapsed","internal_node_id","interactions","blur_events","focus_events","fullscreenenter_events","fullscreenexit_events","rt","stimulus","key_press","subject_id","participant_id","age","gender","prompt","response","choice_outcomes","context_n","context_img_id","trial_n","probe_img_id","pR_red","pR_white","pR_black","outcome","contextArray_ind","validImageProbes","invalidImageProbes","pRew_Red","pRew_White","pRew_Black","availableForMemProbe","choice_blocks"
"true","fullscreen","0","10008","0.0-0.0","""event"",""trial"",""time""
""fullscreenenter"",""0"",""9040""
","
","
","""event"",""trial"",""time""
""fullscreenenter"",""0"",""9040""
","
","","","","","","","","","","","","","","","","","","","","","","","","","",""
"","pavlovia","1","10023","0.0-1.0","""event"",""trial"",""time""
""fullscreenenter"",""0"",""9040""
","
","
","""event"",""trial"",""time""
""fullscreenenter"",""0"",""9040""
","
","","","","","","","","","","","","","","","","","","","","","","","","","",""
"","instruc1","2","55284","0.0-2.0","""event"",""trial"",""time""
""fullscreenenter"",""0"",""9040""
","
","
","""event"",""trial"",""time""
""fullscreenenter"",""0"",""9040""
","
","null","run_exp/static/audio/clip_1_welcome.m4a","null","292","603","16","Male","<div class='center'><p>Welcome! This is the first part of the study. It will last ~30 minutes. In part 1 and part 2 of the study, you are the head captain of a pirate ship traveling around the world to different islands. You will play a few different games throughout these two parts. Here is an overview of them:</p><br><p>Part 1 (today)</p><p>1. Instructions, practice game, and quiz</p><p>2. Pick a pirate game on 6 different islands</p><br><p>Part 2 (tomorrow)</p><p>3. Pick a pirate game and memory game</p><p>4. Where did you see this ship? </p></div>","","","","","","","","","","","","","","","","","",""
"","html-keyboard-response","3","57615","0.0-3.0","""event"",""trial"",""time""
""fullscreenenter"",""0"",""9040""
","
","
","""event"",""trial"",""time""
""fullscreenenter"",""0"",""9040""
","
","2326","<div class='center'><p>Welcome! This is the first part of the study. It will last ~30 minutes. In part 1 and part 2 of the study, you are the head captain of a pirate ship traveling around the world to different islands. You will play a few different games throughout these two parts. Here is an overview of them:</p><br><p>Part 1 (today)</p><p>1. Instructions, practice game, and quiz</p><p>2. Pick a pirate game on 6 different islands</p><br><p>Part 2 (tomorrow)</p><p>3. Pick a pirate game and memory game</p><p>4. Where did you see this ship? </p><p><b>[Press the space bar to continue]</b></p></div>","32","","","","","","","","","","","","","","","","","","","","","","",""
"","instruc2","4","63173","0.0-4.0","""event"",""trial"",""time""
""fullscreenenter"",""0"",""9040""
","
","
","""event"",""trial"",""time""
""fullscreenenter"",""0"",""9040""
","
","null","run_exp/static/audio/clip_2_different_places.m4a","null","","","","","<div class='center'><p>Today, you’ll visit these 6 islands on your journey. You'll be able to see these islands from your ship.</p><p><img src='run_exp/static/images/contexts/all_contexts.png' height='500'></p></div>","","","","","","","","","","","","","","","","","",""
"","html-keyboard-response","5","65877","0.0-5.0","""event"",""trial"",""time""
""fullscreenenter"",""0"",""9040""
","
","
","""event"",""trial"",""time""
""fullscreenenter"",""0"",""9040""
","
","2694.4000000003725","<div class='center'><p>Today, you’ll visit these 6 islands on your journey. You'll be able to see these islands from your ship.</p><p><img src='run_exp/static/images/contexts/all_contexts.png' height='500'></p><p><b>[Press the space bar to continue]</b></p></div>","32","","","","","","","","","","","","","","","","","","","","","","",""
"","instruc3","6","75805","0.0-6.0","""event"",""trial"",""time""
""fullscreenenter"",""0"",""9040""
","
","
","""event"",""trial"",""time""
""fullscreenenter"",""0"",""9040""
","
","null","run_exp/static/audio/clip_3_goal_of_game_1.m4a","null","","","","","<div class='center'><p> The pirates on your ship will rob other ships as they leave the island.</p> These ships have just sold their goods to the islanders, so they will be filled with lots and lots of gold.</p><p><img src='run_exp/static/images/tutorial/ship_center.png' height='400'></p></div>","","","","","","","","","","","","","","","","","",""
"","html-keyboard-response","7","82957","0.0-7.0","""event"",""trial"",""time""
""fullscreenenter"",""0"",""9040""
","
","
","""event"",""trial"",""time""
""fullscreenenter"",""0"",""9040""
","
","7147.60000000149","<div class='center'><p> The pirates on your ship will rob other ships as they leave the island.</p> These ships have just sold their goods to the islanders, so they will be filled with lots and lots of gold.</p><p><img src='run_exp/static/images/tutorial/ship_center.png' height='400'></p><p><b>[Press the space bar to continue]</b></p></div>","32","","","","","","","","","","","","","","","","","","","","","","",""
"","instruc4","8","111193","0.0-8.0","""event"",""trial"",""time""
""fullscreenenter"",""0"",""9040""
","
","
","""event"",""trial"",""time""
""fullscreenenter"",""0"",""9040""
","
","null","run_exp/static/audio/clip_4_goal_of_game_2.m4a","null","","","","","<div class='center'><p>As the head captain, you do not have to rob any ships yourself. Another pirate will be doing the robbing for you. First, you will choose a pirate to rob the next ship.</p><p><img src='run_exp/static/images/tutorial/pirates_all_crop.png' height='200'></p><p>Then, you'll see if the pirate successfully robbed the ship of their gold. If they were successful, then you'll get a stack of gold coins like this:</p><p><img src='run_exp/static/images/tutorial/reward.png' height='150'></p><p> If they were <b>not</b> successful, then you'll get no gold coins, and you'll see a big red x like this: </p><p><img src='run_exp/static/images/tutorial/reward_no.png' height='150'></p><p> How much bonus money you make is based on how many gold coins you collect.</p><div>","","","","","","","","","","","","","","","","","",""
"","html-keyboard-response","9","116728","0.0-9.0","""event"",""trial"",""time""
""fullscreenenter"",""0"",""9040""
","
","
","""event"",""trial"",""time""
""fullscreenenter"",""0"",""9040""
","
","5525","<div class='center'><p>As the head captain, you do not have to rob any ships yourself. Another pirate will be doing the robbing for you. First, you will choose a pirate to rob the next ship.</p><p><img src='run_exp/static/images/tutorial/pirates_all_crop.png' height='200'></p><p>Then, you'll see if the pirate successfully robbed the ship of their gold. If they were successful, then you'll get a stack of gold coins like this:</p><p><img src='run_exp/static/images/tutorial/reward.png' height='150'></p><p> If they were <b>not</b> successful, then you'll get no gold coins, and you'll see a big red x like this: </p><p><img src='run_exp/static/images/tutorial/reward_no.png' height='150'></p><p> How much bonus money you make is based on how many gold coins you collect.</p<p><b>[Press the space bar to continue]</b></p></div>","32","","","","","","","","","","","","","","","","","","","","","","",""
"","instruc5","10","138506","0.0-10.0","""event"",""trial"",""time""
""fullscreenenter"",""0"",""9040""
","
","
","""event"",""trial"",""time""
""fullscreenenter"",""0"",""9040""
","
","21772.200000001118","run_exp/static/audio/clip_5_probabilistic.m4a","49","","","","","<div class='center'><p>Even the most skilled pirate can not rob EVERY ship.</p><p> Some ships will have very strong protections against pirate attacks.</p><p> Blue beard, here, is very, very good at robbing ships, but he won't be successful every time he tries to rob one.</p><p> You can press the <b>‘1’</b> key on the keyboard to choose him.</p><p> Try choosing him 10 times to see how often he succeeds at robbing a ship. </p><p><img src='run_exp/static/images/tutorial/blue.png' height='500'></p></div>","","","","","","","","","","","","","","","","","",""
"","html-keyboard-response","11","140010","0.0-11.0","""event"",""trial"",""time""
""fullscreenenter"",""0"",""9040""
","
","
","""event"",""trial"",""time""
""fullscreenenter"",""0"",""9040""
","
","null","<div class='center'><p><img src='run_exp/static/images/tutorial/blue_win.png' height='500'></p></div>","null","","","","","","","","","","","","","","","","","","","","","","",""
"","html-keyboard-response","12","142324","0.0-12.0","""event"",""trial"",""time""
""fullscreenenter"",""0"",""9040""
","
","
","""event"",""trial"",""time""
""fullscreenenter"",""0"",""9040""
","
","2310","<div class='center'><img src='run_exp/static/images/tutorial/blue.png' height='500'></p></div>","49","","","","","","","","","","","","","","","","","","","","","","",""
"","html-keyboard-response","13","143828","0.0-13.0","""event"",""trial"",""time""
""fullscreenenter"",""0"",""9040""
","
","
","""event"",""trial"",""time""
""fullscreenenter"",""0"",""9040""
","
","null","<div class='center'><p><img src='run_exp/static/images/tutorial/blue_win.png' height='500'></p></div>","null","","","","","","","","","","","","","","","","","","","","","","",""
"","html-keyboard-response","14","145003","0.0-14.0","""event"",""trial"",""time""
""fullscreenenter"",""0"",""9040""
","
","
","""event"",""trial"",""time""
""fullscreenenter"",""0"",""9040""
","
","1171.7999999988824","<div class='center'><img src='run_exp/static/images/tutorial/blue.png' height='500'></p></div>","49","","","","","","","","","","","","","","","","","","","","","","",""
"","html-keyboard-response","15","146506","0.0-15.0","""event"",""trial"",""time""
""fullscreenenter"",""0"",""9040""
","
","
","""event"",""trial"",""time""
""fullscreenenter"",""0"",""9040""
","
","null","<div class='center'><p><img src='run_exp/static/images/tutorial/blue_win.png' height='500'></p></div>","null","","","","","","","","","","","","","","","","","","","","","","",""
"","html-keyboard-response","16","146870","0.0-16.0","""event"",""trial"",""time""
""fullscreenenter"",""0"",""9040""
","
","
","""event"",""trial"",""time""
""fullscreenenter"",""0"",""9040""
","
","360.90000000037253","<div class='center'><img src='run_exp/static/images/tutorial/blue.png' height='500'></p></div>","49","","","","","","","","","","","","","","","","","","","","","","",""
"","html-keyboard-response","17","148374","0.0-17.0","""event"",""trial"",""time""
""fullscreenenter"",""0"",""9040""
","
","
","""event"",""trial"",""time""
""fullscreenenter"",""0"",""9040""
","
","null","<div class='center'><p><img src='run_exp/static/images/tutorial/blue_no_win.png' height='500'></p></div>","null","","","","","","","","","","","","","","","","","","","","","","",""
"","html-keyboard-response","18","148910","0.0-18.0","""event"",""trial"",""time""
""fullscreenenter"",""0"",""9040""
","
","
","""event"",""trial"",""time""
""fullscreenenter"",""0"",""9040""
","
","532.5999999996275","<div class='center'><img src='run_exp/static/images/tutorial/blue.png' height='500'></p></div>","49","","","","","","","","","","","","","","","","","","","","","","",""
"","html-keyboard-response","19","150415","0.0-19.0","""event"",""trial"",""time""
""fullscreenenter"",""0"",""9040""
","
","
","""event"",""trial"",""time""
""fullscreenenter"",""0"",""9040""
","
","null","<div class='center'><p><img src='run_exp/static/images/tutorial/blue_win.png' height='500'></p></div>","null","","","","","","","","","","","","","","","","","","","","","","",""
"","html-keyboard-response","20","150789","0.0-20.0","""event"",""trial"",""time""
""fullscreenenter"",""0"",""9040""
","
","
","""event"",""trial"",""time""
""fullscreenenter"",""0"",""9040""
","
","370.40000000037253","<div class='center'><img src='run_exp/static/images/tutorial/blue.png' height='500'></p></div>","49","","","","","","","","","","","","","","","","","","","","","","",""
"","html-keyboard-response","21","152292","0.0-21.0","""event"",""trial"",""time""
""fullscreenenter"",""0"",""9040""
","
","
","""event"",""trial"",""time""
""fullscreenenter"",""0"",""9040""
","
","null","<div class='center'><p><img src='run_exp/static/images/tutorial/blue_win.png' height='500'></p></div>","null","","","","","","","","","","","","","","","","","","","","","","",""
"","html-keyboard-response","22","152563","0.0-22.0","""event"",""trial"",""time""
""fullscreenenter"",""0"",""9040""
","
","
","""event"",""trial"",""time""
""fullscreenenter"",""0"",""9040""
","
","267.5","<div class='center'><img src='run_exp/static/images/tutorial/blue.png' height='500'></p></div>","49","","","","","","","","","","","","","","","","","","","","","","",""
"","html-keyboard-response","23","154066","0.0-23.0","""event"",""trial"",""time""
""fullscreenenter"",""0"",""9040""
","
","
","""event"",""trial"",""time""
""fullscreenenter"",""0"",""9040""
","
","null","<div class='center'><p><img src='run_exp/static/images/tutorial/blue_win.png' height='500'></p></div>","null","","","","","","","","","","","","","","","","","","","","","","",""
"","html-keyboard-response","24","154096","0.0-24.0","""event"",""trial"",""time""
""fullscreenenter"",""0"",""9040""
","
","
","""event"",""trial"",""time""
""fullscreenenter"",""0"",""9040""
","
","26.90000000037253","<div class='center'><img src='run_exp/static/images/tutorial/blue.png' height='500'></p></div>","49","","","","","","","","","","","","","","","","","","","","","","",""
"","html-keyboard-response","25","155600","0.0-25.0","""event"",""trial"",""time""
""fullscreenenter"",""0"",""9040""
","
","
","""event"",""trial"",""time""
""fullscreenenter"",""0"",""9040""
","
","null","<div class='center'><p><img src='run_exp/static/images/tutorial/blue_no_win.png' height='500'></p></div>","null","","","","","","","","","","","","","","","","","","","","","","",""
"","html-keyboard-response","26","156142","0.0-26.0","""event"",""trial"",""time""
""fullscreenenter"",""0"",""9040""
","
","
","""event"",""trial"",""time""
""fullscreenenter"",""0"",""9040""
","
","538.8999999985099","<div class='center'><img src='run_exp/static/images/tutorial/blue.png' height='500'></p></div>","49","","","","","","","","","","","","","","","","","","","","","","",""
"","html-keyboard-response","27","157645","0.0-27.0","""event"",""trial"",""time""
""fullscreenenter"",""0"",""9040""
","
","
","""event"",""trial"",""time""
""fullscreenenter"",""0"",""9040""
","
","null","<div class='center'><p><img src='run_exp/static/images/tutorial/blue_win.png' height='500'></p></div>","null","","","","","","","","","","","","","","","","","","","","","","",""
"","html-keyboard-response","28","157905","0.0-28.0","""event"",""trial"",""time""
""fullscreenenter"",""0"",""9040""
","
","
","""event"",""trial"",""time""
""fullscreenenter"",""0"",""9040""
","
","256.59999999962747","<div class='center'><img src='run_exp/static/images/tutorial/blue.png' height='500'></p></div>","49","","","","","","","","","","","","","","","","","","","","","","",""
"","html-keyboard-response","29","159408","0.0-29.0","""event"",""trial"",""time""
""fullscreenenter"",""0"",""9040""
","
","
","""event"",""trial"",""time""
""fullscreenenter"",""0"",""9040""
","
","null","<div class='center'><p><img src='run_exp/static/images/tutorial/blue_win.png' height='500'></p></div>","null","","","","","","","","","","","","","","","","","","","","","","",""
"","instruc6","30","165005","0.0-30.0","""event"",""trial"",""time""
""fullscreenenter"",""0"",""9040""
","
","
","""event"",""trial"",""time""
""fullscreenenter"",""0"",""9040""
","
","null","run_exp/static/audio/clip_6_blue_beard_outcome.m4a","null","","","","","<div class='center'><p> See, he succeeded in robbing the ships most of the time but not every time. </p></div>","","","","","","","","","","","","","","","","","",""
"","html-keyboard-response","31","167134","0.0-31.0","""event"",""trial"",""time""
""fullscreenenter"",""0"",""9040""
","
","
","""event"",""trial"",""time""
""fullscreenenter"",""0"",""9040""
","
","2124.5999999996275","<div class='center'><p> See, he succeeded in robbing the ships most of the time but not every time. </p><p><b>[Press the space bar to continue]</b></p></div>","32","","","","","","","","","","","","","","","","","","","","","","",""
"","audio-keyboard-response","32","183200","0.0-32.0","""event"",""trial"",""time""
""fullscreenenter"",""0"",""9040""
","
","
","""event"",""trial"",""time""
""fullscreenenter"",""0"",""9040""
","
","16048.199999999255","run_exp/static/audio/clip_7_pick_pirate.m4a","50","","","","","","","","","","","","","","","","","","","","","","",""
"","audio-keyboard-response","33","189394","0.0-33.0-0.0","""event"",""trial"",""time""
""fullscreenenter"",""0"",""9040""
","
","
","""event"",""trial"",""time""
""fullscreenenter"",""0"",""9040""
","
","6185","run_exp/static/audio/clip_8_chosen_pirate_win.m4a","32","","","","","","","","","","","","","","","","","","","","","","",""
"","audio-keyboard-response","34","192138","0.0-33.0-1.0","""event"",""trial"",""time""
""fullscreenenter"",""0"",""9040""
","
","
","""event"",""trial"",""time""
""fullscreenenter"",""0"",""9040""
","
","2739.9000000003725","run_exp/static/audio/clip_9_pick_a_pirate_again.m4a","49","","","","","","","","","","","","","","","","","","","","","","",""
"","audio-keyboard-response","35","197844","0.0-34.0-0.0","""event"",""trial"",""time""
""fullscreenenter"",""0"",""9040""
","
","
","""event"",""trial"",""time""
""fullscreenenter"",""0"",""9040""
","
","5698.299999998882","run_exp/static/audio/clip_10_chosen_pirate_loss.m4a","32","","","","","","","","","","","","","","","","","","","","","","",""
"","instruc9","36","203551","0.0-35.0-0.0","""event"",""trial"",""time""
""fullscreenenter"",""0"",""9040""
","
","
","""event"",""trial"",""time""
""fullscreenenter"",""0"",""9040""
","
","null","run_exp/static/audio/clip_11_time_out.m4a","null","","","","","<div class='center'><p>If you don’t make your choice fast enough, you’ll have to wait a few seconds before you can make another one. </p><p><img src='run_exp/static/images/miscellaneous/hurry_up.png' height='500'></p></div>","","","","","","","","","","","","","","","","","",""
"","html-keyboard-response","37","204719","0.0-35.0-1.0","""event"",""trial"",""time""
""fullscreenenter"",""0"",""9040""
","
","
","""event"",""trial"",""time""
""fullscreenenter"",""0"",""9040""
","
","1158.5","<div class='center'><p>If you don’t make your choice fast enough, you’ll have to wait a few seconds before you can make another one. </p><p><img src='run_exp/static/images/miscellaneous/hurry_up.png' height='500'></p><p><b>[Press the space bar to continue]</b></p></div>","32","","","","","","","","","","","","","","","","","","","","","","",""
"","instruc10","38","244047","0.0-35.0-2.0","""event"",""trial"",""time""
""fullscreenenter"",""0"",""9040""
","
","
","""event"",""trial"",""time""
""fullscreenenter"",""0"",""9040""
","
","null","run_exp/static/audio/clip_12_probe.m4a","null","","","","","<div class='center'><p>Once you've chosen a pirate, you’ll be shown the ship they are robbing. You will never rob the same ship twice. Ships can be told apart from one another by the image on them. These are the goods that they sell. See, this ship has a travel mug on it. </p><p> You’ll have to remember which island you saw each ship on. You will win more gold coins and hence more bonus money if you remember correctly! To help you remember, you can imagine a story. For example, here, you could imagine a mug full of water in the desert. Or, as another example, if on the forest island, your pirate robbed a ship with an apple on it, you could imagine an apple falling from a tree in the forest. </p><p><img src='run_exp/static/images/tutorial/example_probe.png' height='500'></p></div>","","","","","","","","","","","","","","","","","",""
"","html-keyboard-response","39","272564","0.0-35.0-3.0","""event"",""trial"",""time""
""fullscreenenter"",""0"",""9040""
","
","
","""event"",""trial"",""time""
""fullscreenenter"",""0"",""9040""
","
","28507.400000000373","<div class='center'><p>Once you've chosen a pirate, you’ll be shown the ship they are robbing. You will never rob the same ship twice. Ships can be told apart from one another by the image on them. These are the goods that they sell. See, this ship has a travel mug on it. </p><p> You’ll have to remember which island you saw each ship on. You will win more gold coins and hence more bonus money if you remember correctly! To help you remember, you can imagine a story. For example, here, you could imagine a mug full of water in the desert. Or, as another example, if on the forest island, your pirate robbed a ship with an apple on it, you could imagine an apple falling from a tree in the forest. </p><p><img src='run_exp/static/images/tutorial/example_probe.png' height='500'></p><p><b>[Press the space bar to continue]</b></p></div>","32","","","","","","","","","","","","","","","","","","","","","","",""
"","instruc11","40","289029","0.0-35.0-4.0","""event"",""trial"",""time""
""fullscreenenter"",""0"",""9040""
","
","
","""event"",""trial"",""time""
""fullscreenenter"",""0"",""9040""
","
","null","run_exp/static/audio/clip_13_changepoint.m4a","null","","","","","<div class='center'><p>How successful a pirate is at robbing ships will depend on the island you’re on.</p><p> A pirate may have visited this island many times before and gained a lot of practice robbing ships there.</p><p>So, they’re more likely to be successful than a pirate who has never visited the island before.</p></div>","","","","","","","","","","","","","","","","","",""
"","html-keyboard-response","41","292850","0.0-35.0-5.0","""event"",""trial"",""time""
""fullscreenenter"",""0"",""9040""
","
","
","""event"",""trial"",""time""
""fullscreenenter"",""0"",""9040""
","
","3817.7999999988824","<div class='center'><p>How successful a pirate is at robbing ships will depend on the island you’re on.</p><p> A pirate may have visited this island many times before and gained a lot of practice robbing ships there.</p><p>So, they’re more likely to be successful than a pirate who has never visited the island before.</p><p><b>[Press the space bar to continue]</b></p></div>","32","","","","","","","","","","","","","","","","","","","","","","",""
"","instruc12","42","334167","0.0-35.0-6.0","""event"",""trial"",""time""
""fullscreenenter"",""0"",""9040""
","
","
","""event"",""trial"",""time""
""fullscreenenter"",""0"",""9040""
","
","null","run_exp/static/audio/clip_14_drift.m4a","null","","","","","<div class='center'><p>How successful a pirate is at robbing ships can also change over the time spent on the island. </p><p> Ships may hear from islanders about the pirates coming and will improve their protections against the attack. This may make it harder to rob them.</p><p> Ships may also become lazy and weaken the strength of their protections. This may make it easier to rob them.</p><br><p>Things are always changing on the high seas! So, try your best to pay attention!</p><p><img src='run_exp/static/images/tutorial/contingency.png' height='500'></p></div>","","","","","","","","","","","","","","","","","",""
"","html-keyboard-response","43","336139","0.0-35.0-7.0","""event"",""trial"",""time""
""fullscreenenter"",""0"",""9040""
","
","
","""event"",""trial"",""time""
""fullscreenenter"",""0"",""9040""
","
","1968.800000000745","<div class='center'><p>How successful a pirate is at robbing ships can also change over the time spent on the island. </p><p> Ships may hear from islanders about the pirates coming and will improve their protections against the attack. This may make it harder to rob them.</p><p> Ships may also become lazy and weaken the strength of their protections. This may make it easier to rob them.</p><br><p>Things are always changing on the high seas! So, try your best to pay attention!</p><p><img src='run_exp/static/images/tutorial/contingency.png' height='500'></p><p><b>[Press the space bar to continue]</b></p></div>","32","","","","","","","","","","","","","","","","","","","","","","",""
"","instruc13","44","371599","0.0-35.0-8.0","""event"",""trial"",""time""
""fullscreenenter"",""0"",""9040""
","
","
","""event"",""trial"",""time""
""fullscreenenter"",""0"",""9040""
","
","null","run_exp/static/audio/clip_15_summary.m4a","null","","","","","<div class='center'><p>Let's go over the instructions quickly again. You have two important things to do: </p><b><p> 1. Pick the pirate who is the best at robbing ships on the current island. </p></b><b><p> 2. Remember on which island a ship was robbed.</p> </b><p>The amount of bonus money you can win depends on both.</p><p><br><p>Let’s try a practice game. The game will start by showing you the pirates. First, pick a pirate using the <b> 1, 2, 3 </b> keys on your keyboard. When you are shown a ship, try to remember which island you’re on by making up a story.</p><p>This is just a practice game, so you’re not playing for money. </p><p> Good luck! This game will be very difficult but try your best!</p></div>","","","","","","","","","","","","","","","","","",""
"","html-keyboard-response","45","382246","0.0-35.0-9.0","""event"",""trial"",""time""
""fullscreenenter"",""0"",""9040""
","
","
","""event"",""trial"",""time""
""fullscreenenter"",""0"",""9040""
","
","10644.300000000745","<div class='center'><p>Let's go over the instructions quickly again. You have two important things to do: </p><b><p> 1. Pick the pirate who is the best at robbing ships on the current island. </p></b><b><p> 2. Remember on which island a ship was robbed.</p> </b><p>The amount of bonus money you can win depends on both.</p><p><br><p>Let’s try a practice game. The game will start by showing you the pirates. First, pick a pirate using the <b> 1, 2, 3 </b> keys on your keyboard. When you are shown a ship, try to remember which island you’re on by making up a story.</p><p>This is just a practice game, so you’re not playing for money. </p><p> Good luck! This game will be very difficult but try your best!</p><p><b>[Press the space bar to continue]</b></p></div>","32","","","","","","","","","","","","","","","","","","","","","","",""
"","do_welcome","46","386279","0.0-35.0-10.0","""event"",""trial"",""time""
""fullscreenenter"",""0"",""9040""
","
","
","""event"",""trial"",""time""
""fullscreenenter"",""0"",""9040""
","
","null","","","","","","","","null","","","","","","","","","","","","","","","","",""
"","do_trial","47","392628","0.0-35.0-11.0","""event"",""trial"",""time""
""fullscreenenter"",""0"",""9040""
","
","
","""event"",""trial"",""time""
""fullscreenenter"",""0"",""9040""
","
","1826.199999999255","","","","","","","","49","1,0,0","","","","","","","","","","","","","","","",""
"","html-keyboard-response","48","393632","0.0-36.0-0.0","""event"",""trial"",""time""
""fullscreenenter"",""0"",""9040""
","
","
","""event"",""trial"",""time""
""fullscreenenter"",""0"",""9040""
","
","null","<p></p>","null","","","","","","","","","","","","","","","","","","","","","","",""
"","do_trial","49","399905","0.0-36.0-1.0","""event"",""trial"",""time""
""fullscreenenter"",""0"",""9040""
","
","
","""event"",""trial"",""time""
""fullscreenenter"",""0"",""9040""
","
","1750.5999999996275","","","","","","","","50","1,1,0","","","","","","","","","","","","","","","",""
"","html-keyboard-response","50","400910","0.0-37.0-0.0","""event"",""trial"",""time""
""fullscreenenter"",""0"",""9040""
","
","
","""event"",""trial"",""time""
""fullscreenenter"",""0"",""9040""
","
","null","<p></p>","null","","","","","","","","","","","","","","","","","","","","","","",""
"","do_trial","51","408145","0.0-37.0-1.0","""event"",""trial"",""time""
""fullscreenenter"",""0"",""9040""
","
","
","""event"",""trial"",""time""
""fullscreenenter"",""0"",""9040""
","
","2714.2000000011176","","","","","","","","51","1,0,1","","","","","","","","","","","","","","","",""
"","html-keyboard-response","52","409149","0.0-38.0-0.0","""event"",""trial"",""time""
""fullscreenenter"",""0"",""9040""
","
","
","""event"",""trial"",""time""
""fullscreenenter"",""0"",""9040""
","
","null","<p></p>","null","","","","","","","","","","","","","","","","","","","","","","",""
"","do_trial","53","414174","0.0-38.0-1.0","""event"",""trial"",""time""
""fullscreenenter"",""0"",""9040""
","
","
","""event"",""trial"",""time""
""fullscreenenter"",""0"",""9040""
","
","505.19999999925494","","","","","","","","51","0,1,0","","","","","","","","","","","","","","","",""
"","html-keyboard-response","54","415179","0.0-39.0-0.0","""event"",""trial"",""time""
""fullscreenenter"",""0"",""9040""
","
","
","""event"",""trial"",""time""
""fullscreenenter"",""0"",""9040""
","
","null","<p></p>","null","","","","","","","","","","","","","","","","","","","","","","",""
"","do_trial","55","420362","0.0-39.0-1.0","""event"",""trial"",""time""
""fullscreenenter"",""0"",""9040""
","
","
","""event"",""trial"",""time""
""fullscreenenter"",""0"",""9040""
","
","656.7000000011176","","","","","","","","50","1,0,0","","","","","","","","","","","","","","","",""
"","do_bye","56","421877","0.0-40.0-0.0","""event"",""trial"",""time""
""fullscreenenter"",""0"",""9040""
","
","
","""event"",""trial"",""time""
""fullscreenenter"",""0"",""9040""
","
","null","","","","","","","","null","","","","","","","","","","","","","","","","",""
"","do_travel","57","430889","0.0-40.0-1.0","""event"",""trial"",""time""
""fullscreenenter"",""0"",""9040""
","
","
","""event"",""trial"",""time""
""fullscreenenter"",""0"",""9040""
","
","null","","","","","","","","null","","","","","","","","","","","","","","","","",""
"","do_welcome","58","434909","0.0-40.0-2.0","""event"",""trial"",""time""
""fullscreenenter"",""0"",""9040""
","
","
","""event"",""trial"",""time""
""fullscreenenter"",""0"",""9040""
","
","null","","","","","","","","null","","","","","","","","","","","","","","","","",""
"","do_trial","59","440380","0.0-40.0-3.0","""event"",""trial"",""time""
""fullscreenenter"",""0"",""9040""
","
","
","""event"",""trial"",""time""
""fullscreenenter"",""0"",""9040""
","
","950.9000000003725","","","","","","","","49","1,0,0","","","","","","","","","","","","","","","",""
"","html-keyboard-response","60","441384","0.0-41.0-0.0","""event"",""trial"",""time""
""fullscreenenter"",""0"",""9040""
","
","
","""event"",""trial"",""time""
""fullscreenenter"",""0"",""9040""
","
","null","<p></p>","null","","","","","","","","","","","","","","","","","","","","","","",""
"","do_trial","61","446475","0.0-41.0-1.0","""event"",""trial"",""time""
""fullscreenenter"",""0"",""9040""
","
","
","""event"",""trial"",""time""
""fullscreenenter"",""0"",""9040""
","
","571.5","","","","","","","","50","1,0,1","","","","","","","","","","","","","","","",""
"","html-keyboard-response","62","447480","0.0-42.0-0.0","""event"",""trial"",""time""
""fullscreenenter"",""0"",""9040""
","
","
","""event"",""trial"",""time""
""fullscreenenter"",""0"",""9040""
","
","null","<p></p>","null","","","","","","","","","","","","","","","","","","","","","","",""
"","do_trial","63","452092","0.0-42.0-1.0","""event"",""trial"",""time""
""fullscreenenter"",""0"",""9040""
","
","
","""event"",""trial"",""time""
""fullscreenenter"",""0"",""9040""
","
","92.30000000074506","","","","","","","","49","1,1,0","","","","","","","","","","","","","","","",""
"","html-keyboard-response","64","453096","0.0-43.0-0.0","""event"",""trial"",""time""
""fullscreenenter"",""0"",""9040""
","
","
","""event"",""trial"",""time""
""fullscreenenter"",""0"",""9040""
","
","null","<p></p>","null","","","","","","","","","","","","","","","","","","","","","","",""
"","do_trial","65","457936","0.0-43.0-1.0","""event"",""trial"",""time""
""fullscreenenter"",""0"",""9040""
","
","
","""event"",""trial"",""time""
""fullscreenenter"",""0"",""9040""
","
","319.80000000074506","","","","","","","","50","0,0,1","","","","","","","","","","","","","","","",""
"","html-keyboard-response","66","458940","0.0-44.0-0.0","""event"",""trial"",""time""
""fullscreenenter"",""0"",""9040""
","
","
","""event"",""trial"",""time""
""fullscreenenter"",""0"",""9040""
","
","null","<p></p>","null","","","","","","","","","","","","","","","","","","","","","","",""
"","do_trial","67","463609","0.0-44.0-1.0","""event"",""trial"",""time""
""fullscreenenter"",""0"",""9040""
","
","
","""event"",""trial"",""time""
""fullscreenenter"",""0"",""9040""
","
","148.90000000037253","","","","","","","","49","1,0,1","","","","","","","","","","","","","","","",""
"","html-keyboard-response","68","468059","0.0-45.0-0.0","""event"",""trial"",""time""
""fullscreenenter"",""0"",""9040""
","
","
","""event"",""trial"",""time""
""fullscreenenter"",""0"",""9040""
","
","4442.5","<div class='center'><p><img src='run_exp/static/images/tutorial/prac_best_pirate.png'  height='500'></p></div>","49","","","","","","","","","","","","","","","","","","","","","","",""
"","html-keyboard-response","69","469561","0.0-46.0-0.0","""event"",""trial"",""time""
""fullscreenenter"",""0"",""9040""
","
","
","""event"",""trial"",""time""
""fullscreenenter"",""0"",""9040""
","
","1492.5999999996275","<div class='center'><p>That's correct! Red beard was the best.</p><p><b>[Press the space bar to continue]</b></p></div>","32","","","","","","","","","","","","","","","","","","","","","","",""
"","html-keyboard-response","70","473376","0.0-46.0-1.0","""event"",""trial"",""time""
""fullscreenenter"",""0"",""9040""
","
","
","""event"",""trial"",""time""
""fullscreenenter"",""0"",""9040""
","
","3812.0999999996275","<div class='center'><p><img src='run_exp/static/images/tutorial/prac_source.png'  height='500'></p></div>","50","","","","","","","","","","","","","","","","","","","","","","",""
"","html-keyboard-response","71","476630","0.0-47.0-0.0","""event"",""trial"",""time""
""fullscreenenter"",""0"",""9040""
","
","
","""event"",""trial"",""time""
""fullscreenenter"",""0"",""9040""
","
","3249.4000000003725","<div class='center'><p>That's correct! You saw this ship on the cavern island.</p><p><b>[Press the space bar to continue]</b></p></div>","32","","","","","","","","","","","","","","","","","","","","","","",""
"","quiz_beginning","72","487980","0.0-47.0-1.0","""event"",""trial"",""time""
""fullscreenenter"",""0"",""9040""
","
","
","""event"",""trial"",""time""
""fullscreenenter"",""0"",""9040""
","
","null","run_exp/static/audio/clip_16_quiz_intro.m4a","null","","","","","<div class='center'><p>Good job on the practice game! Now, you will be asked some true or false questions to make sure you really understand the rules of the game.</p><p> Press <b>'1'</b> on the keyboard for true and press <b>'2'</b> for false.</p></div>","","","","","","","","","","","","","","","","","",""
"","audio-keyboard-response","73","496528","0.0-47.0-2.0","""event"",""trial"",""time""
""fullscreenenter"",""0"",""9040""
","
","
","""event"",""trial"",""time""
""fullscreenenter"",""0"",""9040""
","
","8537.5","run_exp/static/audio/clip_17_q1.m4a","49","","","","","","","","","","","","","","","","","","","","","","",""
"","correct","74","499219","0.0-48.0-0.0","""event"",""trial"",""time""
""fullscreenenter"",""0"",""9040""
","
","
","""event"",""trial"",""time""
""fullscreenenter"",""0"",""9040""
","
","null","run_exp/static/audio/clip_18_correct.m4a","null","","","","","<div class='center'><p>That's correct!</p></div>","","","","","","","","","","","","","","","","","",""
"","html-keyboard-response","75","500516","0.0-48.0-1.0","""event"",""trial"",""time""
""fullscreenenter"",""0"",""9040""
","
","
","""event"",""trial"",""time""
""fullscreenenter"",""0"",""9040""
","
","1293.7000000011176","<div class='center'><p>That's correct!</p><p><b>[Press the space bar to continue]</b></p></div>","32","","","","","","","","","","","","","","","","","","","","","","",""
"","audio-keyboard-response","76","507715","0.0-48.0-2.0","""event"",""trial"",""time""
""fullscreenenter"",""0"",""9040""
","
","
","""event"",""trial"",""time""
""fullscreenenter"",""0"",""9040""
","
","7195.0999999996275","run_exp/static/audio/clip_20_q2.m4a","50","","","","","","","","","","","","","","","","","","","","","","",""
"","correct","77","510364","0.0-49.0-0.0","""event"",""trial"",""time""
""fullscreenenter"",""0"",""9040""
","
","
","""event"",""trial"",""time""
""fullscreenenter"",""0"",""9040""
","
","null","run_exp/static/audio/clip_18_correct.m4a","null","","","","","<div class='center'><p>That's correct!</p></div>","","","","","","","","","","","","","","","","","",""
"","html-keyboard-response","78","511606","0.0-49.0-1.0","""event"",""trial"",""time""
""fullscreenenter"",""0"",""9040""
","
","
","""event"",""trial"",""time""
""fullscreenenter"",""0"",""9040""
","
","1239","<div class='center'><p>That's correct!</p><p><b>[Press the space bar to continue]</b></p></div>","32","","","","","","","","","","","","","","","","","","","","","","",""
"","audio-keyboard-response","79","516849","0.0-49.0-2.0","""event"",""trial"",""time""
""fullscreenenter"",""0"",""9040""
","
","
","""event"",""trial"",""time""
""fullscreenenter"",""0"",""9040""
","
","5224.800000000745","run_exp/static/audio/clip_22_q3.m4a","50","","","","","","","","","","","","","","","","","","","","","","",""
"","correct","80","519559","0.0-50.0-0.0","""event"",""trial"",""time""
""fullscreenenter"",""0"",""9040""
","
","
","""event"",""trial"",""time""
""fullscreenenter"",""0"",""9040""
","
","null","run_exp/static/audio/clip_18_correct.m4a","null","","","","","<div class='center'><p>That's correct!</p></div>","","","","","","","","","","","","","","","","","",""
"","html-keyboard-response","81","520489","0.0-50.0-1.0","""event"",""trial"",""time""
""fullscreenenter"",""0"",""9040""
","
","
","""event"",""trial"",""time""
""fullscreenenter"",""0"",""9040""
","
","927.1999999992549","<div class='center'><p>That's correct!</p><p><b>[Press the space bar to continue]</b></p></div>","32","","","","","","","","","","","","","","","","","","","","","","",""
"","audio-keyboard-response","82","527065","0.0-50.0-2.0","""event"",""trial"",""time""
""fullscreenenter"",""0"",""9040""
","
","
","""event"",""trial"",""time""
""fullscreenenter"",""0"",""9040""
","
","6572.0999999996275","run_exp/static/audio/clip_24_q4.m4a","49","","","","","","","","","","","","","","","","","","","","","","",""
"","correct","83","529871","0.0-51.0-0.0","""event"",""trial"",""time""
""fullscreenenter"",""0"",""9040""
","
","
","""event"",""trial"",""time""
""fullscreenenter"",""0"",""9040""
","
","null","run_exp/static/audio/clip_18_correct.m4a","null","","","","","<div class='center'><p>That's correct!</p></div>","","","","","","","","","","","","","","","","","",""
"","html-keyboard-response","84","530806","0.0-51.0-1.0","""event"",""trial"",""time""
""fullscreenenter"",""0"",""9040""
","
","
","""event"",""trial"",""time""
""fullscreenenter"",""0"",""9040""
","
","930","<div class='center'><p>That's correct!</p><p><b>[Press the space bar to continue]</b></p></div>","32","","","","","","","","","","","","","","","","","","","","","","",""
"","q_all_corr","85","539529","0.0-52.0-0.0","""event"",""trial"",""time""
""fullscreenenter"",""0"",""9040""
","
","
","""event"",""trial"",""time""
""fullscreenenter"",""0"",""9040""
","
","null","run_exp/static/audio/clip_27_quiz_all_correct.m4a","null","","","","","<div class='center'><p>Good job! You’re now ready to move on to the real game! Remember this game will be difficult but don't get discouraged and try your best!</p></div>","","","","","","","","","","","","","","","","","",""
"","html-keyboard-response","86","541471","0.0-52.0-1.0","""event"",""trial"",""time""
""fullscreenenter"",""0"",""9040""
","
","
","""event"",""trial"",""time""
""fullscreenenter"",""0"",""9040""
","
","1932.2999999988824","<div class='center'><p>Good job! You’re now ready to move on to the real game! Remember this game will be difficult but don't get discouraged and try your best!</p><p><b>[Press the space bar to continue]</b></p></div>","32","","","","","","","","","","","","","","","","","","","","","","",""
"","do_welcome","87","545494","0.0-53.0-0.0","""event"",""trial"",""time""
""fullscreenenter"",""0"",""9040""
","
","
","""event"",""trial"",""time""
""fullscreenenter"",""0"",""9040""
","
","null","","","","","","","","null","","","","","","","","","","","","","","","","",""
"","do_trial","88","551134","0.0-54.0-0.0","""event"",""trial"",""time""
""fullscreenenter"",""0"",""9040""
","
","
","""event"",""trial"",""time""
""fullscreenenter"",""0"",""9040""
","
","1016.7000000011176","","","","","","","","49","1,0,0","0","forest","0","probe-77","0.6","0.3","0.1","1","","","","","","","",""
"","html-keyboard-response","89","552140","0.0-54.0-1.0","""event"",""trial"",""time""
""fullscreenenter"",""0"",""9040""
","
","
","""event"",""trial"",""time""
""fullscreenenter"",""0"",""9040""
","
","null","<p></p>","null","","","","","","","","","","","","","","","","","","","","","","",""
"","do_trial","90","557142","0.0-55.0-0.0","""event"",""trial"",""time""
""fullscreenenter"",""0"",""9040""
","
","
","""event"",""trial"",""time""
""fullscreenenter"",""0"",""9040""
","
","384.09999999962747","","","","","","","","49","1,0,1","0","forest","1","probe-160","0.533923924201541","0.3425481299538252","0.20716058538344764","1","","","","","","","",""
"","html-keyboard-response","91","558148","0.0-55.0-1.0","""event"",""trial"",""time""
""fullscreenenter"",""0"",""9040""
","
","
","""event"",""trial"",""time""
""fullscreenenter"",""0"",""9040""
","
","null","<p></p>","null","","","","","","","","","","","","","","","","","","","","","","",""
"","do_trial","92","563102","0.0-56.0-0.0","""event"",""trial"",""time""
""fullscreenenter"",""0"",""9040""
","
","
","""event"",""trial"",""time""
""fullscreenenter"",""0"",""9040""
","
","333.5","","","","","","","","49","0,0,1","0","forest","2","probe-42","0.5032418289690492","0.37370323967219826","0.20115137598266988","0","","","","","","","",""
"","html-keyboard-response","93","564108","0.0-56.0-1.0","""event"",""trial"",""time""
""fullscreenenter"",""0"",""9040""
","
","
","""event"",""trial"",""time""
""fullscreenenter"",""0"",""9040""
","
","null","<p></p>","null","","","","","","","","","","","","","","","","","","","","","","",""
"","do_trial","94","569243","0.0-57.0-0.0","""event"",""trial"",""time""
""fullscreenenter"",""0"",""9040""
","
","
","""event"",""trial"",""time""
""fullscreenenter"",""0"",""9040""
","
","500.90000000037253","","","","","","","","49","0,1,0","0","forest","3","probe-119","0.5070793967460238","0.26525306434139123","0.13278850844364054","0","","","","","","","",""
"","html-keyboard-response","95","570248","0.0-57.0-1.0","""event"",""trial"",""time""
""fullscreenenter"",""0"",""9040""
","
","
","""event"",""trial"",""time""
""fullscreenenter"",""0"",""9040""
","
","null","<p></p>","null","","","","","","","","","","","","","","","","","","","","","","",""
"","do_trial","96","575711","0.0-58.0-0.0","""event"",""trial"",""time""
""fullscreenenter"",""0"",""9040""
","
","
","""event"",""trial"",""time""
""fullscreenenter"",""0"",""9040""
","
","843.2000000011176","","","","","","","","50","1,1,1","0","forest","4","probe-154","0.6477520612752226","0.37649922554554927","0.2938851424394318","1","","","","","","","",""
"","html-keyboard-response","97","576716","0.0-58.0-1.0","""event"",""trial"",""time""
""fullscreenenter"",""0"",""9040""
","
","
","""event"",""trial"",""time""
""fullscreenenter"",""0"",""9040""
","
","null","<p></p>","null","","","","","","","","","","","","","","","","","","","","","","",""
"","do_trial","98","581670","0.0-59.0-0.0","""event"",""trial"",""time""
""fullscreenenter"",""0"",""9040""
","
","
","""event"",""trial"",""time""
""fullscreenenter"",""0"",""9040""
","
","337.19999999925494","","","","","","","","50","1,0,0","0","forest","5","probe-22","0.6172570180178013","0.2714641719739253","0.290713724795371","0","","","","","","","",""
"","html-keyboard-response","99","582675","0.0-59.0-1.0","""event"",""trial"",""time""
""fullscreenenter"",""0"",""9040""
","
","
","""event"",""trial"",""time""
""fullscreenenter"",""0"",""9040""
","
","null","<p></p>","null","","","","","","","","","","","","","","","","","","","","","","",""
"","do_trial","100","588086","0.0-60.0-0.0","""event"",""trial"",""time""
""fullscreenenter"",""0"",""9040""
","
","
","""event"",""trial"",""time""
""fullscreenenter"",""0"",""9040""
","
","794","","","","","","","","51","1,0,0","0","forest","6","probe-191","0.6392871284122781","0.40411499891823627","0.08389152141959479","0","","","","","","","",""
"","html-keyboard-response","101","589091","0.0-60.0-1.0","""event"",""trial"",""time""
""fullscreenenter"",""0"",""9040""
","
","
","""event"",""trial"",""time""
""fullscreenenter"",""0"",""9040""
","
","null","<p></p>","null","","","","","","","","","","","","","","","","","","","","","","",""
"","do_trial","102","594260","0.0-61.0-0.0","""event"",""trial"",""time""
""fullscreenenter"",""0"",""9040""
","
","
","""event"",""trial"",""time""
""fullscreenenter"",""0"",""9040""
","
","550.7000000011176","","","","","","","","49","1,0,0","0","forest","7","probe-59","0.6740843833609644","0.33868041356508666","0.060759653888620146","1","","","","","","","",""
"","html-keyboard-response","103","595266","0.0-61.0-1.0","""event"",""trial"",""time""
""fullscreenenter"",""0"",""9040""
","
","
","""event"",""trial"",""time""
""fullscreenenter"",""0"",""9040""
","
","null","<p></p>","null","","","","","","","","","","","","","","","","","","","","","","",""
"","do_trial","104","600275","0.0-62.0-0.0","""event"",""trial"",""time""
""fullscreenenter"",""0"",""9040""
","
","
","""event"",""trial"",""time""
""fullscreenenter"",""0"",""9040""
","
","394.3999999985099","","","","","","","","49","0,0,0","0","forest","8","probe-138","0.5622039773368942","0.28047512475275294","0.16336041123227232","0","","","","","","","",""
"","html-keyboard-response","105","601281","0.0-62.0-1.0","""event"",""trial"",""time""
""fullscreenenter"",""0"",""9040""
","
","
","""event"",""trial"",""time""
""fullscreenenter"",""0"",""9040""
","
","null","<p></p>","null","","","","","","","","","","","","","","","","","","","","","","",""
"","do_trial","106","606579","0.0-63.0-0.0","""event"",""trial"",""time""
""fullscreenenter"",""0"",""9040""
","
","
","""event"",""trial"",""time""
""fullscreenenter"",""0"",""9040""
","
","680.5","","","","","","","","50","0,1,0","0","forest","9","probe-199","0.4164710267384075","0.36705916900287094","0.05538081020356412","1","","","","","","","",""
"","html-keyboard-response","107","607584","0.0-63.0-1.0","""event"",""trial"",""time""
""fullscreenenter"",""0"",""9040""
","
","
","""event"",""trial"",""time""
""fullscreenenter"",""0"",""9040""
","
","null","<p></p>","null","","","","","","","","","","","","","","","","","","","","","","",""
"","do_trial","108","612605","0.0-64.0-0.0","""event"",""trial"",""time""
""fullscreenenter"",""0"",""9040""
","
","
","""event"",""trial"",""time""
""fullscreenenter"",""0"",""9040""
","
","406.7999999988824","","","","","","","","50","0,0,0","0","forest","10","probe-220","0.3613263683312263","0.3893884545054586","0.05145444525926846","0","","","","","","","",""
"","html-keyboard-response","109","613610","0.0-64.0-1.0","""event"",""trial"",""time""
""fullscreenenter"",""0"",""9040""
","
","
","""event"",""trial"",""time""
""fullscreenenter"",""0"",""9040""
","
","null","<p></p>","null","","","","","","","","","","","","","","","","","","","","","","",""
"","do_trial","110","618694","0.0-65.0-0.0","""event"",""trial"",""time""
""fullscreenenter"",""0"",""9040""
","
","
","""event"",""trial"",""time""
""fullscreenenter"",""0"",""9040""
","
","439","","","","","","","","51","0,0,0","0","forest","11","probe-54","0.3808741851668047","0.3739668873394741","0.0952033794551525","0","","","","","","","",""
"","html-keyboard-response","111","619699","0.0-65.0-1.0","""event"",""trial"",""time""
""fullscreenenter"",""0"",""9040""
","
","
","""event"",""trial"",""time""
""fullscreenenter"",""0"",""9040""
","
","null","<p></p>","null","","","","","","","","","","","","","","","","","","","","","","",""
"","do_trial","112","625239","0.0-66.0-0.0","""event"",""trial"",""time""
""fullscreenenter"",""0"",""9040""
","
","
","""event"",""trial"",""time""
""fullscreenenter"",""0"",""9040""
","
","923.0999999996275","","","","","","","","49","1,0,0","0","forest","12","probe-55","0.5567625220356645","0.33701823317122187","0.06288823037251529","1","","","","","","","",""
"","html-keyboard-response","113","626244","0.0-66.0-1.0","""event"",""trial"",""time""
""fullscreenenter"",""0"",""9040""
","
","
","""event"",""trial"",""time""
""fullscreenenter"",""0"",""9040""
","
","null","<p></p>","null","","","","","","","","","","","","","","","","","","","","","","",""
"","do_trial","114","631505","0.0-67.0-0.0","""event"",""trial"",""time""
""fullscreenenter"",""0"",""9040""
","
","
","""event"",""trial"",""time""
""fullscreenenter"",""0"",""9040""
","
","643.7000000011176","","","","","","","","49","1,1,0","0","forest","13","probe-13","0.551484456939542","0.3465830725620658","0.09500476648781908","1","","","","","","","",""
"","html-keyboard-response","115","632511","0.0-67.0-1.0","""event"",""trial"",""time""
""fullscreenenter"",""0"",""9040""
","
","
","""event"",""trial"",""time""
""fullscreenenter"",""0"",""9040""
","
","null","<p></p>","null","","","","","","","","","","","","","","","","","","","","","","",""
"","do_trial","116","637470","0.0-68.0-0.0","""event"",""trial"",""time""
""fullscreenenter"",""0"",""9040""
","
","
","""event"",""trial"",""time""
""fullscreenenter"",""0"",""9040""
","
","339.8999999985099","","","","","","","","50","1,0,0","0","forest","14","probe-198","0.6451950683391621","0.4006818096107449","0.0755971383999767","0","","","","","","","",""
"","html-keyboard-response","117","638477","0.0-68.0-1.0","""event"",""trial"",""time""
""fullscreenenter"",""0"",""9040""
","
","
","""event"",""trial"",""time""
""fullscreenenter"",""0"",""9040""
","
","null","<p></p>","null","","","","","","","","","","","","","","","","","","","","","","",""
"","do_trial","118","643347","0.0-69.0-0.0","""event"",""trial"",""time""
""fullscreenenter"",""0"",""9040""
","
","
","""event"",""trial"",""time""
""fullscreenenter"",""0"",""9040""
","
","253.30000000074506","","","","","","","","49","0,0,0","0","forest","15","probe-152","0.47231522969703804","0.38559709088188093","0.06299222450835554","0","","","","","","","",""
"","html-keyboard-response","119","644352","0.0-69.0-1.0","""event"",""trial"",""time""
""fullscreenenter"",""0"",""9040""
","
","
","""event"",""trial"",""time""
""fullscreenenter"",""0"",""9040""
","
","null","<p></p>","null","","","","","","","","","","","","","","","","","","","","","","",""
"","do_trial","120","649364","0.0-70.0-0.0","""event"",""trial"",""time""
""fullscreenenter"",""0"",""9040""
","
","
","""event"",""trial"",""time""
""fullscreenenter"",""0"",""9040""
","
","397.09999999962747","","","","","","","","51","1,1,0","0","forest","16","probe-179","0.438159741308714","0.4461149128527104","0.09118491462401364","0","","","","","","","",""
"","html-keyboard-response","121","650369","0.0-70.0-1.0","""event"",""trial"",""time""
""fullscreenenter"",""0"",""9040""
","
","
","""event"",""trial"",""time""
""fullscreenenter"",""0"",""9040""
","
","null","<p></p>","null","","","","","","","","","","","","","","","","","","","","","","",""
"","do_trial","122","655516","0.0-71.0-0.0","""event"",""trial"",""time""
""fullscreenenter"",""0"",""9040""
","
","
","""event"",""trial"",""time""
""fullscreenenter"",""0"",""9040""
","
","524.4000000003725","","","","","","","","49","1,1,0","0","forest","17","probe-01","0.5607639207116017","0.34163785967886356","0.19520634043688653","1","","","","","","","",""
"","html-keyboard-response","123","656521","0.0-71.0-1.0","""event"",""trial"",""time""
""fullscreenenter"",""0"",""9040""
","
","
","""event"",""trial"",""time""
""fullscreenenter"",""0"",""9040""
","
","null","<p></p>","null","","","","","","","","","","","","","","","","","","","","","","",""
"","do_trial","124","661785","0.0-72.0-0.0","""event"",""trial"",""time""
""fullscreenenter"",""0"",""9040""
","
","
","""event"",""trial"",""time""
""fullscreenenter"",""0"",""9040""
","
","644.5999999996275","","","","","","","","49","1,0,0","0","forest","18","probe-178","0.5403800010982125","0.38111219860657125","0.19868356479252933","1","","","","","","","",""
"","html-keyboard-response","125","662790","0.0-72.0-1.0","""event"",""trial"",""time""
""fullscreenenter"",""0"",""9040""
","
","
","""event"",""trial"",""time""
""fullscreenenter"",""0"",""9040""
","
","null","<p></p>","null","","","","","","","","","","","","","","","","","","","","","","",""
"","do_trial","126","667996","0.0-73.0-0.0","""event"",""trial"",""time""
""fullscreenenter"",""0"",""9040""
","
","
","""event"",""trial"",""time""
""fullscreenenter"",""0"",""9040""
","
","591.7000000011176","","","","","","","","49","0,1,0","0","forest","19","probe-86","0.5100136697327686","0.4185337643897931","0.1674836438371292","0","","","","","","","",""
"","html-keyboard-response","127","669001","0.0-73.0-1.0","""event"",""trial"",""time""
""fullscreenenter"",""0"",""9040""
","
","
","""event"",""trial"",""time""
""fullscreenenter"",""0"",""9040""
","
","null","<p></p>","null","","","","","","","","","","","","","","","","","","","","","","",""
"","do_trial","128","673722","0.0-74.0-0.0","""event"",""trial"",""time""
""fullscreenenter"",""0"",""9040""
","
","
","""event"",""trial"",""time""
""fullscreenenter"",""0"",""9040""
","
","103.60000000149012","","","","","","","","49","1,1,0","0","forest","20","probe-11","0.391334701406227","0.3849506457237542","0.2785728416133791","1","","","","","","","",""
"","html-keyboard-response","129","674728","0.0-74.0-1.0","""event"",""trial"",""time""
""fullscreenenter"",""0"",""9040""
","
","
","""event"",""trial"",""time""
""fullscreenenter"",""0"",""9040""
","
","null","<p></p>","null","","","","","","","","","","","","","","","","","","","","","","",""
"","do_trial","130","679773","0.0-75.0-0.0","""event"",""trial"",""time""
""fullscreenenter"",""0"",""9040""
","
","
","""event"",""trial"",""time""
""fullscreenenter"",""0"",""9040""
","
","423.69999999925494","","","","","","","","49","0,0,0","0","forest","21","probe-137","0.3880262093585993","0.4785703049611255","0.14278797219482547","0","","","","","","","",""
"","html-keyboard-response","131","680778","0.0-75.0-1.0","""event"",""trial"",""time""
""fullscreenenter"",""0"",""9040""
","
","
","""event"",""trial"",""time""
""fullscreenenter"",""0"",""9040""
","
","null","<p></p>","null","","","","","","","","","","","","","","","","","","","","","","",""
"","do_trial","132","685926","0.0-76.0-0.0","""event"",""trial"",""time""
""fullscreenenter"",""0"",""9040""
","
","
","""event"",""trial"",""time""
""fullscreenenter"",""0"",""9040""
","
","524.9000000003725","","","","","","","","50","1,1,0","0","forest","22","probe-140","0.4742092929451859","0.4860755225341962","0.12834158504361376","1","","","","","","","",""
"","html-keyboard-response","133","686931","0.0-76.0-1.0","""event"",""trial"",""time""
""fullscreenenter"",""0"",""9040""
","
","
","""event"",""trial"",""time""
""fullscreenenter"",""0"",""9040""
","
","null","<p></p>","null","","","","","","","","","","","","","","","","","","","","","","",""
"","do_trial","134","692922","0.0-77.0-0.0","""event"",""trial"",""time""
""fullscreenenter"",""0"",""9040""
","
","
","""event"",""trial"",""time""
""fullscreenenter"",""0"",""9040""
","
","1370.4000000003725","","","","","","","","50","0,0,1","0","forest","23","probe-45","0.5189726453909013","0.30759570896240446","0.24407877418102214","0","","","","","","","",""
"","html-keyboard-response","135","693929","0.0-77.0-1.0","""event"",""trial"",""time""
""fullscreenenter"",""0"",""9040""
","
","
","""event"",""trial"",""time""
""fullscreenenter"",""0"",""9040""
","
","null","<p></p>","null","","","","","","","","","","","","","","","","","","","","","","",""
"","do_trial","136","698825","0.0-78.0-0.0","""event"",""trial"",""time""
""fullscreenenter"",""0"",""9040""
","
","
","""event"",""trial"",""time""
""fullscreenenter"",""0"",""9040""
","
","279.40000000037253","","","","","","","","49","1,1,0","0","forest","24","probe-106","0.7427373622620462","0.3448883853640689","0.1111801732052553","1","","","","","","","",""
"","html-keyboard-response","137","699830","0.0-78.0-1.0","""event"",""trial"",""time""
""fullscreenenter"",""0"",""9040""
","
","
","""event"",""trial"",""time""
""fullscreenenter"",""0"",""9040""
","
","null","<p></p>","null","","","","","","","","","","","","","","","","","","","","","","",""
"","do_trial","138","704989","0.0-79.0-0.0","""event"",""trial"",""time""
""fullscreenenter"",""0"",""9040""
","
","
","""event"",""trial"",""time""
""fullscreenenter"",""0"",""9040""
","
","543.2999999988824","","","","","","","","49","1,0,0","0","forest","25","probe-158","0.691176756864842","0.22603744304636597","0.1054102407047222","1","","","","","","","",""
"","html-keyboard-response","139","705994","0.0-79.0-1.0","""event"",""trial"",""time""
""fullscreenenter"",""0"",""9040""
","
","
","""event"",""trial"",""time""
""fullscreenenter"",""0"",""9040""
","
","null","<p></p>","null","","","","","","","","","","","","","","","","","","","","","","",""
"","do_trial","140","710911","0.0-80.0-0.0","""event"",""trial"",""time""
""fullscreenenter"",""0"",""9040""
","
","
","""event"",""trial"",""time""
""fullscreenenter"",""0"",""9040""
","
","298.7999999988824","","","","","","","","49","0,0,0","0","forest","26","probe-126","0.7114061919008781","0.2772434403297833","0.167222574074949","0","","","","","","","",""
"","html-keyboard-response","141","711916","0.0-80.0-1.0","""event"",""trial"",""time""
""fullscreenenter"",""0"",""9040""
","
","
","""event"",""trial"",""time""
""fullscreenenter"",""0"",""9040""
","
","null","<p></p>","null","","","","","","","","","","","","","","","","","","","","","","",""
"","do_trial","142","717268","0.0-81.0-0.0","""event"",""trial"",""time""
""fullscreenenter"",""0"",""9040""
","
","
","""event"",""trial"",""time""
""fullscreenenter"",""0"",""9040""
","
","732.4000000003725","","","","","","","","51","1,0,0","0","forest","27","probe-165","0.6206802275637607","0.3227259525111638","0.15989698870599287","0","","","","","","","",""
"","html-keyboard-response","143","718274","0.0-81.0-1.0","""event"",""trial"",""time""
""fullscreenenter"",""0"",""9040""
","
","
","""event"",""trial"",""time""
""fullscreenenter"",""0"",""9040""
","
","null","<p></p>","null","","","","","","","","","","","","","","","","","","","","","","",""
"","do_trial","144","723511","0.0-82.0-0.0","""event"",""trial"",""time""
""fullscreenenter"",""0"",""9040""
","
","
","""event"",""trial"",""time""
""fullscreenenter"",""0"",""9040""
","
","617","","","","","","","","50","1,0,0","0","forest","28","probe-134","0.5703906104964469","0.3693076371665825","0.27338328833824316","0","","","","","","","",""
"","html-keyboard-response","145","724517","0.0-82.0-1.0","""event"",""trial"",""time""
""fullscreenenter"",""0"",""9040""
","
","
","""event"",""trial"",""time""
""fullscreenenter"",""0"",""9040""
","
","null","<p></p>","null","","","","","","","","","","","","","","","","","","","","","","",""
"","do_trial","146","729482","0.0-83.0-0.0","""event"",""trial"",""time""
""fullscreenenter"",""0"",""9040""
","
","
","""event"",""trial"",""time""
""fullscreenenter"",""0"",""9040""
","
","345.5","","","","","","","","49","0,0,0","0","forest","29","probe-48","0.4970436135758349","0.33705848549635237","0.19232694639011352","0","","","","","","","",""
"","html-keyboard-response","147","730488","0.0-83.0-1.0","""event"",""trial"",""time""
""fullscreenenter"",""0"",""9040""
","
","
","""event"",""trial"",""time""
""fullscreenenter"",""0"",""9040""
","
","null","<p></p>","null","","","","","","","","","","","","","","","","","","","","","","",""
"","do_bye","148","732004","0.0-84.0-0.0","""event"",""trial"",""time""
""fullscreenenter"",""0"",""9040""
","
","
","""event"",""trial"",""time""
""fullscreenenter"",""0"",""9040""
","
","null","","","","","","","","null","","","","","","","","","","","","","","","","",""
"","break","149","740066","0.0-84.0-1.0","""event"",""trial"",""time""
""fullscreenenter"",""0"",""9040""
","
","
","""event"",""trial"",""time""
""fullscreenenter"",""0"",""9040""
","
","8058.0999999996275","<div class='center'><p>Time to take a quick break! You have 2 minutes to rest, but you can move on sooner if you'd like.</p><p> Press the <b>space bar</b> to continue.</p></div>","32","","","","","","","","","","","","","","","","","","","","","","",""
"","do_travel","150","749077","0.0-85.0-0.0","""event"",""trial"",""time""
""fullscreenenter"",""0"",""9040""
","
","
","""event"",""trial"",""time""
""fullscreenenter"",""0"",""9040""
","
","null","","","","","","","","null","","","","","","","","","","","","","","","","",""
"","do_welcome","151","753101","0.0-85.0-1.0","""event"",""trial"",""time""
""fullscreenenter"",""0"",""9040""
","
","
","""event"",""trial"",""time""
""fullscreenenter"",""0"",""9040""
","
","null","","","","","","","","null","","","","","","","","","","","","","","","","",""
"","do_trial","152","759240","0.0-86.0-0.0","""event"",""trial"",""time""
""fullscreenenter"",""0"",""9040""
","
","
","""event"",""trial"",""time""
""fullscreenenter"",""0"",""9040""
","
","1520.7000000011176","","","","","","","","49","1,0,0","1","highway","30","probe-100","1","0.2754109427567407","0.1603324870739095","1","","","","","","","",""
"","html-keyboard-response","153","760245","0.0-86.0-1.0","""event"",""trial"",""time""
""fullscreenenter"",""0"",""9040""
","
","
","""event"",""trial"",""time""
""fullscreenenter"",""0"",""9040""
","
","null","<p></p>","null","","","","","","","","","","","","","","","","","","","","","","",""
"","do_trial","154","765346","0.0-87.0-0.0","""event"",""trial"",""time""
""fullscreenenter"",""0"",""9040""
","
","
","""event"",""trial"",""time""
""fullscreenenter"",""0"",""9040""
","
","483.40000000037253","","","","","","","","49","1,0,0","1","highway","31","probe-206","1","0.20776947255318248","0.15221775486621522","1","","","","","","","",""
"","html-keyboard-response","155","766352","0.0-87.0-1.0","""event"",""trial"",""time""
""fullscreenenter"",""0"",""9040""
","
","
","""event"",""trial"",""time""
""fullscreenenter"",""0"",""9040""
","
","null","<p></p>","null","","","","","","","","","","","","","","","","","","","","","","",""
"","do_trial","156","771513","0.0-88.0-0.0","""event"",""trial"",""time""
""fullscreenenter"",""0"",""9040""
","
","
","""event"",""trial"",""time""
""fullscreenenter"",""0"",""9040""
","
","543.6000000014901","","","","","","","","49","1,0,0","1","highway","32","probe-149","1","0.24402270602533677","0.06098261227076579","1","","","","","","","",""
"","html-keyboard-response","157","772519","0.0-88.0-1.0","""event"",""trial"",""time""
""fullscreenenter"",""0"",""9040""
","
","
","""event"",""trial"",""time""
""fullscreenenter"",""0"",""9040""
","
","null","<p></p>","null","","","","","","","","","","","","","","","","","","","","","","",""
"","do_trial","158","777543","0.0-89.0-0.0","""event"",""trial"",""time""
""fullscreenenter"",""0"",""9040""
","
","
","""event"",""trial"",""time""
""fullscreenenter"",""0"",""9040""
","
","402.8999999985099","","","","","","","","49","0,0,0","1","highway","33","probe-186","0.8499800676254337","0.262625187357534","0.1619302245245349","0","","","","","","","",""
"","html-keyboard-response","159","778549","0.0-89.0-1.0","""event"",""trial"",""time""
""fullscreenenter"",""0"",""9040""
","
","
","""event"",""trial"",""time""
""fullscreenenter"",""0"",""9040""
","
","null","<p></p>","null","","","","","","","","","","","","","","","","","","","","","","",""
"","do_trial","160","783488","0.0-90.0-0.0","""event"",""trial"",""time""
""fullscreenenter"",""0"",""9040""
","
","
","""event"",""trial"",""time""
""fullscreenenter"",""0"",""9040""
","
","321.7999999988824","","","","","","","","49","1,0,0","1","highway","34","probe-103","0.7492749615264156","0.19537824728203987","0.05386055030805309","1","","","","","","","",""
"","html-keyboard-response","161","784494","0.0-90.0-1.0","""event"",""trial"",""time""
""fullscreenenter"",""0"",""9040""
","
","
","""event"",""trial"",""time""
""fullscreenenter"",""0"",""9040""
","
","null","<p></p>","null","","","","","","","","","","","","","","","","","","","","","","",""
"","do_trial","162","789545","0.0-91.0-0.0","""event"",""trial"",""time""
""fullscreenenter"",""0"",""9040""
","
","
","""event"",""trial"",""time""
""fullscreenenter"",""0"",""9040""
","
","433.09999999962747","","","","","","","","49","0,0,1","1","highway","35","probe-196","0.6248008781104711","0.15452094660625348","0.2129580028233765","0","","","","","","","",""
"","html-keyboard-response","163","790555","0.0-91.0-1.0","""event"",""trial"",""time""
""fullscreenenter"",""0"",""9040""
","
","
","""event"",""trial"",""time""
""fullscreenenter"",""0"",""9040""
","
","null","<p></p>","null","","","","","","","","","","","","","","","","","","","","","","",""
"","do_trial","164","795174","0.0-92.0-0.0","""event"",""trial"",""time""
""fullscreenenter"",""0"",""9040""
","
","
","""event"",""trial"",""time""
""fullscreenenter"",""0"",""9040""
","
","0.2999999988824129","","","","","","","","49","1,0,0","1","highway","36","probe-85","0.7213341614279741","0.19666554104533202","0.25312101901832373","1","","","","","","","",""
"","html-keyboard-response","165","796179","0.0-92.0-1.0","""event"",""trial"",""time""
""fullscreenenter"",""0"",""9040""
","
","
","""event"",""trial"",""time""
""fullscreenenter"",""0"",""9040""
","
","null","<p></p>","null","","","","","","","","","","","","","","","","","","","","","","",""
"","do_trial","166","801162","0.0-93.0-0.0","""event"",""trial"",""time""
""fullscreenenter"",""0"",""9040""
","
","
","""event"",""trial"",""time""
""fullscreenenter"",""0"",""9040""
","
","367.7000000011176","","","","","","","","49","0,0,0","1","highway","37","probe-109","0.701109210772468","0.1468525154982178","0.2392546477561942","0","","","","","","","",""
"","html-keyboard-response","167","802168","0.0-93.0-1.0","""event"",""trial"",""time""
""fullscreenenter"",""0"",""9040""
","
","
","""event"",""trial"",""time""
""fullscreenenter"",""0"",""9040""
","
","null","<p></p>","null","","","","","","","","","","","","","","","","","","","","","","",""
"","do_trial","168","807186","0.0-94.0-0.0","""event"",""trial"",""time""
""fullscreenenter"",""0"",""9040""
","
","
","""event"",""trial"",""time""
""fullscreenenter"",""0"",""9040""
","
","401.90000000037253","","","","","","","","49","1,0,0","1","highway","38","probe-195","0.6124049532317438","0.12007137142469892","0.1320531826254047","1","","","","","","","",""
"","html-keyboard-response","169","808192","0.0-94.0-1.0","""event"",""trial"",""time""
""fullscreenenter"",""0"",""9040""
","
","
","""event"",""trial"",""time""
""fullscreenenter"",""0"",""9040""
","
","null","<p></p>","null","","","","","","","","","","","","","","","","","","","","","","",""
"","do_trial","170","813275","0.0-95.0-0.0","""event"",""trial"",""time""
""fullscreenenter"",""0"",""9040""
","
","
","""event"",""trial"",""time""
""fullscreenenter"",""0"",""9040""
","
","462.69999999925494","","","","","","","","49","0,0,1","1","highway","39","probe-156","0.5723461338910724","0.21585255610678505","0.14132199957037825","0","","","","","","","",""
"","html-keyboard-response","171","814280","0.0-95.0-1.0","""event"",""trial"",""time""
""fullscreenenter"",""0"",""9040""
","
","
","""event"",""trial"",""time""
""fullscreenenter"",""0"",""9040""
","
","null","<p></p>","null","","","","","","","","","","","","","","","","","","","","","","",""
"","do_trial","172","819484","0.0-96.0-0.0","""event"",""trial"",""time""
""fullscreenenter"",""0"",""9040""
","
","
","""event"",""trial"",""time""
""fullscreenenter"",""0"",""9040""
","
","588","","","","","","","","49","1,0,0","1","highway","40","probe-127","0.6500316498976976","0.1576529510042873","0.22536995685208097","1","","","","","","","",""
"","html-keyboard-response","173","820490","0.0-96.0-1.0","""event"",""trial"",""time""
""fullscreenenter"",""0"",""9040""
","
","
","""event"",""trial"",""time""
""fullscreenenter"",""0"",""9040""
","
","null","<p></p>","null","","","","","","","","","","","","","","","","","","","","","","",""
"","do_trial","174","825868","0.0-97.0-0.0","""event"",""trial"",""time""
""fullscreenenter"",""0"",""9040""
","
","
","""event"",""trial"",""time""
""fullscreenenter"",""0"",""9040""
","
","758.0999999996275","","","","","","","","49","1,0,0","1","highway","41","probe-125","0.5500327754418181","0.16715055615979726","0.1952058862012451","1","","","","","","","",""
"","html-keyboard-response","175","826873","0.0-97.0-1.0","""event"",""trial"",""time""
""fullscreenenter"",""0"",""9040""
","
","
","""event"",""trial"",""time""
""fullscreenenter"",""0"",""9040""
","
","null","<p></p>","null","","","","","","","","","","","","","","","","","","","","","","",""
"","do_trial","176","831495","0.0-98.0-0.0","""event"",""trial"",""time""
""fullscreenenter"",""0"",""9040""
","
","
","""event"",""trial"",""time""
""fullscreenenter"",""0"",""9040""
","
","0.5","","","","","","","","50","1,0,1","1","highway","42","probe-63","0.442550403527078","0.3249513124263271","0.266110104129353","0","","","","","","","",""
"","html-keyboard-response","177","832501","0.0-98.0-1.0","""event"",""trial"",""time""
""fullscreenenter"",""0"",""9040""
","
","
","""event"",""trial"",""time""
""fullscreenenter"",""0"",""9040""
","
","null","<p></p>","null","","","","","","","","","","","","","","","","","","","","","","",""
"","do_trial","178","837557","0.0-99.0-0.0","""event"",""trial"",""time""
""fullscreenenter"",""0"",""9040""
","
","
","""event"",""trial"",""time""
""fullscreenenter"",""0"",""9040""
","
","437.5","","","","","","","","50","0,0,0","1","highway","43","probe-147","0.2836223537055298","0.32048545296757347","0.17988252655015585","0","","","","","","","",""
"","html-keyboard-response","179","838563","0.0-99.0-1.0","""event"",""trial"",""time""
""fullscreenenter"",""0"",""9040""
","
","
","""event"",""trial"",""time""
""fullscreenenter"",""0"",""9040""
","
","null","<p></p>","null","","","","","","","","","","","","","","","","","","","","","","",""
"","do_trial","180","843216","0.0-100.0-0.0","""event"",""trial"",""time""
""fullscreenenter"",""0"",""9040""
","
","
","""event"",""trial"",""time""
""fullscreenenter"",""0"",""9040""
","
","38.29999999888241","","","","","","","","50","0,0,0","1","highway","44","probe-124","0.20958215070052602","0.35352702834347793","0.214884576312812","0","","","","","","","",""
"","html-keyboard-response","181","844222","0.0-100.0-1.0","""event"",""trial"",""time""
""fullscreenenter"",""0"",""9040""
","
","
","""event"",""trial"",""time""
""fullscreenenter"",""0"",""9040""
","
","null","<p></p>","null","","","","","","","","","","","","","","","","","","","","","","",""
"","do_trial","182","850086","0.0-101.0-0.0","""event"",""trial"",""time""
""fullscreenenter"",""0"",""9040""
","
","
","""event"",""trial"",""time""
""fullscreenenter"",""0"",""9040""
","
","1245","","","","","","","","51","0,0,1","1","highway","45","probe-95","0.23654324797617932","0.414779384544381","0.17815018478569464","1","","","","","","","",""
"","html-keyboard-response","183","851093","0.0-101.0-1.0","""event"",""trial"",""time""
""fullscreenenter"",""0"",""9040""
","
","
","""event"",""trial"",""time""
""fullscreenenter"",""0"",""9040""
","
","null","<p></p>","null","","","","","","","","","","","","","","","","","","","","","","",""
"","do_trial","184","856105","0.0-102.0-0.0","""event"",""trial"",""time""
""fullscreenenter"",""0"",""9040""
","
","
","""event"",""trial"",""time""
""fullscreenenter"",""0"",""9040""
","
","393.09999999962747","","","","","","","","51","1,0,0","1","highway","46","probe-49","0.3189372146926235","0.4812426985153471","0.12115001673926652","0","","","","","","","",""
"","html-keyboard-response","185","857111","0.0-102.0-1.0","""event"",""trial"",""time""
""fullscreenenter"",""0"",""9040""
","
","
","""event"",""trial"",""time""
""fullscreenenter"",""0"",""9040""
","
","null","<p></p>","null","","","","","","","","","","","","","","","","","","","","","","",""
"","do_trial","186","861978","0.0-103.0-0.0","""event"",""trial"",""time""
""fullscreenenter"",""0"",""9040""
","
","
","""event"",""trial"",""time""
""fullscreenenter"",""0"",""9040""
","
","246.40000000037253","","","","","","","","51","0,0,0","1","highway","47","probe-176","0.44226578727736365","0.43957511883318395","0.07002556031157944","0","","","","","","","",""
"","html-keyboard-response","187","862991","0.0-103.0-1.0","""event"",""trial"",""time""
""fullscreenenter"",""0"",""9040""
","
","
","""event"",""trial"",""time""
""fullscreenenter"",""0"",""9040""
","
","null","<p></p>","null","","","","","","","","","","","","","","","","","","","","","","",""
"","do_trial","188","867842","0.0-104.0-0.0","""event"",""trial"",""time""
""fullscreenenter"",""0"",""9040""
","
","
","""event"",""trial"",""time""
""fullscreenenter"",""0"",""9040""
","
","236.7999999988824","","","","","","","","49","1,0,0","1","highway","48","probe-148","0.29414010392544543","0.3750785009556749","0.06975406944261302","1","","","","","","","",""
"","html-keyboard-response","189","868848","0.0-104.0-1.0","""event"",""trial"",""time""
""fullscreenenter"",""0"",""9040""
","
","
","""event"",""trial"",""time""
""fullscreenenter"",""0"",""9040""
","
","null","<p></p>","null","","","","","","","","","","","","","","","","","","","","","","",""
"","do_trial","190","873790","0.0-105.0-0.0","""event"",""trial"",""time""
""fullscreenenter"",""0"",""9040""
","
","
","""event"",""trial"",""time""
""fullscreenenter"",""0"",""9040""
","
","315.59999999962747","","","","","","","","49","0,1,0","1","highway","49","probe-157","0.3682781839933448","0.46750068371555253","0.10635742249763769","0","","","","","","","",""
"","html-keyboard-response","191","874796","0.0-105.0-1.0","""event"",""trial"",""time""
""fullscreenenter"",""0"",""9040""
","
","
","""event"",""trial"",""time""
""fullscreenenter"",""0"",""9040""
","
","null","<p></p>","null","","","","","","","","","","","","","","","","","","","","","","",""
"","do_trial","192","880437","0.0-106.0-0.0","""event"",""trial"",""time""
""fullscreenenter"",""0"",""9040""
","
","
","""event"",""trial"",""time""
""fullscreenenter"",""0"",""9040""
","
","1026.5","","","","","","","","49","1,1,0","1","highway","50","probe-163","0.4337086410793401","0.5408171080995059","0.23083951593849888","1","","","","","","","",""
"","html-keyboard-response","193","881443","0.0-106.0-1.0","""event"",""trial"",""time""
""fullscreenenter"",""0"",""9040""
","
","
","""event"",""trial"",""time""
""fullscreenenter"",""0"",""9040""
","
","null","<p></p>","null","","","","","","","","","","","","","","","","","","","","","","",""
"","do_trial","194","887526","0.0-107.0-0.0","""event"",""trial"",""time""
""fullscreenenter"",""0"",""9040""
","
","
","""event"",""trial"",""time""
""fullscreenenter"",""0"",""9040""
","
","1461.6000000014901","","","","","","","","49","0,0,0","1","highway","51","probe-194","0.327806212456957","0.5822080744050208","0.2936291245629792","0","","","","","","","",""
"","html-keyboard-response","195","888531","0.0-107.0-1.0","""event"",""trial"",""time""
""fullscreenenter"",""0"",""9040""
","
","
","""event"",""trial"",""time""
""fullscreenenter"",""0"",""9040""
","
","null","<p></p>","null","","","","","","","","","","","","","","","","","","","","","","",""
"","do_trial","196","893786","0.0-108.0-0.0","""event"",""trial"",""time""
""fullscreenenter"",""0"",""9040""
","
","
","""event"",""trial"",""time""
""fullscreenenter"",""0"",""9040""
","
","634.8999999985099","","","","","","","","49","1,1,0","1","highway","52","probe-209","0.25649061037919146","0.5172342163411495","0.17390542515620014","1","","","","","","","",""
"","html-keyboard-response","197","894792","0.0-108.0-1.0","""event"",""trial"",""time""
""fullscreenenter"",""0"",""9040""
","
","
","""event"",""trial"",""time""
""fullscreenenter"",""0"",""9040""
","
","null","<p></p>","null","","","","","","","","","","","","","","","","","","","","","","",""
"","do_trial","198","899878","0.0-109.0-0.0","""event"",""trial"",""time""
""fullscreenenter"",""0"",""9040""
","
","
","""event"",""trial"",""time""
""fullscreenenter"",""0"",""9040""
","
","471.30000000074506","","","","","","","","49","0,1,0","1","highway","53","probe-228","0.29329194089437177","0.7248530224122811","0.11065712295292066","0","","","","","","","",""
"","html-keyboard-response","199","900884","0.0-109.0-1.0","""event"",""trial"",""time""
""fullscreenenter"",""0"",""9040""
","
","
","""event"",""trial"",""time""
""fullscreenenter"",""0"",""9040""
","
","null","<p></p>","null","","","","","","","","","","","","","","","","","","","","","","",""
"","do_trial","200","905864","0.0-110.0-0.0","""event"",""trial"",""time""
""fullscreenenter"",""0"",""9040""
","
","
","""event"",""trial"",""time""
""fullscreenenter"",""0"",""9040""
","
","359.2999999988824","","","","","","","","49","0,0,0","1","highway","54","probe-99","0.3112407796767868","0.5632447567107866","0.09772290677145808","0","","","","","","","",""
"","html-keyboard-response","201","906870","0.0-110.0-1.0","""event"",""trial"",""time""
""fullscreenenter"",""0"",""9040""
","
","
","""event"",""trial"",""time""
""fullscreenenter"",""0"",""9040""
","
","null","<p></p>","null","","","","","","","","","","","","","","","","","","","","","","",""
"","do_trial","202","912250","0.0-111.0-0.0","""event"",""trial"",""time""
""fullscreenenter"",""0"",""9040""
","
","
","""event"",""trial"",""time""
""fullscreenenter"",""0"",""9040""
","
","761.1999999992549","","","","","","","","49","0,0,0","1","highway","55","probe-27","0.29854142819968627","0.7266945895564939","0.14211679881144038","0","","","","","","","",""
"","html-keyboard-response","203","913256","0.0-111.0-1.0","""event"",""trial"",""time""
""fullscreenenter"",""0"",""9040""
","
","
","""event"",""trial"",""time""
""fullscreenenter"",""0"",""9040""
","
","null","<p></p>","null","","","","","","","","","","","","","","","","","","","","","","",""
"","do_trial","204","918084","0.0-112.0-0.0","""event"",""trial"",""time""
""fullscreenenter"",""0"",""9040""
","
","
","""event"",""trial"",""time""
""fullscreenenter"",""0"",""9040""
","
","204.60000000149012","","","","","","","","50","0,1,0","1","highway","56","probe-78","0.3105510913157649","0.6040445551297351","0.14202089124216535","1","","","","","","","",""
"","html-keyboard-response","205","919090","0.0-112.0-1.0","""event"",""trial"",""time""
""fullscreenenter"",""0"",""9040""
","
","
","""event"",""trial"",""time""
""fullscreenenter"",""0"",""9040""
","
","null","<p></p>","null","","","","","","","","","","","","","","","","","","","","","","",""
"","do_trial","206","923963","0.0-113.0-0.0","""event"",""trial"",""time""
""fullscreenenter"",""0"",""9040""
","
","
","""event"",""trial"",""time""
""fullscreenenter"",""0"",""9040""
","
","258.90000000037253","","","","","","","","50","0,0,0","1","highway","57","probe-70","0.20252544999716002","0.6853289943302434","0.11546377434200678","0","","","","","","","",""
"","html-keyboard-response","207","924969","0.0-113.0-1.0","""event"",""trial"",""time""
""fullscreenenter"",""0"",""9040""
","
","
","""event"",""trial"",""time""
""fullscreenenter"",""0"",""9040""
","
","null","<p></p>","null","","","","","","","","","","","","","","","","","","","","","","",""
"","do_trial","208","929759","0.0-114.0-0.0","""event"",""trial"",""time""
""fullscreenenter"",""0"",""9040""
","
","
","""event"",""trial"",""time""
""fullscreenenter"",""0"",""9040""
","
","174.30000000074506","","","","","","","","51","1,1,0","1","highway","58","probe-202","0.3545554059059793","0.6525673269659578","0.09307368028149096","0","","","","","","","",""
"","html-keyboard-response","209","930764","0.0-114.0-1.0","""event"",""trial"",""time""
""fullscreenenter"",""0"",""9040""
","
","
","""event"",""trial"",""time""
""fullscreenenter"",""0"",""9040""
","
","null","<p></p>","null","","","","","","","","","","","","","","","","","","","","","","",""
"","do_trial","210","936191","0.0-115.0-0.0","""event"",""trial"",""time""
""fullscreenenter"",""0"",""9040""
","
","
","""event"",""trial"",""time""
""fullscreenenter"",""0"",""9040""
","
","813.3000000007451","","","","","","","","51","1,0,0","1","highway","59","probe-50","0.4082710890584474","0.6550540997605755","0.07705827825599276","0","","","","","","","",""
"","html-keyboard-response","211","937196","0.0-115.0-1.0","""event"",""trial"",""time""
""fullscreenenter"",""0"",""9040""
","
","
","""event"",""trial"",""time""
""fullscreenenter"",""0"",""9040""
","
","null","<p></p>","null","","","","","","","","","","","","","","","","","","","","","","",""
"","do_trial","212","942268","0.0-116.0-0.0","""event"",""trial"",""time""
""fullscreenenter"",""0"",""9040""
","
","
","""event"",""trial"",""time""
""fullscreenenter"",""0"",""9040""
","
","455.59999999962747","","","","","","","","50","1,1,1","1","highway","60","probe-213","0.41247823394891664","0.7655666521980394","0.11296913199991324","1","","","","","","","",""
"","html-keyboard-response","213","943274","0.0-116.0-1.0","""event"",""trial"",""time""
""fullscreenenter"",""0"",""9040""
","
","
","""event"",""trial"",""time""
""fullscreenenter"",""0"",""9040""
","
","null","<p></p>","null","","","","","","","","","","","","","","","","","","","","","","",""
"","do_trial","214","947951","0.0-117.0-0.0","""event"",""trial"",""time""
""fullscreenenter"",""0"",""9040""
","
","
","""event"",""trial"",""time""
""fullscreenenter"",""0"",""9040""
","
","59.09999999962747","","","","","","","","49","0,1,0","1","highway","61","probe-108","0.39639182070626944","0.5252709751392944","0.2145041092454691","0","","","","","","","",""
"","html-keyboard-response","215","948957","0.0-117.0-1.0","""event"",""trial"",""time""
""fullscreenenter"",""0"",""9040""
","
","
","""event"",""trial"",""time""
""fullscreenenter"",""0"",""9040""
","
","null","<p></p>","null","","","","","","","","","","","","","","","","","","","","","","",""
"","do_trial","216","954047","0.0-118.0-0.0","""event"",""trial"",""time""
""fullscreenenter"",""0"",""9040""
","
","
","""event"",""trial"",""time""
""fullscreenenter"",""0"",""9040""
","
","471.5","","","","","","","","49","1,0,0","1","highway","62","probe-168","0.47459304120644036","0.5826631080707576","0.14274310799114026","1","","","","","","","",""
"","html-keyboard-response","217","955053","0.0-118.0-1.0","""event"",""trial"",""time""
""fullscreenenter"",""0"",""9040""
","
","
","""event"",""trial"",""time""
""fullscreenenter"",""0"",""9040""
","
","null","<p></p>","null","","","","","","","","","","","","","","","","","","","","","","",""
"","do_trial","218","959714","0.0-119.0-0.0","""event"",""trial"",""time""
""fullscreenenter"",""0"",""9040""
","
","
","""event"",""trial"",""time""
""fullscreenenter"",""0"",""9040""
","
","40.80000000074506","","","","","","","","49","1,1,0","1","highway","63","probe-212","0.5150382152149582","0.5386095975679328","0.06450608435229431","1","","","","","","","",""
"","html-keyboard-response","219","960720","0.0-119.0-1.0","""event"",""trial"",""time""
""fullscreenenter"",""0"",""9040""
","
","
","""event"",""trial"",""time""
""fullscreenenter"",""0"",""9040""
","
","null","<p></p>","null","","","","","","","","","","","","","","","","","","","","","","",""
"","do_trial","220","965424","0.0-120.0-0.0","""event"",""trial"",""time""
""fullscreenenter"",""0"",""9040""
","
","
","""event"",""trial"",""time""
""fullscreenenter"",""0"",""9040""
","
","91","","","","","","","","49","1,1,0","1","highway","64","probe-53","0.4436511377033942","0.6355274826148019","0.12772629794444698","1","","","","","","","",""
"","html-keyboard-response","221","966429","0.0-120.0-1.0","""event"",""trial"",""time""
""fullscreenenter"",""0"",""9040""
","
","
","""event"",""trial"",""time""
""fullscreenenter"",""0"",""9040""
","
","null","<p></p>","null","","","","","","","","","","","","","","","","","","","","","","",""
"","do_trial","222","971338","0.0-121.0-0.0","""event"",""trial"",""time""
""fullscreenenter"",""0"",""9040""
","
","
","""event"",""trial"",""time""
""fullscreenenter"",""0"",""9040""
","
","294","","","","","","","","49","0,0,0","1","highway","65","probe-60","0.4097952833588382","0.665375357829173","0.08880970076970048","0","","","","","","","",""
"","html-keyboard-response","223","972344","0.0-121.0-1.0","""event"",""trial"",""time""
""fullscreenenter"",""0"",""9040""
","
","
","""event"",""trial"",""time""
""fullscreenenter"",""0"",""9040""
","
","null","<p></p>","null","","","","","","","","","","","","","","","","","","","","","","",""
"","do_trial","224","977565","0.0-122.0-0.0","""event"",""trial"",""time""
""fullscreenenter"",""0"",""9040""
","
","
","""event"",""trial"",""time""
""fullscreenenter"",""0"",""9040""
","
","603.8000000007451","","","","","","","","49","0,0,0","1","highway","66","probe-62","0.2868605846620326","0.5097663057713073","0.13422600143918512","0","","","","","","","",""
"","html-keyboard-response","225","978571","0.0-122.0-1.0","""event"",""trial"",""time""
""fullscreenenter"",""0"",""9040""
","
","
","""event"",""trial"",""time""
""fullscreenenter"",""0"",""9040""
","
","null","<p></p>","null","","","","","","","","","","","","","","","","","","","","","","",""
"","do_trial","226","983616","0.0-123.0-0.0","""event"",""trial"",""time""
""fullscreenenter"",""0"",""9040""
","
","
","""event"",""trial"",""time""
""fullscreenenter"",""0"",""9040""
","
","425.19999999925494","","","","","","","","49","0,1,0","1","highway","67","probe-217","0.24797309697318703","0.6430467880663895","0.08185115656931383","0","","","","","","","",""
"","html-keyboard-response","227","984621","0.0-123.0-1.0","""event"",""trial"",""time""
""fullscreenenter"",""0"",""9040""
","
","
","""event"",""trial"",""time""
""fullscreenenter"",""0"",""9040""
","
","null","<p></p>","null","","","","","","","","","","","","","","","","","","","","","","",""
"","do_trial","228","989524","0.0-124.0-0.0","""event"",""trial"",""time""
""fullscreenenter"",""0"",""9040""
","
","
","""event"",""trial"",""time""
""fullscreenenter"",""0"",""9040""
","
","284.5","","","","","","","","50","0,1,0","1","highway","68","probe-17","0.3159394002809089","0.6582748114315716","0.09692389352920568","1","","","","","","","",""
"","html-keyboard-response","229","990530","0.0-124.0-1.0","""event"",""trial"",""time""
""fullscreenenter"",""0"",""9040""
","
","
","""event"",""trial"",""time""
""fullscreenenter"",""0"",""9040""
","
","null","<p></p>","null","","","","","","","","","","","","","","","","","","","","","","",""
"","do_trial","230","995612","0.0-125.0-0.0","""event"",""trial"",""time""
""fullscreenenter"",""0"",""9040""
","
","
","""event"",""trial"",""time""
""fullscreenenter"",""0"",""9040""
","
","463.2000000011176","","","","","","","","50","1,1,0","1","highway","69","probe-204","0.4204701379359861","0.6171816173232105","0.1312351670596054","1","","","","","","","",""
"","html-keyboard-response","231","996618","0.0-125.0-1.0","""event"",""trial"",""time""
""fullscreenenter"",""0"",""9040""
","
","
","""event"",""trial"",""time""
""fullscreenenter"",""0"",""9040""
","
","null","<p></p>","null","","","","","","","","","","","","","","","","","","","","","","",""
"","do_bye","232","998132","0.0-126.0-0.0","""event"",""trial"",""time""
""fullscreenenter"",""0"",""9040""
","
","
","""event"",""trial"",""time""
""fullscreenenter"",""0"",""9040""
","
","null","","","","","","","","null","","","","","","","","","","","","","","","","",""
"","break","233","1000172","0.0-126.0-1.0","""event"",""trial"",""time""
""fullscreenenter"",""0"",""9040""
","
","
","""event"",""trial"",""time""
""fullscreenenter"",""0"",""9040""
","
","2034.5999999996275","<div class='center'><p>Time to take a quick break! You have 2 minutes to rest, but you can move on sooner if you'd like.</p><p> Press the <b>space bar</b> to continue.</p></div>","32","","","","","","","","","","","","","","","","","","","","","","",""
"","do_travel","234","1009190","0.0-127.0-0.0","""event"",""trial"",""time""
""fullscreenenter"",""0"",""9040""
","
","
","""event"",""trial"",""time""
""fullscreenenter"",""0"",""9040""
","
","null","","","","","","","","null","","","","","","","","","","","","","","","","",""
"","do_welcome","235","1013217","0.0-127.0-1.0","""event"",""trial"",""time""
""fullscreenenter"",""0"",""9040""
","
","
","""event"",""trial"",""time""
""fullscreenenter"",""0"",""9040""
","
","null","","","","","","","","null","","","","","","","","","","","","","","","","",""
"","do_trial","236","1019510","0.0-128.0-0.0","""event"",""trial"",""time""
""fullscreenenter"",""0"",""9040""
","
","
","""event"",""trial"",""time""
""fullscreenenter"",""0"",""9040""
","
","1669.8999999985099","","","","","","","","49","0,1,0","2","mountain","70","probe-57","0.2941656140296618","1","0.06879795699556614","0","","","","","","","",""
"","html-keyboard-response","237","1020516","0.0-128.0-1.0","""event"",""trial"",""time""
""fullscreenenter"",""0"",""9040""
","
","
","""event"",""trial"",""time""
""fullscreenenter"",""0"",""9040""
","
","null","<p></p>","null","","","","","","","","","","","","","","","","","","","","","","",""
"","do_trial","238","1025494","0.0-129.0-0.0","""event"",""trial"",""time""
""fullscreenenter"",""0"",""9040""
","
","
","""event"",""trial"",""time""
""fullscreenenter"",""0"",""9040""
","
","361.69999999925494","","","","","","","","49","0,1,0","2","mountain","71","probe-26","0.3562145224547586","1","0.10032150758921679","0","","","","","","","",""
"","html-keyboard-response","239","1026500","0.0-129.0-1.0","""event"",""trial"",""time""
""fullscreenenter"",""0"",""9040""
","
","
","""event"",""trial"",""time""
""fullscreenenter"",""0"",""9040""
","
","null","<p></p>","null","","","","","","","","","","","","","","","","","","","","","","",""
"","do_trial","240","1031119","0.0-130.0-0.0","""event"",""trial"",""time""
""fullscreenenter"",""0"",""9040""
","
","
","""event"",""trial"",""time""
""fullscreenenter"",""0"",""9040""
","
","0.30000000074505806","","","","","","","","49","0,1,0","2","mountain","72","probe-76","0.3573163234002158","0.7765983840820817","0.051178196685071606","0","","","","","","","",""
"","html-keyboard-response","241","1032125","0.0-130.0-1.0","""event"",""trial"",""time""
""fullscreenenter"",""0"",""9040""
","
","
","""event"",""trial"",""time""
""fullscreenenter"",""0"",""9040""
","
","null","<p></p>","null","","","","","","","","","","","","","","","","","","","","","","",""
"","do_trial","242","1037042","0.0-131.0-0.0","""event"",""trial"",""time""
""fullscreenenter"",""0"",""9040""
","
","
","""event"",""trial"",""time""
""fullscreenenter"",""0"",""9040""
","
","297.59999999962747","","","","","","","","50","0,1,0","2","mountain","73","probe-82","0.2060614958190955","0.7927091313403791","0.16078089149819985","1","","","","","","","",""
"","html-keyboard-response","243","1038048","0.0-131.0-1.0","""event"",""trial"",""time""
""fullscreenenter"",""0"",""9040""
","
","
","""event"",""trial"",""time""
""fullscreenenter"",""0"",""9040""
","
","null","<p></p>","null","","","","","","","","","","","","","","","","","","","","","","",""
"","do_trial","244","1042992","0.0-132.0-0.0","""event"",""trial"",""time""
""fullscreenenter"",""0"",""9040""
","
","
","""event"",""trial"",""time""
""fullscreenenter"",""0"",""9040""
","
","325.69999999925494","","","","","","","","50","1,1,0","2","mountain","74","probe-142","0.2724271173054319","0.5686430154243702","0.13039939254000937","1","","","","","","","",""
"","html-keyboard-response","245","1043997","0.0-132.0-1.0","""event"",""trial"",""time""
""fullscreenenter"",""0"",""9040""
","
","
","""event"",""trial"",""time""
""fullscreenenter"",""0"",""9040""
","
","null","<p></p>","null","","","","","","","","","","","","","","","","","","","","","","",""
"","do_trial","246","1049332","0.0-133.0-0.0","""event"",""trial"",""time""
""fullscreenenter"",""0"",""9040""
","
","
","""event"",""trial"",""time""
""fullscreenenter"",""0"",""9040""
","
","717","","","","","","","","50","1,1,0","2","mountain","75","probe-02","0.5468580510904408","0.64193529873133","0.1782301631294214","1","","","","","","","",""
"","html-keyboard-response","247","1050337","0.0-133.0-1.0","""event"",""trial"",""time""
""fullscreenenter"",""0"",""9040""
","
","
","""event"",""trial"",""time""
""fullscreenenter"",""0"",""9040""
","
","null","<p></p>","null","","","","","","","","","","","","","","","","","","","","","","",""
"","do_trial","248","1055246","0.0-134.0-0.0","""event"",""trial"",""time""
""fullscreenenter"",""0"",""9040""
","
","
","""event"",""trial"",""time""
""fullscreenenter"",""0"",""9040""
","
","287.40000000037253","","","","","","","","50","1,0,0","2","mountain","76","probe-146","0.4926779202060558","0.7667901010606252","0.10170937470010002","0","","","","","","","",""
"","html-keyboard-response","249","1056252","0.0-134.0-1.0","""event"",""trial"",""time""
""fullscreenenter"",""0"",""9040""
","
","
","""event"",""trial"",""time""
""fullscreenenter"",""0"",""9040""
","
","null","<p></p>","null","","","","","","","","","","","","","","","","","","","","","","",""
"","do_trial","250","1060874","0.0-135.0-0.0","""event"",""trial"",""time""
""fullscreenenter"",""0"",""9040""
","
","
","""event"",""trial"",""time""
""fullscreenenter"",""0"",""9040""
","
","5","","","","","","","","50","0,0,0","2","mountain","77","probe-05","0.36982823185080366","0.7210953406542933","0.09003978719732021","0","","","","","","","",""
"","html-keyboard-response","251","1061880","0.0-135.0-1.0","""event"",""trial"",""time""
""fullscreenenter"",""0"",""9040""
","
","
","""event"",""trial"",""time""
""fullscreenenter"",""0"",""9040""
","
","null","<p></p>","null","","","","","","","","","","","","","","","","","","","","","","",""
"","do_trial","252","1066621","0.0-136.0-0.0","""event"",""trial"",""time""
""fullscreenenter"",""0"",""9040""
","
","
","""event"",""trial"",""time""
""fullscreenenter"",""0"",""9040""
","
","121","","","","","","","","51","1,0,0","2","mountain","78","probe-151","0.3425229297687564","0.5222644086868679","0.13980413709416512","0","","","","","","","",""
"","html-keyboard-response","253","1067626","0.0-136.0-1.0","""event"",""trial"",""time""
""fullscreenenter"",""0"",""9040""
","
","
","""event"",""trial"",""time""
""fullscreenenter"",""0"",""9040""
","
","null","<p></p>","null","","","","","","","","","","","","","","","","","","","","","","",""
"","do_trial","254","1072473","0.0-137.0-0.0","""event"",""trial"",""time""
""fullscreenenter"",""0"",""9040""
","
","
","""event"",""trial"",""time""
""fullscreenenter"",""0"",""9040""
","
","229.69999999925494","","","","","","","","51","0,0,1","2","mountain","79","probe-193","0.3263974659689448","0.4493860898233984","0.09009653680677382","1","","","","","","","",""
"","html-keyboard-response","255","1073479","0.0-137.0-1.0","""event"",""trial"",""time""
""fullscreenenter"",""0"",""9040""
","
","
","""event"",""trial"",""time""
""fullscreenenter"",""0"",""9040""
","
","null","<p></p>","null","","","","","","","","","","","","","","","","","","","","","","",""
"","do_trial","256","1078672","0.0-138.0-0.0","""event"",""trial"",""time""
""fullscreenenter"",""0"",""9040""
","
","
","""event"",""trial"",""time""
""fullscreenenter"",""0"",""9040""
","
","575.3000000007451","","","","","","","","51","0,1,0","2","mountain","80","probe-161","0.35248901411060396","0.4127557682758325","0.16632515897036976","0","","","","","","","",""
"","html-keyboard-response","257","1079677","0.0-138.0-1.0","""event"",""trial"",""time""
""fullscreenenter"",""0"",""9040""
","
","
","""event"",""trial"",""time""
""fullscreenenter"",""0"",""9040""
","
","null","<p></p>","null","","","","","","","","","","","","","","","","","","","","","","",""
"","do_trial","258","1084954","0.0-139.0-0.0","""event"",""trial"",""time""
""fullscreenenter"",""0"",""9040""
","
","
","""event"",""trial"",""time""
""fullscreenenter"",""0"",""9040""
","
","651.4000000003725","","","","","","","","50","0,1,0","2","mountain","81","probe-131","0.34337230455083545","0.5697919994820577","0.15586803520830417","1","","","","","","","",""
"","html-keyboard-response","259","1085960","0.0-139.0-1.0","""event"",""trial"",""time""
""fullscreenenter"",""0"",""9040""
","
","
","""event"",""trial"",""time""
""fullscreenenter"",""0"",""9040""
","
","null","<p></p>","null","","","","","","","","","","","","","","","","","","","","","","",""
"","do_trial","260","1090999","0.0-140.0-0.0","""event"",""trial"",""time""
""fullscreenenter"",""0"",""9040""
","
","
","""event"",""trial"",""time""
""fullscreenenter"",""0"",""9040""
","
","416.7999999988824","","","","","","","","50","0,1,0","2","mountain","82","probe-207","0.48090639631936527","0.6591929357333162","0.11111151370016177","1","","","","","","","",""
"","html-keyboard-response","261","1092005","0.0-140.0-1.0","""event"",""trial"",""time""
""fullscreenenter"",""0"",""9040""
","
","
","""event"",""trial"",""time""
""fullscreenenter"",""0"",""9040""
","
