"success","trial_type","trial_index","time_elapsed","internal_node_id","interactions","blur_events","focus_events","fullscreenenter_events","fullscreenexit_events","rt","stimulus","key_press","subject_id","participant_id","age","gender","prompt","response","choice_outcomes","context_n","context_img_id","trial_n","probe_img_id","pR_red","pR_white","pR_black","outcome","contextArray_ind","validImageProbes","invalidImageProbes","pRew_Red","pRew_White","pRew_Black","availableForMemProbe","choice_blocks"
"true","fullscreen","0","5056","0.0-0.0","""event"",""trial"",""time""
""fullscreenenter"",""0"",""4061""
","
","
","""event"",""trial"",""time""
""fullscreenenter"",""0"",""4061""
","
","","","","","","","","","","","","","","","","","","","","","","","","","",""
"","pavlovia","1","5065","0.0-1.0","""event"",""trial"",""time""
""fullscreenenter"",""0"",""4061""
","
","
","""event"",""trial"",""time""
""fullscreenenter"",""0"",""4061""
","
","","","","","","","","","","","","","","","","","","","","","","","","","",""
"","instruc1","2","50230","0.0-2.0","""event"",""trial"",""time""
""fullscreenenter"",""0"",""4061""
","
","
","""event"",""trial"",""time""
""fullscreenenter"",""0"",""4061""
","
","null","run_exp/static/audio/clip_1_welcome.m4a","null","230","625","10","Male","<div class='center'><p>Welcome! This is the first part of the study. It will last ~30 minutes. In part 1 and part 2 of the study, you are the head captain of a pirate ship traveling around the world to different islands. You will play a few different games throughout these two parts. Here is an overview of them:</p><br><p>Part 1 (today)</p><p>1. Instructions, practice game, and quiz</p><p>2. Pick a pirate game on 6 different islands</p><br><p>Part 2 (tomorrow)</p><p>3. Pick a pirate game and memory game</p><p>4. Where did you see this ship? </p></div>","","","","","","","","","","","","","","","","","",""
"","html-keyboard-response","3","51204","0.0-3.0","""event"",""trial"",""time""
""fullscreenenter"",""0"",""4061""
","
","
","""event"",""trial"",""time""
""fullscreenenter"",""0"",""4061""
","
","970.6999999880791","<div class='center'><p>Welcome! This is the first part of the study. It will last ~30 minutes. In part 1 and part 2 of the study, you are the head captain of a pirate ship traveling around the world to different islands. You will play a few different games throughout these two parts. Here is an overview of them:</p><br><p>Part 1 (today)</p><p>1. Instructions, practice game, and quiz</p><p>2. Pick a pirate game on 6 different islands</p><br><p>Part 2 (tomorrow)</p><p>3. Pick a pirate game and memory game</p><p>4. Where did you see this ship? </p><p><b>[Press the space bar to continue]</b></p></div>","32","","","","","","","","","","","","","","","","","","","","","","",""
"","instruc2","4","56529","0.0-4.0","""event"",""trial"",""time""
""fullscreenenter"",""0"",""4061""
","
","
","""event"",""trial"",""time""
""fullscreenenter"",""0"",""4061""
","
","null","run_exp/static/audio/clip_2_different_places.m4a","null","","","","","<div class='center'><p>Today, you’ll visit these 6 islands on your journey. You'll be able to see these islands from your ship.</p><p><img src='run_exp/static/images/contexts/all_contexts.png' height='500'></p></div>","","","","","","","","","","","","","","","","","",""
"","html-keyboard-response","5","57238","0.0-5.0","""event"",""trial"",""time""
""fullscreenenter"",""0"",""4061""
","
","
","""event"",""trial"",""time""
""fullscreenenter"",""0"",""4061""
","
","706","<div class='center'><p>Today, you’ll visit these 6 islands on your journey. You'll be able to see these islands from your ship.</p><p><img src='run_exp/static/images/contexts/all_contexts.png' height='500'></p><p><b>[Press the space bar to continue]</b></p></div>","32","","","","","","","","","","","","","","","","","","","","","","",""
"","instruc3","6","66949","0.0-6.0","""event"",""trial"",""time""
""fullscreenenter"",""0"",""4061""
","
","
","""event"",""trial"",""time""
""fullscreenenter"",""0"",""4061""
","
","null","run_exp/static/audio/clip_3_goal_of_game_1.m4a","null","","","","","<div class='center'><p> The pirates on your ship will rob other ships as they leave the island.</p> These ships have just sold their goods to the islanders, so they will be filled with lots and lots of gold.</p><p><img src='run_exp/static/images/tutorial/ship_center.png' height='400'></p></div>","","","","","","","","","","","","","","","","","",""
"","html-keyboard-response","7","68451","0.0-7.0","""event"",""trial"",""time""
""fullscreenenter"",""0"",""4061""
","
","
","""event"",""trial"",""time""
""fullscreenenter"",""0"",""4061""
","
","1498.7999999523163","<div class='center'><p> The pirates on your ship will rob other ships as they leave the island.</p> These ships have just sold their goods to the islanders, so they will be filled with lots and lots of gold.</p><p><img src='run_exp/static/images/tutorial/ship_center.png' height='400'></p><p><b>[Press the space bar to continue]</b></p></div>","32","","","","","","","","","","","","","","","","","","","","","","",""
"","instruc4","8","96449","0.0-8.0","""event"",""trial"",""time""
""fullscreenenter"",""0"",""4061""
","
","
","""event"",""trial"",""time""
""fullscreenenter"",""0"",""4061""
","
","null","run_exp/static/audio/clip_4_goal_of_game_2.m4a","null","","","","","<div class='center'><p>As the head captain, you do not have to rob any ships yourself. Another pirate will be doing the robbing for you. First, you will choose a pirate to rob the next ship.</p><p><img src='run_exp/static/images/tutorial/pirates_all_crop.png' height='200'></p><p>Then, you'll see if the pirate successfully robbed the ship of their gold. If they were successful, then you'll get a stack of gold coins like this:</p><p><img src='run_exp/static/images/tutorial/reward.png' height='150'></p><p> If they were <b>not</b> successful, then you'll get no gold coins, and you'll see a big red x like this: </p><p><img src='run_exp/static/images/tutorial/reward_no.png' height='150'></p><p> How much bonus money you make is based on how many gold coins you collect.</p><div>","","","","","","","","","","","","","","","","","",""
"","html-keyboard-response","9","97072","0.0-9.0","""event"",""trial"",""time""
""fullscreenenter"",""0"",""4061""
","
","
","""event"",""trial"",""time""
""fullscreenenter"",""0"",""4061""
","
","619.0999999642372","<div class='center'><p>As the head captain, you do not have to rob any ships yourself. Another pirate will be doing the robbing for you. First, you will choose a pirate to rob the next ship.</p><p><img src='run_exp/static/images/tutorial/pirates_all_crop.png' height='200'></p><p>Then, you'll see if the pirate successfully robbed the ship of their gold. If they were successful, then you'll get a stack of gold coins like this:</p><p><img src='run_exp/static/images/tutorial/reward.png' height='150'></p><p> If they were <b>not</b> successful, then you'll get no gold coins, and you'll see a big red x like this: </p><p><img src='run_exp/static/images/tutorial/reward_no.png' height='150'></p><p> How much bonus money you make is based on how many gold coins you collect.</p<p><b>[Press the space bar to continue]</b></p></div>","32","","","","","","","","","","","","","","","","","","","","","","",""
"","instruc5","10","109227","0.0-10.0","""event"",""trial"",""time""
""fullscreenenter"",""0"",""4061""
","
","
","""event"",""trial"",""time""
""fullscreenenter"",""0"",""4061""
","
","12151.699999988079","run_exp/static/audio/clip_5_probabilistic.m4a","49","","","","","<div class='center'><p>Even the most skilled pirate can not rob EVERY ship.</p><p> Some ships will have very strong protections against pirate attacks.</p><p> Blue beard, here, is very, very good at robbing ships, but he won't be successful every time he tries to rob one.</p><p> You can press the <b>‘1’</b> key on the keyboard to choose him.</p><p> Try choosing him 10 times to see how often he succeeds at robbing a ship. </p><p><img src='run_exp/static/images/tutorial/blue.png' height='500'></p></div>","","","","","","","","","","","","","","","","","",""
"","html-keyboard-response","11","110732","0.0-11.0","""event"",""trial"",""time""
""fullscreenenter"",""0"",""4061""
","
","
","""event"",""trial"",""time""
""fullscreenenter"",""0"",""4061""
","
","null","<div class='center'><p><img src='run_exp/static/images/tutorial/blue_win.png' height='500'></p></div>","null","","","","","","","","","","","","","","","","","","","","","","",""
"","html-keyboard-response","12","111431","0.0-12.0","""event"",""trial"",""time""
""fullscreenenter"",""0"",""4061""
","
","
","""event"",""trial"",""time""
""fullscreenenter"",""0"",""4061""
","
","696.8999999761581","<div class='center'><img src='run_exp/static/images/tutorial/blue.png' height='500'></p></div>","49","","","","","","","","","","","","","","","","","","","","","","",""
"","html-keyboard-response","13","112939","0.0-13.0","""event"",""trial"",""time""
""fullscreenenter"",""0"",""4061""
","
","
","""event"",""trial"",""time""
""fullscreenenter"",""0"",""4061""
","
","null","<div class='center'><p><img src='run_exp/static/images/tutorial/blue_win.png' height='500'></p></div>","null","","","","","","","","","","","","","","","","","","","","","","",""
"","html-keyboard-response","14","113228","0.0-14.0","""event"",""trial"",""time""
""fullscreenenter"",""0"",""4061""
","
","
","""event"",""trial"",""time""
""fullscreenenter"",""0"",""4061""
","
","286.60000002384186","<div class='center'><img src='run_exp/static/images/tutorial/blue.png' height='500'></p></div>","49","","","","","","","","","","","","","","","","","","","","","","",""
"","html-keyboard-response","15","114739","0.0-15.0","""event"",""trial"",""time""
""fullscreenenter"",""0"",""4061""
","
","
","""event"",""trial"",""time""
""fullscreenenter"",""0"",""4061""
","
","null","<div class='center'><p><img src='run_exp/static/images/tutorial/blue_win.png' height='500'></p></div>","null","","","","","","","","","","","","","","","","","","","","","","",""
"","html-keyboard-response","16","115299","0.0-16.0","""event"",""trial"",""time""
""fullscreenenter"",""0"",""4061""
","
","
","""event"",""trial"",""time""
""fullscreenenter"",""0"",""4061""
","
","558.1000000238419","<div class='center'><img src='run_exp/static/images/tutorial/blue.png' height='500'></p></div>","49","","","","","","","","","","","","","","","","","","","","","","",""
"","html-keyboard-response","17","116805","0.0-17.0","""event"",""trial"",""time""
""fullscreenenter"",""0"",""4061""
","
","
","""event"",""trial"",""time""
""fullscreenenter"",""0"",""4061""
","
","null","<div class='center'><p><img src='run_exp/static/images/tutorial/blue_no_win.png' height='500'></p></div>","null","","","","","","","","","","","","","","","","","","","","","","",""
"","html-keyboard-response","18","117225","0.0-18.0","""event"",""trial"",""time""
""fullscreenenter"",""0"",""4061""
","
","
","""event"",""trial"",""time""
""fullscreenenter"",""0"",""4061""
","
","417.4000000357628","<div class='center'><img src='run_exp/static/images/tutorial/blue.png' height='500'></p></div>","49","","","","","","","","","","","","","","","","","","","","","","",""
"","html-keyboard-response","19","118734","0.0-19.0","""event"",""trial"",""time""
""fullscreenenter"",""0"",""4061""
","
","
","""event"",""trial"",""time""
""fullscreenenter"",""0"",""4061""
","
","null","<div class='center'><p><img src='run_exp/static/images/tutorial/blue_win.png' height='500'></p></div>","null","","","","","","","","","","","","","","","","","","","","","","",""
"","html-keyboard-response","20","119224","0.0-20.0","""event"",""trial"",""time""
""fullscreenenter"",""0"",""4061""
","
","
","""event"",""trial"",""time""
""fullscreenenter"",""0"",""4061""
","
","487.89999997615814","<div class='center'><img src='run_exp/static/images/tutorial/blue.png' height='500'></p></div>","49","","","","","","","","","","","","","","","","","","","","","","",""
"","html-keyboard-response","21","120736","0.0-21.0","""event"",""trial"",""time""
""fullscreenenter"",""0"",""4061""
","
","
","""event"",""trial"",""time""
""fullscreenenter"",""0"",""4061""
","
","null","<div class='center'><p><img src='run_exp/static/images/tutorial/blue_win.png' height='500'></p></div>","null","","","","","","","","","","","","","","","","","","","","","","",""
"","html-keyboard-response","22","121035","0.0-22.0","""event"",""trial"",""time""
""fullscreenenter"",""0"",""4061""
","
","
","""event"",""trial"",""time""
""fullscreenenter"",""0"",""4061""
","
","296.7000000476837","<div class='center'><img src='run_exp/static/images/tutorial/blue.png' height='500'></p></div>","49","","","","","","","","","","","","","","","","","","","","","","",""
"","html-keyboard-response","23","122537","0.0-23.0","""event"",""trial"",""time""
""fullscreenenter"",""0"",""4061""
","
","
","""event"",""trial"",""time""
""fullscreenenter"",""0"",""4061""
","
","null","<div class='center'><p><img src='run_exp/static/images/tutorial/blue_win.png' height='500'></p></div>","null","","","","","","","","","","","","","","","","","","","","","","",""
"","html-keyboard-response","24","122848","0.0-24.0","""event"",""trial"",""time""
""fullscreenenter"",""0"",""4061""
","
","
","""event"",""trial"",""time""
""fullscreenenter"",""0"",""4061""
","
","309.60000002384186","<div class='center'><img src='run_exp/static/images/tutorial/blue.png' height='500'></p></div>","49","","","","","","","","","","","","","","","","","","","","","","",""
"","html-keyboard-response","25","124361","0.0-25.0","""event"",""trial"",""time""
""fullscreenenter"",""0"",""4061""
","
","
","""event"",""trial"",""time""
""fullscreenenter"",""0"",""4061""
","
","null","<div class='center'><p><img src='run_exp/static/images/tutorial/blue_no_win.png' height='500'></p></div>","null","","","","","","","","","","","","","","","","","","","","","","",""
"","html-keyboard-response","26","124676","0.0-26.0","""event"",""trial"",""time""
""fullscreenenter"",""0"",""4061""
","
","
","""event"",""trial"",""time""
""fullscreenenter"",""0"",""4061""
","
","313","<div class='center'><img src='run_exp/static/images/tutorial/blue.png' height='500'></p></div>","49","","","","","","","","","","","","","","","","","","","","","","",""
"","html-keyboard-response","27","126180","0.0-27.0","""event"",""trial"",""time""
""fullscreenenter"",""0"",""4061""
","
","
","""event"",""trial"",""time""
""fullscreenenter"",""0"",""4061""
","
","null","<div class='center'><p><img src='run_exp/static/images/tutorial/blue_win.png' height='500'></p></div>","null","","","","","","","","","","","","","","","","","","","","","","",""
"","html-keyboard-response","28","126633","0.0-28.0","""event"",""trial"",""time""
""fullscreenenter"",""0"",""4061""
","
","
","""event"",""trial"",""time""
""fullscreenenter"",""0"",""4061""
","
","450.39999997615814","<div class='center'><img src='run_exp/static/images/tutorial/blue.png' height='500'></p></div>","49","","","","","","","","","","","","","","","","","","","","","","",""
"","html-keyboard-response","29","128137","0.0-29.0","""event"",""trial"",""time""
""fullscreenenter"",""0"",""4061""
","
","
","""event"",""trial"",""time""
""fullscreenenter"",""0"",""4061""
","
","null","<div class='center'><p><img src='run_exp/static/images/tutorial/blue_win.png' height='500'></p></div>","null","","","","","","","","","","","","","","","","","","","","","","",""
"","instruc6","30","133587","0.0-30.0","""event"",""trial"",""time""
""fullscreenenter"",""0"",""4061""
","
","
","""event"",""trial"",""time""
""fullscreenenter"",""0"",""4061""
","
","null","run_exp/static/audio/clip_6_blue_beard_outcome.m4a","null","","","","","<div class='center'><p> See, he succeeded in robbing the ships most of the time but not every time. </p></div>","","","","","","","","","","","","","","","","","",""
"","html-keyboard-response","31","134262","0.0-31.0","""event"",""trial"",""time""
""fullscreenenter"",""0"",""4061""
","
","
","""event"",""trial"",""time""
""fullscreenenter"",""0"",""4061""
","
","672.5","<div class='center'><p> See, he succeeded in robbing the ships most of the time but not every time. </p><p><b>[Press the space bar to continue]</b></p></div>","32","","","","","","","","","","","","","","","","","","","","","","",""
"","audio-keyboard-response","32","137571","0.0-32.0","""event"",""trial"",""time""
""fullscreenenter"",""0"",""4061""
","
","
","""event"",""trial"",""time""
""fullscreenenter"",""0"",""4061""
","
","3306","run_exp/static/audio/clip_7_pick_pirate.m4a","50","","","","","","","","","","","","","","","","","","","","","","",""
"","audio-keyboard-response","33","140190","0.0-33.0-0.0","""event"",""trial"",""time""
""fullscreenenter"",""0"",""4061""
","
","
","""event"",""trial"",""time""
""fullscreenenter"",""0"",""4061""
","
","2615.800000011921","run_exp/static/audio/clip_8_chosen_pirate_win.m4a","32","","","","","","","","","","","","","","","","","","","","","","",""
"","audio-keyboard-response","34","140682","0.0-33.0-1.0","""event"",""trial"",""time""
""fullscreenenter"",""0"",""4061""
","
","
","""event"",""trial"",""time""
""fullscreenenter"",""0"",""4061""
","
","489.10000002384186","run_exp/static/audio/clip_9_pick_a_pirate_again.m4a","49","","","","","","","","","","","","","","","","","","","","","","",""
"","audio-keyboard-response","35","141912","0.0-34.0-0.0","""event"",""trial"",""time""
""fullscreenenter"",""0"",""4061""
","
","
","""event"",""trial"",""time""
""fullscreenenter"",""0"",""4061""
","
","1225.300000011921","run_exp/static/audio/clip_10_chosen_pirate_loss.m4a","32","","","","","","","","","","","","","","","","","","","","","","",""
"","instruc9","36","147427","0.0-35.0-0.0","""event"",""trial"",""time""
""fullscreenenter"",""0"",""4061""
","
","
","""event"",""trial"",""time""
""fullscreenenter"",""0"",""4061""
","
","null","run_exp/static/audio/clip_11_time_out.m4a","null","","","","","<div class='center'><p>If you don’t make your choice fast enough, you’ll have to wait a few seconds before you can make another one. </p><p><img src='run_exp/static/images/miscellaneous/hurry_up.png' height='500'></p></div>","","","","","","","","","","","","","","","","","",""
"","html-keyboard-response","37","148266","0.0-35.0-1.0","""event"",""trial"",""time""
""fullscreenenter"",""0"",""4061""
","
","
","""event"",""trial"",""time""
""fullscreenenter"",""0"",""4061""
","
","836.1000000238419","<div class='center'><p>If you don’t make your choice fast enough, you’ll have to wait a few seconds before you can make another one. </p><p><img src='run_exp/static/images/miscellaneous/hurry_up.png' height='500'></p><p><b>[Press the space bar to continue]</b></p></div>","32","","","","","","","","","","","","","","","","","","","","","","",""
"","instruc10","38","187387","0.0-35.0-2.0","""event"",""trial"",""time""
""fullscreenenter"",""0"",""4061""
","
","
","""event"",""trial"",""time""
""fullscreenenter"",""0"",""4061""
","
","null","run_exp/static/audio/clip_12_probe.m4a","null","","","","","<div class='center'><p>Once you've chosen a pirate, you’ll be shown the ship they are robbing. You will never rob the same ship twice. Ships can be told apart from one another by the image on them. These are the goods that they sell. See, this ship has a travel mug on it. </p><p> You’ll have to remember which island you saw each ship on. You will win more gold coins and hence more bonus money if you remember correctly! To help you remember, you can imagine a story. For example, here, you could imagine a mug full of water in the desert. Or, as another example, if on the forest island, your pirate robbed a ship with an apple on it, you could imagine an apple falling from a tree in the forest. </p><p><img src='run_exp/static/images/tutorial/example_probe.png' height='500'></p></div>","","","","","","","","","","","","","","","","","",""
"","html-keyboard-response","39","188334","0.0-35.0-3.0","""event"",""trial"",""time""
""fullscreenenter"",""0"",""4061""
","
","
","""event"",""trial"",""time""
""fullscreenenter"",""0"",""4061""
","
","944.3999999761581","<div class='center'><p>Once you've chosen a pirate, you’ll be shown the ship they are robbing. You will never rob the same ship twice. Ships can be told apart from one another by the image on them. These are the goods that they sell. See, this ship has a travel mug on it. </p><p> You’ll have to remember which island you saw each ship on. You will win more gold coins and hence more bonus money if you remember correctly! To help you remember, you can imagine a story. For example, here, you could imagine a mug full of water in the desert. Or, as another example, if on the forest island, your pirate robbed a ship with an apple on it, you could imagine an apple falling from a tree in the forest. </p><p><img src='run_exp/static/images/tutorial/example_probe.png' height='500'></p><p><b>[Press the space bar to continue]</b></p></div>","32","","","","","","","","","","","","","","","","","","","","","","",""
"","instruc11","40","204767","0.0-35.0-4.0","""event"",""trial"",""time""
""fullscreenenter"",""0"",""4061""
","
","
","""event"",""trial"",""time""
""fullscreenenter"",""0"",""4061""
","
","null","run_exp/static/audio/clip_13_changepoint.m4a","null","","","","","<div class='center'><p>How successful a pirate is at robbing ships will depend on the island you’re on.</p><p> A pirate may have visited this island many times before and gained a lot of practice robbing ships there.</p><p>So, they’re more likely to be successful than a pirate who has never visited the island before.</p></div>","","","","","","","","","","","","","","","","","",""
"","html-keyboard-response","41","205770","0.0-35.0-5.0","""event"",""trial"",""time""
""fullscreenenter"",""0"",""4061""
","
","
","""event"",""trial"",""time""
""fullscreenenter"",""0"",""4061""
","
","1000.4000000357628","<div class='center'><p>How successful a pirate is at robbing ships will depend on the island you’re on.</p><p> A pirate may have visited this island many times before and gained a lot of practice robbing ships there.</p><p>So, they’re more likely to be successful than a pirate who has never visited the island before.</p><p><b>[Press the space bar to continue]</b></p></div>","32","","","","","","","","","","","","","","","","","","","","","","",""
"","instruc12","42","246887","0.0-35.0-6.0","""event"",""trial"",""time""
""fullscreenenter"",""0"",""4061""
","
","
","""event"",""trial"",""time""
""fullscreenenter"",""0"",""4061""
","
","null","run_exp/static/audio/clip_14_drift.m4a","null","","","","","<div class='center'><p>How successful a pirate is at robbing ships can also change over the time spent on the island. </p><p> Ships may hear from islanders about the pirates coming and will improve their protections against the attack. This may make it harder to rob them.</p><p> Ships may also become lazy and weaken the strength of their protections. This may make it easier to rob them.</p><br><p>Things are always changing on the high seas! So, try your best to pay attention!</p><p><img src='run_exp/static/images/tutorial/contingency.png' height='500'></p></div>","","","","","","","","","","","","","","","","","",""
"","html-keyboard-response","43","247370","0.0-35.0-7.0","""event"",""trial"",""time""
""fullscreenenter"",""0"",""4061""
","
","
","""event"",""trial"",""time""
""fullscreenenter"",""0"",""4061""
","
","479.89999997615814","<div class='center'><p>How successful a pirate is at robbing ships can also change over the time spent on the island. </p><p> Ships may hear from islanders about the pirates coming and will improve their protections against the attack. This may make it harder to rob them.</p><p> Ships may also become lazy and weaken the strength of their protections. This may make it easier to rob them.</p><br><p>Things are always changing on the high seas! So, try your best to pay attention!</p><p><img src='run_exp/static/images/tutorial/contingency.png' height='500'></p><p><b>[Press the space bar to continue]</b></p></div>","32","","","","","","","","","","","","","","","","","","","","","","",""
"","instruc13","44","282586","0.0-35.0-8.0","""event"",""trial"",""time""
""fullscreenenter"",""0"",""4061""
","
","
","""event"",""trial"",""time""
""fullscreenenter"",""0"",""4061""
","
","null","run_exp/static/audio/clip_15_summary.m4a","null","","","","","<div class='center'><p>Let's go over the instructions quickly again. You have two important things to do: </p><b><p> 1. Pick the pirate who is the best at robbing ships on the current island. </p></b><b><p> 2. Remember on which island a ship was robbed.</p> </b><p>The amount of bonus money you can win depends on both.</p><p><br><p>Let’s try a practice game. The game will start by showing you the pirates. First, pick a pirate using the <b> 1, 2, 3 </b> keys on your keyboard. When you are shown a ship, try to remember which island you’re on by making up a story.</p><p>This is just a practice game, so you’re not playing for money. </p><p> Good luck! This game will be very difficult but try your best!</p></div>","","","","","","","","","","","","","","","","","",""
"","html-keyboard-response","45","283202","0.0-35.0-9.0","""event"",""trial"",""time""
""fullscreenenter"",""0"",""4061""
","
","
","""event"",""trial"",""time""
""fullscreenenter"",""0"",""4061""
","
","612","<div class='center'><p>Let's go over the instructions quickly again. You have two important things to do: </p><b><p> 1. Pick the pirate who is the best at robbing ships on the current island. </p></b><b><p> 2. Remember on which island a ship was robbed.</p> </b><p>The amount of bonus money you can win depends on both.</p><p><br><p>Let’s try a practice game. The game will start by showing you the pirates. First, pick a pirate using the <b> 1, 2, 3 </b> keys on your keyboard. When you are shown a ship, try to remember which island you’re on by making up a story.</p><p>This is just a practice game, so you’re not playing for money. </p><p> Good luck! This game will be very difficult but try your best!</p><p><b>[Press the space bar to continue]</b></p></div>","32","","","","","","","","","","","","","","","","","","","","","","",""
"","do_welcome","46","287228","0.0-35.0-10.0","""event"",""trial"",""time""
""fullscreenenter"",""0"",""4061""
","
","
","""event"",""trial"",""time""
""fullscreenenter"",""0"",""4061""
","
","null","","","","","","","","null","","","","","","","","","","","","","","","","",""
"","do_trial","47","293262","0.0-35.0-11.0","""event"",""trial"",""time""
""fullscreenenter"",""0"",""4061""
","
","
","""event"",""trial"",""time""
""fullscreenenter"",""0"",""4061""
","
","null","","","","","","","","null","1,0,0","","","","","","","","","","","","","","","",""
"","html-keyboard-response","48","294269","0.0-36.0-0.0","""event"",""trial"",""time""
""fullscreenenter"",""0"",""4061""
","
","
","""event"",""trial"",""time""
""fullscreenenter"",""0"",""4061""
","
","null","<p></p>","null","","","","","","","","","","","","","","","","","","","","","","",""
"","do_trial","49","299722","0.0-36.0-1.0","""event"",""trial"",""time""
""fullscreenenter"",""0"",""4061""
","
","
","""event"",""trial"",""time""
""fullscreenenter"",""0"",""4061""
","
","939.1999999880791","","","","","","","","50","1,0,0","","","","","","","","","","","","","","","",""
"","html-keyboard-response","50","300732","0.0-37.0-0.0","""event"",""trial"",""time""
""fullscreenenter"",""0"",""4061""
","
","
","""event"",""trial"",""time""
""fullscreenenter"",""0"",""4061""
","
","null","<p></p>","null","","","","","","","","","","","","","","","","","","","","","","",""
"","do_trial","51","305821","0.0-37.0-1.0","""event"",""trial"",""time""
""fullscreenenter"",""0"",""4061""
","
","
","""event"",""trial"",""time""
""fullscreenenter"",""0"",""4061""
","
","562.6999999880791","","","","","","","","51","1,1,0","","","","","","","","","","","","","","","",""
"","html-keyboard-response","52","306832","0.0-38.0-0.0","""event"",""trial"",""time""
""fullscreenenter"",""0"",""4061""
","
","
","""event"",""trial"",""time""
""fullscreenenter"",""0"",""4061""
","
","null","<p></p>","null","","","","","","","","","","","","","","","","","","","","","","",""
"","do_trial","53","311523","0.0-38.0-1.0","""event"",""trial"",""time""
""fullscreenenter"",""0"",""4061""
","
","
","""event"",""trial"",""time""
""fullscreenenter"",""0"",""4061""
","
","165.80000001192093","","","","","","","","49","1,0,1","","","","","","","","","","","","","","","",""
"","html-keyboard-response","54","312533","0.0-39.0-0.0","""event"",""trial"",""time""
""fullscreenenter"",""0"",""4061""
","
","
","""event"",""trial"",""time""
""fullscreenenter"",""0"",""4061""
","
","null","<p></p>","null","","","","","","","","","","","","","","","","","","","","","","",""
"","do_trial","55","317061","0.0-39.0-1.0","""event"",""trial"",""time""
""fullscreenenter"",""0"",""4061""
","
","
","""event"",""trial"",""time""
""fullscreenenter"",""0"",""4061""
","
","0.19999998807907104","","","","","","","","49","0,1,0","","","","","","","","","","","","","","","",""
"","html-keyboard-response","56","318073","0.0-40.0-0.0","""event"",""trial"",""time""
""fullscreenenter"",""0"",""4061""
","
","
","""event"",""trial"",""time""
""fullscreenenter"",""0"",""4061""
","
","null","<p></p>","null","","","","","","","","","","","","","","","","","","","","","","",""
"","do_trial","57","323311","0.0-40.0-1.0","""event"",""trial"",""time""
""fullscreenenter"",""0"",""4061""
","
","
","""event"",""trial"",""time""
""fullscreenenter"",""0"",""4061""
","
","722.4000000357628","","","","","","","","51","1,0,0","","","","","","","","","","","","","","","",""
"","do_bye","58","324836","0.0-41.0-0.0","""event"",""trial"",""time""
""fullscreenenter"",""0"",""4061""
","
","
","""event"",""trial"",""time""
""fullscreenenter"",""0"",""4061""
","
","null","","","","","","","","null","","","","","","","","","","","","","","","","",""
"","do_travel","59","333851","0.0-41.0-1.0","""event"",""trial"",""time""
""fullscreenenter"",""0"",""4061""
","
","
","""event"",""trial"",""time""
""fullscreenenter"",""0"",""4061""
","
","null","","","","","","","","null","","","","","","","","","","","","","","","","",""
"","do_welcome","60","337866","0.0-41.0-2.0","""event"",""trial"",""time""
""fullscreenenter"",""0"",""4061""
","
","
","""event"",""trial"",""time""
""fullscreenenter"",""0"",""4061""
","
","null","","","","","","","","null","","","","","","","","","","","","","","","","",""
"","do_trial","61","344558","0.0-41.0-3.0","""event"",""trial"",""time""
""fullscreenenter"",""0"",""4061""
","
","
","""event"",""trial"",""time""
""fullscreenenter"",""0"",""4061""
","
","2165.399999976158","","","","","","","","50","1,0,0","","","","","","","","","","","","","","","",""
"","html-keyboard-response","62","345570","0.0-42.0-0.0","""event"",""trial"",""time""
""fullscreenenter"",""0"",""4061""
","
","
","""event"",""trial"",""time""
""fullscreenenter"",""0"",""4061""
","
","null","<p></p>","null","","","","","","","","","","","","","","","","","","","","","","",""
"","do_trial","63","350376","0.0-42.0-1.0","""event"",""trial"",""time""
""fullscreenenter"",""0"",""4061""
","
","
","""event"",""trial"",""time""
""fullscreenenter"",""0"",""4061""
","
","278.89999997615814","","","","","","","","49","1,0,1","","","","","","","","","","","","","","","",""
"","html-keyboard-response","64","351385","0.0-43.0-0.0","""event"",""trial"",""time""
""fullscreenenter"",""0"",""4061""
","
","
","""event"",""trial"",""time""
""fullscreenenter"",""0"",""4061""
","
","null","<p></p>","null","","","","","","","","","","","","","","","","","","","","","","",""
"","do_trial","65","356141","0.0-43.0-1.0","""event"",""trial"",""time""
""fullscreenenter"",""0"",""4061""
","
","
","""event"",""trial"",""time""
""fullscreenenter"",""0"",""4061""
","
","230.39999997615814","","","","","","","","51","1,1,0","","","","","","","","","","","","","","","",""
"","html-keyboard-response","66","357155","0.0-44.0-0.0","""event"",""trial"",""time""
""fullscreenenter"",""0"",""4061""
","
","
","""event"",""trial"",""time""
""fullscreenenter"",""0"",""4061""
","
","null","<p></p>","null","","","","","","","","","","","","","","","","","","","","","","",""
"","do_trial","67","362105","0.0-44.0-1.0","""event"",""trial"",""time""
""fullscreenenter"",""0"",""4061""
","
","
","""event"",""trial"",""time""
""fullscreenenter"",""0"",""4061""
","
","433.2000000476837","","","","","","","","50","0,0,1","","","","","","","","","","","","","","","",""
"","html-keyboard-response","68","363109","0.0-45.0-0.0","""event"",""trial"",""time""
""fullscreenenter"",""0"",""4061""
","
","
","""event"",""trial"",""time""
""fullscreenenter"",""0"",""4061""
","
","null","<p></p>","null","","","","","","","","","","","","","","","","","","","","","","",""
"","do_trial","69","368527","0.0-45.0-1.0","""event"",""trial"",""time""
""fullscreenenter"",""0"",""4061""
","
","
","""event"",""trial"",""time""
""fullscreenenter"",""0"",""4061""
","
","904.8000000119209","","","","","","","","49","1,0,1","","","","","","","","","","","","","","","",""
"","html-keyboard-response","70","370064","0.0-46.0-0.0","""event"",""trial"",""time""
""fullscreenenter"",""0"",""4061""
","
","
","""event"",""trial"",""time""
""fullscreenenter"",""0"",""4061""
","
","1533.1000000238419","<div class='center'><p><img src='run_exp/static/images/tutorial/prac_best_pirate.png'  height='500'></p></div>","49","","","","","","","","","","","","","","","","","","","","","","",""
"","html-keyboard-response","71","371151","0.0-47.0-0.0","""event"",""trial"",""time""
""fullscreenenter"",""0"",""4061""
","
","
","""event"",""trial"",""time""
""fullscreenenter"",""0"",""4061""
","
","1084.8999999761581","<div class='center'><p>That's correct! Red beard was the best.</p><p><b>[Press the space bar to continue]</b></p></div>","32","","","","","","","","","","","","","","","","","","","","","","",""
"","html-keyboard-response","72","375157","0.0-47.0-1.0","""event"",""trial"",""time""
""fullscreenenter"",""0"",""4061""
","
","
","""event"",""trial"",""time""
""fullscreenenter"",""0"",""4061""
","
","4003.800000011921","<div class='center'><p><img src='run_exp/static/images/tutorial/prac_source.png'  height='500'></p></div>","50","","","","","","","","","","","","","","","","","","","","","","",""
"","html-keyboard-response","73","376268","0.0-48.0-0.0","""event"",""trial"",""time""
""fullscreenenter"",""0"",""4061""
","
","
","""event"",""trial"",""time""
""fullscreenenter"",""0"",""4061""
","
","1109.300000011921","<div class='center'><p>That's correct! You saw this ship on the cavern island.</p><p><b>[Press the space bar to continue]</b></p></div>","32","","","","","","","","","","","","","","","","","","","","","","",""
"","quiz_beginning","74","387519","0.0-48.0-1.0","""event"",""trial"",""time""
""fullscreenenter"",""0"",""4061""
","
","
","""event"",""trial"",""time""
""fullscreenenter"",""0"",""4061""
","
","null","run_exp/static/audio/clip_16_quiz_intro.m4a","null","","","","","<div class='center'><p>Good job on the practice game! Now, you will be asked some true or false questions to make sure you really understand the rules of the game.</p><p> Press <b>'1'</b> on the keyboard for true and press <b>'2'</b> for false.</p></div>","","","","","","","","","","","","","","","","","",""
"","audio-keyboard-response","75","394806","0.0-48.0-2.0","""event"",""trial"",""time""
""fullscreenenter"",""0"",""4061""
","
","
","""event"",""trial"",""time""
""fullscreenenter"",""0"",""4061""
","
","7284.600000023842","run_exp/static/audio/clip_17_q1.m4a","49","","","","","","","","","","","","","","","","","","","","","","",""
"","correct","76","397239","0.0-49.0-0.0","""event"",""trial"",""time""
""fullscreenenter"",""0"",""4061""
","
","
","""event"",""trial"",""time""
""fullscreenenter"",""0"",""4061""
","
","null","run_exp/static/audio/clip_18_correct.m4a","null","","","","","<div class='center'><p>That's correct!</p></div>","","","","","","","","","","","","","","","","","",""
"","html-keyboard-response","77","398151","0.0-49.0-1.0","""event"",""trial"",""time""
""fullscreenenter"",""0"",""4061""
","
","
","""event"",""trial"",""time""
""fullscreenenter"",""0"",""4061""
","
","910","<div class='center'><p>That's correct!</p><p><b>[Press the space bar to continue]</b></p></div>","32","","","","","","","","","","","","","","","","","","","","","","",""
"","audio-keyboard-response","78","404808","0.0-49.0-2.0","""event"",""trial"",""time""
""fullscreenenter"",""0"",""4061""
","
","
","""event"",""trial"",""time""
""fullscreenenter"",""0"",""4061""
","
","6655","run_exp/static/audio/clip_20_q2.m4a","50","","","","","","","","","","","","","","","","","","","","","","",""
"","correct","79","407199","0.0-50.0-0.0","""event"",""trial"",""time""
""fullscreenenter"",""0"",""4061""
","
","
","""event"",""trial"",""time""
""fullscreenenter"",""0"",""4061""
","
","null","run_exp/static/audio/clip_18_correct.m4a","null","","","","","<div class='center'><p>That's correct!</p></div>","","","","","","","","","","","","","","","","","",""
"","html-keyboard-response","80","407878","0.0-50.0-1.0","""event"",""trial"",""time""
""fullscreenenter"",""0"",""4061""
","
","
","""event"",""trial"",""time""
""fullscreenenter"",""0"",""4061""
","
","677.8000000119209","<div class='center'><p>That's correct!</p><p><b>[Press the space bar to continue]</b></p></div>","32","","","","","","","","","","","","","","","","","","","","","","",""
"","audio-keyboard-response","81","410760","0.0-50.0-2.0","""event"",""trial"",""time""
""fullscreenenter"",""0"",""4061""
","
","
","""event"",""trial"",""time""
""fullscreenenter"",""0"",""4061""
","
","2880.300000011921","run_exp/static/audio/clip_22_q3.m4a","50","","","","","","","","","","","","","","","","","","","","","","",""
"","correct","82","413159","0.0-51.0-0.0","""event"",""trial"",""time""
""fullscreenenter"",""0"",""4061""
","
","
","""event"",""trial"",""time""
""fullscreenenter"",""0"",""4061""
","
","null","run_exp/static/audio/clip_18_correct.m4a","null","","","","","<div class='center'><p>That's correct!</p></div>","","","","","","","","","","","","","","","","","",""
"","html-keyboard-response","83","413497","0.0-51.0-1.0","""event"",""trial"",""time""
""fullscreenenter"",""0"",""4061""
","
","
","""event"",""trial"",""time""
""fullscreenenter"",""0"",""4061""
","
","336.69999998807907","<div class='center'><p>That's correct!</p><p><b>[Press the space bar to continue]</b></p></div>","32","","","","","","","","","","","","","","","","","","","","","","",""
"","audio-keyboard-response","84","415714","0.0-51.0-2.0","""event"",""trial"",""time""
""fullscreenenter"",""0"",""4061""
","
","
","""event"",""trial"",""time""
""fullscreenenter"",""0"",""4061""
","
","2213.900000035763","run_exp/static/audio/clip_24_q4.m4a","49","","","","","","","","","","","","","","","","","","","","","","",""
"","correct","85","418179","0.0-52.0-0.0","""event"",""trial"",""time""
""fullscreenenter"",""0"",""4061""
","
","
","""event"",""trial"",""time""
""fullscreenenter"",""0"",""4061""
","
","null","run_exp/static/audio/clip_18_correct.m4a","null","","","","","<div class='center'><p>That's correct!</p></div>","","","","","","","","","","","","","","","","","",""
"","html-keyboard-response","86","418911","0.0-52.0-1.0","""event"",""trial"",""time""
""fullscreenenter"",""0"",""4061""
","
","
","""event"",""trial"",""time""
""fullscreenenter"",""0"",""4061""
","
","729.4000000357628","<div class='center'><p>That's correct!</p><p><b>[Press the space bar to continue]</b></p></div>","32","","","","","","","","","","","","","","","","","","","","","","",""
"","q_all_corr","87","427419","0.0-53.0-0.0","""event"",""trial"",""time""
""fullscreenenter"",""0"",""4061""
","
","
","""event"",""trial"",""time""
""fullscreenenter"",""0"",""4061""
","
","null","run_exp/static/audio/clip_27_quiz_all_correct.m4a","null","","","","","<div class='center'><p>Good job! You’re now ready to move on to the real game! Remember this game will be difficult but don't get discouraged and try your best!</p></div>","","","","","","","","","","","","","","","","","",""
"","html-keyboard-response","88","427844","0.0-53.0-1.0","""event"",""trial"",""time""
""fullscreenenter"",""0"",""4061""
","
","
","""event"",""trial"",""time""
""fullscreenenter"",""0"",""4061""
","
","423","<div class='center'><p>Good job! You’re now ready to move on to the real game! Remember this game will be difficult but don't get discouraged and try your best!</p><p><b>[Press the space bar to continue]</b></p></div>","32","","","","","","","","","","","","","","","","","","","","","","",""
"","do_welcome","89","431859","0.0-54.0-0.0","""event"",""trial"",""time""
""fullscreenenter"",""0"",""4061""
","
","
","""event"",""trial"",""time""
""fullscreenenter"",""0"",""4061""
","
","null","","","","","","","","null","","","","","","","","","","","","","","","","",""
"","do_trial","90","437570","0.0-55.0-0.0","""event"",""trial"",""time""
""fullscreenenter"",""0"",""4061""
","
","
","""event"",""trial"",""time""
""fullscreenenter"",""0"",""4061""
","
","1136.300000011921","","","","","","","","49","0,1,0","0","forest","0","probe-212","0.6","0.3","0.1","0","","","","","","","",""
"","html-keyboard-response","91","438580","0.0-55.0-1.0","""event"",""trial"",""time""
""fullscreenenter"",""0"",""4061""
","
","
","""event"",""trial"",""time""
""fullscreenenter"",""0"",""4061""
","
","null","<p></p>","null","","","","","","","","","","","","","","","","","","","","","","",""
"","do_trial","92","443681","0.0-56.0-0.0","""event"",""trial"",""time""
""fullscreenenter"",""0"",""4061""
","
","
","""event"",""trial"",""time""
""fullscreenenter"",""0"",""4061""
","
","524.9000000357628","","","","","","","","50","0,0,0","0","forest","1","probe-35","0.5741958554830207","0.38642194782095884","0.052485968221379374","0","","","","","","","",""
"","html-keyboard-response","93","444694","0.0-56.0-1.0","""event"",""trial"",""time""
""fullscreenenter"",""0"",""4061""
","
","
","""event"",""trial"",""time""
""fullscreenenter"",""0"",""4061""
","
","null","<p></p>","null","","","","","","","","","","","","","","","","","","","","","","",""
"","do_trial","94","449802","0.0-57.0-0.0","""event"",""trial"",""time""
""fullscreenenter"",""0"",""4061""
","
","
","""event"",""trial"",""time""
""fullscreenenter"",""0"",""4061""
","
","528.8000000119209","","","","","","","","51","1,0,0","0","forest","2","probe-116","0.5276109017234185","0.3132356063466627","0.25156548638681164","0","","","","","","","",""
"","html-keyboard-response","95","450813","0.0-57.0-1.0","""event"",""trial"",""time""
""fullscreenenter"",""0"",""4061""
","
","
","""event"",""trial"",""time""
""fullscreenenter"",""0"",""4061""
","
","null","<p></p>","null","","","","","","","","","","","","","","","","","","","","","","",""
"","do_trial","96","455781","0.0-58.0-0.0","""event"",""trial"",""time""
""fullscreenenter"",""0"",""4061""
","
","
","""event"",""trial"",""time""
""fullscreenenter"",""0"",""4061""
","
","377.69999998807907","","","","","","","","49","0,0,0","0","forest","3","probe-23","0.559795357828431","0.40580057328450486","0.2471433335858853","0","","","","","","","",""
"","html-keyboard-response","97","456797","0.0-58.0-1.0","""event"",""trial"",""time""
""fullscreenenter"",""0"",""4061""
","
","
","""event"",""trial"",""time""
""fullscreenenter"",""0"",""4061""
","
","null","<p></p>","null","","","","","","","","","","","","","","","","","","","","","","",""
"","do_trial","98","461445","0.0-59.0-0.0","""event"",""trial"",""time""
""fullscreenenter"",""0"",""4061""
","
","
","""event"",""trial"",""time""
""fullscreenenter"",""0"",""4061""
","
","77.10000002384186","","","","","","","","50","0,0,0","0","forest","4","probe-134","0.4742806070547922","0.42762128145043626","0.3730442187992239","0","","","","","","","",""
"","html-keyboard-response","99","462455","0.0-59.0-1.0","""event"",""trial"",""time""
""fullscreenenter"",""0"",""4061""
","
","
","""event"",""trial"",""time""
""fullscreenenter"",""0"",""4061""
","
","null","<p></p>","null","","","","","","","","","","","","","","","","","","","","","","",""
"","do_trial","100","467356","0.0-60.0-0.0","""event"",""trial"",""time""
""fullscreenenter"",""0"",""4061""
","
","
","""event"",""trial"",""time""
""fullscreenenter"",""0"",""4061""
","
","317.30000001192093","","","","","","","","51","1,0,1","0","forest","5","probe-65","0.5032503797878765","0.30241953900063906","0.3010098911520526","1","","","","","","","",""
"","html-keyboard-response","101","468366","0.0-60.0-1.0","""event"",""trial"",""time""
""fullscreenenter"",""0"",""4061""
","
","
","""event"",""trial"",""time""
""fullscreenenter"",""0"",""4061""
","
","null","<p></p>","null","","","","","","","","","","","","","","","","","","","","","","",""
"","do_trial","102","473502","0.0-61.0-0.0","""event"",""trial"",""time""
""fullscreenenter"",""0"",""4061""
","
","
","""event"",""trial"",""time""
""fullscreenenter"",""0"",""4061""
","
","555.5","","","","","","","","51","0,1,0","0","forest","6","probe-07","0.4844353338076941","0.4472094429703226","0.24658169851566847","0","","","","","","","",""
"","html-keyboard-response","103","474515","0.0-61.0-1.0","""event"",""trial"",""time""
""fullscreenenter"",""0"",""4061""
","
","
","""event"",""trial"",""time""
""fullscreenenter"",""0"",""4061""
","
","null","<p></p>","null","","","","","","","","","","","","","","","","","","","","","","",""
"","do_trial","104","479102","0.0-62.0-0.0","""event"",""trial"",""time""
""fullscreenenter"",""0"",""4061""
","
","
","""event"",""trial"",""time""
""fullscreenenter"",""0"",""4061""
","
","0.20000004768371582","","","","","","","","51","1,0,0","0","forest","7","probe-111","0.5558346384543162","0.32115283818788193","0.13494816543793361","0","","","","","","","",""
"","html-keyboard-response","105","480109","0.0-62.0-1.0","""event"",""trial"",""time""
""fullscreenenter"",""0"",""4061""
","
","
","""event"",""trial"",""time""
""fullscreenenter"",""0"",""4061""
","
","null","<p></p>","null","","","","","","","","","","","","","","","","","","","","","","",""
"","do_trial","106","484842","0.0-63.0-0.0","""event"",""trial"",""time""
""fullscreenenter"",""0"",""4061""
","
","
","""event"",""trial"",""time""
""fullscreenenter"",""0"",""4061""
","
","157.89999997615814","","","","","","","","51","1,0,0","0","forest","8","probe-183","0.4508583860070319","0.1889168741278572","0.23002456840222604","0","","","","","","","",""
"","html-keyboard-response","107","485853","0.0-63.0-1.0","""event"",""trial"",""time""
""fullscreenenter"",""0"",""4061""
","
","
","""event"",""trial"",""time""
""fullscreenenter"",""0"",""4061""
","
","null","<p></p>","null","","","","","","","","","","","","","","","","","","","","","","",""
"","do_trial","108","490433","0.0-64.0-0.0","""event"",""trial"",""time""
""fullscreenenter"",""0"",""4061""
","
","
","""event"",""trial"",""time""
""fullscreenenter"",""0"",""4061""
","
","0.19999998807907104","","","","","","","","49","1,0,1","0","forest","9","probe-44","0.5576048045238938","0.2430787484076798","0.2585934270679271","1","","","","","","","",""
"","html-keyboard-response","109","491441","0.0-64.0-1.0","""event"",""trial"",""time""
""fullscreenenter"",""0"",""4061""
","
","
","""event"",""trial"",""time""
""fullscreenenter"",""0"",""4061""
","
","null","<p></p>","null","","","","","","","","","","","","","","","","","","","","","","",""
"","do_trial","110","496025","0.0-65.0-0.0","""event"",""trial"",""time""
""fullscreenenter"",""0"",""4061""
","
","
","""event"",""trial"",""time""
""fullscreenenter"",""0"",""4061""
","
","0.09999996423721313","","","","","","","","49","1,0,0","0","forest","10","probe-119","0.655983825849768","0.309882260057735","0.2549962843977744","1","","","","","","","",""
"","html-keyboard-response","111","497027","0.0-65.0-1.0","""event"",""trial"",""time""
""fullscreenenter"",""0"",""4061""
","
","
","""event"",""trial"",""time""
""fullscreenenter"",""0"",""4061""
","
","null","<p></p>","null","","","","","","","","","","","","","","","","","","","","","","",""
"","do_trial","112","501610","0.0-66.0-0.0","""event"",""trial"",""time""
""fullscreenenter"",""0"",""4061""
","
","
","""event"",""trial"",""time""
""fullscreenenter"",""0"",""4061""
","
","10.300000011920929","","","","","","","","49","1,0,0","0","forest","11","probe-77","0.6385283408302276","0.34313498084553046","0.2175527250079526","1","","","","","","","",""
"","html-keyboard-response","113","502621","0.0-66.0-1.0","""event"",""trial"",""time""
""fullscreenenter"",""0"",""4061""
","
","
","""event"",""trial"",""time""
""fullscreenenter"",""0"",""4061""
","
","null","<p></p>","null","","","","","","","","","","","","","","","","","","","","","","",""
"","do_trial","114","507187","0.0-67.0-0.0","""event"",""trial"",""time""
""fullscreenenter"",""0"",""4061""
","
","
","""event"",""trial"",""time""
""fullscreenenter"",""0"",""4061""
","
","0.10000002384185791","","","","","","","","49","1,1,0","0","forest","12","probe-163","0.6532085319146492","0.28564051633643056","0.28246030989997745","1","","","","","","","",""
"","html-keyboard-response","115","508197","0.0-67.0-1.0","""event"",""trial"",""time""
""fullscreenenter"",""0"",""4061""
","
","
","""event"",""trial"",""time""
""fullscreenenter"",""0"",""4061""
","
","null","<p></p>","null","","","","","","","","","","","","","","","","","","","","","","",""
"","do_trial","116","513493","0.0-68.0-0.0","""event"",""trial"",""time""
""fullscreenenter"",""0"",""4061""
","
","
","""event"",""trial"",""time""
""fullscreenenter"",""0"",""4061""
","
","729.1999999880791","","","","","","","","49","1,0,0","0","forest","13","probe-42","0.5151512953542712","0.2111242992689301","0.14128807016954245","1","","","","","","","",""
"","html-keyboard-response","117","514508","0.0-68.0-1.0","""event"",""trial"",""time""
""fullscreenenter"",""0"",""4061""
","
","
","""event"",""trial"",""time""
""fullscreenenter"",""0"",""4061""
","
","null","<p></p>","null","","","","","","","","","","","","","","","","","","","","","","",""
"","do_trial","118","519338","0.0-69.0-0.0","""event"",""trial"",""time""
""fullscreenenter"",""0"",""4061""
","
","
","""event"",""trial"",""time""
""fullscreenenter"",""0"",""4061""
","
","246.0999999642372","","","","","","","","49","0,1,0","0","forest","14","probe-117","0.545426888939332","0.23439771921494865","0.05309024675761673","0","","","","","","","",""
"","html-keyboard-response","119","520352","0.0-69.0-1.0","""event"",""trial"",""time""
""fullscreenenter"",""0"",""4061""
","
","
","""event"",""trial"",""time""
""fullscreenenter"",""0"",""4061""
","
","null","<p></p>","null","","","","","","","","","","","","","","","","","","","","","","",""
"","do_trial","120","525012","0.0-70.0-0.0","""event"",""trial"",""time""
""fullscreenenter"",""0"",""4061""
","
","
","""event"",""trial"",""time""
""fullscreenenter"",""0"",""4061""
","
","67.60000002384186","","","","","","","","49","0,1,0","0","forest","15","probe-225","0.5899211558648342","0.25220266592819224","0.06268651705553217","0","","","","","","","",""
"","html-keyboard-response","121","526025","0.0-70.0-1.0","""event"",""trial"",""time""
""fullscreenenter"",""0"",""4061""
","
","
","""event"",""trial"",""time""
""fullscreenenter"",""0"",""4061""
","
","null","<p></p>","null","","","","","","","","","","","","","","","","","","","","","","",""
"","do_trial","122","530606","0.0-71.0-0.0","""event"",""trial"",""time""
""fullscreenenter"",""0"",""4061""
","
","
","""event"",""trial"",""time""
""fullscreenenter"",""0"",""4061""
","
","0.10000002384185791","","","","","","","","49","0,0,0","0","forest","16","probe-123","0.6509863733621137","0.25434132255574304","0.13636117897212635","0","","","","","","","",""
"","html-keyboard-response","123","531618","0.0-71.0-1.0","""event"",""trial"",""time""
""fullscreenenter"",""0"",""4061""
","
","
","""event"",""trial"",""time""
""fullscreenenter"",""0"",""4061""
","
","null","<p></p>","null","","","","","","","","","","","","","","","","","","","","","","",""
"","do_trial","124","536760","0.0-72.0-0.0","""event"",""trial"",""time""
""fullscreenenter"",""0"",""4061""
","
","
","""event"",""trial"",""time""
""fullscreenenter"",""0"",""4061""
","
","562.3999999761581","","","","","","","","49","0,0,1","0","forest","17","probe-118","0.6820741854982538","0.25719359603353126","0.2848106893820416","0","","","","","","","",""
"","html-keyboard-response","125","537776","0.0-72.0-1.0","""event"",""trial"",""time""
""fullscreenenter"",""0"",""4061""
","
","
","""event"",""trial"",""time""
""fullscreenenter"",""0"",""4061""
","
","null","<p></p>","null","","","","","","","","","","","","","","","","","","","","","","",""
"","do_trial","126","542340","0.0-73.0-0.0","""event"",""trial"",""time""
""fullscreenenter"",""0"",""4061""
","
","
","""event"",""trial"",""time""
""fullscreenenter"",""0"",""4061""
","
","0.19999998807907104","","","","","","","","49","0,0,0","0","forest","18","probe-199","0.5959109472847949","0.3311163051543799","0.14928468397661773","0","","","","","","","",""
"","html-keyboard-response","127","543348","0.0-73.0-1.0","""event"",""trial"",""time""
""fullscreenenter"",""0"",""4061""
","
","
","""event"",""trial"",""time""
""fullscreenenter"",""0"",""4061""
","
","null","<p></p>","null","","","","","","","","","","","","","","","","","","","","","","",""
"","do_trial","128","547950","0.0-74.0-0.0","""event"",""trial"",""time""
""fullscreenenter"",""0"",""4061""
","
","
","""event"",""trial"",""time""
""fullscreenenter"",""0"",""4061""
","
","27.80000001192093","","","","","","","","49","1,0,0","0","forest","19","probe-190","0.5457054336293465","0.40705307174759375","0.1268643378128686","1","","","","","","","",""
"","html-keyboard-response","129","548963","0.0-74.0-1.0","""event"",""trial"",""time""
""fullscreenenter"",""0"",""4061""
","
","
","""event"",""trial"",""time""
""fullscreenenter"",""0"",""4061""
","
","null","<p></p>","null","","","","","","","","","","","","","","","","","","","","","","",""
"","do_trial","130","554140","0.0-75.0-0.0","""event"",""trial"",""time""
""fullscreenenter"",""0"",""4061""
","
","
","""event"",""trial"",""time""
""fullscreenenter"",""0"",""4061""
","
","603.4000000357628","","","","","","","","49","1,0,0","0","forest","20","probe-136","0.5220696453304787","0.2854562923137052","0.07135346655902397","1","","","","","","","",""
"","html-keyboard-response","131","555153","0.0-75.0-1.0","""event"",""trial"",""time""
""fullscreenenter"",""0"",""4061""
","
","
","""event"",""trial"",""time""
""fullscreenenter"",""0"",""4061""
","
","null","<p></p>","null","","","","","","","","","","","","","","","","","","","","","","",""
"","do_trial","132","560261","0.0-76.0-0.0","""event"",""trial"",""time""
""fullscreenenter"",""0"",""4061""
","
","
","""event"",""trial"",""time""
""fullscreenenter"",""0"",""4061""
","
","516.6999999880791","","","","","","","","50","1,0,0","0","forest","21","probe-150","0.577529720057756","0.26854888877664307","0.17913612089314834","0","","","","","","","",""
"","html-keyboard-response","133","561273","0.0-76.0-1.0","""event"",""trial"",""time""
""fullscreenenter"",""0"",""4061""
","
","
","""event"",""trial"",""time""
""fullscreenenter"",""0"",""4061""
","
","null","<p></p>","null","","","","","","","","","","","","","","","","","","","","","","",""
"","do_trial","134","565854","0.0-77.0-0.0","""event"",""trial"",""time""
""fullscreenenter"",""0"",""4061""
","
","
","""event"",""trial"",""time""
""fullscreenenter"",""0"",""4061""
","
","0.10000002384185791","","","","","","","","49","0,0,0","0","forest","22","probe-28","0.5171175683625441","0.30011654749445776","0.22153098905852706","0","","","","","","","",""
"","html-keyboard-response","135","566867","0.0-77.0-1.0","""event"",""trial"",""time""
""fullscreenenter"",""0"",""4061""
","
","
","""event"",""trial"",""time""
""fullscreenenter"",""0"",""4061""
","
","null","<p></p>","null","","","","","","","","","","","","","","","","","","","","","","",""
"","do_trial","136","572591","0.0-78.0-0.0","""event"",""trial"",""time""
""fullscreenenter"",""0"",""4061""
","
","
","""event"",""trial"",""time""
""fullscreenenter"",""0"",""4061""
","
","1119.5999999642372","","","","","","","","51","1,1,0","0","forest","23","probe-203","0.5505957486664382","0.47181989963944376","0.2525105135332023","0","","","","","","","",""
"","html-keyboard-response","137","573603","0.0-78.0-1.0","""event"",""trial"",""time""
""fullscreenenter"",""0"",""4061""
","
","
","""event"",""trial"",""time""
""fullscreenenter"",""0"",""4061""
","
","null","<p></p>","null","","","","","","","","","","","","","","","","","","","","","","",""
"","do_trial","138","579799","0.0-79.0-0.0","""event"",""trial"",""time""
""fullscreenenter"",""0"",""4061""
","
","
","""event"",""trial"",""time""
""fullscreenenter"",""0"",""4061""
","
","1616.0999999642372","","","","","","","","49","0,1,1","0","forest","24","probe-101","0.48947372935242983","0.4266516811170741","0.18950956905488106","0","","","","","","","",""
"","html-keyboard-response","139","580813","0.0-79.0-1.0","""event"",""trial"",""time""
""fullscreenenter"",""0"",""4061""
","
","
","""event"",""trial"",""time""
""fullscreenenter"",""0"",""4061""
","
","null","<p></p>","null","","","","","","","","","","","","","","","","","","","","","","",""
"","do_trial","140","586134","0.0-80.0-0.0","""event"",""trial"",""time""
""fullscreenenter"",""0"",""4061""
","
","
","""event"",""trial"",""time""
""fullscreenenter"",""0"",""4061""
","
","724.8000000119209","","","","","","","","50","1,1,1","0","forest","25","probe-197","0.5199569535892947","0.31469839081890577","0.2685186740010921","1","","","","","","","",""
"","html-keyboard-response","141","587145","0.0-80.0-1.0","""event"",""trial"",""time""
""fullscreenenter"",""0"",""4061""
","
","
","""event"",""trial"",""time""
""fullscreenenter"",""0"",""4061""
","
","null","<p></p>","null","","","","","","","","","","","","","","","","","","","","","","",""
"","do_trial","142","591927","0.0-81.0-0.0","""event"",""trial"",""time""
""fullscreenenter"",""0"",""4061""
","
","
","""event"",""trial"",""time""
""fullscreenenter"",""0"",""4061""
","
","221.19999998807907","","","","","","","","49","0,0,0","0","forest","26","probe-179","0.6055931795685643","0.3228362427171766","0.20762750270053965","0","","","","","","","",""
"","html-keyboard-response","143","592941","0.0-81.0-1.0","""event"",""trial"",""time""
""fullscreenenter"",""0"",""4061""
","
","
","""event"",""trial"",""time""
""fullscreenenter"",""0"",""4061""
","
","null","<p></p>","null","","","","","","","","","","","","","","","","","","","","","","",""
"","do_trial","144","598051","0.0-82.0-0.0","""event"",""trial"",""time""
""fullscreenenter"",""0"",""4061""
","
","
","""event"",""trial"",""time""
""fullscreenenter"",""0"",""4061""
","
","530.6000000238419","","","","","","","","49","0,0,0","0","forest","27","probe-98","0.5370779933107952","0.4011206031086528","0.3141949690620762","0","","","","","","","",""
"","html-keyboard-response","145","599065","0.0-82.0-1.0","""event"",""trial"",""time""
""fullscreenenter"",""0"",""4061""
","
","
","""event"",""trial"",""time""
""fullscreenenter"",""0"",""4061""
","
","null","<p></p>","null","","","","","","","","","","","","","","","","","","","","","","",""
"","do_trial","146","604751","0.0-83.0-0.0","""event"",""trial"",""time""
""fullscreenenter"",""0"",""4061""
","
","
","""event"",""trial"",""time""
""fullscreenenter"",""0"",""4061""
","
","1108.5","","","","","","","","51","1,1,0","0","forest","28","probe-144","0.5393279553791712","0.3032077385248947","0.2060307394860808","0","","","","","","","",""
"","html-keyboard-response","147","605760","0.0-83.0-1.0","""event"",""trial"",""time""
""fullscreenenter"",""0"",""4061""
","
","
","""event"",""trial"",""time""
""fullscreenenter"",""0"",""4061""
","
","null","<p></p>","null","","","","","","","","","","","","","","","","","","","","","","",""
"","do_trial","148","611198","0.0-84.0-0.0","""event"",""trial"",""time""
""fullscreenenter"",""0"",""4061""
","
","
","""event"",""trial"",""time""
""fullscreenenter"",""0"",""4061""
","
","847.1999999880791","","","","","","","","49","0,1,0","0","forest","29","probe-176","0.5638566500970063","0.30086729436373444","0.11328701524837399","0","","","","","","","",""
"","html-keyboard-response","149","612207","0.0-84.0-1.0","""event"",""trial"",""time""
""fullscreenenter"",""0"",""4061""
","
","
","""event"",""trial"",""time""
""fullscreenenter"",""0"",""4061""
","
","null","<p></p>","null","","","","","","","","","","","","","","","","","","","","","","",""
"","do_bye","150","613717","0.0-85.0-0.0","""event"",""trial"",""time""
""fullscreenenter"",""0"",""4061""
","
","
","""event"",""trial"",""time""
""fullscreenenter"",""0"",""4061""
","
","null","","","","","","","","null","","","","","","","","","","","","","","","","",""
"","break","151","615822","0.0-85.0-1.0","""event"",""trial"",""time""
""fullscreenenter"",""0"",""4061""
","
","
","""event"",""trial"",""time""
""fullscreenenter"",""0"",""4061""
","
","2102.400000035763","<div class='center'><p>Time to take a quick break! You have 2 minutes to rest, but you can move on sooner if you'd like.</p><p> Press the <b>space bar</b> to continue.</p></div>","32","","","","","","","","","","","","","","","","","","","","","","",""
"","do_travel","152","624827","0.0-86.0-0.0","""event"",""trial"",""time""
""fullscreenenter"",""0"",""4061""
","
","
","""event"",""trial"",""time""
""fullscreenenter"",""0"",""4061""
","
","null","","","","","","","","null","","","","","","","","","","","","","","","","",""
"","do_welcome","153","628845","0.0-86.0-1.0","""event"",""trial"",""time""
""fullscreenenter"",""0"",""4061""
","
","
","""event"",""trial"",""time""
""fullscreenenter"",""0"",""4061""
","
","null","","","","","","","","null","","","","","","","","","","","","","","","","",""
"","do_trial","154","635190","0.0-87.0-0.0","""event"",""trial"",""time""
""fullscreenenter"",""0"",""4061""
","
","
","""event"",""trial"",""time""
""fullscreenenter"",""0"",""4061""
","
","1774.1000000238419","","","","","","","","49","1,0,0","1","countryside","30","probe-57","1","0.2721577286835573","0.2519638699855705","1","","","","","","","",""
"","html-keyboard-response","155","636201","0.0-87.0-1.0","""event"",""trial"",""time""
""fullscreenenter"",""0"",""4061""
","
","
","""event"",""trial"",""time""
""fullscreenenter"",""0"",""4061""
","
","null","<p></p>","null","","","","","","","","","","","","","","","","","","","","","","",""
"","do_trial","156","641181","0.0-88.0-0.0","""event"",""trial"",""time""
""fullscreenenter"",""0"",""4061""
","
","
","""event"",""trial"",""time""
""fullscreenenter"",""0"",""4061""
","
","403.2999999523163","","","","","","","","49","1,0,0","1","countryside","31","probe-37","1","0.2886509479252338","0.12710530772721929","1","","","","","","","",""
"","html-keyboard-response","157","642184","0.0-88.0-1.0","""event"",""trial"",""time""
""fullscreenenter"",""0"",""4061""
","
","
","""event"",""trial"",""time""
""fullscreenenter"",""0"",""4061""
","
","null","<p></p>","null","","","","","","","","","","","","","","","","","","","","","","",""
"","do_trial","158","646809","0.0-89.0-0.0","""event"",""trial"",""time""
""fullscreenenter"",""0"",""4061""
","
","
","""event"",""trial"",""time""
""fullscreenenter"",""0"",""4061""
","
","19.30000001192093","","","","","","","","50","1,0,0","1","countryside","32","probe-188","1","0.29983743698119586","0.16254531803515754","0","","","","","","","",""
"","html-keyboard-response","159","647823","0.0-89.0-1.0","""event"",""trial"",""time""
""fullscreenenter"",""0"",""4061""
","
","
","""event"",""trial"",""time""
""fullscreenenter"",""0"",""4061""
","
","null","<p></p>","null","","","","","","","","","","","","","","","","","","","","","","",""
"","do_trial","160","652733","0.0-90.0-0.0","""event"",""trial"",""time""
""fullscreenenter"",""0"",""4061""
","
","
","""event"",""trial"",""time""
""fullscreenenter"",""0"",""4061""
","
","319.5","","","","","","","","49","1,0,0","1","countryside","33","probe-97","0.782620644983873","0.2704156889810119","0.26322364954915484","1","","","","","","","",""
"","html-keyboard-response","161","653742","0.0-90.0-1.0","""event"",""trial"",""time""
""fullscreenenter"",""0"",""4061""
","
","
","""event"",""trial"",""time""
""fullscreenenter"",""0"",""4061""
","
","null","<p></p>","null","","","","","","","","","","","","","","","","","","","","","","",""
"","do_trial","162","658555","0.0-91.0-0.0","""event"",""trial"",""time""
""fullscreenenter"",""0"",""4061""
","
","
","""event"",""trial"",""time""
""fullscreenenter"",""0"",""4061""
","
","237.5","","","","","","","","49","1,0,0","1","countryside","34","probe-09","0.8824967404287645","0.1926869423500875","0.14493591199670885","1","","","","","","","",""
"","html-keyboard-response","163","659562","0.0-91.0-1.0","""event"",""trial"",""time""
""fullscreenenter"",""0"",""4061""
","
","
","""event"",""trial"",""time""
""fullscreenenter"",""0"",""4061""
","
","null","<p></p>","null","","","","","","","","","","","","","","","","","","","","","","",""
"","do_trial","164","664921","0.0-92.0-0.0","""event"",""trial"",""time""
""fullscreenenter"",""0"",""4061""
","
","
","""event"",""trial"",""time""
""fullscreenenter"",""0"",""4061""
","
","778.5","","","","","","","","49","1,0,0","1","countryside","35","probe-105","0.8700813194479483","0.18806778303899344","0.2340668642871708","1","","","","","","","",""
"","html-keyboard-response","165","665931","0.0-92.0-1.0","""event"",""trial"",""time""
""fullscreenenter"",""0"",""4061""
","
","
","""event"",""trial"",""time""
""fullscreenenter"",""0"",""4061""
","
","null","<p></p>","null","","","","","","","","","","","","","","","","","","","","","","",""
"","do_trial","166","670878","0.0-93.0-0.0","""event"",""trial"",""time""
""fullscreenenter"",""0"",""4061""
","
","
","""event"",""trial"",""time""
""fullscreenenter"",""0"",""4061""
","
","346.10000002384186","","","","","","","","49","1,0,0","1","countryside","36","probe-195","0.6755335678192539","0.25551859811048305","0.2429833029498129","1","","","","","","","",""
"","html-keyboard-response","167","671886","0.0-93.0-1.0","""event"",""trial"",""time""
""fullscreenenter"",""0"",""4061""
","
","
","""event"",""trial"",""time""
""fullscreenenter"",""0"",""4061""
","
","null","<p></p>","null","","","","","","","","","","","","","","","","","","","","","","",""
"","do_trial","168","677297","0.0-94.0-0.0","""event"",""trial"",""time""
""fullscreenenter"",""0"",""4061""
","
","
","""event"",""trial"",""time""
""fullscreenenter"",""0"",""4061""
","
","831","","","","","","","","49","0,0,0","1","countryside","37","probe-227","0.6696492677679544","0.2606991827003275","0.2494849994572403","0","","","","","","","",""
"","html-keyboard-response","169","678311","0.0-94.0-1.0","""event"",""trial"",""time""
""fullscreenenter"",""0"",""4061""
","
","
","""event"",""trial"",""time""
""fullscreenenter"",""0"",""4061""
","
","null","<p></p>","null","","","","","","","","","","","","","","","","","","","","","","",""
"","do_trial","170","683373","0.0-95.0-0.0","""event"",""trial"",""time""
""fullscreenenter"",""0"",""4061""
","
","
","""event"",""trial"",""time""
""fullscreenenter"",""0"",""4061""
","
","477.69999998807907","","","","","","","","49","0,1,0","1","countryside","38","probe-06","0.7252514641501905","0.3453586049711083","0.11134702180575737","0","","","","","","","",""
"","html-keyboard-response","171","684381","0.0-95.0-1.0","""event"",""trial"",""time""
""fullscreenenter"",""0"",""4061""
","
","
","""event"",""trial"",""time""
""fullscreenenter"",""0"",""4061""
","
","null","<p></p>","null","","","","","","","","","","","","","","","","","","","","","","",""
"","do_trial","172","688984","0.0-96.0-0.0","""event"",""trial"",""time""
""fullscreenenter"",""0"",""4061""
","
","
","""event"",""trial"",""time""
""fullscreenenter"",""0"",""4061""
","
","30.30000001192093","","","","","","","","49","0,0,0","1","countryside","39","probe-64","0.5623942457704039","0.3543033888339692","0.1325745524780893","0","","","","","","","",""
"","html-keyboard-response","173","689997","0.0-96.0-1.0","""event"",""trial"",""time""
""fullscreenenter"",""0"",""4061""
","
","
","""event"",""trial"",""time""
""fullscreenenter"",""0"",""4061""
","
","null","<p></p>","null","","","","","","","","","","","","","","","","","","","","","","",""
"","do_trial","174","694947","0.0-97.0-0.0","""event"",""trial"",""time""
""fullscreenenter"",""0"",""4061""
","
","
","""event"",""trial"",""time""
""fullscreenenter"",""0"",""4061""
","
","377.5999999642372","","","","","","","","50","0,1,0","1","countryside","40","probe-129","0.5790487901261364","0.34964697253165933","0.15559136443284058","1","","","","","","","",""
"","html-keyboard-response","175","695956","0.0-97.0-1.0","""event"",""trial"",""time""
""fullscreenenter"",""0"",""4061""
","
","
","""event"",""trial"",""time""
""fullscreenenter"",""0"",""4061""
","
","null","<p></p>","null","","","","","","","","","","","","","","","","","","","","","","",""
"","do_trial","176","700774","0.0-98.0-0.0","""event"",""trial"",""time""
""fullscreenenter"",""0"",""4061""
","
","
","""event"",""trial"",""time""
""fullscreenenter"",""0"",""4061""
","
","239.89999997615814","","","","","","","","51","0,1,0","1","countryside","41","probe-31","0.6397102987126764","0.180712560704922","0.15258858733919772","0","","","","","","","",""
"","html-keyboard-response","177","701782","0.0-98.0-1.0","""event"",""trial"",""time""
""fullscreenenter"",""0"",""4061""
","
","
","""event"",""trial"",""time""
""fullscreenenter"",""0"",""4061""
","
","null","<p></p>","null","","","","","","","","","","","","","","","","","","","","","","",""
"","do_trial","178","707048","0.0-99.0-0.0","""event"",""trial"",""time""
""fullscreenenter"",""0"",""4061""
","
","
","""event"",""trial"",""time""
""fullscreenenter"",""0"",""4061""
","
","693.8000000119209","","","","","","","","49","0,0,1","1","countryside","42","probe-169","0.386820407863532","0.16410091922627948","0.24431272788320108","0","","","","","","","",""
"","html-keyboard-response","179","708056","0.0-99.0-1.0","""event"",""trial"",""time""
""fullscreenenter"",""0"",""4061""
","
","
","""event"",""trial"",""time""
""fullscreenenter"",""0"",""4061""
","
","null","<p></p>","null","","","","","","","","","","","","","","","","","","","","","","",""
"","do_trial","180","714623","0.0-100.0-0.0","""event"",""trial"",""time""
""fullscreenenter"",""0"",""4061""
","
","
","""event"",""trial"",""time""
""fullscreenenter"",""0"",""4061""
","
","1999","","","","","","","","50","0,0,1","1","countryside","43","probe-184","0.32268061625778643","0.24670666987639817","0.30089145880528556","0","","","","","","","",""
"","html-keyboard-response","181","715635","0.0-100.0-1.0","""event"",""trial"",""time""
""fullscreenenter"",""0"",""4061""
","
","
","""event"",""trial"",""time""
""fullscreenenter"",""0"",""4061""
","
","null","<p></p>","null","","","","","","","","","","","","","","","","","","","","","","",""
"","do_trial","182","720343","0.0-101.0-0.0","""event"",""trial"",""time""
""fullscreenenter"",""0"",""4061""
","
","
","""event"",""trial"",""time""
""fullscreenenter"",""0"",""4061""
","
","124.80000001192093","","","","","","","","49","0,0,0","1","countryside","44","probe-192","0.19755767803024327","0.19322745696358648","0.48419469656589237","0","","","","","","","",""
"","html-keyboard-response","183","721355","0.0-101.0-1.0","""event"",""trial"",""time""
""fullscreenenter"",""0"",""4061""
","
","
","""event"",""trial"",""time""
""fullscreenenter"",""0"",""4061""
","
","null","<p></p>","null","","","","","","","","","","","","","","","","","","","","","","",""
"","do_trial","184","726285","0.0-102.0-0.0","""event"",""trial"",""time""
""fullscreenenter"",""0"",""4061""
","
","
","""event"",""trial"",""time""
""fullscreenenter"",""0"",""4061""
","
","346.69999998807907","","","","","","","","50","1,0,1","1","countryside","45","probe-152","0.27870389654745675","0.2281239694070241","0.6176800712269409","0","","","","","","","",""
"","html-keyboard-response","185","727296","0.0-102.0-1.0","""event"",""trial"",""time""
""fullscreenenter"",""0"",""4061""
","
","
","""event"",""trial"",""time""
""fullscreenenter"",""0"",""4061""
","
","null","<p></p>","null","","","","","","","","","","","","","","","","","","","","","","",""
"","do_trial","186","732112","0.0-103.0-0.0","""event"",""trial"",""time""
""fullscreenenter"",""0"",""4061""
","
","
","""event"",""trial"",""time""
""fullscreenenter"",""0"",""4061""
","
","224.5999999642372","","","","","","","","51","0,0,1","1","countryside","46","probe-96","0.24329983348723958","0.2993902222636909","0.6750096380610261","1","","","","","","","",""
"","html-keyboard-response","187","733119","0.0-103.0-1.0","""event"",""trial"",""time""
""fullscreenenter"",""0"",""4061""
","
","
","""event"",""trial"",""time""
""fullscreenenter"",""0"",""4061""
","
","null","<p></p>","null","","","","","","","","","","","","","","","","","","","","","","",""
"","do_trial","188","737787","0.0-104.0-0.0","""event"",""trial"",""time""
""fullscreenenter"",""0"",""4061""
","
","
","""event"",""trial"",""time""
""fullscreenenter"",""0"",""4061""
","
","87.60000002384186","","","","","","","","51","1,1,1","1","countryside","47","probe-107","0.2132409543054687","0.3560033803434142","0.6821841854105836","1","","","","","","","",""
"","html-keyboard-response","189","738801","0.0-104.0-1.0","""event"",""trial"",""time""
""fullscreenenter"",""0"",""4061""
","
","
","""event"",""trial"",""time""
""fullscreenenter"",""0"",""4061""
","
","null","<p></p>","null","","","","","","","","","","","","","","","","","","","","","","",""
"","do_trial","190","743426","0.0-105.0-0.0","""event"",""trial"",""time""
""fullscreenenter"",""0"",""4061""
","
","
","""event"",""trial"",""time""
""fullscreenenter"",""0"",""4061""
","
","46.59999996423721","","","","","","","","51","0,0,0","1","countryside","48","probe-171","0.11922933746271269","0.4396620416215855","0.6801217267995522","0","","","","","","","",""
"","html-keyboard-response","191","744437","0.0-105.0-1.0","""event"",""trial"",""time""
""fullscreenenter"",""0"",""4061""
","
","
","""event"",""trial"",""time""
""fullscreenenter"",""0"",""4061""
","
","null","<p></p>","null","","","","","","","","","","","","","","","","","","","","","","",""
"","do_trial","192","749311","0.0-106.0-0.0","""event"",""trial"",""time""
""fullscreenenter"",""0"",""4061""
","
","
","""event"",""trial"",""time""
""fullscreenenter"",""0"",""4061""
","
","302.69999998807907","","","","","","","","49","0,1,1","1","countryside","49","probe-115","0.20558560278183716","0.38601139220828784","0.74970030894814","0","","","","","","","",""
"","html-keyboard-response","193","750322","0.0-106.0-1.0","""event"",""trial"",""time""
""fullscreenenter"",""0"",""4061""
","
","
","""event"",""trial"",""time""
""fullscreenenter"",""0"",""4061""
","
","null","<p></p>","null","","","","","","","","","","","","","","","","","","","","","","",""
"","do_trial","194","755433","0.0-107.0-0.0","""event"",""trial"",""time""
""fullscreenenter"",""0"",""4061""
","
","
","""event"",""trial"",""time""
""fullscreenenter"",""0"",""4061""
","
","533.6000000238419","","","","","","","","50","0,1,0","1","countryside","50","probe-89","0.15971084742564276","0.3592255042218909","0.7114606007852542","1","","","","","","","",""
"","html-keyboard-response","195","756445","0.0-107.0-1.0","""event"",""trial"",""time""
""fullscreenenter"",""0"",""4061""
","
","
","""event"",""trial"",""time""
""fullscreenenter"",""0"",""4061""
","
","null","<p></p>","null","","","","","","","","","","","","","","","","","","","","","","",""
"","do_trial","196","761246","0.0-108.0-0.0","""event"",""trial"",""time""
""fullscreenenter"",""0"",""4061""
","
","
","""event"",""trial"",""time""
""fullscreenenter"",""0"",""4061""
","
","234.4000000357628","","","","","","","","50","0,0,1","1","countryside","51","probe-91","0.051372612676059824","0.2854808800828901","0.6981107329955156","0","","","","","","","",""
"","html-keyboard-response","197","762257","0.0-108.0-1.0","""event"",""trial"",""time""
""fullscreenenter"",""0"",""4061""
","
","
","""event"",""trial"",""time""
""fullscreenenter"",""0"",""4061""
","
","null","<p></p>","null","","","","","","","","","","","","","","","","","","","","","","",""
"","do_trial","198","767625","0.0-109.0-0.0","""event"",""trial"",""time""
""fullscreenenter"",""0"",""4061""
","
","
","""event"",""trial"",""time""
""fullscreenenter"",""0"",""4061""
","
","766","","","","","","","","49","0,0,0","1","countryside","52","probe-156","0.18364809474060492","0.28171359511939714","0.727172654864167","0","","","","","","","",""
"","html-keyboard-response","199","768633","0.0-109.0-1.0","""event"",""trial"",""time""
""fullscreenenter"",""0"",""4061""
","
","
","""event"",""trial"",""time""
""fullscreenenter"",""0"",""4061""
","
","null","<p></p>","null","","","","","","","","","","","","","","","","","","","","","","",""
"","do_trial","200","775075","0.0-110.0-0.0","""event"",""trial"",""time""
""fullscreenenter"",""0"",""4061""
","
","
","""event"",""trial"",""time""
""fullscreenenter"",""0"",""4061""
","
","1851.5999999642372","","","","","","","","49","0,0,1","1","countryside","53","probe-214","0.19898000806901542","0.30633605042034584","0.6151021497635065","0","","","","","","","",""
"","html-keyboard-response","201","776083","0.0-110.0-1.0","""event"",""trial"",""time""
""fullscreenenter"",""0"",""4061""
","
","
","""event"",""trial"",""time""
""fullscreenenter"",""0"",""4061""
","
","null","<p></p>","null","","","","","","","","","","","","","","","","","","","","","","",""
"","do_trial","202","782169","0.0-111.0-0.0","""event"",""trial"",""time""
""fullscreenenter"",""0"",""4061""
","
","
","""event"",""trial"",""time""
""fullscreenenter"",""0"",""4061""
","
","null","","","","","","","","null","0,0,1","1","countryside","54","probe-166","0.10671675125714075","0.3965886301636642","0.5882794389371847","","","","","","","","",""
"","html-keyboard-response","203","783176","0.0-111.0-1.0","""event"",""trial"",""time""
""fullscreenenter"",""0"",""4061""
","
","
","""event"",""trial"",""time""
""fullscreenenter"",""0"",""4061""
","
","null","<p></p>","null","","","","","","","","","","","","","","","","","","","","","","",""
"","do_trial","204","787940","0.0-112.0-0.0","""event"",""trial"",""time""
""fullscreenenter"",""0"",""4061""
","
","
","""event"",""trial"",""time""
""fullscreenenter"",""0"",""4061""
","
","190.89999997615814","","","","","","","","49","0,1,1","1","countryside","55","probe-128","0.14482915067322613","0.2460321123692605","0.5456116716836995","0","","","","","","","",""
"","html-keyboard-response","205","788950","0.0-112.0-1.0","""event"",""trial"",""time""
""fullscreenenter"",""0"",""4061""
","
","
","""event"",""trial"",""time""
""fullscreenenter"",""0"",""4061""
","
","null","<p></p>","null","","","","","","","","","","","","","","","","","","","","","","",""
"","do_trial","206","793672","0.0-113.0-0.0","""event"",""trial"",""time""
""fullscreenenter"",""0"",""4061""
","
","
","""event"",""trial"",""time""
""fullscreenenter"",""0"",""4061""
","
","147.89999997615814","","","","","","","","50","0,0,1","1","countryside","56","probe-204","0.08080166296666697","0.23558002382074494","0.571401985913187","0","","","","","","","",""
"","html-keyboard-response","207","794684","0.0-113.0-1.0","""event"",""trial"",""time""
""fullscreenenter"",""0"",""4061""
","
","
","""event"",""trial"",""time""
""fullscreenenter"",""0"",""4061""
","
","null","<p></p>","null","","","","","","","","","","","","","","","","","","","","","","",""
"","do_trial","208","800717","0.0-114.0-0.0","""event"",""trial"",""time""
""fullscreenenter"",""0"",""4061""
","
","
","""event"",""trial"",""time""
""fullscreenenter"",""0"",""4061""
","
","1454.199999988079","","","","","","","","49","0,1,0","1","countryside","57","probe-174","0.07853429895715307","0.3099879897339623","0.5240498693679662","0","","","","","","","",""
"","html-keyboard-response","209","801733","0.0-114.0-1.0","""event"",""trial"",""time""
""fullscreenenter"",""0"",""4061""
","
","
","""event"",""trial"",""time""
""fullscreenenter"",""0"",""4061""
","
","null","<p></p>","null","","","","","","","","","","","","","","","","","","","","","","",""
"","do_trial","210","806361","0.0-115.0-0.0","""event"",""trial"",""time""
""fullscreenenter"",""0"",""4061""
","
","
","""event"",""trial"",""time""
""fullscreenenter"",""0"",""4061""
","
","37.200000047683716","","","","","","","","49","0,1,1","1","countryside","58","probe-127","0.2533641035231253","0.3352438630704131","0.5581949448837255","0","","","","","","","",""
"","html-keyboard-response","211","807369","0.0-115.0-1.0","""event"",""trial"",""time""
""fullscreenenter"",""0"",""4061""
","
","
","""event"",""trial"",""time""
""fullscreenenter"",""0"",""4061""
","
","null","<p></p>","null","","","","","","","","","","","","","","","","","","","","","","",""
"","do_trial","212","811956","0.0-116.0-0.0","""event"",""trial"",""time""
""fullscreenenter"",""0"",""4061""
","
","
","""event"",""trial"",""time""
""fullscreenenter"",""0"",""4061""
","
","0.09999996423721313","","","","","","","","49","0,1,1","1","countryside","59","probe-124","0.1569790180339602","0.46998649305716633","0.44862241192290625","0","","","","","","","",""
"","html-keyboard-response","213","812964","0.0-116.0-1.0","""event"",""trial"",""time""
""fullscreenenter"",""0"",""4061""
","
","
","""event"",""trial"",""time""
""fullscreenenter"",""0"",""4061""
","
","null","<p></p>","null","","","","","","","","","","","","","","","","","","","","","","",""
"","do_trial","214","818190","0.0-117.0-0.0","""event"",""trial"",""time""
""fullscreenenter"",""0"",""4061""
","
","
","""event"",""trial"",""time""
""fullscreenenter"",""0"",""4061""
","
","646","","","","","","","","50","0,0,1","1","countryside","60","probe-186","0.12766456134958537","0.5610107248310444","0.6622187839120934","0","","","","","","","",""
"","html-keyboard-response","215","819200","0.0-117.0-1.0","""event"",""trial"",""time""
""fullscreenenter"",""0"",""4061""
","
","
","""event"",""trial"",""time""
""fullscreenenter"",""0"",""4061""
","
","null","<p></p>","null","","","","","","","","","","","","","","","","","","","","","","",""
"","do_trial","216","824240","0.0-118.0-0.0","""event"",""trial"",""time""
""fullscreenenter"",""0"",""4061""
","
","
","""event"",""trial"",""time""
""fullscreenenter"",""0"",""4061""
","
","474.2999999523163","","","","","","","","49","1,1,1","1","countryside","61","probe-221","0.06311173767969011","0.5229704037318106","0.6969587424116018","1","","","","","","","",""
"","html-keyboard-response","217","825253","0.0-118.0-1.0","""event"",""trial"",""time""
""fullscreenenter"",""0"",""4061""
","
","
","""event"",""trial"",""time""
""fullscreenenter"",""0"",""4061""
","
","null","<p></p>","null","","","","","","","","","","","","","","","","","","","","","","",""
"","do_trial","218","829863","0.0-119.0-0.0","""event"",""trial"",""time""
""fullscreenenter"",""0"",""4061""
","
","
","""event"",""trial"",""time""
""fullscreenenter"",""0"",""4061""
","
","29.599999964237213","","","","","","","","49","0,1,1","1","countryside","62","probe-198","0.17580882752867702","0.4260747330332365","0.8054557293563651","0","","","","","","","",""
"","html-keyboard-response","219","830874","0.0-119.0-1.0","""event"",""trial"",""time""
""fullscreenenter"",""0"",""4061""
","
","
","""event"",""trial"",""time""
""fullscreenenter"",""0"",""4061""
","
","null","<p></p>","null","","","","","","","","","","","","","","","","","","","","","","",""
"","do_trial","220","835825","0.0-120.0-0.0","""event"",""trial"",""time""
""fullscreenenter"",""0"",""4061""
","
","
","""event"",""trial"",""time""
""fullscreenenter"",""0"",""4061""
","
","376.19999998807907","","","","","","","","51","1,0,1","1","countryside","63","probe-220","0.17674418782755474","0.3622072615207458","0.7199523188846613","1","","","","","","","",""
"","html-keyboard-response","221","836834","0.0-120.0-1.0","""event"",""trial"",""time""
""fullscreenenter"",""0"",""4061""
","
","
","""event"",""trial"",""time""
""fullscreenenter"",""0"",""4061""
","
","null","<p></p>","null","","","","","","","","","","","","","","","","","","","","","","",""
"","do_trial","222","841406","0.0-121.0-0.0","""event"",""trial"",""time""
""fullscreenenter"",""0"",""4061""
","
","
","""event"",""trial"",""time""
""fullscreenenter"",""0"",""4061""
","
","0","","","","","","","","51","0,0,1","1","countryside","64","probe-149","0.0657977180628335","0.32185451566602313","0.810642554756873","1","","","","","","","",""
"","html-keyboard-response","223","842415","0.0-121.0-1.0","""event"",""trial"",""time""
""fullscreenenter"",""0"",""4061""
","
","
","""event"",""trial"",""time""
""fullscreenenter"",""0"",""4061""
","
","null","<p></p>","null","","","","","","","","","","","","","","","","","","","","","","",""
"","do_trial","224","847111","0.0-122.0-0.0","""event"",""trial"",""time""
""fullscreenenter"",""0"",""4061""
","
","
","""event"",""trial"",""time""
""fullscreenenter"",""0"",""4061""
","
","121.09999996423721","","","","","","","","51","0,1,0","1","countryside","65","probe-19","0.05252809793133583","0.29370038190581504","0.6028883689857915","0","","","","","","","",""
"","html-keyboard-response","225","848123","0.0-122.0-1.0","""event"",""trial"",""time""
""fullscreenenter"",""0"",""4061""
","
","
","""event"",""trial"",""time""
""fullscreenenter"",""0"",""4061""
","
","null","<p></p>","null","","","","","","","","","","","","","","","","","","","","","","",""
"","do_trial","226","852720","0.0-123.0-0.0","""event"",""trial"",""time""
""fullscreenenter"",""0"",""4061""
","
","
","""event"",""trial"",""time""
""fullscreenenter"",""0"",""4061""
","
","2","","","","","","","","50","0,1,1","1","countryside","66","probe-202","0.0927453046962108","0.3040772268369281","0.4864524566868324","1","","","","","","","",""
"","html-keyboard-response","227","853732","0.0-123.0-1.0","""event"",""trial"",""time""
""fullscreenenter"",""0"",""4061""
","
","
","""event"",""trial"",""time""
""fullscreenenter"",""0"",""4061""
","
","null","<p></p>","null","","","","","","","","","","","","","","","","","","","","","","",""
"","do_trial","228","859129","0.0-124.0-0.0","""event"",""trial"",""time""
""fullscreenenter"",""0"",""4061""
","
","
","""event"",""trial"",""time""
""fullscreenenter"",""0"",""4061""
","
","820.5","","","","","","","","49","0,1,1","1","countryside","67","probe-85","0.09774785397926353","0.5520008517585427","0.5648082301515096","0","","","","","","","",""
"","html-keyboard-response","229","860136","0.0-124.0-1.0","""event"",""trial"",""time""
""fullscreenenter"",""0"",""4061""
","
","
","""event"",""trial"",""time""
""fullscreenenter"",""0"",""4061""
","
","null","<p></p>","null","","","","","","","","","","","","","","","","","","","","","","",""
"","do_trial","230","867107","0.0-125.0-0.0","""event"",""trial"",""time""
""fullscreenenter"",""0"",""4061""
","
","
","""event"",""trial"",""time""
""fullscreenenter"",""0"",""4061""
","
","2385.900000035763","","","","","","","","51","0,0,1","1","countryside","68","probe-56","0.14105290882506397","0.5465430441856031","0.4827614237951005","1","","","","","","","",""
"","html-keyboard-response","231","868118","0.0-125.0-1.0","""event"",""trial"",""time""
""fullscreenenter"",""0"",""4061""
","
","
","""event"",""trial"",""time""
""fullscreenenter"",""0"",""4061""
","
","null","<p></p>","null","","","","","","","","","","","","","","","","","","","","","","",""
"","do_trial","232","873257","0.0-126.0-0.0","""event"",""trial"",""time""
""fullscreenenter"",""0"",""4061""
","
","
","""event"",""trial"",""time""
""fullscreenenter"",""0"",""4061""
","
","555.6999999880791","","","","","","","","49","0,0,1","1","countryside","69","probe-193","0.08512937160336673","0.46699566246174573","0.6217759000841655","0","","","","","","","",""
"","html-keyboard-response","233","874270","0.0-126.0-1.0","""event"",""trial"",""time""
""fullscreenenter"",""0"",""4061""
","
","
","""event"",""trial"",""time""
""fullscreenenter"",""0"",""4061""
","
","null","<p></p>","null","","","","","","","","","","","","","","","","","","","","","","",""
"","do_bye","234","875794","0.0-127.0-0.0","""event"",""trial"",""time""
""fullscreenenter"",""0"",""4061""
","
","
","""event"",""trial"",""time""
""fullscreenenter"",""0"",""4061""
","
","null","","","","","","","","null","","","","","","","","","","","","","","","","",""
"","break","235","876924","0.0-127.0-1.0","""event"",""trial"",""time""
""fullscreenenter"",""0"",""4061""
","
","
","""event"",""trial"",""time""
""fullscreenenter"",""0"",""4061""
","
","1128.199999988079","<div class='center'><p>Time to take a quick break! You have 2 minutes to rest, but you can move on sooner if you'd like.</p><p> Press the <b>space bar</b> to continue.</p></div>","32","","","","","","","","","","","","","","","","","","","","","","",""
"","do_travel","236","885938","0.0-128.0-0.0","""event"",""trial"",""time""
""fullscreenenter"",""0"",""4061""
","
","
","""event"",""trial"",""time""
""fullscreenenter"",""0"",""4061""
","
","null","","","","","","","","null","","","","","","","","","","","","","","","","",""
"","do_welcome","237","889961","0.0-128.0-1.0","""event"",""trial"",""time""
""fullscreenenter"",""0"",""4061""
""blur"",""238"",""891400""
","""event"",""trial"",""time""
""blur"",""238"",""891400""
","
","""event"",""trial"",""time""
""fullscreenenter"",""0"",""4061""
","
","null","","","","","","","","null","","","","","","","","","","","","","","","","",""
"","do_trial","238","895891","0.0-129.0-0.0","""event"",""trial"",""time""
""fullscreenenter"",""0"",""4061""
""blur"",""238"",""891400""
","""event"",""trial"",""time""
""blur"",""238"",""891400""
","
","""event"",""trial"",""time""
""fullscreenenter"",""0"",""4061""
","
","1336.800000011921","","","","","","","","50","0,1,1","2","mountain","70","probe-151","0.0774108387086904","0.3279955325671156","1","1","","","","","","","",""
"","html-keyboard-response","239","896904","0.0-129.0-1.0","""event"",""trial"",""time""
""fullscreenenter"",""0"",""4061""
""blur"",""238"",""891400""
""focus"",""240"",""901435""
""blur"",""240"",""902954""
","""event"",""trial"",""time""
""blur"",""238"",""891400""
""blur"",""240"",""902954""
","""event"",""trial"",""time""
""focus"",""240"",""901435""
","""event"",""trial"",""time""
""fullscreenenter"",""0"",""4061""
","
","null","<p></p>","null","","","","","","","","","","","","","","","","","","","","","","",""
"","do_trial","240","902972","0.0-130.0-0.0","""event"",""trial"",""time""
""fullscreenenter"",""0"",""4061""
""blur"",""238"",""891400""
""focus"",""240"",""901435""
""blur"",""240"",""902954""
","""event"",""trial"",""time""
""blur"",""238"",""891400""
""blur"",""240"",""902954""
","""event"",""trial"",""time""
""focus"",""240"",""901435""
","""event"",""trial"",""time""
""fullscreenenter"",""0"",""4061""
","
","null","","","","","","","","null","1,1,1","2","mountain","71","probe-45","0.140229909073718","0.38540681861968473","1","","","","","","","","",""
"","html-keyboard-response","241","903974","0.0-130.0-1.0","""event"",""trial"",""time""
""fullscreenenter"",""0"",""4061""
""blur"",""238"",""891400""
""focus"",""240"",""901435""
""blur"",""240"",""902954""
""focus"",""242"",""905406""
","""event"",""trial"",""time""
""blur"",""238"",""891400""
""blur"",""240"",""902954""
","""event"",""trial"",""time""
""focus"",""240"",""901435""
""focus"",""242"",""905406""
","""event"",""trial"",""time""
""fullscreenenter"",""0"",""4061""
","
","null","<p></p>","null","","","","","","","","","","","","","","","","","","","","","","",""
"","do_trial","242","910060","0.0-131.0-0.0","""event"",""trial"",""time""
""fullscreenenter"",""0"",""4061""
""blur"",""238"",""891400""
""focus"",""240"",""901435""
""blur"",""240"",""902954""
""focus"",""242"",""905406""
","""event"",""trial"",""time""
""blur"",""238"",""891400""
""blur"",""240"",""902954""
","""event"",""trial"",""time""
""focus"",""240"",""901435""
""focus"",""242"",""905406""
","""event"",""trial"",""time""
""fullscreenenter"",""0"",""4061""
","
","null","","","","","","","","null","0,0,1","2","mountain","72","probe-21","0.11422478713697151","0.350410204047606","0.8649499660858472","","","","","","","","",""
"","html-keyboard-response","243","911072","0.0-131.0-1.0","""event"",""trial"",""time""
""fullscreenenter"",""0"",""4061""
""blur"",""238"",""891400""
""focus"",""240"",""901435""
""blur"",""240"",""902954""
""focus"",""242"",""905406""
","""event"",""trial"",""time""
""blur"",""238"",""891400""
""blur"",""240"",""902954""
","""event"",""trial"",""time""
""focus"",""240"",""901435""
""focus"",""242"",""905406""
","""event"",""trial"",""time""
""fullscreenenter"",""0"",""4061""
","
","null","<p></p>","null","","","","","","","","","","","","","","","","","","","","","","",""
"","do_trial","244","915705","0.0-132.0-0.0","""event"",""trial"",""time""
""fullscreenenter"",""0"",""4061""
""blur"",""238"",""891400""
""focus"",""240"",""901435""
""blur"",""240"",""902954""
""focus"",""242"",""905406""
","""event"",""trial"",""time""
""blur"",""238"",""891400""
""blur"",""240"",""902954""
","""event"",""trial"",""time""
""focus"",""240"",""901435""
""focus"",""242"",""905406""
","""event"",""trial"",""time""
""fullscreenenter"",""0"",""4061""
","
","42.60000002384186","","","","","","","","49","0,1,1","2","mountain","73","probe-155","0.24852186103680016","0.230495825901016","0.8371576406831764","0","","","","","","","",""
"","html-keyboard-response","245","916713","0.0-132.0-1.0","""event"",""trial"",""time""
""fullscreenenter"",""0"",""4061""
""blur"",""238"",""891400""
""focus"",""240"",""901435""
""blur"",""240"",""902954""
""focus"",""242"",""905406""
","""event"",""trial"",""time""
""blur"",""238"",""891400""
""blur"",""240"",""902954""
","""event"",""trial"",""time""
""focus"",""240"",""901435""
""focus"",""242"",""905406""
","""event"",""trial"",""time""
""fullscreenenter"",""0"",""4061""
","
","null","<p></p>","null","","","","","","","","","","","","","","","","","","","","","","",""
"","do_trial","246","922352","0.0-133.0-0.0","""event"",""trial"",""time""
""fullscreenenter"",""0"",""4061""
""blur"",""238"",""891400""
""focus"",""240"",""901435""
""blur"",""240"",""902954""
""focus"",""242"",""905406""
","""event"",""trial"",""time""
""blur"",""238"",""891400""
""blur"",""240"",""902954""
","""event"",""trial"",""time""
""focus"",""240"",""901435""
""focus"",""242"",""905406""
","""event"",""trial"",""time""
""fullscreenenter"",""0"",""4061""
","
","1053.3999999761581","","","","","","","","49","1,1,1","2","mountain","74","probe-92","0.3885114308194919","0.25936281863811245","0.7511523875321732","1","","","","","","","",""
"","html-keyboard-response","247","923367","0.0-133.0-1.0","""event"",""trial"",""time""
""fullscreenenter"",""0"",""4061""
""blur"",""238"",""891400""
""focus"",""240"",""901435""
""blur"",""240"",""902954""
""focus"",""242"",""905406""
","""event"",""trial"",""time""
""blur"",""238"",""891400""
""blur"",""240"",""902954""
","""event"",""trial"",""time""
""focus"",""240"",""901435""
""focus"",""242"",""905406""
","""event"",""trial"",""time""
""fullscreenenter"",""0"",""4061""
","
","null","<p></p>","null","","","","","","","","","","","","","","","","","","","","","","",""
"","do_trial","248","928165","0.0-134.0-0.0","""event"",""trial"",""time""
""fullscreenenter"",""0"",""4061""
""blur"",""238"",""891400""
""focus"",""240"",""901435""
""blur"",""240"",""902954""
""focus"",""242"",""905406""
","""event"",""trial"",""time""
""blur"",""238"",""891400""
""blur"",""240"",""902954""
","""event"",""trial"",""time""
""focus"",""240"",""901435""
""focus"",""242"",""905406""
","""event"",""trial"",""time""
""fullscreenenter"",""0"",""4061""
","
","219.5","","","","","","","","49","1,0,1","2","mountain","75","probe-94","0.3037999737050427","0.27534300020567143","0.6849968827086781","1","","","","","","","",""
"","html-keyboard-response","249","929172","0.0-134.0-1.0","""event"",""trial"",""time""
""fullscreenenter"",""0"",""4061""
""blur"",""238"",""891400""
""focus"",""240"",""901435""
""blur"",""240"",""902954""
""focus"",""242"",""905406""
","""event"",""trial"",""time""
""blur"",""238"",""891400""
""blur"",""240"",""902954""
","""event"",""trial"",""time""
""focus"",""240"",""901435""
""focus"",""242"",""905406""
","""event"",""trial"",""time""
""fullscreenenter"",""0"",""4061""
","
","null","<p></p>","null","","","","","","","","","","","","","","","","","","","","","","",""
"","do_trial","250","933881","0.0-135.0-0.0","""event"",""trial"",""time""
""fullscreenenter"",""0"",""4061""
""blur"",""238"",""891400""
""focus"",""240"",""901435""
""blur"",""240"",""902954""
""focus"",""242"",""905406""
","""event"",""trial"",""time""
""blur"",""238"",""891400""
""blur"",""240"",""902954""
","""event"",""trial"",""time""
""focus"",""240"",""901435""
""focus"",""242"",""905406""
","""event"",""trial"",""time""
""fullscreenenter"",""0"",""4061""
","
