success,trial_type,trial_index,time_elapsed,internal_node_id,rt,stimulus,key_press,subject_id,participant_id,age,gender,prompt,response,choice_outcomes,context_n,context_img_id,trial_n,probe_img_id,pR_red,pR_white,pR_black,outcome,contextArray_ind,validImageProbes,invalidImageProbes,pRew_Red,pRew_White,pRew_Black,availableForMemProbe,choice_blocks
TRUE,fullscreen,0,5578,0.0-0.0,,,,,,,,,,,,,,,,,,,,,,,,,,
,pavlovia,1,5587,0.0-1.0,,,,,,,,,,,,,,,,,,,,,,,,,,
,instruc1,2,56862,0.0-2.0,null,run_exp/static/audio/clip_1_welcome.m4a,null,140,251,8,Male,"<div class='center'><p>Welcome! This is the first part of the experiment. It will last ~30 minutes. In this experiment, you are the head captain of a pirate ship traveling around the world to different islands. You will play a few different games during this experiment. Here is an overview of these games:</p><br><p>Part 1 (today)</p><p>1. Instructions, practice game, and quiz</p><p>2. Pick a pirate game on 6 different islands</p><br><p>Part 2 (1 day later)</p><p>3. Pick a pirate game and memory game</p><p>4. Where did I see this ship? game</p><p>5. Which pirate was the best? game</p><br><p>Part 3 (1 week later)</p><p>6. Memory game</p></div>",,,,,,,,,,,,,,,,,,
,html-keyboard-response,3,59683,0.0-3.0,2819.4,"<div class='center'><p>Welcome! This is the first part of the experiment. It will last ~30 minutes. In this experiment, you are the head captain of a pirate ship traveling around the world to different islands. You will play a few different games during this experiment. Here is an overview of these games:</p><br><p>Part 1 (today)</p><p>1. Instructions, practice game, and quiz</p><p>2. Pick a pirate game on 6 different islands</p><br><p>Part 2 (1 day later)</p><p>3. Pick a pirate game and memory game</p><p>4. Where did I see this ship? game</p><p>5. Which pirate was the best? game</p><br><p>Part 3 (1 week later)</p><p>6. Memory game</p><p><b>[Press the space bar to continue]</b></p></div>",32,,,,,,,,,,,,,,,,,,,,,,,
,instruc2,4,67730,0.0-4.0,null,run_exp/static/audio/clip_2_different_places.m4a,null,,,,,"<div class='center'><p>Today, you’ll visit these 6 islands on your journey. You'll be able to see these islands from your ship.</p><p><img src='run_exp/static/images/contexts/all_contexts.png' height='500'></p></div>",,,,,,,,,,,,,,,,,,
,html-keyboard-response,5,69552,0.0-5.0,1820.6,"<div class='center'><p>Today, you’ll visit these 6 islands on your journey. You'll be able to see these islands from your ship.</p><p><img src='run_exp/static/images/contexts/all_contexts.png' height='500'></p><p><b>[Press the space bar to continue]</b></p></div>",32,,,,,,,,,,,,,,,,,,,,,,,
,instruc3,6,82156,0.0-6.0,null,run_exp/static/audio/clip_3_goal_of_game_1.m4a,null,,,,,"<div class='center'><p> The pirates on your ship will rob other ships as they leave the island</p> These ships have just sold their things to people on the island, so they will be filled with lots and lots of gold.</p><p><img src='run_exp/static/images/tutorial/ship_center.png' height='400'></p></div>",,,,,,,,,,,,,,,,,,
,html-keyboard-response,7,83644,0.0-7.0,1486.6,"<div class='center'><p> The pirates on your ship will rob other ships as they leave the island</p> These ships have just sold their things to people on the island, so they will be filled with lots and lots of gold.</p><p><img src='run_exp/static/images/tutorial/ship_center.png' height='400'></p><p><b>[Press the space bar to continue]</b></p></div>",32,,,,,,,,,,,,,,,,,,,,,,,
,instruc4,8,116937,0.0-8.0,null,run_exp/static/audio/clip_4_goal_of_game_2.m4a,null,,,,,"<div class='center'><p>As the head captain, you do not have to rob any ships yourself.</p><p>Another pirate will be doing the robbing for you. </p><p>First, you will  choose a pirate to rob the next ship.</p><p><img src='run_exp/static/images/tutorial/pirates_all_crop.png' height='200'></p><p>Then, you'll see if the pirate successfully robbed the ship of their gold. If they were successful, then you'll  get a stack of gold coins like this:</p><p><img src='run_exp/static/images/tutorial/reward.png' height='150'></p><p> If they were <b>not</b> successful, then you'll get no gold coins, and you'll see a big red x like this: </p><p><img src='run_exp/static/images/tutorial/reward_no.png' height='150'></p><p> How much bonus money you make is based on how many gold coins you collect.</p><div>",,,,,,,,,,,,,,,,,,
,html-keyboard-response,9,120765,0.0-9.0,3823.5,"<div class='center'><p>As the head captain, you do not have to rob any ships yourself.</p><p>Another pirate will be doing the robbing for you. </p><p>First, you will  choose a pirate to rob the next ship.</p><p><img src='run_exp/static/images/tutorial/pirates_all_crop.png' height='200'></p><p>Then, you'll see if the pirate successfully robbed the ship of their gold. If they were successful, then you'll  get a stack of gold coins like this:</p><p><img src='run_exp/static/images/tutorial/reward.png' height='150'></p><p> If they were <b>not</b> successful, then you'll get no gold coins, and you'll see a big red x like this: </p><p><img src='run_exp/static/images/tutorial/reward_no.png' height='150'></p><p> How much bonus money you make is based on how many gold coins you collect.</p<p><b>[Press the space bar to continue]</b></p></div>",32,,,,,,,,,,,,,,,,,,,,,,,
,instruc5,10,151731,0.0-10.0,30937.7,run_exp/static/audio/clip_5_probabilistic.m4a,49,,,,,"<div class='center'><p>Even the most skilled pirate can not rob EVERY ship.</p><p> Some ships will have very strong protections against pirate attacks.</p><p> Blue beard, here, is very, very good at robbing ships, but he won't be successful every time he tries to rob one.</p><p> You can press the <b>‘1’</b> key on the keyboard to choose him.</p><p> Try choosing him 10 times to see how often he succeeds at robbing a ship. </p><p><img src='run_exp/static/images/tutorial/blue.png' height='500'></p></div>",,,,,,,,,,,,,,,,,,
,html-keyboard-response,11,153238,0.0-11.0,null,<div class='center'><p><img src='run_exp/static/images/tutorial/blue_win.png' height='500'></p></div>,null,,,,,,,,,,,,,,,,,,,,,,,
,html-keyboard-response,12,155637,0.0-12.0,2397,<div class='center'><img src='run_exp/static/images/tutorial/blue.png' height='500'></p></div>,49,,,,,,,,,,,,,,,,,,,,,,,
,html-keyboard-response,13,157151,0.0-13.0,null,<div class='center'><p><img src='run_exp/static/images/tutorial/blue_win.png' height='500'></p></div>,null,,,,,,,,,,,,,,,,,,,,,,,
,html-keyboard-response,14,157878,0.0-14.0,724.3,<div class='center'><img src='run_exp/static/images/tutorial/blue.png' height='500'></p></div>,49,,,,,,,,,,,,,,,,,,,,,,,
,html-keyboard-response,15,159381,0.0-15.0,null,<div class='center'><p><img src='run_exp/static/images/tutorial/blue_win.png' height='500'></p></div>,null,,,,,,,,,,,,,,,,,,,,,,,
,html-keyboard-response,16,159789,0.0-16.0,406.9,<div class='center'><img src='run_exp/static/images/tutorial/blue.png' height='500'></p></div>,49,,,,,,,,,,,,,,,,,,,,,,,
,html-keyboard-response,17,161292,0.0-17.0,null,<div class='center'><p><img src='run_exp/static/images/tutorial/blue_no_win.png' height='500'></p></div>,null,,,,,,,,,,,,,,,,,,,,,,,
,html-keyboard-response,18,161734,0.0-18.0,440.9,<div class='center'><img src='run_exp/static/images/tutorial/blue.png' height='500'></p></div>,49,,,,,,,,,,,,,,,,,,,,,,,
,html-keyboard-response,19,163244,0.0-19.0,null,<div class='center'><p><img src='run_exp/static/images/tutorial/blue_win.png' height='500'></p></div>,null,,,,,,,,,,,,,,,,,,,,,,,
,html-keyboard-response,20,163802,0.0-20.0,556.2,<div class='center'><img src='run_exp/static/images/tutorial/blue.png' height='500'></p></div>,49,,,,,,,,,,,,,,,,,,,,,,,
,html-keyboard-response,21,165311,0.0-21.0,null,<div class='center'><p><img src='run_exp/static/images/tutorial/blue_win.png' height='500'></p></div>,null,,,,,,,,,,,,,,,,,,,,,,,
,html-keyboard-response,22,165810,0.0-22.0,497,<div class='center'><img src='run_exp/static/images/tutorial/blue.png' height='500'></p></div>,49,,,,,,,,,,,,,,,,,,,,,,,
,html-keyboard-response,23,167322,0.0-23.0,null,<div class='center'><p><img src='run_exp/static/images/tutorial/blue_win.png' height='500'></p></div>,null,,,,,,,,,,,,,,,,,,,,,,,
,html-keyboard-response,24,167831,0.0-24.0,508.2,<div class='center'><img src='run_exp/static/images/tutorial/blue.png' height='500'></p></div>,49,,,,,,,,,,,,,,,,,,,,,,,
,html-keyboard-response,25,169353,0.0-25.0,null,<div class='center'><p><img src='run_exp/static/images/tutorial/blue_no_win.png' height='500'></p></div>,null,,,,,,,,,,,,,,,,,,,,,,,
,html-keyboard-response,26,169828,0.0-26.0,474,<div class='center'><img src='run_exp/static/images/tutorial/blue.png' height='500'></p></div>,49,,,,,,,,,,,,,,,,,,,,,,,
,html-keyboard-response,27,171343,0.0-27.0,null,<div class='center'><p><img src='run_exp/static/images/tutorial/blue_win.png' height='500'></p></div>,null,,,,,,,,,,,,,,,,,,,,,,,
,html-keyboard-response,28,171728,0.0-28.0,383.2,<div class='center'><img src='run_exp/static/images/tutorial/blue.png' height='500'></p></div>,49,,,,,,,,,,,,,,,,,,,,,,,
,html-keyboard-response,29,173242,0.0-29.0,null,<div class='center'><p><img src='run_exp/static/images/tutorial/blue_win.png' height='500'></p></div>,null,,,,,,,,,,,,,,,,,,,,,,,
,instruc6,30,180600,0.0-30.0,null,run_exp/static/audio/clip_6_blue_beard_outcome.m4a,null,,,,,"<div class='center'><p> See, he succeeded in robbing the ships most of the time but not every time. </p></div>",,,,,,,,,,,,,,,,,,
,html-keyboard-response,31,181773,0.0-31.0,1172,"<div class='center'><p> See, he succeeded in robbing the ships most of the time but not every time. </p><p><b>[Press the space bar to continue]</b></p></div>",32,,,,,,,,,,,,,,,,,,,,,,,
,audio-keyboard-response,32,213898,0.0-32.0,32122.2,run_exp/static/audio/clip_7_pick_pirate.m4a,51,,,,,,,,,,,,,,,,,,,,,,,
,audio-keyboard-response,33,221283,0.0-33.0-0.0,7378.4,run_exp/static/audio/clip_8_chosen_pirate_win.m4a,32,,,,,,,,,,,,,,,,,,,,,,,
,audio-keyboard-response,34,225569,0.0-33.0-1.0,4282.4,run_exp/static/audio/clip_9_pick_a_pirate_again.m4a,49,,,,,,,,,,,,,,,,,,,,,,,
,audio-keyboard-response,35,232820,0.0-34.0-0.0,7227.9,run_exp/static/audio/clip_10_chosen_pirate_loss.m4a,32,,,,,,,,,,,,,,,,,,,,,,,
,instruc9,36,240036,0.0-35.0-0.0,null,run_exp/static/audio/clip_11_time_out.m4a,null,,,,,"<div class='center'><p>If you don’t make your choice fast enough, you’ll have to wait a few seconds before you can make another one. </p><p><img src='run_exp/static/images/miscellaneous/hurry_up.png' height='500'></p></div>",,,,,,,,,,,,,,,,,,
,html-keyboard-response,37,240756,0.0-35.0-1.0,717.5,"<div class='center'><p>If you don’t make your choice fast enough, you’ll have to wait a few seconds before you can make another one. </p><p><img src='run_exp/static/images/miscellaneous/hurry_up.png' height='500'></p><p><b>[Press the space bar to continue]</b></p></div>",32,,,,,,,,,,,,,,,,,,,,,,,
,instruc10,38,289401,0.0-35.0-2.0,null,run_exp/static/audio/clip_12_probe.m4a,null,,,,,"<div class='center'><p>Once you've choose a pirate, you’ll be shown the ship they are robbing.</p><p>You will never rob the same ship twice. After all, ships that have already been robbed won’t have gold on them. </p><p>Ships can be told apart from one another by the image on them. See, this one has a travel mug on it. </p><p> You’ll have to remember which island you saw each ship on.You will win more bonus money if you remember correctly! To help you remember, you can imagine a story. For example, here, you could imagine a mug full of water in the desert. Or, as another example, if on the forest island, your pirate robbed a ship with an apple on it, you could imagine an apple falling from a tree in the forest. </p><p><img src='run_exp/static/images/tutorial/example_probe.png' height='500'></p></div>",,,,,,,,,,,,,,,,,,
,html-keyboard-response,39,290714,0.0-35.0-3.0,1311.2,"<div class='center'><p>Once you've choose a pirate, you’ll be shown the ship they are robbing.</p><p>You will never rob the same ship twice. After all, ships that have already been robbed won’t have gold on them. </p><p>Ships can be told apart from one another by the image on them. See, this one has a travel mug on it. </p><p> You’ll have to remember which island you saw each ship on.You will win more bonus money if you remember correctly! To help you remember, you can imagine a story. For example, here, you could imagine a mug full of water in the desert. Or, as another example, if on the forest island, your pirate robbed a ship with an apple on it, you could imagine an apple falling from a tree in the forest. </p><p><img src='run_exp/static/images/tutorial/example_probe.png' height='500'></p><p><b>[Press the space bar to continue]</b></p></div>",32,,,,,,,,,,,,,,,,,,,,,,,
,instruc11,40,311630,0.0-35.0-4.0,null,run_exp/static/audio/clip_13_changepoint.m4a,null,,,,,"<div class='center'><p>How successful a pirate is at robbing ships will depend on the island you’re on.</p><p> A pirate may have visited this island many times before and gained a lot of practice robbing ships there.</p><p>So, they’re more likely to be successful than a pirate who has never visited the island before.</p></div>",,,,,,,,,,,,,,,,,,
,html-keyboard-response,41,312289,0.0-35.0-5.0,657.6,"<div class='center'><p>How successful a pirate is at robbing ships will depend on the island you’re on.</p><p> A pirate may have visited this island many times before and gained a lot of practice robbing ships there.</p><p>So, they’re more likely to be successful than a pirate who has never visited the island before.</p><p><b>[Press the space bar to continue]</b></p></div>",32,,,,,,,,,,,,,,,,,,,,,,,
,instruc12,42,340350,0.0-35.0-6.0,null,run_exp/static/audio/clip_14_drift.m4a,null,,,,,"<div class='center'><p>How successful a pirate is at robbing ships can also change over the time spent on the island. </p><p> Ships may hear from islanders about the pirates coming and will improve their protections against the attack. This may make it harder to rob them.</p><p> Ships may also become lazy and weaken the strength of their protections. This may make it easier to rob them.</p><br><p>Things are always changing on the high seas! So, try your best to pay attention!</p><p><img src='run_exp/static/images/tutorial/contingency.png' height='500'></p></div>",,,,,,,,,,,,,,,,,,
,html-keyboard-response,43,365964,0.0-35.0-7.0,25611.9,"<div class='center'><p>How successful a pirate is at robbing ships can also change over the time spent on the island. </p><p> Ships may hear from islanders about the pirates coming and will improve their protections against the attack. This may make it harder to rob them.</p><p> Ships may also become lazy and weaken the strength of their protections. This may make it easier to rob them.</p><br><p>Things are always changing on the high seas! So, try your best to pay attention!</p><p><img src='run_exp/static/images/tutorial/contingency.png' height='500'></p><p><b>[Press the space bar to continue]</b></p></div>",32,,,,,,,,,,,,,,,,,,,,,,,
,instruc13,44,411891,0.0-35.0-8.0,null,run_exp/static/audio/clip_15_summary.m4a,null,,,,,"<div class='center'><p>Let's go over the instructions quickly again. You have two important things to do: </p><b><p> 1. Pick the pirate who is the best at robbing ships on the current island. This way you'll collect more gold coins!</p></b><b><p> 2. Remember on which island a ship was robbed.</p> </b><p>The amount of bonus money you can win depends on both.</p><p><br><p>Let’s try a practice game. The game will start by showing you the pirates. First, pick a pirate using the <b> 1, 2, 3 </b> keys on your keyboard. When you are shown a ship, try to remember which island you’re on by making up a story.</p><p>This is just a practice game, so you’re not playing for money. </p><p> Good luck! This game will be very difficult but try your best!</p></div>",,,,,,,,,,,,,,,,,,
,html-keyboard-response,45,412295,0.0-35.0-9.0,401.9,"<div class='center'><p>Let's go over the instructions quickly again. You have two important things to do: </p><b><p> 1. Pick the pirate who is the best at robbing ships on the current island. This way you'll collect more gold coins!</p></b><b><p> 2. Remember on which island a ship was robbed.</p> </b><p>The amount of bonus money you can win depends on both.</p><p><br><p>Let’s try a practice game. The game will start by showing you the pirates. First, pick a pirate using the <b> 1, 2, 3 </b> keys on your keyboard. When you are shown a ship, try to remember which island you’re on by making up a story.</p><p>This is just a practice game, so you’re not playing for money. </p><p> Good luck! This game will be very difficult but try your best!</p><p><b>[Press the space bar to continue]</b></p></div>",32,,,,,,,,,,,,,,,,,,,,,,,
,do_welcome,46,416311,0.0-35.0-10.0,null,,,,,,,,null,,,,,,,,,,,,,,,,,
,do_trial,47,422343,0.0-35.0-11.0,null,,,,,,,,null,"1,0,0",,,,,,,,,,,,,,,,
,html-keyboard-response,48,423356,0.0-36.0-0.0,null,<p></p>,null,,,,,,,,,,,,,,,,,,,,,,,
,do_trial,49,428723,0.0-36.0-1.0,855.1,,,,,,,,50,"1,0,0",,,,,,,,,,,,,,,,
,html-keyboard-response,50,429733,0.0-37.0-0.0,null,<p></p>,null,,,,,,,,,,,,,,,,,,,,,,,
,do_trial,51,435179,0.0-37.0-1.0,938.2,,,,,,,,51,"1,1,0",,,,,,,,,,,,,,,,
,html-keyboard-response,52,436187,0.0-38.0-0.0,null,<p></p>,null,,,,,,,,,,,,,,,,,,,,,,,
,do_trial,53,441076,0.0-38.0-1.0,369.7,,,,,,,,49,"1,0,1",,,,,,,,,,,,,,,,
,html-keyboard-response,54,442081,0.0-39.0-0.0,null,<p></p>,null,,,,,,,,,,,,,,,,,,,,,,,
,do_trial,55,447988,0.0-39.0-1.0,1388.2,,,,,,,,49,"0,1,0",,,,,,,,,,,,,,,,
,html-keyboard-response,56,448996,0.0-40.0-0.0,null,<p></p>,null,,,,,,,,,,,,,,,,,,,,,,,
,do_trial,57,453784,0.0-40.0-1.0,264.3,,,,,,,,51,"1,0,0",,,,,,,,,,,,,,,,
,do_bye,58,455290,0.0-41.0-0.0,null,,,,,,,,null,,,,,,,,,,,,,,,,,
,do_travel,59,464306,0.0-41.0-1.0,null,,,,,,,,null,,,,,,,,,,,,,,,,,
,do_welcome,60,468316,0.0-41.0-2.0,null,,,,,,,,null,,,,,,,,,,,,,,,,,
,do_trial,61,473622,0.0-41.0-3.0,793.6,,,,,,,,50,"1,0,0",,,,,,,,,,,,,,,,
,html-keyboard-response,62,474626,0.0-42.0-0.0,null,<p></p>,null,,,,,,,,,,,,,,,,,,,,,,,
,do_trial,63,479488,0.0-42.0-1.0,350.1,,,,,,,,51,"1,0,1",,,,,,,,,,,,,,,,
,html-keyboard-response,64,480504,0.0-43.0-0.0,null,<p></p>,null,,,,,,,,,,,,,,,,,,,,,,,
,do_trial,65,485385,0.0-43.0-1.0,363.2,,,,,,,,49,"1,1,0",,,,,,,,,,,,,,,,
,html-keyboard-response,66,486402,0.0-44.0-0.0,null,<p></p>,null,,,,,,,,,,,,,,,,,,,,,,,
,do_trial,67,491534,0.0-44.0-1.0,614.2,,,,,,,,51,"0,0,1",,,,,,,,,,,,,,,,
,html-keyboard-response,68,492542,0.0-45.0-0.0,null,<p></p>,null,,,,,,,,,,,,,,,,,,,,,,,
,do_trial,69,497552,0.0-45.0-1.0,485.3,,,,,,,,50,"1,0,1",,,,,,,,,,,,,,,,
,html-keyboard-response,70,500973,0.0-46.0-0.0,3402.1,<div class='center'><p><img src='run_exp/static/images/tutorial/prac_best_pirate.png'  height='500'></p></div>,49,,,,,,,,,,,,,,,,,,,,,,,
,html-keyboard-response,71,503855,0.0-47.0-0.0,2879.6,<div class='center'><p>That's correct! Red beard was the best.</p><p><b>[Press the space bar to continue]</b></p></div>,32,,,,,,,,,,,,,,,,,,,,,,,
,html-keyboard-response,72,514380,0.0-47.0-1.0,10522.6,<div class='center'><p><img src='run_exp/static/images/tutorial/prac_source.png'  height='500'></p></div>,50,,,,,,,,,,,,,,,,,,,,,,,
,html-keyboard-response,73,516925,0.0-48.0-0.0,2543.6,<div class='center'><p>That's correct! You saw this ship on the cavern island.</p><p><b>[Press the space bar to continue]</b></p></div>,32,,,,,,,,,,,,,,,,,,,,,,,
,quiz_beginning,74,531065,0.0-48.0-1.0,null,run_exp/static/audio/clip_16_quiz_intro.m4a,null,,,,,"<div class='center'><p>Good job on the practice game! Now, you will be asked some true or false questions to make sure you really understand the rules of the game.</p><p> Press <b>'1'</b> on the keyboard for true and press <b>'2'</b> for false.</p></div>",,,,,,,,,,,,,,,,,,
,audio-keyboard-response,75,537712,0.0-48.0-2.0,6644.9,run_exp/static/audio/clip_17_q1.m4a,50,,,,,,,,,,,,,,,,,,,,,,,
,correct,76,540718,0.0-49.0-0.0,null,run_exp/static/audio/clip_18_correct.m4a,null,,,,,<div class='center'><p>That's correct!</p></div>,,,,,,,,,,,,,,,,,,
,html-keyboard-response,77,541985,0.0-49.0-1.0,1265.2,<div class='center'><p>That's correct!</p><p><b>[Press the space bar to continue]</b></p></div>,32,,,,,,,,,,,,,,,,,,,,,,,
,audio-keyboard-response,78,548789,0.0-49.0-2.0,6774.7,run_exp/static/audio/clip_20_q2.m4a,50,,,,,,,,,,,,,,,,,,,,,,,
,correct,79,551748,0.0-50.0-0.0,null,run_exp/static/audio/clip_18_correct.m4a,null,,,,,<div class='center'><p>That's correct!</p></div>,,,,,,,,,,,,,,,,,,
,html-keyboard-response,80,552858,0.0-50.0-1.0,1107.5,<div class='center'><p>That's correct!</p><p><b>[Press the space bar to continue]</b></p></div>,32,,,,,,,,,,,,,,,,,,,,,,,
,audio-keyboard-response,81,561454,0.0-50.0-2.0,8592.1,run_exp/static/audio/clip_22_q3.m4a,50,,,,,,,,,,,,,,,,,,,,,,,
,correct,82,564422,0.0-51.0-0.0,null,run_exp/static/audio/clip_18_correct.m4a,null,,,,,<div class='center'><p>That's correct!</p></div>,,,,,,,,,,,,,,,,,,
,html-keyboard-response,83,565500,0.0-51.0-1.0,1076.9,<div class='center'><p>That's correct!</p><p><b>[Press the space bar to continue]</b></p></div>,32,,,,,,,,,,,,,,,,,,,,,,,
,audio-keyboard-response,84,570363,0.0-51.0-2.0,4861.3,run_exp/static/audio/clip_24_q4.m4a,49,,,,,,,,,,,,,,,,,,,,,,,
,correct,85,573382,0.0-52.0-0.0,null,run_exp/static/audio/clip_18_correct.m4a,null,,,,,<div class='center'><p>That's correct!</p></div>,,,,,,,,,,,,,,,,,,
,html-keyboard-response,86,574885,0.0-52.0-1.0,1501.3,<div class='center'><p>That's correct!</p><p><b>[Press the space bar to continue]</b></p></div>,32,,,,,,,,,,,,,,,,,,,,,,,
,q_all_corr,87,583876,0.0-53.0-0.0,null,run_exp/static/audio/clip_27_quiz_all_correct.m4a,null,,,,,<div class='center'><p>Good job! You’re now ready to move on to the real game! Remember this game will be difficult but don't get discouraged and try your best!</p></div>,,,,,,,,,,,,,,,,,,
,html-keyboard-response,88,587482,0.0-53.0-1.0,3603.8,<div class='center'><p>Good job! You’re now ready to move on to the real game! Remember this game will be difficult but don't get discouraged and try your best!</p><p><b>[Press the space bar to continue]</b></p></div>,32,,,,,,,,,,,,,,,,,,,,,,,
,do_welcome,89,591497,0.0-54.0-0.0,null,,,,,,,,null,,,,,,,,,,,,,,,,,
,do_trial,90,597396,0.0-55.0-0.0,1332.5,,,,,,,,50,"1,0,0",0,mountain,0,probe-107,0.6,0.3,0.1,0,,,,,,,,
,html-keyboard-response,91,598404,0.0-55.0-1.0,null,<p></p>,null,,,,,,,,,,,,,,,,,,,,,,,
,do_trial,92,603382,0.0-56.0-0.0,400.9,,,,,,,,49,"0,1,0",0,mountain,1,probe-204,0.695514688,0.413454476,0.104190302,0,,,,,,,,
,html-keyboard-response,93,604390,0.0-56.0-1.0,null,<p></p>,null,,,,,,,,,,,,,,,,,,,,,,,
,do_trial,94,609388,0.0-57.0-0.0,437.3,,,,,,,,51,"0,0,0",0,mountain,2,probe-42,0.788678141,0.460282504,0.203847781,0,,,,,,,,
,html-keyboard-response,95,610400,0.0-57.0-1.0,null,<p></p>,null,,,,,,,,,,,,,,,,,,,,,,,
,do_trial,96,615209,0.0-58.0-0.0,243.5,,,,,,,,50,"0,0,1",0,mountain,3,probe-147,0.556505915,0.46427372,0.231950197,0,,,,,,,,
,html-keyboard-response,97,616222,0.0-58.0-1.0,null,<p></p>,null,,,,,,,,,,,,,,,,,,,,,,,
,do_trial,98,621165,0.0-59.0-0.0,384.1,,,,,,,,49,"0,1,0",0,mountain,4,probe-196,0.456316473,0.332328602,0.117687796,0,,,,,,,,
,html-keyboard-response,99,622182,0.0-59.0-1.0,null,<p></p>,null,,,,,,,,,,,,,,,,,,,,,,,
,do_trial,100,627215,0.0-60.0-0.0,464,,,,,,,,51,"0,1,0",0,mountain,5,probe-68,0.350750677,0.32052523,0.211203736,0,,,,,,,,
,html-keyboard-response,101,628218,0.0-60.0-1.0,null,<p></p>,null,,,,,,,,,,,,,,,,,,,,,,,
,do_trial,102,633122,0.0-61.0-0.0,343.7,,,,,,,,50,"0,0,0",0,mountain,6,probe-113,0.483361495,0.32395466,0.088078521,0,,,,,,,,
,html-keyboard-response,103,634124,0.0-61.0-1.0,null,<p></p>,null,,,,,,,,,,,,,,,,,,,,,,,
,do_trial,104,639154,0.0-62.0-0.0,465.3,,,,,,,,49,"0,0,0",0,mountain,7,probe-15,0.476574355,0.315308073,0.08998107,0,,,,,,,,
,html-keyboard-response,105,640171,0.0-62.0-1.0,null,<p></p>,null,,,,,,,,,,,,,,,,,,,,,,,
,do_trial,106,645140,0.0-63.0-0.0,399.1,,,,,,,,51,"1,0,0",0,mountain,8,probe-178,0.467467765,0.194959137,0.055806628,0,,,,,,,,
,html-keyboard-response,107,646155,0.0-63.0-1.0,null,<p></p>,null,,,,,,,,,,,,,,,,,,,,,,,
,do_trial,108,651115,0.0-64.0-0.0,389.3,,,,,,,,50,"1,0,0",0,mountain,9,probe-54,0.439424317,0.303854854,0.168776339,0,,,,,,,,
,html-keyboard-response,109,652124,0.0-64.0-1.0,null,<p></p>,null,,,,,,,,,,,,,,,,,,,,,,,
,do_trial,110,657114,0.0-65.0-0.0,412,,,,,,,,49,"1,1,0",0,mountain,10,probe-183,0.394975669,0.29911228,0.081999742,1,,,,,,,,
,html-keyboard-response,111,658130,0.0-65.0-1.0,null,<p></p>,null,,,,,,,,,,,,,,,,,,,,,,,
,do_trial,112,663182,0.0-66.0-0.0,480.2,,,,,,,,50,"1,0,0",0,mountain,11,probe-95,0.623045818,0.199175206,0.088945545,0,,,,,,,,
,html-keyboard-response,113,664192,0.0-66.0-1.0,null,<p></p>,null,,,,,,,,,,,,,,,,,,,,,,,
,do_trial,114,669155,0.0-67.0-0.0,398,,,,,,,,49,"0,0,0",0,mountain,12,probe-50,0.511969241,0.345776121,0.050679441,0,,,,,,,,
,html-keyboard-response,115,670158,0.0-67.0-1.0,null,<p></p>,null,,,,,,,,,,,,,,,,,,,,,,,
,do_trial,116,675049,0.0-68.0-0.0,339.1,,,,,,,,51,"1,0,0",0,mountain,13,probe-12,0.659562315,0.500508862,0.060891612,0,,,,,,,,
,html-keyboard-response,117,676053,0.0-68.0-1.0,null,<p></p>,null,,,,,,,,,,,,,,,,,,,,,,,
,do_trial,118,681424,0.0-69.0-0.0,807.7,,,,,,,,50,"1,0,0",0,mountain,14,probe-08,0.667588799,0.347036931,0.101947328,0,,,,,,,,
,html-keyboard-response,119,682441,0.0-69.0-1.0,null,<p></p>,null,,,,,,,,,,,,,,,,,,,,,,,
,do_trial,120,687538,0.0-70.0-0.0,541.5,,,,,,,,49,"0,0,0",0,mountain,15,probe-21,0.852121086,0.289885387,0.149904262,0,,,,,,,,
,html-keyboard-response,121,688550,0.0-70.0-1.0,null,<p></p>,null,,,,,,,,,,,,,,,,,,,,,,,
,do_trial,122,693449,0.0-71.0-0.0,344.2,,,,,,,,50,"1,1,0",0,mountain,16,probe-163,0.858205124,0.272949539,0.117287869,1,,,,,,,,
,html-keyboard-response,123,694465,0.0-71.0-1.0,null,<p></p>,null,,,,,,,,,,,,,,,,,,,,,,,
,do_trial,124,699506,0.0-72.0-0.0,476.9,,,,,,,,49,"1,0,0",0,mountain,17,probe-193,0.688890857,0.487763695,0.139701028,1,,,,,,,,
,html-keyboard-response,125,700514,0.0-72.0-1.0,null,<p></p>,null,,,,,,,,,,,,,,,,,,,,,,,
,do_trial,126,705422,0.0-73.0-0.0,333.9,,,,,,,,51,"1,0,0",0,mountain,18,probe-13,0.709453428,0.324193742,0.061899635,0,,,,,,,,
,html-keyboard-response,127,706439,0.0-73.0-1.0,null,<p></p>,null,,,,,,,,,,,,,,,,,,,,,,,
,do_trial,128,711348,0.0-74.0-0.0,351.6,,,,,,,,50,"1,0,0",0,mountain,19,probe-206,0.72284708,0.279390922,0.284571864,0,,,,,,,,
,html-keyboard-response,129,712356,0.0-74.0-1.0,null,<p></p>,null,,,,,,,,,,,,,,,,,,,,,,,
,do_trial,130,717904,0.0-75.0-0.0,983.5,,,,,,,,49,"0,1,1",0,mountain,20,probe-205,0.606221002,0.361153064,0.1690027,0,,,,,,,,
,html-keyboard-response,131,718918,0.0-75.0-1.0,null,<p></p>,null,,,,,,,,,,,,,,,,,,,,,,,
,do_trial,132,723787,0.0-76.0-0.0,309.5,,,,,,,,50,"0,0,0",0,mountain,21,probe-156,0.579204257,0.382999659,0.18858582,0,,,,,,,,
,html-keyboard-response,133,724793,0.0-76.0-1.0,null,<p></p>,null,,,,,,,,,,,,,,,,,,,,,,,
,do_trial,134,729709,0.0-77.0-0.0,347.8,,,,,,,,51,"0,1,0",0,mountain,22,probe-114,0.577465704,0.421711812,0.084693539,0,,,,,,,,
,html-keyboard-response,135,730715,0.0-77.0-1.0,null,<p></p>,null,,,,,,,,,,,,,,,,,,,,,,,
,do_trial,136,735946,0.0-78.0-0.0,675.8,,,,,,,,49,"0,0,0",0,mountain,23,probe-60,0.434112803,0.472414841,0.120014945,0,,,,,,,,
,html-keyboard-response,137,736959,0.0-78.0-1.0,null,<p></p>,null,,,,,,,,,,,,,,,,,,,,,,,
,do_trial,138,742181,0.0-79.0-0.0,659.1,,,,,,,,50,"1,1,0",0,mountain,24,probe-130,0.569485296,0.348945572,0.225462625,1,,,,,,,,
,html-keyboard-response,139,743196,0.0-79.0-1.0,null,<p></p>,null,,,,,,,,,,,,,,,,,,,,,,,
,do_trial,140,748311,0.0-80.0-0.0,559.8,,,,,,,,50,"0,0,0",0,mountain,25,probe-223,0.49770567,0.36985059,0.142948001,0,,,,,,,,
,html-keyboard-response,141,749319,0.0-80.0-1.0,null,<p></p>,null,,,,,,,,,,,,,,,,,,,,,,,
,do_trial,142,754823,0.0-81.0-0.0,931.4,,,,,,,,51,"0,0,0",0,mountain,26,probe-34,0.433442929,0.351022457,0.053599296,0,,,,,,,,
,html-keyboard-response,143,755836,0.0-81.0-1.0,null,<p></p>,null,,,,,,,,,,,,,,,,,,,,,,,
,do_trial,144,760779,0.0-82.0-0.0,386,,,,,,,,49,"0,0,0",0,mountain,27,probe-215,0.472277317,0.30591589,0.136357995,0,,,,,,,,
,html-keyboard-response,145,761787,0.0-82.0-1.0,null,<p></p>,null,,,,,,,,,,,,,,,,,,,,,,,
,do_trial,146,767024,0.0-83.0-0.0,661.4,,,,,,,,51,"1,0,0",0,mountain,28,probe-90,0.550037298,0.341498064,0.108331908,0,,,,,,,,
,html-keyboard-response,147,768028,0.0-83.0-1.0,null,<p></p>,null,,,,,,,,,,,,,,,,,,,,,,,
,do_trial,148,773207,0.0-84.0-0.0,617.4,,,,,,,,51,"1,1,0",0,mountain,29,probe-186,0.596235106,0.378699462,0.081990327,0,,,,,,,,
,html-keyboard-response,149,774218,0.0-84.0-1.0,null,<p></p>,null,,,,,,,,,,,,,,,,,,,,,,,
,do_bye,150,775734,0.0-85.0-0.0,null,,,,,,,,null,,,,,,,,,,,,,,,,,
,break,151,786863,0.0-85.0-1.0,11127.8,"<div class='center'><p>Time to take a quick break! You have 2 minutes to rest, but you can move on sooner if you'd like.</p><p> Press the <b>space bar</b> to continue.</p></div>",32,,,,,,,,,,,,,,,,,,,,,,,
,do_travel,152,795883,0.0-86.0-0.0,null,,,,,,,,null,,,,,,,,,,,,,,,,,
,do_welcome,153,799903,0.0-86.0-1.0,null,,,,,,,,null,,,,,,,,,,,,,,,,,
,do_trial,154,805556,0.0-87.0-0.0,1093.2,,,,,,,,51,"1,0,0",1,highway,30,probe-126,1,0.116533758,0.113224903,0,,,,,,,,
,html-keyboard-response,155,806570,0.0-87.0-1.0,null,<p></p>,null,,,,,,,,,,,,,,,,,,,,,,,
,do_trial,156,811458,0.0-88.0-0.0,326.8,,,,,,,,49,"1,0,0",1,highway,31,probe-132,1,0.172433013,0.084637907,1,,,,,,,,
,html-keyboard-response,157,812475,0.0-88.0-1.0,null,<p></p>,null,,,,,,,,,,,,,,,,,,,,,,,
,do_trial,158,817520,0.0-89.0-0.0,491.4,,,,,,,,50,"1,1,0",1,highway,32,probe-128,1,0.28140882,0.061851563,1,,,,,,,,
,html-keyboard-response,159,818537,0.0-89.0-1.0,null,<p></p>,null,,,,,,,,,,,,,,,,,,,,,,,
,do_trial,160,823909,0.0-90.0-0.0,816.6,,,,,,,,51,"1,0,1",1,highway,33,probe-116,0.931241435,0.225595428,0.234820091,1,,,,,,,,
,html-keyboard-response,161,824924,0.0-90.0-1.0,null,<p></p>,null,,,,,,,,,,,,,,,,,,,,,,,
,do_trial,162,829951,0.0-91.0-0.0,461.3,,,,,,,,49,"0,1,0",1,highway,34,probe-87,0.882677346,0.197783181,0.196685142,0,,,,,,,,
,html-keyboard-response,163,830954,0.0-91.0-1.0,null,<p></p>,null,,,,,,,,,,,,,,,,,,,,,,,
,do_trial,164,836240,0.0-92.0-0.0,708.6,,,,,,,,51,"1,0,0",1,highway,35,probe-35,0.948596008,0.253893785,0.090985754,0,,,,,,,,
,html-keyboard-response,165,837255,0.0-92.0-1.0,null,<p></p>,null,,,,,,,,,,,,,,,,,,,,,,,
,do_trial,166,842136,0.0-93.0-0.0,306,,,,,,,,50,"1,0,0",1,highway,36,probe-198,0.935371524,0.146996108,0.125198954,0,,,,,,,,
,html-keyboard-response,167,843142,0.0-93.0-1.0,null,<p></p>,null,,,,,,,,,,,,,,,,,,,,,,,
,do_trial,168,848051,0.0-94.0-0.0,341.9,,,,,,,,49,"1,0,0",1,highway,37,probe-19,0.740894181,0.186448161,0.05700077,1,,,,,,,,
,html-keyboard-response,169,849059,0.0-94.0-1.0,null,<p></p>,null,,,,,,,,,,,,,,,,,,,,,,,
,do_trial,170,854364,0.0-95.0-0.0,746.4,,,,,,,,51,"1,1,0",1,highway,38,probe-144,0.691670853,0.191121704,0.073469791,0,,,,,,,,
,html-keyboard-response,171,855381,0.0-95.0-1.0,null,<p></p>,null,,,,,,,,,,,,,,,,,,,,,,,
,do_trial,172,860604,0.0-96.0-0.0,651.5,,,,,,,,50,"0,0,0",1,highway,39,probe-226,0.693943277,0.313192721,0.075871457,0,,,,,,,,
,html-keyboard-response,173,861608,0.0-96.0-1.0,null,<p></p>,null,,,,,,,,,,,,,,,,,,,,,,,
,do_trial,174,866491,0.0-97.0-0.0,327,,,,,,,,51,"1,1,0",1,highway,40,probe-57,0.764308572,0.201618339,0.15776893,0,,,,,,,,
,html-keyboard-response,175,867506,0.0-97.0-1.0,null,<p></p>,null,,,,,,,,,,,,,,,,,,,,,,,
,do_trial,176,872380,0.0-98.0-0.0,319.2,,,,,,,,49,"1,0,0",1,highway,41,probe-199,0.742698084,0.14361644,0.139989153,1,,,,,,,,
,html-keyboard-response,177,873387,0.0-98.0-1.0,null,<p></p>,null,,,,,,,,,,,,,,,,,,,,,,,
,do_trial,178,878342,0.0-99.0-0.0,394.2,,,,,,,,49,"0,1,1",1,highway,42,probe-171,0.543568991,0.387047864,0.348468066,0,,,,,,,,
,html-keyboard-response,179,879353,0.0-99.0-1.0,null,<p></p>,null,,,,,,,,,,,,,,,,,,,,,,,
,do_trial,180,884209,0.0-100.0-0.0,291.5,,,,,,,,50,"1,0,0",1,highway,43,probe-84,0.28890295,0.611982684,0.369548443,0,,,,,,,,
,html-keyboard-response,181,885223,0.0-100.0-1.0,null,<p></p>,null,,,,,,,,,,,,,,,,,,,,,,,
,do_trial,182,890439,0.0-101.0-0.0,657.9,,,,,,,,51,"0,1,0",1,highway,44,probe-71,0.18139928,0.539426245,0.381320617,0,,,,,,,,
,html-keyboard-response,183,891444,0.0-101.0-1.0,null,<p></p>,null,,,,,,,,,,,,,,,,,,,,,,,
,do_trial,184,897150,0.0-102.0-0.0,1148.3,,,,,,,,50,"0,0,0",1,highway,45,probe-141,0.093162725,0.515271601,0.436673959,0,,,,,,,,
,html-keyboard-response,185,898159,0.0-102.0-1.0,null,<p></p>,null,,,,,,,,,,,,,,,,,,,,,,,
,do_trial,186,903490,0.0-103.0-0.0,773,,,,,,,,49,"0,0,0",1,highway,46,probe-110,0.117436118,0.436358607,0.429614476,0,,,,,,,,
,html-keyboard-response,187,904523,0.0-103.0-1.0,null,<p></p>,null,,,,,,,,,,,,,,,,,,,,,,,
,do_trial,188,909940,0.0-104.0-0.0,873.7,,,,,,,,50,"0,0,0",1,highway,47,probe-06,0.112066818,0.452478686,0.360004096,0,,,,,,,,
,html-keyboard-response,189,910943,0.0-104.0-1.0,null,<p></p>,null,,,,,,,,,,,,,,,,,,,,,,,
,do_trial,190,915894,0.0-105.0-0.0,380.8,,,,,,,,51,"0,0,0",1,highway,48,probe-194,0.075700532,0.47881975,0.384020803,0,,,,,,,,
,html-keyboard-response,191,916901,0.0-105.0-1.0,null,<p></p>,null,,,,,,,,,,,,,,,,,,,,,,,
,do_trial,192,922085,0.0-106.0-0.0,620.7,,,,,,,,49,"0,1,1",1,highway,49,probe-92,0.071138934,0.634861604,0.25250536,0,,,,,,,,
,html-keyboard-response,193,923092,0.0-106.0-1.0,null,<p></p>,null,,,,,,,,,,,,,,,,,,,,,,,
,do_trial,194,927997,0.0-107.0-0.0,338.7,,,,,,,,50,"1,1,0",1,highway,50,probe-200,0.189379458,0.609062831,0.348015462,1,,,,,,,,
,html-keyboard-response,195,929011,0.0-107.0-1.0,null,<p></p>,null,,,,,,,,,,,,,,,,,,,,,,,
,do_trial,196,933962,0.0-108.0-0.0,398.1,,,,,,,,49,"0,1,1",1,highway,51,probe-103,0.117919417,0.516679276,0.359678131,0,,,,,,,,
,html-keyboard-response,197,934973,0.0-108.0-1.0,null,<p></p>,null,,,,,,,,,,,,,,,,,,,,,,,
,do_trial,198,940046,0.0-109.0-0.0,519.1,,,,,,,,51,"0,1,0",1,highway,52,probe-14,0.061512722,0.531688359,0.409415815,0,,,,,,,,
,html-keyboard-response,199,941056,0.0-109.0-1.0,null,<p></p>,null,,,,,,,,,,,,,,,,,,,,,,,
,do_trial,200,945995,0.0-110.0-0.0,381.2,,,,,,,,50,"0,0,0",1,highway,53,probe-46,0.066139611,0.69575608,0.372214195,0,,,,,,,,
,html-keyboard-response,201,946999,0.0-110.0-1.0,null,<p></p>,null,,,,,,,,,,,,,,,,,,,,,,,
,do_trial,202,951833,0.0-111.0-0.0,271.1,,,,,,,,49,"0,0,0",1,highway,54,probe-66,0.057420425,0.685802621,0.45432114,0,,,,,,,,
,html-keyboard-response,203,952849,0.0-111.0-1.0,null,<p></p>,null,,,,,,,,,,,,,,,,,,,,,,,
,do_trial,204,957747,0.0-112.0-0.0,333.5,,,,,,,,49,"1,1,0",1,highway,55,probe-179,0.155180322,0.711589966,0.328462469,1,,,,,,,,
,html-keyboard-response,205,958750,0.0-112.0-1.0,null,<p></p>,null,,,,,,,,,,,,,,,,,,,,,,,
,do_trial,206,964358,0.0-113.0-0.0,1037.5,,,,,,,,49,"0,0,0",1,highway,56,probe-142,0.201179545,0.641535886,0.345677451,0,,,,,,,,
,html-keyboard-response,207,965365,0.0-113.0-1.0,null,<p></p>,null,,,,,,,,,,,,,,,,,,,,,,,
,do_trial,208,970231,0.0-114.0-0.0,309.3,,,,,,,,51,"0,1,0",1,highway,57,probe-26,0.183082763,0.613577554,0.294605638,0,,,,,,,,
,html-keyboard-response,209,971237,0.0-114.0-1.0,null,<p></p>,null,,,,,,,,,,,,,,,,,,,,,,,
,do_trial,210,976377,0.0-115.0-0.0,584.8,,,,,,,,51,"0,1,0",1,highway,58,probe-119,0.058931932,0.753255524,0.411843556,0,,,,,,,,
,html-keyboard-response,211,977390,0.0-115.0-1.0,null,<p></p>,null,,,,,,,,,,,,,,,,,,,,,,,
,do_trial,212,982543,0.0-116.0-0.0,592,,,,,,,,50,"0,1,0",1,highway,59,probe-158,0.095709416,0.643693142,0.260142683,1,,,,,,,,
,html-keyboard-response,213,983552,0.0-116.0-1.0,null,<p></p>,null,,,,,,,,,,,,,,,,,,,,,,,
,do_trial,214,988449,0.0-117.0-0.0,333.6,,,,,,,,50,"0,0,0",1,highway,60,probe-212,0.231473346,0.483375835,0.199631888,0,,,,,,,,
,html-keyboard-response,215,989463,0.0-117.0-1.0,null,<p></p>,null,,,,,,,,,,,,,,,,,,,,,,,
,do_trial,216,994969,0.0-118.0-0.0,939.9,,,,,,,,50,"0,1,0",1,highway,61,probe-195,0.074280363,0.420319522,0.094968643,1,,,,,,,,
,html-keyboard-response,217,995971,0.0-118.0-1.0,null,<p></p>,null,,,,,,,,,,,,,,,,,,,,,,,
,do_trial,218,1000845,0.0-119.0-0.0,303.4,,,,,,,,49,"0,0,0",1,highway,62,probe-108,0.119368197,0.517845384,0.254824072,0,,,,,,,,
,html-keyboard-response,219,1001849,0.0-119.0-1.0,null,<p></p>,null,,,,,,,,,,,,,,,,,,,,,,,
,do_trial,220,1006708,0.0-120.0-0.0,291.5,,,,,,,,51,"0,1,1",1,highway,63,probe-81,0.073718694,0.623465815,0.23377475,1,,,,,,,,
,html-keyboard-response,221,1007714,0.0-120.0-1.0,null,<p></p>,null,,,,,,,,,,,,,,,,,,,,,,,
,do_trial,222,1012629,0.0-121.0-0.0,345.7,,,,,,,,50,"0,0,0",1,highway,64,probe-64,0.056676869,0.534020976,0.244512548,0,,,,,,,,
,html-keyboard-response,223,1013638,0.0-121.0-1.0,null,<p></p>,null,,,,,,,,,,,,,,,,,,,,,,,
,do_trial,224,1018698,0.0-122.0-0.0,497.2,,,,,,,,50,"1,1,0",1,highway,65,probe-173,0.050436645,0.557223183,0.213348035,1,,,,,,,,
,html-keyboard-response,225,1019708,0.0-122.0-1.0,null,<p></p>,null,,,,,,,,,,,,,,,,,,,,,,,
,do_trial,226,1024667,0.0-123.0-0.0,394.9,,,,,,,,50,"0,0,1",1,highway,66,probe-73,0.095217274,0.650701937,0.338310985,0,,,,,,,,
,html-keyboard-response,227,1025679,0.0-123.0-1.0,null,<p></p>,null,,,,,,,,,,,,,,,,,,,,,,,
,do_trial,228,1030524,0.0-124.0-0.0,285.5,,,,,,,,49,"0,1,0",1,highway,67,probe-02,0.059721062,0.757503127,0.247815875,0,,,,,,,,
,html-keyboard-response,229,1031539,0.0-124.0-1.0,null,<p></p>,null,,,,,,,,,,,,,,,,,,,,,,,
,do_trial,230,1036605,0.0-125.0-0.0,503,,,,,,,,51,"0,0,0",1,highway,68,probe-216,0.125834258,0.438750597,0.260838544,0,,,,,,,,
,html-keyboard-response,231,1037621,0.0-125.0-1.0,null,<p></p>,null,,,,,,,,,,,,,,,,,,,,,,,
,do_trial,232,1042808,0.0-126.0-0.0,628.2,,,,,,,,51,"0,1,1",1,highway,69,probe-07,0.175963886,0.619021352,0.399669163,1,,,,,,,,
,html-keyboard-response,233,1043821,0.0-126.0-1.0,null,<p></p>,null,,,,,,,,,,,,,,,,,,,,,,,
,do_bye,234,1045328,0.0-127.0-0.0,null,,,,,,,,null,,,,,,,,,,,,,,,,,
,break,235,1046578,0.0-127.0-1.0,1248.6,"<div class='center'><p>Time to take a quick break! You have 2 minutes to rest, but you can move on sooner if you'd like.</p><p> Press the <b>space bar</b> to continue.</p></div>",32,,,,,,,,,,,,,,,,,,,,,,,
,do_travel,236,1055595,0.0-128.0-0.0,null,,,,,,,,null,,,,,,,,,,,,,,,,,
,do_welcome,237,1059605,0.0-128.0-1.0,null,,,,,,,,null,,,,,,,,,,,,,,,,,
,do_trial,238,1065295,0.0-129.0-0.0,1113.1,,,,,,,,50,"0,1,1",2,city,70,probe-189,0.215722828,1,0.316045194,1,,,,,,,,
,html-keyboard-response,239,1066308,0.0-129.0-1.0,null,<p></p>,null,,,,,,,,,,,,,,,,,,,,,,,
,do_trial,240,1071306,0.0-130.0-0.0,418.1,,,,,,,,51,"0,1,1",2,city,71,probe-97,0.132916718,1,0.444324872,1,,,,,,,,
,html-keyboard-response,241,1072316,0.0-130.0-1.0,null,<p></p>,null,,,,,,,,,,,,,,,,,,,,,,,
,do_trial,242,1077178,0.0-131.0-0.0,298.3,,,,,,,,49,"0,1,0",2,city,72,probe-143,0.062453839,0.833950562,0.304409163,0,,,,,,,,
,html-keyboard-response,243,1078191,0.0-131.0-1.0,null,<p></p>,null,,,,,,,,,,,,,,,,,,,,,,,
,do_trial,244,1083085,0.0-132.0-0.0,342.3,,,,,,,,49,"0,1,0",2,city,73,probe-152,0.053823692,0.657448697,0.380292499,0,,,,,,,,
,html-keyboard-response,245,1084089,0.0-132.0-1.0,null,<p></p>,null,,,,,,,,,,,,,,,,,,,,,,,
,do_trial,246,1089030,0.0-133.0-0.0,379.3,,,,,,,,50,"0,0,1",2,city,74,probe-168,0.057636432,0.567917193,0.297398103,0,,,,,,,,
,html-keyboard-response,247,1090048,0.0-133.0-1.0,null,<p></p>,null,,,,,,,,,,,,,,,,,,,,,,,
,do_trial,248,1096186,0.0-134.0-0.0,1567.5,,,,,,,,51,"0,1,0",2,city,75,probe-228,0.098398002,0.622425813,0.446006912,0,,,,,,,,
,html-keyboard-response,249,1097203,0.0-134.0-1.0,null,<p></p>,null,,,,,,,,,,,,,,,,,,,,,,,
,do_trial,250,1102274,0.0-135.0-0.0,504.8,,,,,,,,49,"0,0,1",2,city,76,probe-117,0.194952872,0.469818747,0.477575984,0,,,,,,,,
,html-keyboard-response,251,1103281,0.0-135.0-1.0,null,<p></p>,null,,,,,,,,,,,,,,,,,,,,,,,
,do_trial,252,1108161,0.0-136.0-0.0,317.9,,,,,,,,50,"0,1,1",2,city,77,probe-138,0.173150462,0.584214489,0.461073463,1,,,,,,,,
,html-keyboard-response,253,1109169,0.0-136.0-1.0,null,<p></p>,null,,,,,,,,,,,,,,,,,,,,,,,
,do_trial,254,1114100,0.0-137.0-0.0,375.3,,,,,,,,51,"0,0,0",2,city,78,probe-11,0.306809691,0.495201297,0.339854909,0,,,,,,,,
,html-keyboard-response,255,1115115,0.0-137.0-1.0,null,<p></p>,null,,,,,,,,,,,,,,,,,,,,,,,
,do_trial,256,1120080,0.0-138.0-0.0,389,,,,,,,,50,"0,0,1",2,city,79,probe-224,0.258433577,0.738344953,0.253270635,0,,,,,,,,
,html-keyboard-response,257,1121097,0.0-138.0-1.0,null,<p></p>,null,,,,,,,,,,,,,,,,,,,,,,,
,do_trial,258,1125988,0.0-139.0-0.0,322.6,,,,,,,,49,"0,1,0",2,city,80,probe-187,0.249833467,0.728448215,0.277496094,0,,,,,,,,
,html-keyboard-response,259,1127005,0.0-139.0-1.0,null,<p></p>,null,,,,,,,,,,,,,,,,,,,,,,,
,do_trial,260,1131949,0.0-140.0-0.0,371.3,,,,,,,,50,"0,1,1",2,city,81,probe-151,0.21115124,0.794490485,0.280283256,1,,,,,,,,
,html-keyboard-response,261,1132957,0.0-140.0-1.0,null,<p></p>,null,,,,,,,,,,,,,,,,,,,,,,,
,do_trial,262,1137879,0.0-141.0-0.0,353.3,,,,,,,,51,"0,0,0",2,city,82,probe-39,0.283152539,0.53136412,0.351921185,0,,,,,,,,
,html-keyboard-response,263,1138886,0.0-141.0-1.0,null,<p></p>,null,,,,,,,,,,,,,,,,,,,,,,,
,do_trial,264,1143868,0.0-142.0-0.0,408,,,,,,,,49,"0,0,0",2,city,83,probe-155,0.177333451,0.418989307,0.460940054,0,,,,,,,,
,html-keyboard-response,265,1144885,0.0-142.0-1.0,null,<p></p>,null,,,,,,,,,,,,,,,,,,,,,,,
,do_trial,266,1150396,0.0-143.0-0.0,938.3,,,,,,,,50,"0,1,1",2,city,84,probe-213,0.069080754,0.451547286,0.38243251,1,,,,,,,,
,html-keyboard-response,267,1151410,0.0-143.0-1.0,null,<p></p>,null,,,,,,,,,,,,,,,,,,,,,,,
,do_trial,268,1156377,0.0-144.0-0.0,396.9,,,,,,,,51,"0,0,0",2,city,85,probe-118,0.092896527,0.346488144,0.470221783,0,,,,,,,,
,html-keyboard-response,269,1157394,0.0-144.0-1.0,null,<p></p>,null,,,,,,,,,,,,,,,,,,,,,,,
,do_trial,270,1162287,0.0-145.0-0.0,315.2,,,,,,,,49,"0,0,0",2,city,86,probe-174,0.057264769,0.42920128,0.642669264,0,,,,,,,,
,html-keyboard-response,271,1163302,0.0-145.0-1.0,null,<p></p>,null,,,,,,,,,,,,,,,,,,,,,,,
,do_trial,272,1168324,0.0-146.0-0.0,462.3,,,,,,,,49,"1,1,1",2,city,87,probe-188,0.090280887,0.436490691,0.702160459,1,,,,,,,,
,html-keyboard-response,273,1169327,0.0-146.0-1.0,null,<p></p>,null,,,,,,,,,,,,,,,,,,,,,,,
,do_trial,274,1174280,0.0-147.0-0.0,385.1,,,,,,,,51,"0,1,0",2,city,88,probe-202,0.105526795,0.338010734,0.683270849,0,,,,,,,,
,html-keyboard-response,275,1175293,0.0-147.0-1.0,null,<p></p>,null,,,,,,,,,,,,,,,,,,,,,,,
,do_trial,276,1180178,0.0-148.0-0.0,322.5,,,,,,,,50,"0,0,1",2,city,89,probe-72,0.186894889,0.2999763,0.56875655,0,,,,,,,,
,html-keyboard-response,277,1181190,0.0-148.0-1.0,null,<p></p>,null,,,,,,,,,,,,,,,,,,,,,,,
,do_trial,278,1186100,0.0-149.0-0.0,351.6,,,,,,,,49,"0,0,1",2,city,90,probe-32,0.223928937,0.308468562,0.47221962,0,,,,,,,,
,html-keyboard-response,279,1187108,0.0-149.0-1.0,null,<p></p>,null,,,,,,,,,,,,,,,,,,,,,,,
,do_trial,280,1192093,0.0-150.0-0.0,424.2,,,,,,,,51,"0,0,1",2,city,91,probe-22,0.114056514,0.210626411,0.57419166,1,,,,,,,,
,html-keyboard-response,281,1193104,0.0-150.0-1.0,null,<p></p>,null,,,,,,,,,,,,,,,,,,,,,,,
,do_trial,282,1198599,0.0-151.0-0.0,935.8,,,,,,,,49,"0,0,0",2,city,92,probe-149,0.050824623,0.236648733,0.598282574,0,,,,,,,,
,html-keyboard-response,283,1199609,0.0-151.0-1.0,null,<p></p>,null,,,,,,,,,,,,,,,,,,,,,,,
,do_trial,284,1204540,0.0-152.0-0.0,357.5,,,,,,,,50,"0,0,1",2,city,93,probe-18,0.123885216,0.23493416,0.537818225,0,,,,,,,,
,html-keyboard-response,285,1205550,0.0-152.0-1.0,null,<p></p>,null,,,,,,,,,,,,,,,,,,,,,,,
,do_trial,286,1210512,0.0-153.0-0.0,405,,,,,,,,51,"0,0,1",2,city,94,probe-162,0.051742456,0.252170115,0.505233964,1,,,,,,,,
,html-keyboard-response,287,1211522,0.0-153.0-1.0,null,<p></p>,null,,,,,,,,,,,,,,,,,,,,,,,
,do_trial,288,1216684,0.0-154.0-0.0,583.6,,,,,,,,49,"0,1,1",2,city,95,probe-78,0.073791646,0.356370206,0.525031401,0,,,,,,,,
,html-keyboard-response,289,1217693,0.0-154.0-1.0,null,<p></p>,null,,,,,,,,,,,,,,,,,,,,,,,
,do_trial,290,1222608,0.0-155.0-0.0,346.6,,,,,,,,51,"0,1,1",2,city,96,probe-30,0.085017249,0.326152127,0.605211594,1,,,,,,,,
,html-keyboard-response,291,1223611,0.0-155.0-1.0,null,<p></p>,null,,,,,,,,,,,,,,,,,,,,,,,
,do_trial,292,1228301,0.0-156.0-0.0,132.5,,,,,,,,50,"0,1,1",2,city,97,probe-27,0.168546089,0.364786028,0.70745761,1,,,,,,,,
,html-keyboard-response,293,1229306,0.0-156.0-1.0,null,<p></p>,null,,,,,,,,,,,,,,,,,,,,,,,
,do_trial,294,1234186,0.0-157.0-0.0,320.3,,,,,,,,50,"0,0,1",2,city,98,probe-137,0.11102678,0.375963784,0.748590496,0,,,,,,,,
,html-keyboard-response,295,1235202,0.0-157.0-1.0,null,<p></p>,null,,,,,,,,,,,,,,,,,,,,,,,
,do_trial,296,1240030,0.0-158.0-0.0,257.9,,,,,,,,51,"0,1,1",2,city,99,probe-109,0.100134832,0.221077913,0.710161119,1,,,,,,,,
,html-keyboard-response,297,1241040,0.0-158.0-1.0,null,<p></p>,null,,,,,,,,,,,,,,,,,,,,,,,
,do_trial,298,1246033,0.0-159.0-0.0,422.6,,,,,,,,49,"0,1,0",2,city,100,probe-41,0.130964369,0.249206208,0.614640354,0,,,,,,,,
,html-keyboard-response,299,1247036,0.0-159.0-1.0,null,<p></p>,null,,,,,,,,,,,,,,,,,,,,,,,
,do_trial,300,1251802,0.0-160.0-0.0,217.3,,,,,,,,51,"0,0,1",2,city,101,probe-65,0.20807875,0.391994033,0.598583169,1,,,,,,,,
,html-keyboard-response,301,1252814,0.0-160.0-1.0,null,<p></p>,null,,,,,,,,,,,,,,,,,,,,,,,
,do_trial,302,1257640,0.0-161.0-0.0,259.1,,,,,,,,50,"1,1,1",2,city,102,probe-102,0.240541328,0.398073201,0.722784379,1,,,,,,,,
,html-keyboard-response,303,1258654,0.0-161.0-1.0,null,<p></p>,null,,,,,,,,,,,,,,,,,,,,,,,
,do_trial,304,1263807,0.0-162.0-0.0,596.3,,,,,,,,51,"0,1,1",2,city,103,probe-16,0.182701747,0.366547949,0.751370891,1,,,,,,,,
,html-keyboard-response,305,1264816,0.0-162.0-1.0,null,<p></p>,null,,,,,,,,,,,,,,,,,,,,,,,
,do_trial,306,1269950,0.0-163.0-0.0,572.5,,,,,,,,50,"0,1,1",2,city,104,probe-28,0.121760563,0.302214679,0.86902425,1,,,,,,,,
,html-keyboard-response,307,1270960,0.0-163.0-1.0,null,<p></p>,null,,,,,,,,,,,,,,,,,,,,,,,
,do_trial,308,1276082,0.0-164.0-0.0,545.3,,,,,,,,51,"0,0,1",2,city,105,probe-99,0.057624461,0.296138577,0.716231824,1,,,,,,,,
,html-keyboard-response,309,1277096,0.0-164.0-1.0,null,<p></p>,null,,,,,,,,,,,,,,,,,,,,,,,
,do_trial,310,1282091,0.0-165.0-0.0,423.6,,,,,,,,50,"0,1,1",2,city,106,probe-221,0.117009424,0.334767981,0.794373178,1,,,,,,,,
,html-keyboard-response,311,1283100,0.0-165.0-1.0,null,<p></p>,null,,,,,,,,,,,,,,,,,,,,,,,
,do_trial,312,1287944,0.0-166.0-0.0,278.7,,,,,,,,51,"1,1,0",2,city,107,probe-51,0.155541556,0.406005844,0.658777766,0,,,,,,,,
,html-keyboard-response,313,1288960,0.0-166.0-1.0,null,<p></p>,null,,,,,,,,,,,,,,,,,,,,,,,
,do_trial,314,1293766,0.0-167.0-0.0,230.8,,,,,,,,50,"0,0,0",2,city,108,probe-101,0.05150028,0.367091393,0.506538594,0,,,,,,,,
,html-keyboard-response,315,1294772,0.0-167.0-1.0,null,<p></p>,null,,,,,,,,,,,,,,,,,,,,,,,
,do_trial,316,1299801,0.0-168.0-0.0,457.5,,,,,,,,49,"0,0,0",2,city,109,probe-146,0.147015326,0.247947665,0.519208921,0,,,,,,,,
,html-keyboard-response,317,1300818,0.0-168.0-1.0,null,<p></p>,null,,,,,,,,,,,,,,,,,,,,,,,
,do_bye,318,1302334,0.0-169.0-0.0,null,,,,,,,,null,,,,,,,,,,,,,,,,,
,break,319,1307210,0.0-169.0-1.0,4874,"<div class='center'><p>Time to take a quick break! You have 2 minutes to rest, but you can move on sooner if you'd like.</p><p> Press the <b>space bar</b> to continue.</p></div>",32,,,,,,,,,,,,,,,,,,,,,,,
,do_travel,320,1316217,0.0-170.0-0.0,null,,,,,,,,null,,,,,,,,,,,,,,,,,
,do_welcome,321,1320232,0.0-170.0-1.0,null,,,,,,,,null,,,,,,,,,,,,,,,,,
,do_trial,322,1327648,0.0-171.0-0.0,2846.7,,,,,,,,50,"0,0,1",3,forest,110,probe-203,0.134162146,0.184914224,1,0,,,,,,,,
,html-keyboard-response,323,1328664,0.0-171.0-1.0,null,<p></p>,null,,,,,,,,,,,,,,,,,,,,,,,
,do_trial,324,1333685,0.0-172.0-0.0,465,,,,,,,,51,"0,0,1",3,forest,111,probe-05,0.242540497,0.290271527,1,1,,,,,,,,
,html-keyboard-response,325,1334702,0.0-172.0-1.0,null,<p></p>,null,,,,,,,,,,,,,,,,,,,,,,,
,do_trial,326,1339623,0.0-173.0-0.0,352.9,,,,,,,,49,"0,1,0",3,forest,112,probe-145,0.273753475,0.297106489,0.941835274,0,,,,,,,,
,html-keyboard-response,327,1340628,0.0-173.0-1.0,null,<p></p>,null,,,,,,,,,,,,,,,,,,,,,,,
,do_trial,328,1345615,0.0-174.0-0.0,434.4,,,,,,,,51,"1,0,0",3,forest,113,probe-79,0.291273115,0.152801587,0.783244276,0,,,,,,,,
,html-keyboard-response,329,1346622,0.0-174.0-1.0,null,<p></p>,null,,,,,,,,,,,,,,,,,,,,,,,
,do_trial,330,1351560,0.0-175.0-0.0,360.7,,,,,,,,50,"0,0,1",3,forest,114,probe-192,0.226417744,0.090755468,0.62916897,0,,,,,,,,
,html-keyboard-response,331,1352567,0.0-175.0-1.0,null,<p></p>,null,,,,,,,,,,,,,,,,,,,,,,,
,do_trial,332,1357764,0.0-176.0-0.0,622.5,,,,,,,,49,"0,1,1",3,forest,115,probe-25,0.324153402,0.175072693,0.663870565,0,,,,,,,,
,html-keyboard-response,333,1358772,0.0-176.0-1.0,null,<p></p>,null,,,,,,,,,,,,,,,,,,,,,,,
,do_trial,334,1363812,0.0-177.0-0.0,466.5,,,,,,,,51,"1,1,1",3,forest,116,probe-164,0.254470189,0.227838106,0.673774886,1,,,,,,,,
,html-keyboard-response,335,1364815,0.0-177.0-1.0,null,<p></p>,null,,,,,,,,,,,,,,,,,,,,,,,
,do_trial,336,1370050,0.0-178.0-0.0,667.7,,,,,,,,51,"0,0,0",3,forest,117,probe-56,0.191333108,0.237747107,0.627661404,0,,,,,,,,
,html-keyboard-response,337,1371066,0.0-178.0-1.0,null,<p></p>,null,,,,,,,,,,,,,,,,,,,,,,,
,do_trial,338,1376196,0.0-179.0-0.0,560.7,,,,,,,,50,"0,0,0",3,forest,118,probe-184,0.061539156,0.514962238,0.607145476,0,,,,,,,,
,html-keyboard-response,339,1377210,0.0-179.0-1.0,null,<p></p>,null,,,,,,,,,,,,,,,,,,,,,,,
,do_trial,340,1382222,0.0-180.0-0.0,446.5,,,,,,,,51,"0,0,1",3,forest,119,probe-210,0.090353546,0.400123859,0.570147326,1,,,,,,,,
,html-keyboard-response,341,1383234,0.0-180.0-1.0,null,<p></p>,null,,,,,,,,,,,,,,,,,,,,,,,
,do_trial,342,1388557,0.0-181.0-0.0,758.4,,,,,,,,49,"0,1,0",3,forest,120,probe-100,0.142582537,0.38031234,0.523429483,0,,,,,,,,
,html-keyboard-response,343,1389571,0.0-181.0-1.0,null,<p></p>,null,,,,,,,,,,,,,,,,,,,,,,,
,do_trial,344,1394979,0.0-182.0-0.0,854.5,,,,,,,,49,"0,0,0",3,forest,121,probe-24,0.08965233,0.31090948,0.518934597,0,,,,,,,,
,html-keyboard-response,345,1395994,0.0-182.0-1.0,null,<p></p>,null,,,,,,,,,,,,,,,,,,,,,,,
,do_trial,346,1400989,0.0-183.0-0.0,437.6,,,,,,,,50,"0,0,0",3,forest,122,probe-52,0.108910827,0.500029976,0.463912659,0,,,,,,,,
,html-keyboard-response,347,1401996,0.0-183.0-1.0,null,<p></p>,null,,,,,,,,,,,,,,,,,,,,,,,
,do_trial,348,1407312,0.0-184.0-0.0,764.3,,,,,,,,51,"0,1,1",3,forest,123,probe-112,0.171437919,0.64296443,0.45192814,1,,,,,,,,
,html-keyboard-response,349,1408315,0.0-184.0-1.0,null,<p></p>,null,,,,,,,,,,,,,,,,,,,,,,,
,do_trial,350,1413570,0.0-185.0-0.0,693.8,,,,,,,,51,"0,1,1",3,forest,124,probe-45,0.237481603,0.686827434,0.457672654,1,,,,,,,,
,html-keyboard-response,351,1414583,0.0-185.0-1.0,null,<p></p>,null,,,,,,,,,,,,,,,,,,,,,,,
,do_trial,352,1419460,0.0-186.0-0.0,301.4,,,,,,,,51,"1,0,0",3,forest,125,probe-58,0.210769997,0.666385468,0.307266364,0,,,,,,,,
,html-keyboard-response,353,1420475,0.0-186.0-1.0,null,<p></p>,null,,,,,,,,,,,,,,,,,,,,,,,
,do_trial,354,1425207,0.0-187.0-0.0,161.4,,,,,,,,51,"0,1,0",3,forest,126,probe-70,0.189717743,0.496064491,0.223010711,0,,,,,,,,
,html-keyboard-response,355,1426223,0.0-187.0-1.0,null,<p></p>,null,,,,,,,,,,,,,,,,,,,,,,,
,do_trial,356,1431155,0.0-188.0-0.0,380.7,,,,,,,,50,"0,1,1",3,forest,127,probe-59,0.060692996,0.491340548,0.356809173,1,,,,,,,,
,html-keyboard-response,357,1432162,0.0-188.0-1.0,null,<p></p>,null,,,,,,,,,,,,,,,,,,,,,,,
,do_trial,358,1437685,0.0-189.0-0.0,963.5,,,,,,,,49,"0,1,0",3,forest,128,probe-40,0.076044362,0.535267206,0.251932959,0,,,,,,,,
,html-keyboard-response,359,1438691,0.0-189.0-1.0,null,<p></p>,null,,,,,,,,,,,,,,,,,,,,,,,
,do_trial,360,1443736,0.0-190.0-0.0,478.3,,,,,,,,51,"0,0,0",3,forest,129,probe-190,0.129212258,0.612875538,0.24204549,0,,,,,,,,
,html-keyboard-response,361,1444738,0.0-190.0-1.0,null,<p></p>,null,,,,,,,,,,,,,,,,,,,,,,,
,do_trial,362,1449719,0.0-191.0-0.0,415.4,,,,,,,,49,"0,1,0",3,forest,130,probe-161,0.0729261,0.493926249,0.287039581,0,,,,,,,,
,html-keyboard-response,363,1450728,0.0-191.0-1.0,null,<p></p>,null,,,,,,,,,,,,,,,,,,,,,,,
,do_trial,364,1455529,0.0-192.0-0.0,252.2,,,,,,,,50,"0,1,0",3,forest,131,probe-225,0.117343335,0.618638254,0.086807328,1,,,,,,,,
,html-keyboard-response,365,1456544,0.0-192.0-1.0,null,<p></p>,null,,,,,,,,,,,,,,,,,,,,,,,
,do_trial,366,1461888,0.0-193.0-0.0,777.4,,,,,,,,51,"1,0,0",3,forest,132,probe-47,0.296921103,0.688249648,0.266652581,0,,,,,,,,
,html-keyboard-response,367,1462906,0.0-193.0-1.0,null,<p></p>,null,,,,,,,,,,,,,,,,,,,,,,,
,do_trial,368,1467696,0.0-194.0-0.0,220.6,,,,,,,,49,"0,1,0",3,forest,133,probe-62,0.258355447,0.677504003,0.345941213,0,,,,,,,,
,html-keyboard-response,369,1468702,0.0-194.0-1.0,null,<p></p>,null,,,,,,,,,,,,,,,,,,,,,,,
,do_trial,370,1473826,0.0-195.0-0.0,560.4,,,,,,,,50,"0,0,1",3,forest,134,probe-214,0.132374426,0.717022189,0.370962965,0,,,,,,,,
,html-keyboard-response,371,1474836,0.0-195.0-1.0,null,<p></p>,null,,,,,,,,,,,,,,,,,,,,,,,
,do_trial,372,1479698,0.0-196.0-0.0,299,,,,,,,,51,"0,0,1",3,forest,135,probe-160,0.165567473,0.642902845,0.380217682,1,,,,,,,,
,html-keyboard-response,373,1480715,0.0-196.0-1.0,null,<p></p>,null,,,,,,,,,,,,,,,,,,,,,,,
,do_trial,374,1485750,0.0-197.0-0.0,465.9,,,,,,,,51,"0,0,0",3,forest,136,probe-04,0.134736098,0.612805133,0.188714509,0,,,,,,,,
,html-keyboard-response,375,1486767,0.0-197.0-1.0,null,<p></p>,null,,,,,,,,,,,,,,,,,,,,,,,
,do_trial,376,1491928,0.0-198.0-0.0,593.2,,,,,,,,51,"0,1,0",3,forest,137,probe-201,0.08610116,0.830576548,0.224732681,0,,,,,,,,
,html-keyboard-response,377,1492931,0.0-198.0-1.0,null,<p></p>,null,,,,,,,,,,,,,,,,,,,,,,,
,do_trial,378,1498036,0.0-199.0-0.0,537.9,,,,,,,,51,"1,1,0",3,forest,138,probe-09,0.15176831,0.827416212,0.276901947,0,,,,,,,,
,html-keyboard-response,379,1499048,0.0-199.0-1.0,null,<p></p>,null,,,,,,,,,,,,,,,,,,,,,,,
,do_trial,380,1504533,0.0-200.0-0.0,917.4,,,,,,,,50,"0,1,0",3,forest,139,probe-77,0.143706278,0.812622703,0.357664938,1,,,,,,,,
,html-keyboard-response,381,1505538,0.0-200.0-1.0,null,<p></p>,null,,,,,,,,,,,,,,,,,,,,,,,
,do_trial,382,1510933,0.0-201.0-0.0,844.4,,,,,,,,51,"0,0,0",3,forest,140,probe-43,0.12954124,0.761405353,0.391595743,0,,,,,,,,
,html-keyboard-response,383,1511938,0.0-201.0-1.0,null,<p></p>,null,,,,,,,,,,,,,,,,,,,,,,,
,do_trial,384,1517026,0.0-202.0-0.0,520.9,,,,,,,,51,"0,1,0",3,forest,141,probe-106,0.054693222,0.654698898,0.42067583,0,,,,,,,,
,html-keyboard-response,385,1518044,0.0-202.0-1.0,null,<p></p>,null,,,,,,,,,,,,,,,,,,,,,,,
,do_trial,386,1523378,0.0-203.0-0.0,781.3,,,,,,,,51,"0,1,1",3,forest,142,probe-185,0.108733911,0.512270249,0.362236878,1,,,,,,,,
,html-keyboard-response,387,1524394,0.0-203.0-1.0,null,<p></p>,null,,,,,,,,,,,,,,,,,,,,,,,
,do_trial,388,1529428,0.0-204.0-0.0,450.8,,,,,,,,49,"0,0,1",3,forest,143,probe-129,0.327849164,0.65918644,0.40533128,0,,,,,,,,
,html-keyboard-response,389,1530444,0.0-204.0-1.0,null,<p></p>,null,,,,,,,,,,,,,,,,,,,,,,,
,do_trial,390,1535483,0.0-205.0-0.0,466.7,,,,,,,,49,"0,1,1",3,forest,144,probe-219,0.317042082,0.649231031,0.428096883,0,,,,,,,,
,html-keyboard-response,391,1536487,0.0-205.0-1.0,null,<p></p>,null,,,,,,,,,,,,,,,,,,,,,,,
,do_trial,392,1541705,0.0-206.0-0.0,657.7,,,,,,,,51,"0,0,0",3,forest,145,probe-82,0.268387167,0.568440426,0.399478084,0,,,,,,,,
,html-keyboard-response,393,1542708,0.0-206.0-1.0,null,<p></p>,null,,,,,,,,,,,,,,,,,,,,,,,
,do_trial,394,1549444,0.0-207.0-0.0,2157.5,,,,,,,,51,"0,0,1",3,forest,146,probe-207,0.141675245,0.513952786,0.334421571,1,,,,,,,,
,html-keyboard-response,395,1550449,0.0-207.0-1.0,null,<p></p>,null,,,,,,,,,,,,,,,,,,,,,,,
,do_trial,396,1555489,0.0-208.0-0.0,477.1,,,,,,,,50,"0,0,0",3,forest,147,probe-123,0.068207073,0.559578792,0.211055711,0,,,,,,,,
,html-keyboard-response,397,1556506,0.0-208.0-1.0,null,<p></p>,null,,,,,,,,,,,,,,,,,,,,,,,
,do_trial,398,1561602,0.0-209.0-0.0,534.3,,,,,,,,50,"0,0,0",3,forest,148,probe-182,0.074792696,0.452864552,0.136185107,0,,,,,,,,
,html-keyboard-response,399,1562618,0.0-209.0-1.0,null,<p></p>,null,,,,,,,,,,,,,,,,,,,,,,,
,do_trial,400,1567624,0.0-210.0-0.0,447.9,,,,,,,,51,"0,1,0",3,forest,149,probe-127,0.054862983,0.604434768,0.36872062,0,,,,,,,,
,html-keyboard-response,401,1568637,0.0-210.0-1.0,null,<p></p>,null,,,,,,,,,,,,,,,,,,,,,,,
,do_bye,402,1570156,0.0-211.0-0.0,null,,,,,,,,null,,,,,,,,,,,,,,,,,
,break,403,1573769,0.0-211.0-1.0,3611.6,"<div class='center'><p>Time to take a quick break! You have 2 minutes to rest, but you can move on sooner if you'd like.</p><p> Press the <b>space bar</b> to continue.</p></div>",32,,,,,,,,,,,,,,,,,,,,,,,
,do_travel,404,1582777,0.0-212.0-0.0,null,,,,,,,,null,,,,,,,,,,,,,,,,,
,do_welcome,405,1586798,0.0-212.0-1.0,null,,,,,,,,null,,,,,,,,,,,,,,,,,
,do_trial,406,1592282,0.0-213.0-0.0,914,,,,,,,,51,"1,1,0",4,countryside,150,probe-220,0.193584772,1,0.258424542,0,,,,,,,,
,html-keyboard-response,407,1593290,0.0-213.0-1.0,null,<p></p>,null,,,,,,,,,,,,,,,,,,,,,,,
,do_trial,408,1598239,0.0-214.0-0.0,382.5,,,,,,,,51,"0,1,0",4,countryside,151,probe-133,0.05902467,1,0.267309494,0,,,,,,,,
,html-keyboard-response,409,1599255,0.0-214.0-1.0,null,<p></p>,null,,,,,,,,,,,,,,,,,,,,,,,
,do_trial,410,1604169,0.0-215.0-0.0,351.7,,,,,,,,50,"0,1,0",4,countryside,152,probe-222,0.056396285,0.769452223,0.330201619,1,,,,,,,,
,html-keyboard-response,411,1605183,0.0-215.0-1.0,null,<p></p>,null,,,,,,,,,,,,,,,,,,,,,,,
,do_trial,412,1610101,0.0-216.0-0.0,358.4,,,,,,,,50,"0,1,0",4,countryside,153,probe-83,0.058533919,0.5720194,0.386329147,1,,,,,,,,
,html-keyboard-response,413,1611105,0.0-216.0-1.0,null,<p></p>,null,,,,,,,,,,,,,,,,,,,,,,,
,do_trial,414,1615999,0.0-217.0-0.0,329.3,,,,,,,,49,"0,0,1",4,countryside,154,probe-209,0.071618243,0.563624842,0.419941238,0,,,,,,,,
,html-keyboard-response,415,1617006,0.0-217.0-1.0,null,<p></p>,null,,,,,,,,,,,,,,,,,,,,,,,
,do_trial,416,1621708,0.0-218.0-0.0,142.7,,,,,,,,49,"0,1,0",4,countryside,155,probe-176,0.132960059,0.590549047,0.352237063,0,,,,,,,,
,html-keyboard-response,417,1622718,0.0-218.0-1.0,null,<p></p>,null,,,,,,,,,,,,,,,,,,,,,,,
,do_trial,418,1627618,0.0-219.0-0.0,335.4,,,,,,,,51,"0,0,0",4,countryside,156,probe-44,0.141015719,0.674502561,0.296762173,0,,,,,,,,
,html-keyboard-response,419,1628631,0.0-219.0-1.0,null,<p></p>,null,,,,,,,,,,,,,,,,,,,,,,,
,do_trial,420,1633487,0.0-220.0-0.0,295.8,,,,,,,,49,"0,0,0",4,countryside,157,probe-169,0.073577272,0.592898451,0.283361932,0,,,,,,,,
,html-keyboard-response,421,1634490,0.0-220.0-1.0,null,<p></p>,null,,,,,,,,,,,,,,,,,,,,,,,
,do_trial,422,1639386,0.0-221.0-0.0,321.5,,,,,,,,50,"0,0,0",4,countryside,158,probe-91,0.07178478,0.614563014,0.373299557,0,,,,,,,,
,html-keyboard-response,423,1640402,0.0-221.0-1.0,null,<p></p>,null,,,,,,,,,,,,,,,,,,,,,,,
,do_trial,424,1645224,0.0-222.0-0.0,266.1,,,,,,,,50,"0,1,1",4,countryside,159,probe-180,0.111764481,0.554229427,0.321761078,1,,,,,,,,
,html-keyboard-response,425,1646229,0.0-222.0-1.0,null,<p></p>,null,,,,,,,,,,,,,,,,,,,,,,,
,do_trial,426,1652508,0.0-223.0-0.0,1698.4,,,,,,,,50,"0,1,0",4,countryside,160,probe-140,0.139010692,0.528518118,0.286776214,1,,,,,,,,
,html-keyboard-response,427,1653512,0.0-223.0-1.0,null,<p></p>,null,,,,,,,,,,,,,,,,,,,,,,,
,do_trial,428,1658880,0.0-224.0-0.0,809.5,,,,,,,,50,"0,1,1",4,countryside,161,probe-49,0.055706109,0.608791512,0.196419536,1,,,,,,,,
,html-keyboard-response,429,1659895,0.0-224.0-1.0,null,<p></p>,null,,,,,,,,,,,,,,,,,,,,,,,
,do_trial,430,1664948,0.0-225.0-0.0,489.5,,,,,,,,50,"0,0,0",4,countryside,162,probe-150,0.149074954,0.538527999,0.098123085,0,,,,,,,,
,html-keyboard-response,431,1665955,0.0-225.0-1.0,null,<p></p>,null,,,,,,,,,,,,,,,,,,,,,,,
,do_trial,432,1672867,0.0-226.0-0.0,2344.1,,,,,,,,50,"1,1,0",4,countryside,163,probe-131,0.192925125,0.508786761,0.070901888,1,,,,,,,,
,html-keyboard-response,433,1673883,0.0-226.0-1.0,null,<p></p>,null,,,,,,,,,,,,,,,,,,,,,,,
,do_trial,434,1678455,0.0-227.0-0.0,0.200000048,,,,,,,,51,"1,0,0",4,countryside,164,probe-105,0.332085089,0.463034258,0.115349515,0,,,,,,,,
,html-keyboard-response,435,1679463,0.0-227.0-1.0,null,<p></p>,null,,,,,,,,,,,,,,,,,,,,,,,
,do_trial,436,1684920,0.0-228.0-0.0,884.7,,,,,,,,49,"0,0,0",4,countryside,165,probe-55,0.344956289,0.288494612,0.164331213,0,,,,,,,,
,html-keyboard-response,437,1685937,0.0-228.0-1.0,null,<p></p>,null,,,,,,,,,,,,,,,,,,,,,,,
,do_trial,438,1690735,0.0-229.0-0.0,227.9,,,,,,,,50,"0,0,0",4,countryside,166,probe-88,0.291825787,0.306576858,0.121096224,0,,,,,,,,
,html-keyboard-response,439,1691741,0.0-229.0-1.0,null,<p></p>,null,,,,,,,,,,,,,,,,,,,,,,,
,do_trial,440,1696504,0.0-230.0-0.0,198.5,,,,,,,,50,"1,1,0",4,countryside,167,probe-17,0.464837493,0.460316021,0.159673576,1,,,,,,,,
,html-keyboard-response,441,1697511,0.0-230.0-1.0,null,<p></p>,null,,,,,,,,,,,,,,,,,,,,,,,
,do_trial,442,1702885,0.0-231.0-0.0,817.1,,,,,,,,51,"0,0,1",4,countryside,168,probe-115,0.393408457,0.26818298,0.270347528,1,,,,,,,,
,html-keyboard-response,443,1703889,0.0-231.0-1.0,null,<p></p>,null,,,,,,,,,,,,,,,,,,,,,,,
,do_trial,444,1709018,0.0-232.0-0.0,569.2,,,,,,,,50,"0,0,0",4,countryside,169,probe-136,0.504772042,0.208988974,0.077312025,0,,,,,,,,
,html-keyboard-response,445,1710034,0.0-232.0-1.0,null,<p></p>,null,,,,,,,,,,,,,,,,,,,,,,,
,do_trial,446,1715283,0.0-233.0-0.0,684.3,,,,,,,,49,"0,0,0",4,countryside,170,probe-229,0.490453088,0.191271908,0.150312207,0,,,,,,,,
,html-keyboard-response,447,1716285,0.0-233.0-1.0,null,<p></p>,null,,,,,,,,,,,,,,,,,,,,,,,
,do_trial,448,1721202,0.0-234.0-0.0,355.2,,,,,,,,50,"1,0,0",4,countryside,171,probe-230,0.561151763,0.086057355,0.096128694,0,,,,,,,,
,html-keyboard-response,449,1722218,0.0-234.0-1.0,null,<p></p>,null,,,,,,,,,,,,,,,,,,,,,,,
,do_trial,450,1727126,0.0-235.0-0.0,355.1,,,,,,,,50,"0,1,0",4,countryside,172,probe-01,0.496574154,0.124720681,0.089598441,1,,,,,,,,
,html-keyboard-response,451,1728142,0.0-235.0-1.0,null,<p></p>,null,,,,,,,,,,,,,,,,,,,,,,,
,do_trial,452,1732785,0.0-236.0-0.0,80.5,,,,,,,,50,"1,0,0",4,countryside,173,probe-153,0.70014429,0.291941867,0.214586111,0,,,,,,,,
,html-keyboard-response,453,1733795,0.0-236.0-1.0,null,<p></p>,null,,,,,,,,,,,,,,,,,,,,,,,
,do_trial,454,1738743,0.0-237.0-0.0,390.8,,,,,,,,50,"1,0,0",4,countryside,174,probe-175,0.793704397,0.370936409,0.261145842,0,,,,,,,,
,html-keyboard-response,455,1739753,0.0-237.0-1.0,null,<p></p>,null,,,,,,,,,,,,,,,,,,,,,,,
,do_trial,456,1744938,0.0-238.0-0.0,622.8,,,,,,,,50,"1,0,1",4,countryside,175,probe-165,0.656069073,0.25807353,0.250604474,0,,,,,,,,
,html-keyboard-response,457,1745954,0.0-238.0-1.0,null,<p></p>,null,,,,,,,,,,,,,,,,,,,,,,,
,do_trial,458,1751138,0.0-239.0-0.0,607.6,,,,,,,,50,"1,0,1",4,countryside,176,probe-33,0.616303808,0.289371076,0.27751571,0,,,,,,,,
,html-keyboard-response,459,1752154,0.0-239.0-1.0,null,<p></p>,null,,,,,,,,,,,,,,,,,,,,,,,
,do_trial,460,1757293,0.0-240.0-0.0,577.8,,,,,,,,51,"0,0,0",4,countryside,177,probe-111,0.596665281,0.271489272,0.292130674,0,,,,,,,,
,html-keyboard-response,461,1758310,0.0-240.0-1.0,null,<p></p>,null,,,,,,,,,,,,,,,,,,,,,,,
,do_trial,462,1763515,0.0-241.0-0.0,640.9,,,,,,,,49,"0,0,0",4,countryside,178,probe-29,0.581461303,0.20665491,0.140510102,0,,,,,,,,
,html-keyboard-response,463,1764529,0.0-241.0-1.0,null,<p></p>,null,,,,,,,,,,,,,,,,,,,,,,,
,do_trial,464,1770223,0.0-242.0-0.0,1135.5,,,,,,,,50,"1,1,0",4,countryside,179,probe-48,0.399900535,0.257279236,0.213556249,1,,,,,,,,
,html-keyboard-response,465,1771239,0.0-242.0-1.0,null,<p></p>,null,,,,,,,,,,,,,,,,,,,,,,,
,do_trial,466,1777311,0.0-243.0-0.0,null,,,,,,,,null,"0,1,1",4,countryside,180,probe-76,0.537048181,0.360985268,0.144349433,,,,,,,,,
,html-keyboard-response,467,1778323,0.0-243.0-1.0,null,<p></p>,null,,,,,,,,,,,,,,,,,,,,,,,
,do_trial,468,1783190,0.0-244.0-0.0,302.6,,,,,,,,51,"1,0,0",4,countryside,181,probe-170,0.664359316,0.400460706,0.119224156,0,,,,,,,,
,html-keyboard-response,469,1784206,0.0-244.0-1.0,null,<p></p>,null,,,,,,,,,,,,,,,,,,,,,,,
,do_trial,470,1789062,0.0-245.0-0.0,291.7,,,,,,,,50,"1,0,0",4,countryside,182,probe-191,0.682190276,0.380203899,0.194086167,0,,,,,,,,
,html-keyboard-response,471,1790076,0.0-245.0-1.0,null,<p></p>,null,,,,,,,,,,,,,,,,,,,,,,,
,do_trial,472,1794955,0.0-246.0-0.0,316.5,,,,,,,,50,"1,0,0",4,countryside,183,probe-63,0.705914893,0.248295081,0.149991627,0,,,,,,,,
,html-keyboard-response,473,1795972,0.0-246.0-1.0,null,<p></p>,null,,,,,,,,,,,,,,,,,,,,,,,
,do_trial,474,1800595,0.0-247.0-0.0,52.40000004,,,,,,,,51,"0,1,1",4,countryside,184,probe-37,0.646058718,0.178560629,0.269844371,1,,,,,,,,
,html-keyboard-response,475,1801611,0.0-247.0-1.0,null,<p></p>,null,,,,,,,,,,,,,,,,,,,,,,,
,do_trial,476,1806490,0.0-248.0-0.0,300.2,,,,,,,,51,"0,0,0",4,countryside,185,probe-217,0.59278702,0.21809888,0.074129899,0,,,,,,,,
,html-keyboard-response,477,1807498,0.0-248.0-1.0,null,<p></p>,null,,,,,,,,,,,,,,,,,,,,,,,
,do_trial,478,1812707,0.0-249.0-0.0,645.5,,,,,,,,50,"1,0,0",4,countryside,186,probe-61,0.578176224,0.100161389,0.067140223,0,,,,,,,,
,html-keyboard-response,479,1813718,0.0-249.0-1.0,null,<p></p>,null,,,,,,,,,,,,,,,,,,,,,,,
,do_trial,480,1819020,0.0-250.0-0.0,735.1,,,,,,,,50,"0,0,0",4,countryside,187,probe-157,0.710584718,0.150846972,0.201251542,0,,,,,,,,
,html-keyboard-response,481,1820037,0.0-250.0-1.0,null,<p></p>,null,,,,,,,,,,,,,,,,,,,,,,,
,do_trial,482,1824866,0.0-251.0-0.0,262.2,,,,,,,,49,"1,1,1",4,countryside,188,probe-31,0.657478411,0.357771992,0.173647319,1,,,,,,,,
,html-keyboard-response,483,1825875,0.0-251.0-1.0,null,<p></p>,null,,,,,,,,,,,,,,,,,,,,,,,
,do_trial,484,1831273,0.0-252.0-0.0,829.3,,,,,,,,50,"1,0,0",4,countryside,189,probe-75,0.690950429,0.20340426,0.143182816,0,,,,,,,,
,html-keyboard-response,485,1832290,0.0-252.0-1.0,null,<p></p>,null,,,,,,,,,,,,,,,,,,,,,,,
,do_bye,486,1833809,0.0-253.0-0.0,null,,,,,,,,null,,,,,,,,,,,,,,,,,
,break,487,1835405,0.0-253.0-1.0,1594.6,"<div class='center'><p>Time to take a quick break! You have 2 minutes to rest, but you can move on sooner if you'd like.</p><p> Press the <b>space bar</b> to continue.</p></div>",32,,,,,,,,,,,,,,,,,,,,,,,
,do_travel,488,1844423,0.0-254.0-0.0,null,,,,,,,,null,,,,,,,,,,,,,,,,,
,do_welcome,489,1848432,0.0-254.0-1.0,null,,,,,,,,null,,,,,,,,,,,,,,,,,
,do_trial,490,1854732,0.0-255.0-0.0,1701.9,,,,,,,,49,"1,0,0",5,coast,190,probe-134,1,0.3602948,0.082217122,1,,,,,,,,
,html-keyboard-response,491,1855745,0.0-255.0-1.0,null,<p></p>,null,,,,,,,,,,,,,,,,,,,,,,,
,do_trial,492,1860626,0.0-256.0-0.0,316.9,,,,,,,,50,"1,0,0",5,coast,191,probe-139,1,0.31587805,0.098813915,0,,,,,,,,
,html-keyboard-response,493,1861629,0.0-256.0-1.0,null,<p></p>,null,,,,,,,,,,,,,,,,,,,,,,,
,do_trial,494,1866639,0.0-257.0-0.0,445.5,,,,,,,,51,"1,0,0",5,coast,192,probe-80,0.755156343,0.537209837,0.190373666,0,,,,,,,,
,html-keyboard-response,495,1867645,0.0-257.0-1.0,null,<p></p>,null,,,,,,,,,,,,,,,,,,,,,,,
,do_trial,496,1872578,0.0-258.0-0.0,376.2,,,,,,,,49,"1,0,0",5,coast,193,probe-38,0.650971643,0.458855181,0.302781821,1,,,,,,,,
,html-keyboard-response,497,1873589,0.0-258.0-1.0,null,<p></p>,null,,,,,,,,,,,,,,,,,,,,,,,
,do_trial,498,1878426,0.0-259.0-0.0,283.7,,,,,,,,50,"0,0,1",5,coast,194,probe-104,0.575374803,0.386391608,0.255078103,0,,,,,,,,
,html-keyboard-response,499,1879443,0.0-259.0-1.0,null,<p></p>,null,,,,,,,,,,,,,,,,,,,,,,,
,do_trial,500,1884360,0.0-260.0-0.0,347.7,,,,,,,,51,"1,0,0",5,coast,195,probe-208,0.609122592,0.295898221,0.203533127,0,,,,,,,,
,html-keyboard-response,501,1885366,0.0-260.0-1.0,null,<p></p>,null,,,,,,,,,,,,,,,,,,,,,,,
,do_trial,502,1890362,0.0-261.0-0.0,441,,,,,,,,49,"1,0,0",5,coast,196,probe-36,0.641658141,0.317291885,0.167488772,1,,,,,,,,
,html-keyboard-response,503,1891368,0.0-261.0-1.0,null,<p></p>,null,,,,,,,,,,,,,,,,,,,,,,,
,do_trial,504,1896417,0.0-262.0-0.0,504.1,,,,,,,,50,"0,0,0",5,coast,197,probe-89,0.629679891,0.371342417,0.099727551,0,,,,,,,,
,html-keyboard-response,505,1897434,0.0-262.0-1.0,null,<p></p>,null,,,,,,,,,,,,,,,,,,,,,,,
,do_trial,506,1902370,0.0-263.0-0.0,368.3,,,,,,,,51,"1,0,0",5,coast,198,probe-135,0.631222449,0.19774133,0.155804046,0,,,,,,,,
,html-keyboard-response,507,1903387,0.0-263.0-1.0,null,<p></p>,null,,,,,,,,,,,,,,,,,,,,,,,
,do_trial,508,1908068,0.0-264.0-0.0,124.3,,,,,,,,49,"1,1,0",5,coast,199,probe-69,0.665325929,0.239414308,0.071904857,1,,,,,,,,
,html-keyboard-response,509,1909077,0.0-264.0-1.0,null,<p></p>,null,,,,,,,,,,,,,,,,,,,,,,,
,do_trial,510,1913987,0.0-265.0-0.0,345.6,,,,,,,,49,"1,0,0",5,coast,200,probe-03,0.675678897,0.225995261,0.082153116,1,,,,,,,,
,html-keyboard-response,511,1915006,0.0-265.0-1.0,null,<p></p>,null,,,,,,,,,,,,,,,,,,,,,,,
,do_trial,512,1919794,0.0-266.0-0.0,234.7,,,,,,,,49,"1,0,0",5,coast,201,probe-154,0.619723951,0.250751876,0.152727694,1,,,,,,,,
,html-keyboard-response,513,1920803,0.0-266.0-1.0,null,<p></p>,null,,,,,,,,,,,,,,,,,,,,,,,
,do_trial,514,1925709,0.0-267.0-0.0,339.8,,,,,,,,49,"0,1,0",5,coast,202,probe-10,0.320340429,0.54704794,0.085287858,0,,,,,,,,
,html-keyboard-response,515,1926716,0.0-267.0-1.0,null,<p></p>,null,,,,,,,,,,,,,,,,,,,,,,,
,do_trial,516,1931477,0.0-268.0-0.0,189.5,,,,,,,,49,"0,1,0",5,coast,203,probe-85,0.097317032,0.596747917,0.05235583,0,,,,,,,,
,html-keyboard-response,517,1932490,0.0-268.0-1.0,null,<p></p>,null,,,,,,,,,,,,,,,,,,,,,,,
,do_trial,518,1937234,0.0-269.0-0.0,179,,,,,,,,49,"0,0,0",5,coast,204,probe-124,0.098503387,0.591418464,0.228096187,0,,,,,,,,
,html-keyboard-response,519,1938240,0.0-269.0-1.0,null,<p></p>,null,,,,,,,,,,,,,,,,,,,,,,,
,do_trial,520,1943123,0.0-270.0-0.0,315.1,,,,,,,,50,"0,1,0",5,coast,205,probe-86,0.060232181,0.546718556,0.274174449,1,,,,,,,,
,html-keyboard-response,521,1944138,0.0-270.0-1.0,null,<p></p>,null,,,,,,,,,,,,,,,,,,,,,,,
,do_trial,522,1948735,0.0-271.0-0.0,29.69999999,,,,,,,,51,"0,1,0",5,coast,206,probe-74,0.155695026,0.730463826,0.224917908,0,,,,,,,,
,html-keyboard-response,523,1949742,0.0-271.0-1.0,null,<p></p>,null,,,,,,,,,,,,,,,,,,,,,,,
,do_trial,524,1954597,0.0-272.0-0.0,296.8,,,,,,,,50,"0,0,0",5,coast,207,probe-211,0.246193717,0.721957592,0.169831477,0,,,,,,,,
,html-keyboard-response,525,1955613,0.0-272.0-1.0,null,<p></p>,null,,,,,,,,,,,,,,,,,,,,,,,
,do_trial,526,1960322,0.0-273.0-0.0,142,,,,,,,,49,"0,0,1",5,coast,208,probe-120,0.185890713,0.70583205,0.334015559,0,,,,,,,,
,html-keyboard-response,527,1961338,0.0-273.0-1.0,null,<p></p>,null,,,,,,,,,,,,,,,,,,,,,,,
,do_trial,528,1966049,0.0-274.0-0.0,148.1,,,,,,,,49,"0,0,1",5,coast,209,probe-98,0.124360194,0.62991312,0.445390241,0,,,,,,,,
,html-keyboard-response,529,1967065,0.0-274.0-1.0,null,<p></p>,null,,,,,,,,,,,,,,,,,,,,,,,
,do_trial,530,1972036,0.0-275.0-0.0,403.1,,,,,,,,49,"0,1,0",5,coast,210,probe-166,0.163078463,0.67946959,0.479061006,0,,,,,,,,
,html-keyboard-response,531,1973048,0.0-275.0-1.0,null,<p></p>,null,,,,,,,,,,,,,,,,,,,,,,,
,do_trial,532,1977949,0.0-276.0-0.0,345.4,,,,,,,,49,"0,1,0",5,coast,211,probe-172,0.067082677,0.67648783,0.415162927,0,,,,,,,,
,html-keyboard-response,533,1978966,0.0-276.0-1.0,null,<p></p>,null,,,,,,,,,,,,,,,,,,,,,,,
,do_trial,534,1983904,0.0-277.0-0.0,361.1,,,,,,,,49,"1,1,0",5,coast,212,probe-67,0.075778058,0.747054045,0.29470947,1,,,,,,,,
,html-keyboard-response,535,1984914,0.0-277.0-1.0,null,<p></p>,null,,,,,,,,,,,,,,,,,,,,,,,
,do_trial,536,1989951,0.0-278.0-0.0,466.9,,,,,,,,49,"0,1,1",5,coast,213,probe-177,0.151016251,0.711424002,0.246325791,0,,,,,,,,
,html-keyboard-response,537,1990955,0.0-278.0-1.0,null,<p></p>,null,,,,,,,,,,,,,,,,,,,,,,,
,do_trial,538,1996386,0.0-279.0-0.0,850.9,,,,,,,,49,"0,0,1",5,coast,214,probe-227,0.110024097,0.718948002,0.206079503,0,,,,,,,,
,html-keyboard-response,539,1997403,0.0-279.0-1.0,null,<p></p>,null,,,,,,,,,,,,,,,,,,,,,,,
,do_trial,540,2002574,0.0-280.0-0.0,600.7,,,,,,,,49,"0,1,0",5,coast,215,probe-159,0.170600708,0.545519512,0.255923048,0,,,,,,,,
,html-keyboard-response,541,2003588,0.0-280.0-1.0,null,<p></p>,null,,,,,,,,,,,,,,,,,,,,,,,
,do_trial,542,2009681,0.0-281.0-0.0,null,,,,,,,,null,"0,1,0",5,coast,216,probe-94,0.055937609,0.530084403,0.372089181,,,,,,,,,
,html-keyboard-response,543,2010684,0.0-281.0-1.0,null,<p></p>,null,,,,,,,,,,,,,,,,,,,,,,,
,do_trial,544,2015609,0.0-282.0-0.0,359,,,,,,,,49,"0,0,0",5,coast,217,probe-125,0.13943787,0.697905947,0.32552036,0,,,,,,,,
,html-keyboard-response,545,2016613,0.0-282.0-1.0,null,<p></p>,null,,,,,,,,,,,,,,,,,,,,,,,
,do_trial,546,2021366,0.0-283.0-0.0,176.2,,,,,,,,50,"0,0,0",5,coast,218,probe-53,0.066845861,0.632755509,0.276460777,0,,,,,,,,
,html-keyboard-response,547,2022375,0.0-283.0-1.0,null,<p></p>,null,,,,,,,,,,,,,,,,,,,,,,,
,do_trial,548,2027266,0.0-284.0-0.0,337,,,,,,,,49,"0,0,0",5,coast,219,probe-181,0.107600881,0.642106888,0.325929398,0,,,,,,,,
,html-keyboard-response,549,2028282,0.0-284.0-1.0,null,<p></p>,null,,,,,,,,,,,,,,,,,,,,,,,
,do_trial,550,2033025,0.0-285.0-0.0,180.2,,,,,,,,51,"0,0,1",5,coast,220,probe-218,0.183858539,0.584243037,0.30085472,1,,,,,,,,
,html-keyboard-response,551,2034032,0.0-285.0-1.0,null,<p></p>,null,,,,,,,,,,,,,,,,,,,,,,,
,do_trial,552,2039261,0.0-286.0-0.0,647.2,,,,,,,,51,"0,1,0",5,coast,221,probe-148,0.168780783,0.770776503,0.255776439,0,,,,,,,,
,html-keyboard-response,553,2040264,0.0-286.0-1.0,null,<p></p>,null,,,,,,,,,,,,,,,,,,,,,,,
,do_trial,554,2045429,0.0-287.0-0.0,588,,,,,,,,50,"0,1,1",5,coast,222,probe-93,0.080960843,0.616281169,0.231803038,1,,,,,,,,
,html-keyboard-response,555,2046437,0.0-287.0-1.0,null,<p></p>,null,,,,,,,,,,,,,,,,,,,,,,,
,do_trial,556,2051702,0.0-288.0-0.0,706.8,,,,,,,,50,"1,1,0",5,coast,223,probe-23,0.066259603,0.682149564,0.239349565,1,,,,,,,,
,html-keyboard-response,557,2052719,0.0-288.0-1.0,null,<p></p>,null,,,,,,,,,,,,,,,,,,,,,,,
,do_trial,558,2057772,0.0-289.0-0.0,477.4,,,,,,,,49,"0,1,0",5,coast,224,probe-197,0.202195998,0.546707427,0.303039984,0,,,,,,,,
,html-keyboard-response,559,2058775,0.0-289.0-1.0,null,<p></p>,null,,,,,,,,,,,,,,,,,,,,,,,
,do_trial,560,2063989,0.0-290.0-0.0,639,,,,,,,,51,"0,0,0",5,coast,225,probe-122,0.145046075,0.568307998,0.320478645,0,,,,,,,,
,html-keyboard-response,561,2065000,0.0-290.0-1.0,null,<p></p>,null,,,,,,,,,,,,,,,,,,,,,,,
,do_trial,562,2069645,0.0-291.0-0.0,88.30000001,,,,,,,,50,"0,1,1",5,coast,226,probe-20,0.192211382,0.636418059,0.304893811,1,,,,,,,,
,html-keyboard-response,563,2070655,0.0-291.0-1.0,null,<p></p>,null,,,,,,,,,,,,,,,,,,,,,,,
,do_trial,564,2076016,0.0-292.0-0.0,801.9,,,,,,,,49,"0,1,0",5,coast,227,probe-96,0.157242007,0.786461346,0.265762805,0,,,,,,,,
,html-keyboard-response,565,2077033,0.0-292.0-1.0,null,<p></p>,null,,,,,,,,,,,,,,,,,,,,,,,
,do_trial,566,2082730,0.0-293.0-0.0,1135,,,,,,,,51,"0,1,1",5,coast,228,probe-167,0.165935364,0.66036283,0.311621885,1,,,,,,,,
,html-keyboard-response,567,2083738,0.0-293.0-1.0,null,<p></p>,null,,,,,,,,,,,,,,,,,,,,,,,
,do_trial,568,2088616,0.0-294.0-0.0,317.3,,,,,,,,51,"0,0,0",5,coast,229,probe-121,0.101362451,0.684626441,0.318602952,0,,,,,,,,
,html-keyboard-response,569,2089620,0.0-294.0-1.0,null,<p></p>,null,,,,,,,,,,,,,,,,,,,,,,,
,do_bye,570,2091135,0.0-295.0-0.0,null,,,,,,,,null,,,,,,,,,,,,,,,,,
,audio-keyboard-response,571,2109007,0.0-295.0-1.0,17861.8,run_exp/static/audio/clip_28_all_done_day_1.m4a,32,,,,,,,,,,,,,,,,"2,4,5,3,1,0","106,203,41,146,195,67,112,14,177,53,182,94,49,11,7,20,162,192,12,205,204,155,113,59,129,222,33,214,89,185,125,131,127,115,86,34,197,18,143,225,56,198,170,83,70,140,109,5,193,91,199,102,13,45,65,178,141,25,118,157,211,194,107,80,63,172,72,1,215,6,188,96,142,151,167,227,116,137,10,223,186,150,38,154,212,117,173,187,201,71,31,21,148,17,161,77,29,26,136,108,40,64,101,15,27,98,220,50,100,145,202,4,144,78,191,24,163,55,183,209,99,23,51,111,44,57,69,58,39,189,160,224,46,61,213,159,3,200,8,76,42,105,184,128,218,81,206,122,181,126,219,132,221,82,208,175,43,168,90,179,139,48,149,130,104,54,87,16,114,135,228,229,0,152,174,164,32,110,28,47,75,169,190,62,36,216,60,156,30,74,133,138,79,37,103,207,35,88,134,68,2,153,9,84,123,85,73,210,119,97,165,171,66,176,226,158,93,124,52,180,217,147,92,22,196,121,19,95,166,120","19,13,5,18,20,17,0,8,1,9,11,6,7,23,3,22,21,2,4,16,14,24,15,12,10","0.0886812351246778,0.22604369289253984,0.23904122173325204,0.27571008141235687,0.11534034842217962,0.253884895968352,0.09255862636946739,0.14573310751372126,0.24751710355123763,0.14740202011563536,0.2649635063624246,0.3040393153990909,0.4651524647332071,0.45953832030098873,0.5527147346071539,0.729646521255643,0.5686861127991835,0.6232514540275562,0.5847646171363252,0.6096602171033738,0.48731894335697606,0.5950983292428974,0.6215815872217794,0.5858570322156915,0.463309052719368,0.4381923620973383,0.44514372145285047,0.4725027180496847,0.49259811934807335,0.6754384087602047,0.7242544622341383,0.7751534758721482,0.6125986292499846,0.5211021400101339,0.5306989466413407,0.5919271192313689,0.6650863823402604,0.6183226279906024,0.5388840887837955,0.6641227850407982,0.7782478654455028,0.7258699323331745,0.5859509495268227,0.5007454484771501,0.5304594072111355,0.6312988087230705,0.5883530913735286,0.6236896766331512,0.6715053856058111,0.5693967035959113,0.44214075388435,0.40092916700478126,0.39208181892933963,0.3950374582600738,0.2971190017288935,0.3802048069289506,0.4457185255275236,0.33522657729521027,0.45027192661200877,0.45799220854515005,0.32146242996970054,0.13172107868450636,0.18590924384223403,0.19587715569496303,0.21999170274612506,0.20093707381151013,0.28392480340368587,0.45956724040630675,0.19884484712154138,0.3558217378564643,0.3961846384160003,0.3867356730746758,0.3651316390646088,0.3336084780815894,0.31725007667752336,0.4832425131804658,0.43583292065599977,0.2662487579981736,0.3446642639308384,0.3125453384535463,0.36518899990529996,0.31804955789366285,0.1443796641215291,0.13472628692368205,0.20196456971039184,0.3240292449090847,0.514448516108493,0.4039080788202582,0.36490151707384405,0.4811556121738888,0.4036714202809546,0.2623444263158175,0.36688943872464974,0.37607463409610864,0.5159419479364393,0.5666210245019395,0.48556463019795504,0.4923560112816396,0.6162227253921909,0.5736722952818021,0.5576639278370508,0.6127444415089913,0.6472354894904854,0.469384726791409,0.4320422528054669,0.6640066465411627,0.5842474882203575,0.5713865469031907,0.5892239031758715,0.6764838446925934,0.6630595480892864,0.5793633778122348,0.5354324667180242,0.5841830518414876,0.6238723021311402,0.635223584733992,0.4740761994007317,0.6419999743712472,0.6815976069850495,0.7196104194864171,0.521932253601937,0.47512848851283684,0.6784510516376415,0.48088643181125296,0.41210662155251404,0.5181466776201551,0.5818512525723035,0.5074377977131996,0.5215785890885086,0.417088228603051,0.42172840555327534,0.41352553019196253,0.21366835660776143,0.1686859997107453,0.06610362122609299,0.11370558912678737,0.07877649275775037,0.10018595138929615,0.1708886049779826,0.31446360669159623,0.34297980119343513,0.35937748528858776,0.14352626578621083,0.22122532561969344,0.16044225314174074,0.2252496601912612,0.1294819692154225,0.08650823458708,0.18578728680371548,0.08774280262349975,0.16718695758670987,0.26150367554114384,0.3066704657074296,0.32882428674074904,0.12548397063256853,0.21695572072264527,0.22956534131667364,0.3306994490199964,0.15689090789144666,0.27620661437266486,0.22186722762821628,0.26767760166756627,0.18020580474860226,0.11829732995990508,0.10644523234905258,0.10059607037321691,0.1977483729855847,0.10940253207715113,0.16822228570454326,0.18644562617380397,0.3389578594591142,0.19669398460623208,0.3872085844590245,0.555815649071774,0.5811883938365963,0.7114420086999185,0.6738579290479824,0.580685102181998,0.5468738342827657,0.45712503837431734,0.4918718296599318,0.5780419769390897,0.4485960343807382,0.5620704687294242,0.6137022737017215,0.6592027505424172,0.6009900612989162,0.5241919597200387,0.5733485633522417,0.6427557066939109,0.541206585804243,0.558033313914088,0.4552981125641616,0.5027294265826953,0.5625811906417469,0.42014608993177277,0.4675162807422798,0.5628858276081392,0.5684678358439925,0.47360078898895797,0.5723571999383994,0.7026786497871951,0.582713519999627,0.6722021510502948,0.609411918368147,0.5778288090795451,0.6041867575010366,0.5955226461907561,0.6260796754882564,0.5715098800672406,0.5313451334809033,0.5278110786598684,0.61484623074491,0.4916235947929798,0.39252482637661046,0.4271771628143628,0.43794354159783083,0.40333003523768357,0.21333980198707117,0.12423914111545022,0.09949351318898485,0.27250504269892734,0.2618626068472079,0.3504619242571841,0.33077157411410585,0.30716343743275576,0.32248775892872034,0.31426445102135203,0.4291075606974613,0.36155062611031846,0.4687228208727966,0.3340857734898264,0.36929874474756863,0.41807307156733436,0.6001474974111989,0.6274564330008494,0.5154750897696554,0.45586267091097193,0.31075606624369884,0.3047036899735017,0.3028727958438989,0.27519560858811726,0.1841397725689586,0.34100049815332484,0.17585485303417947,0.18876311762925205,0.22971560481291575,0.31262934761670685,0.40291688509773915,0.38609292133256085","0.6077587766999578,0.6799804064498663,0.5857384875544088,0.7241564385149606,0.5072884444070446,0.5148930756139906,0.544851582436803,0.5635612109354923,0.4830041244817009,0.6447728271074251,0.5453398835485428,0.49380254162635845,0.3490480301633439,0.3915842672524961,0.32878300905863067,0.2364750662611671,0.17111086165595832,0.05504202517382085,0.17428209652335733,0.15990057547530656,0.14244247722192463,0.2394416495931878,0.2200076953613472,0.0769194289631116,0.082821446462005,0.1916139657562185,0.31234262013726755,0.24107953468661497,0.3085847921141916,0.3000541662120108,0.12362568530797736,0.07857141286358708,0.1013649632224912,0.1921479943865254,0.07908280213135345,0.18250336456780106,0.1650741058963631,0.19016618566191804,0.09898345814471915,0.09734676433202319,0.12979849050067352,0.13691114175651745,0.10083748436392348,0.11846196037315515,0.11115547927990843,0.06763664990095639,0.17477859518598302,0.17619487938494072,0.10964249391851393,0.08261719898457724,0.1175739487410668,0.2260906658134399,0.18639681819377957,0.21021006506924741,0.24110727707763574,0.061668013037635847,0.07936461354628116,0.09205384234860278,0.07519217319545217,0.05866140519154438,0.09419129714726662,0.1504716291944105,0.19608919664513857,0.22645568613391184,0.11750303500070153,0.08744754730021928,0.06738564250147451,0.1357741252144596,0.23162388004138315,0.22671525771884665,0.05334975973412849,0.10829435501507187,0.1132910180798493,0.09636127779590618,0.08195521189690512,0.09150815492206661,0.13903340198414246,0.09499676642202488,0.12443610052585977,0.17314520344259562,0.06491124621749482,0.05739318793871208,0.06283733559439918,0.16982523572658909,0.27345762962933756,0.2229786823970879,0.07461829764837985,0.05700557773720629,0.06486023072742125,0.13102032251758458,0.05375360992079536,0.15779487288457453,0.08270943710481873,0.07133981303653329,0.10673831354581138,0.13737488946546686,0.15916645264691337,0.11245314356470702,0.057938233772098835,0.12765458634117735,0.09014418606434649,0.27047329494502564,0.06683210938951734,0.060070439726022114,0.13101310108874337,0.08195777959134945,0.11663108760861893,0.053555114821365754,0.1430575098876453,0.0702294321787543,0.08218254060410812,0.1767632028383364,0.21286056580206647,0.24342819245080863,0.13985364836461694,0.19125973999527074,0.12235292808021164,0.17772159661789455,0.23741368023214185,0.24013621577680774,0.19744515799244944,0.2150524130016357,0.06866730678336358,0.05023707480527507,0.20648375235030908,0.08759883805567824,0.2384030689132581,0.20458325756779944,0.21346273318949074,0.2397676171322192,0.1866419435927852,0.1885564335651504,0.20423384049698584,0.3899712234820205,0.3898734818812201,0.509439515781599,0.41505296130133235,0.6416904318978712,0.7240260809952949,0.5860210212731426,0.6320141617253251,0.7657602744937664,0.6156945073654378,0.593899598859165,0.5501141154189019,0.516881724075998,0.5452751046945707,0.4486776145840138,0.6482141898516054,0.7789551571265833,0.7091985181295363,0.6777339082939605,0.5236629852483374,0.45313679097495624,0.5053745445412265,0.532488284733834,0.5491976750439996,0.6191369038962681,0.596256238841831,0.6802845199588521,0.5248982706800789,0.5190716178240254,0.41213736459166217,0.44966197236827454,0.530531969946201,0.42046426090457445,0.4494674464107056,0.42851967526083856,0.43442524864605037,0.37001304443093175,0.45040919458908446,0.35380856550371464,0.19904171070471663,0.2523529468546731,0.10640169051611884,0.1828598908216994,0.06373119211364965,0.051406549559888264,0.1088339427166897,0.22148764762236414,0.290810203589347,0.14715405149143443,0.18609258735060416,0.22762363474710445,0.2779598848350588,0.119392846437925,0.14171008190828357,0.21383634596419474,0.05366784065122438,0.10639451182946605,0.171023378768107,0.1405783724438739,0.07060859018628132,0.2614642861692242,0.3022296350154291,0.07847596797659215,0.0768652499447115,0.11075599897264049,0.18663966512773436,0.15346246806878916,0.0566711010188432,0.11440702859520151,0.10523025544816296,0.17322488489269397,0.11756329066271985,0.23093293130481152,0.08570501769573576,0.25028150357456536,0.196024977522677,0.1022009893113906,0.07637005189762489,0.12429058974169173,0.15055209774932077,0.08769681473952583,0.10191603166142355,0.14369249693052755,0.17354711129899086,0.20764318455387795,0.2976992195616204,0.1160304695510072,0.10046687062631347,0.13309249059598396,0.15190748706590776,0.15082300660367476,0.12156250258042371,0.06880071692149009,0.09279823627211413,0.06613102262016862,0.12794499182939562,0.25188031897874097,0.21446011780263394,0.21744944989265805,0.253435576150954,0.08489272973054994,0.11717213632974456,0.15694221772984487,0.12222599078186008,0.13376359564232726,0.1700657642571679,0.09309131675085874,0.09758270611290232,0.1456384210005304,0.09814733777063943,0.11673585240816518,0.21248597406829703,0.2815413563303443,0.15436990438262746,0.12941916302698736,0.056818649996801335,0.11359559718357944","0.30261689217639043,0.20320750331117002,0.2327380820501918,0.30434043919592413,0.35436949435311205,0.281773452465335,0.2765601707078619,0.25908488143382524,0.3405883442172977,0.29828244743450216,0.34872546051230396,0.15401569396012757,0.19500622922781322,0.32490800200289566,0.3336485114428565,0.39854947592318085,0.31800220014526004,0.518551010179747,0.4390751567379395,0.2748206120878591,0.22389348458390715,0.23925478545227358,0.35772242177530217,0.4712016460003659,0.3949627483891686,0.38758071281759465,0.34042522095438826,0.35068424298601847,0.2736161289382292,0.30728586564204174,0.22327273473553397,0.3854540496922877,0.44916853347251917,0.3727742261781124,0.3288630389220335,0.2408023897221242,0.19935135320051417,0.22385039534828785,0.27289693540700727,0.1735051405644625,0.29732107658589796,0.1989468708418875,0.27198028819420933,0.22247490304409767,0.22923537916749215,0.32522974435700747,0.17681330853823268,0.3401306087547629,0.3979773262790281,0.5721395546719407,0.4314328402103156,0.4448324561545623,0.5978445689523808,0.49420627846973775,0.6002951632818286,0.4858038177694273,0.5620928632670866,0.4694256529962856,0.6332117031693858,0.6699791789538797,0.6733265495058268,0.6107132000235983,0.6420231891217973,0.5882680686928484,0.6232383164617813,0.6774743790070583,0.5919558885206813,0.5766564093395351,0.6271859108199871,0.7692354335851481,0.5664668914607237,0.6020121733481928,0.5872323590828378,0.5063884311085087,0.5838751440388094,0.4438379784872982,0.6204021653270084,0.6947761901403517,0.6532443382775904,0.6455744873280151,0.7729730364055329,0.6485846722712855,0.6284320132912136,0.6200534562158156,0.6012615984700937,0.547990640920443,0.5295813710401546,0.7823185119168118,0.7269140417932196,0.5865610377949839,0.6020105651902968,0.6089393476447339,0.4018080693340798,0.3944713550376268,0.294107873176306,0.3770122150846622,0.3159066919519367,0.41644529174863876,0.21517267945741622,0.18591397662418488,0.2239377514946321,0.20679355843344327,0.20428883421977367,0.17976423024023894,0.312817188285574,0.3139974031855201,0.25243512301815335,0.26822873102551037,0.2735161222236673,0.2647943701132137,0.26326130449115587,0.22177667187783606,0.0988546143290248,0.07007907344612171,0.05497994085074684,0.12261717890397095,0.21128528037313235,0.3767428387183888,0.46577801897617127,0.22516820637388324,0.19172274615578744,0.1749490691824466,0.20240115304114564,0.20298090856194015,0.19002554282083942,0.08205352498111265,0.18225208010336405,0.26927799990919915,0.3649926871273449,0.32522928077167323,0.49640808383147955,0.4681943892795943,0.27960774410097883,0.342347584483069,0.18449094610117306,0.29041357646775523,0.32809077355121985,0.2756393155522202,0.27834667785102557,0.3612811423490977,0.3033549864225203,0.2359464158284547,0.1616759276088604,0.1794060528234891,0.2358758540404371,0.30364260921856634,0.31425003377000876,0.1743788942108926,0.20599510829184134,0.295763620243664,0.30519635094218917,0.4260008006451582,0.3253853968139903,0.353433097841311,0.28778032691345085,0.2618742875281976,0.18859643062294246,0.21290814009234516,0.2844121061123524,0.27964212259686017,0.2659286831954796,0.22700711739060184,0.26634779731326386,0.22898135486018467,0.3445015065359584,0.28983100974857595,0.286337034145095,0.42628300920216555,0.3013729688988073,0.26455923618076,0.3085315446327569,0.4238486388209388,0.408095956704089,0.45482696469383344,0.3823571946465894,0.1875116242931399,0.2043928852973589,0.2099268733277339,0.4240019195151941,0.35821817825823377,0.42936494878170506,0.4130983828079643,0.24357675086512717,0.21271424132537675,0.2341892481437742,0.2032647991065129,0.32428131490810985,0.350743803793047,0.3083890372413355,0.28665822188448054,0.4026738370387291,0.45709344002159646,0.32773346326687375,0.27463119926751073,0.2133546099439782,0.27395073635336253,0.20806740079354724,0.3660965781550766,0.38374611860912633,0.43306027055245594,0.37159133505016717,0.2883380354147558,0.3690301037084792,0.3899525378863701,0.44301591056337264,0.31659290567398685,0.23091011116643168,0.2739826602584966,0.3302514006775476,0.5269576284859188,0.5478862461346496,0.4646146004958749,0.5841713547226342,0.5504472380052685,0.6940210885451795,0.6610072309317658,0.4268861149633362,0.5586906444515897,0.6060060444276095,0.7048140868351875,0.5461712855467206,0.6793671423560034,0.7561144787021474,0.6869433827713551,0.6213736399776043,0.5800827549381812,0.4365298254242776,0.5338175476024482,0.525069589698601,0.5657931564538361,0.540892935225372,0.5976665943632175,0.566380731541653,0.5593328283669055,0.5085043965388217,0.6157303187510761,0.6421089096772119,0.67815865212438,0.6386386454690746,0.7090009925926567,0.6164414823458576,0.6253233289642344,0.5406248570454721,0.528069579584724,0.5823172343564063,0.6132521497488266,0.6935803516910605,0.5941181106308119,0.5586680914322313,0.5591763783271948","160,129,41,85,166,87,42,208,86,80,47,124,205,45,203,126,49,164,83,120,128,81,125,40,161,88,167,206,207,89,168,165,46,82,43,209,84,200,127,48,121,162,201,169,202,122,204,163,123,44","11,1,1,3,1,3,2,1,5,1,6,5,5,5,3,1,4,3,5,5,1,1,2,7,1,1,1,1,4,5,2,4,1,1,4,1,1,3,1,2,6,2,2,1,6,1,1,1,7,7,4,5,1,7,2,1,6,3,6,6"