"success","trial_type","trial_index","time_elapsed","internal_node_id","interactions","blur_events","focus_events","fullscreenenter_events","fullscreenexit_events","rt","stimulus","key_press","subject_id","participant_id","age","gender","prompt","response","choice_outcomes","context_n","context_img_id","trial_n","probe_img_id","pR_red","pR_white","pR_black","outcome","contextArray_ind","validImageProbes","invalidImageProbes","pRew_Red","pRew_White","pRew_Black","availableForMemProbe","choice_blocks"
"true","fullscreen","0","4454","0.0-0.0","""event"",""trial"",""time""
""fullscreenenter"",""0"",""3468""
","
","
","""event"",""trial"",""time""
""fullscreenenter"",""0"",""3468""
","
","","","","","","","","","","","","","","","","","","","","","","","","","",""
"","pavlovia","1","4456","0.0-1.0","""event"",""trial"",""time""
""fullscreenenter"",""0"",""3468""
","
","
","""event"",""trial"",""time""
""fullscreenenter"",""0"",""3468""
","
","","","","","","","","","","","","","","","","","","","","","","","","","",""
"","instruc1","2","49685","0.0-2.0","""event"",""trial"",""time""
""fullscreenenter"",""0"",""3468""
","
","
","""event"",""trial"",""time""
""fullscreenenter"",""0"",""3468""
","
","null","run_exp/static/audio/clip_1_welcome.m4a","null","869","1148","20","Male","<div class='center'><p>Welcome! This is the first part of the study. It will last ~30 minutes. In part 1 and part 2 of the study, you are the head captain of a pirate ship traveling around the world to different islands. You will play a few different games throughout these two parts. Here is an overview of them:</p><br><p>Part 1 (today)</p><p>1. Instructions, practice game, and quiz</p><p>2. Pick a pirate game on 6 different islands</p><br><p>Part 2 (tomorrow)</p><p>3. Pick a pirate game and memory game</p><p>4. Where did you see this ship? </p></div>","","","","","","","","","","","","","","","","","",""
"","html-keyboard-response","3","51355","0.0-3.0","""event"",""trial"",""time""
""fullscreenenter"",""0"",""3468""
","
","
","""event"",""trial"",""time""
""fullscreenenter"",""0"",""3468""
","
","1668.4000000953674","<div class='center'><p>Welcome! This is the first part of the study. It will last ~30 minutes. In part 1 and part 2 of the study, you are the head captain of a pirate ship traveling around the world to different islands. You will play a few different games throughout these two parts. Here is an overview of them:</p><br><p>Part 1 (today)</p><p>1. Instructions, practice game, and quiz</p><p>2. Pick a pirate game on 6 different islands</p><br><p>Part 2 (tomorrow)</p><p>3. Pick a pirate game and memory game</p><p>4. Where did you see this ship? </p><p><b>[Press the space bar to continue]</b></p></div>","32","","","","","","","","","","","","","","","","","","","","","","",""
"","instruc2","4","56663","0.0-4.0","""event"",""trial"",""time""
""fullscreenenter"",""0"",""3468""
","
","
","""event"",""trial"",""time""
""fullscreenenter"",""0"",""3468""
","
","null","run_exp/static/audio/clip_2_different_places.m4a","null","","","","","<div class='center'><p>Today, you’ll visit these 6 islands on your journey. You'll be able to see these islands from your ship.</p><p><img src='run_exp/static/images/contexts/all_contexts.png' height='500'></p></div>","","","","","","","","","","","","","","","","","",""
"","html-keyboard-response","5","61419","0.0-5.0","""event"",""trial"",""time""
""fullscreenenter"",""0"",""3468""
","
","
","""event"",""trial"",""time""
""fullscreenenter"",""0"",""3468""
","
","4753.899999856949","<div class='center'><p>Today, you’ll visit these 6 islands on your journey. You'll be able to see these islands from your ship.</p><p><img src='run_exp/static/images/contexts/all_contexts.png' height='500'></p><p><b>[Press the space bar to continue]</b></p></div>","32","","","","","","","","","","","","","","","","","","","","","","",""
"","instruc3","6","71103","0.0-6.0","""event"",""trial"",""time""
""fullscreenenter"",""0"",""3468""
","
","
","""event"",""trial"",""time""
""fullscreenenter"",""0"",""3468""
","
","null","run_exp/static/audio/clip_3_goal_of_game_1.m4a","null","","","","","<div class='center'><p> The pirates on your ship will rob other ships as they leave the island.</p> These ships have just sold their goods to the islanders, so they will be filled with lots and lots of gold.</p><p><img src='run_exp/static/images/tutorial/ship_center.png' height='400'></p></div>","","","","","","","","","","","","","","","","","",""
"","html-keyboard-response","7","79922","0.0-7.0","""event"",""trial"",""time""
""fullscreenenter"",""0"",""3468""
","
","
","""event"",""trial"",""time""
""fullscreenenter"",""0"",""3468""
","
","8818","<div class='center'><p> The pirates on your ship will rob other ships as they leave the island.</p> These ships have just sold their goods to the islanders, so they will be filled with lots and lots of gold.</p><p><img src='run_exp/static/images/tutorial/ship_center.png' height='400'></p><p><b>[Press the space bar to continue]</b></p></div>","32","","","","","","","","","","","","","","","","","","","","","","",""
"","instruc4","8","107902","0.0-8.0","""event"",""trial"",""time""
""fullscreenenter"",""0"",""3468""
","
","
","""event"",""trial"",""time""
""fullscreenenter"",""0"",""3468""
","
","null","run_exp/static/audio/clip_4_goal_of_game_2.m4a","null","","","","","<div class='center'><p>As the head captain, you do not have to rob any ships yourself. Another pirate will be doing the robbing for you. First, you will choose a pirate to rob the next ship.</p><p><img src='run_exp/static/images/tutorial/pirates_all_crop.png' height='200'></p><p>Then, you'll see if the pirate successfully robbed the ship of their gold. If they were successful, then you'll get a stack of gold coins like this:</p><p><img src='run_exp/static/images/tutorial/reward.png' height='150'></p><p> If they were <b>not</b> successful, then you'll get no gold coins, and you'll see a big red x like this: </p><p><img src='run_exp/static/images/tutorial/reward_no.png' height='150'></p><p> How much bonus money you make is based on how many gold coins you collect.</p><div>","","","","","","","","","","","","","","","","","",""
"","html-keyboard-response","9","111538","0.0-9.0","""event"",""trial"",""time""
""fullscreenenter"",""0"",""3468""
","
","
","""event"",""trial"",""time""
""fullscreenenter"",""0"",""3468""
","
","3634.399999856949","<div class='center'><p>As the head captain, you do not have to rob any ships yourself. Another pirate will be doing the robbing for you. First, you will choose a pirate to rob the next ship.</p><p><img src='run_exp/static/images/tutorial/pirates_all_crop.png' height='200'></p><p>Then, you'll see if the pirate successfully robbed the ship of their gold. If they were successful, then you'll get a stack of gold coins like this:</p><p><img src='run_exp/static/images/tutorial/reward.png' height='150'></p><p> If they were <b>not</b> successful, then you'll get no gold coins, and you'll see a big red x like this: </p><p><img src='run_exp/static/images/tutorial/reward_no.png' height='150'></p><p> How much bonus money you make is based on how many gold coins you collect.</p<p><b>[Press the space bar to continue]</b></p></div>","32","","","","","","","","","","","","","","","","","","","","","","",""
"","instruc5","10","135658","0.0-10.0","""event"",""trial"",""time""
""fullscreenenter"",""0"",""3468""
","
","
","""event"",""trial"",""time""
""fullscreenenter"",""0"",""3468""
","
","24119","run_exp/static/audio/clip_5_probabilistic.m4a","49","","","","","<div class='center'><p>Even the most skilled pirate can not rob EVERY ship.</p><p> Some ships will have very strong protections against pirate attacks.</p><p> Blue beard, here, is very, very good at robbing ships, but he won't be successful every time he tries to rob one.</p><p> You can press the <b>‘1’</b> key on the keyboard to choose him.</p><p> Try choosing him 10 times to see how often he succeeds at robbing a ship. </p><p><img src='run_exp/static/images/tutorial/blue.png' height='500'></p></div>","","","","","","","","","","","","","","","","","",""
"","html-keyboard-response","11","137167","0.0-11.0","""event"",""trial"",""time""
""fullscreenenter"",""0"",""3468""
","
","
","""event"",""trial"",""time""
""fullscreenenter"",""0"",""3468""
","
","null","<div class='center'><p><img src='run_exp/static/images/tutorial/blue_win.png' height='500'></p></div>","null","","","","","","","","","","","","","","","","","","","","","","",""
"","html-keyboard-response","12","139313","0.0-12.0","""event"",""trial"",""time""
""fullscreenenter"",""0"",""3468""
","
","
","""event"",""trial"",""time""
""fullscreenenter"",""0"",""3468""
","
","2145.600000143051","<div class='center'><img src='run_exp/static/images/tutorial/blue.png' height='500'></p></div>","49","","","","","","","","","","","","","","","","","","","","","","",""
"","html-keyboard-response","13","140825","0.0-13.0","""event"",""trial"",""time""
""fullscreenenter"",""0"",""3468""
","
","
","""event"",""trial"",""time""
""fullscreenenter"",""0"",""3468""
","
","null","<div class='center'><p><img src='run_exp/static/images/tutorial/blue_win.png' height='500'></p></div>","null","","","","","","","","","","","","","","","","","","","","","","",""
"","html-keyboard-response","14","142609","0.0-14.0","""event"",""trial"",""time""
""fullscreenenter"",""0"",""3468""
","
","
","""event"",""trial"",""time""
""fullscreenenter"",""0"",""3468""
","
","1783","<div class='center'><img src='run_exp/static/images/tutorial/blue.png' height='500'></p></div>","49","","","","","","","","","","","","","","","","","","","","","","",""
"","html-keyboard-response","15","144118","0.0-15.0","""event"",""trial"",""time""
""fullscreenenter"",""0"",""3468""
","
","
","""event"",""trial"",""time""
""fullscreenenter"",""0"",""3468""
","
","null","<div class='center'><p><img src='run_exp/static/images/tutorial/blue_win.png' height='500'></p></div>","null","","","","","","","","","","","","","","","","","","","","","","",""
"","html-keyboard-response","16","145001","0.0-16.0","""event"",""trial"",""time""
""fullscreenenter"",""0"",""3468""
","
","
","""event"",""trial"",""time""
""fullscreenenter"",""0"",""3468""
","
","882.3000001907349","<div class='center'><img src='run_exp/static/images/tutorial/blue.png' height='500'></p></div>","49","","","","","","","","","","","","","","","","","","","","","","",""
"","html-keyboard-response","17","146504","0.0-17.0","""event"",""trial"",""time""
""fullscreenenter"",""0"",""3468""
","
","
","""event"",""trial"",""time""
""fullscreenenter"",""0"",""3468""
","
","null","<div class='center'><p><img src='run_exp/static/images/tutorial/blue_no_win.png' height='500'></p></div>","null","","","","","","","","","","","","","","","","","","","","","","",""
"","html-keyboard-response","18","147698","0.0-18.0","""event"",""trial"",""time""
""fullscreenenter"",""0"",""3468""
","
","
","""event"",""trial"",""time""
""fullscreenenter"",""0"",""3468""
","
","1192.5","<div class='center'><img src='run_exp/static/images/tutorial/blue.png' height='500'></p></div>","49","","","","","","","","","","","","","","","","","","","","","","",""
"","html-keyboard-response","19","149209","0.0-19.0","""event"",""trial"",""time""
""fullscreenenter"",""0"",""3468""
","
","
","""event"",""trial"",""time""
""fullscreenenter"",""0"",""3468""
","
","null","<div class='center'><p><img src='run_exp/static/images/tutorial/blue_win.png' height='500'></p></div>","null","","","","","","","","","","","","","","","","","","","","","","",""
"","html-keyboard-response","20","149944","0.0-20.0","""event"",""trial"",""time""
""fullscreenenter"",""0"",""3468""
","
","
","""event"",""trial"",""time""
""fullscreenenter"",""0"",""3468""
","
","734.7999999523163","<div class='center'><img src='run_exp/static/images/tutorial/blue.png' height='500'></p></div>","49","","","","","","","","","","","","","","","","","","","","","","",""
"","html-keyboard-response","21","151460","0.0-21.0","""event"",""trial"",""time""
""fullscreenenter"",""0"",""3468""
","
","
","""event"",""trial"",""time""
""fullscreenenter"",""0"",""3468""
","
","null","<div class='center'><p><img src='run_exp/static/images/tutorial/blue_win.png' height='500'></p></div>","null","","","","","","","","","","","","","","","","","","","","","","",""
"","html-keyboard-response","22","151954","0.0-22.0","""event"",""trial"",""time""
""fullscreenenter"",""0"",""3468""
","
","
","""event"",""trial"",""time""
""fullscreenenter"",""0"",""3468""
","
","492.7000000476837","<div class='center'><img src='run_exp/static/images/tutorial/blue.png' height='500'></p></div>","49","","","","","","","","","","","","","","","","","","","","","","",""
"","html-keyboard-response","23","153466","0.0-23.0","""event"",""trial"",""time""
""fullscreenenter"",""0"",""3468""
","
","
","""event"",""trial"",""time""
""fullscreenenter"",""0"",""3468""
","
","null","<div class='center'><p><img src='run_exp/static/images/tutorial/blue_win.png' height='500'></p></div>","null","","","","","","","","","","","","","","","","","","","","","","",""
"","html-keyboard-response","24","154049","0.0-24.0","""event"",""trial"",""time""
""fullscreenenter"",""0"",""3468""
","
","
","""event"",""trial"",""time""
""fullscreenenter"",""0"",""3468""
","
","581.8000001907349","<div class='center'><img src='run_exp/static/images/tutorial/blue.png' height='500'></p></div>","49","","","","","","","","","","","","","","","","","","","","","","",""
"","html-keyboard-response","25","155551","0.0-25.0","""event"",""trial"",""time""
""fullscreenenter"",""0"",""3468""
","
","
","""event"",""trial"",""time""
""fullscreenenter"",""0"",""3468""
","
","null","<div class='center'><p><img src='run_exp/static/images/tutorial/blue_no_win.png' height='500'></p></div>","null","","","","","","","","","","","","","","","","","","","","","","",""
"","html-keyboard-response","26","156369","0.0-26.0","""event"",""trial"",""time""
""fullscreenenter"",""0"",""3468""
","
","
","""event"",""trial"",""time""
""fullscreenenter"",""0"",""3468""
","
","817.9000000953674","<div class='center'><img src='run_exp/static/images/tutorial/blue.png' height='500'></p></div>","49","","","","","","","","","","","","","","","","","","","","","","",""
"","html-keyboard-response","27","157879","0.0-27.0","""event"",""trial"",""time""
""fullscreenenter"",""0"",""3468""
","
","
","""event"",""trial"",""time""
""fullscreenenter"",""0"",""3468""
","
","null","<div class='center'><p><img src='run_exp/static/images/tutorial/blue_win.png' height='500'></p></div>","null","","","","","","","","","","","","","","","","","","","","","","",""
"","html-keyboard-response","28","159088","0.0-28.0","""event"",""trial"",""time""
""fullscreenenter"",""0"",""3468""
","
","
","""event"",""trial"",""time""
""fullscreenenter"",""0"",""3468""
","
","1208.8999998569489","<div class='center'><img src='run_exp/static/images/tutorial/blue.png' height='500'></p></div>","49","","","","","","","","","","","","","","","","","","","","","","",""
"","html-keyboard-response","29","160600","0.0-29.0","""event"",""trial"",""time""
""fullscreenenter"",""0"",""3468""
","
","
","""event"",""trial"",""time""
""fullscreenenter"",""0"",""3468""
","
","null","<div class='center'><p><img src='run_exp/static/images/tutorial/blue_win.png' height='500'></p></div>","null","","","","","","","","","","","","","","","","","","","","","","",""
"","instruc6","30","166506","0.0-30.0","""event"",""trial"",""time""
""fullscreenenter"",""0"",""3468""
","
","
","""event"",""trial"",""time""
""fullscreenenter"",""0"",""3468""
","
","null","run_exp/static/audio/clip_6_blue_beard_outcome.m4a","null","","","","","<div class='center'><p> See, he succeeded in robbing the ships most of the time but not every time. </p></div>","","","","","","","","","","","","","","","","","",""
"","html-keyboard-response","31","168273","0.0-31.0","""event"",""trial"",""time""
""fullscreenenter"",""0"",""3468""
","
","
","""event"",""trial"",""time""
""fullscreenenter"",""0"",""3468""
","
","1765.3999998569489","<div class='center'><p> See, he succeeded in robbing the ships most of the time but not every time. </p><p><b>[Press the space bar to continue]</b></p></div>","32","","","","","","","","","","","","","","","","","","","","","","",""
"","audio-keyboard-response","32","185152","0.0-32.0","""event"",""trial"",""time""
""fullscreenenter"",""0"",""3468""
","
","
","""event"",""trial"",""time""
""fullscreenenter"",""0"",""3468""
","
","16878","run_exp/static/audio/clip_7_pick_pirate.m4a","51","","","","","","","","","","","","","","","","","","","","","","",""
"","audio-keyboard-response","33","190970","0.0-33.0-0.0","""event"",""trial"",""time""
""fullscreenenter"",""0"",""3468""
","
","
","""event"",""trial"",""time""
""fullscreenenter"",""0"",""3468""
","
","5816.600000143051","run_exp/static/audio/clip_8_chosen_pirate_win.m4a","32","","","","","","","","","","","","","","","","","","","","","","",""
"","audio-keyboard-response","34","193977","0.0-33.0-1.0","""event"",""trial"",""time""
""fullscreenenter"",""0"",""3468""
","
","
","""event"",""trial"",""time""
""fullscreenenter"",""0"",""3468""
","
","3005.300000190735","run_exp/static/audio/clip_9_pick_a_pirate_again.m4a","49","","","","","","","","","","","","","","","","","","","","","","",""
"","audio-keyboard-response","35","198602","0.0-34.0-0.0","""event"",""trial"",""time""
""fullscreenenter"",""0"",""3468""
","
","
","""event"",""trial"",""time""
""fullscreenenter"",""0"",""3468""
","
","4622.699999809265","run_exp/static/audio/clip_10_chosen_pirate_loss.m4a","32","","","","","","","","","","","","","","","","","","","","","","",""
"","instruc9","36","204106","0.0-35.0-0.0","""event"",""trial"",""time""
""fullscreenenter"",""0"",""3468""
","
","
","""event"",""trial"",""time""
""fullscreenenter"",""0"",""3468""
","
","null","run_exp/static/audio/clip_11_time_out.m4a","null","","","","","<div class='center'><p>If you don’t make your choice fast enough, you’ll have to wait a few seconds before you can make another one. </p><p><img src='run_exp/static/images/miscellaneous/hurry_up.png' height='500'></p></div>","","","","","","","","","","","","","","","","","",""
"","html-keyboard-response","37","205601","0.0-35.0-1.0","""event"",""trial"",""time""
""fullscreenenter"",""0"",""3468""
""blur"",""38"",""244530""
","""event"",""trial"",""time""
""blur"",""38"",""244530""
","
","""event"",""trial"",""time""
""fullscreenenter"",""0"",""3468""
","
","1493.4000000953674","<div class='center'><p>If you don’t make your choice fast enough, you’ll have to wait a few seconds before you can make another one. </p><p><img src='run_exp/static/images/miscellaneous/hurry_up.png' height='500'></p><p><b>[Press the space bar to continue]</b></p></div>","32","","","","","","","","","","","","","","","","","","","","","","",""
"","instruc10","38","244706","0.0-35.0-2.0","""event"",""trial"",""time""
""fullscreenenter"",""0"",""3468""
""blur"",""38"",""244530""
""focus"",""39"",""249552""
","""event"",""trial"",""time""
""blur"",""38"",""244530""
","""event"",""trial"",""time""
""focus"",""39"",""249552""
","""event"",""trial"",""time""
""fullscreenenter"",""0"",""3468""
","
","null","run_exp/static/audio/clip_12_probe.m4a","null","","","","","<div class='center'><p>Once you've chosen a pirate, you’ll be shown the ship they are robbing. You will never rob the same ship twice. Ships can be told apart from one another by the image on them. These are the goods that they sell. See, this ship has a travel mug on it. </p><p> You’ll have to remember which island you saw each ship on. You will win more gold coins and hence more bonus money if you remember correctly! To help you remember, you can imagine a story. For example, here, you could imagine a mug full of water in the desert. Or, as another example, if on the forest island, your pirate robbed a ship with an apple on it, you could imagine an apple falling from a tree in the forest. </p><p><img src='run_exp/static/images/tutorial/example_probe.png' height='500'></p></div>","","","","","","","","","","","","","","","","","",""
"","html-keyboard-response","39","251672","0.0-35.0-3.0","""event"",""trial"",""time""
""fullscreenenter"",""0"",""3468""
""blur"",""38"",""244530""
""focus"",""39"",""249552""
""blur"",""40"",""255258""
""focus"",""40"",""266731""
","""event"",""trial"",""time""
""blur"",""38"",""244530""
""blur"",""40"",""255258""
","""event"",""trial"",""time""
""focus"",""39"",""249552""
""focus"",""40"",""266731""
","""event"",""trial"",""time""
""fullscreenenter"",""0"",""3468""
","
","6964.900000095367","<div class='center'><p>Once you've chosen a pirate, you’ll be shown the ship they are robbing. You will never rob the same ship twice. Ships can be told apart from one another by the image on them. These are the goods that they sell. See, this ship has a travel mug on it. </p><p> You’ll have to remember which island you saw each ship on. You will win more gold coins and hence more bonus money if you remember correctly! To help you remember, you can imagine a story. For example, here, you could imagine a mug full of water in the desert. Or, as another example, if on the forest island, your pirate robbed a ship with an apple on it, you could imagine an apple falling from a tree in the forest. </p><p><img src='run_exp/static/images/tutorial/example_probe.png' height='500'></p><p><b>[Press the space bar to continue]</b></p></div>","32","","","","","","","","","","","","","","","","","","","","","","",""
"","instruc11","40","268086","0.0-35.0-4.0","""event"",""trial"",""time""
""fullscreenenter"",""0"",""3468""
""blur"",""38"",""244530""
""focus"",""39"",""249552""
""blur"",""40"",""255258""
""focus"",""40"",""266731""
","""event"",""trial"",""time""
""blur"",""38"",""244530""
""blur"",""40"",""255258""
","""event"",""trial"",""time""
""focus"",""39"",""249552""
""focus"",""40"",""266731""
","""event"",""trial"",""time""
""fullscreenenter"",""0"",""3468""
","
","null","run_exp/static/audio/clip_13_changepoint.m4a","null","","","","","<div class='center'><p>How successful a pirate is at robbing ships will depend on the island you’re on.</p><p> A pirate may have visited this island many times before and gained a lot of practice robbing ships there.</p><p>So, they’re more likely to be successful than a pirate who has never visited the island before.</p></div>","","","","","","","","","","","","","","","","","",""
"","html-keyboard-response","41","283633","0.0-35.0-5.0","""event"",""trial"",""time""
""fullscreenenter"",""0"",""3468""
""blur"",""38"",""244530""
""focus"",""39"",""249552""
""blur"",""40"",""255258""
""focus"",""40"",""266731""
","""event"",""trial"",""time""
""blur"",""38"",""244530""
""blur"",""40"",""255258""
","""event"",""trial"",""time""
""focus"",""39"",""249552""
""focus"",""40"",""266731""
","""event"",""trial"",""time""
""fullscreenenter"",""0"",""3468""
","
","15545","<div class='center'><p>How successful a pirate is at robbing ships will depend on the island you’re on.</p><p> A pirate may have visited this island many times before and gained a lot of practice robbing ships there.</p><p>So, they’re more likely to be successful than a pirate who has never visited the island before.</p><p><b>[Press the space bar to continue]</b></p></div>","32","","","","","","","","","","","","","","","","","","","","","","",""
"","instruc12","42","324985","0.0-35.0-6.0","""event"",""trial"",""time""
""fullscreenenter"",""0"",""3468""
""blur"",""38"",""244530""
""focus"",""39"",""249552""
""blur"",""40"",""255258""
""focus"",""40"",""266731""
","""event"",""trial"",""time""
""blur"",""38"",""244530""
""blur"",""40"",""255258""
","""event"",""trial"",""time""
""focus"",""39"",""249552""
""focus"",""40"",""266731""
","""event"",""trial"",""time""
""fullscreenenter"",""0"",""3468""
","
","null","run_exp/static/audio/clip_14_drift.m4a","null","","","","","<div class='center'><p>How successful a pirate is at robbing ships can also change over the time spent on the island. </p><p> Ships may hear from islanders about the pirates coming and will improve their protections against the attack. This may make it harder to rob them.</p><p> Ships may also become lazy and weaken the strength of their protections. This may make it easier to rob them.</p><br><p>Things are always changing on the high seas! So, try your best to pay attention!</p><p><img src='run_exp/static/images/tutorial/contingency.png' height='500'></p></div>","","","","","","","","","","","","","","","","","",""
"","html-keyboard-response","43","326313","0.0-35.0-7.0","""event"",""trial"",""time""
""fullscreenenter"",""0"",""3468""
""blur"",""38"",""244530""
""focus"",""39"",""249552""
""blur"",""40"",""255258""
""focus"",""40"",""266731""
","""event"",""trial"",""time""
""blur"",""38"",""244530""
""blur"",""40"",""255258""
","""event"",""trial"",""time""
""focus"",""39"",""249552""
""focus"",""40"",""266731""
","""event"",""trial"",""time""
""fullscreenenter"",""0"",""3468""
","
","1326.2000000476837","<div class='center'><p>How successful a pirate is at robbing ships can also change over the time spent on the island. </p><p> Ships may hear from islanders about the pirates coming and will improve their protections against the attack. This may make it harder to rob them.</p><p> Ships may also become lazy and weaken the strength of their protections. This may make it easier to rob them.</p><br><p>Things are always changing on the high seas! So, try your best to pay attention!</p><p><img src='run_exp/static/images/tutorial/contingency.png' height='500'></p><p><b>[Press the space bar to continue]</b></p></div>","32","","","","","","","","","","","","","","","","","","","","","","",""
"","instruc13","44","361505","0.0-35.0-8.0","""event"",""trial"",""time""
""fullscreenenter"",""0"",""3468""
""blur"",""38"",""244530""
""focus"",""39"",""249552""
""blur"",""40"",""255258""
""focus"",""40"",""266731""
","""event"",""trial"",""time""
""blur"",""38"",""244530""
""blur"",""40"",""255258""
","""event"",""trial"",""time""
""focus"",""39"",""249552""
""focus"",""40"",""266731""
","""event"",""trial"",""time""
""fullscreenenter"",""0"",""3468""
","
","null","run_exp/static/audio/clip_15_summary.m4a","null","","","","","<div class='center'><p>Let's go over the instructions quickly again. You have two important things to do: </p><b><p> 1. Pick the pirate who is the best at robbing ships on the current island. </p></b><b><p> 2. Remember on which island a ship was robbed.</p> </b><p>The amount of bonus money you can win depends on both.</p><p><br><p>Let’s try a practice game. The game will start by showing you the pirates. First, pick a pirate using the <b> 1, 2, 3 </b> keys on your keyboard. When you are shown a ship, try to remember which island you’re on by making up a story.</p><p>This is just a practice game, so you’re not playing for money. </p><p> Good luck! This game will be very difficult but try your best!</p></div>","","","","","","","","","","","","","","","","","",""
"","html-keyboard-response","45","362041","0.0-35.0-9.0","""event"",""trial"",""time""
""fullscreenenter"",""0"",""3468""
""blur"",""38"",""244530""
""focus"",""39"",""249552""
""blur"",""40"",""255258""
""focus"",""40"",""266731""
","""event"",""trial"",""time""
""blur"",""38"",""244530""
""blur"",""40"",""255258""
","""event"",""trial"",""time""
""focus"",""39"",""249552""
""focus"",""40"",""266731""
","""event"",""trial"",""time""
""fullscreenenter"",""0"",""3468""
","
","534.0999999046326","<div class='center'><p>Let's go over the instructions quickly again. You have two important things to do: </p><b><p> 1. Pick the pirate who is the best at robbing ships on the current island. </p></b><b><p> 2. Remember on which island a ship was robbed.</p> </b><p>The amount of bonus money you can win depends on both.</p><p><br><p>Let’s try a practice game. The game will start by showing you the pirates. First, pick a pirate using the <b> 1, 2, 3 </b> keys on your keyboard. When you are shown a ship, try to remember which island you’re on by making up a story.</p><p>This is just a practice game, so you’re not playing for money. </p><p> Good luck! This game will be very difficult but try your best!</p><p><b>[Press the space bar to continue]</b></p></div>","32","","","","","","","","","","","","","","","","","","","","","","",""
"","do_welcome","46","366058","0.0-35.0-10.0","""event"",""trial"",""time""
""fullscreenenter"",""0"",""3468""
""blur"",""38"",""244530""
""focus"",""39"",""249552""
""blur"",""40"",""255258""
""focus"",""40"",""266731""
","""event"",""trial"",""time""
""blur"",""38"",""244530""
""blur"",""40"",""255258""
","""event"",""trial"",""time""
""focus"",""39"",""249552""
""focus"",""40"",""266731""
","""event"",""trial"",""time""
""fullscreenenter"",""0"",""3468""
","
","null","","","","","","","","null","","","","","","","","","","","","","","","","",""
"","do_trial","47","372087","0.0-35.0-11.0","""event"",""trial"",""time""
""fullscreenenter"",""0"",""3468""
""blur"",""38"",""244530""
""focus"",""39"",""249552""
""blur"",""40"",""255258""
""focus"",""40"",""266731""
","""event"",""trial"",""time""
""blur"",""38"",""244530""
""blur"",""40"",""255258""
","""event"",""trial"",""time""
""focus"",""39"",""249552""
""focus"",""40"",""266731""
","""event"",""trial"",""time""
""fullscreenenter"",""0"",""3468""
","
","null","","","","","","","","null","1,0,0","","","","","","","","","","","","","","","",""
"","html-keyboard-response","48","373091","0.0-36.0-0.0","""event"",""trial"",""time""
""fullscreenenter"",""0"",""3468""
""blur"",""38"",""244530""
""focus"",""39"",""249552""
""blur"",""40"",""255258""
""focus"",""40"",""266731""
","""event"",""trial"",""time""
""blur"",""38"",""244530""
""blur"",""40"",""255258""
","""event"",""trial"",""time""
""focus"",""39"",""249552""
""focus"",""40"",""266731""
","""event"",""trial"",""time""
""fullscreenenter"",""0"",""3468""
","
","null","<p></p>","null","","","","","","","","","","","","","","","","","","","","","","",""
"","do_trial","49","378107","0.0-36.0-1.0","""event"",""trial"",""time""
""fullscreenenter"",""0"",""3468""
""blur"",""38"",""244530""
""focus"",""39"",""249552""
""blur"",""40"",""255258""
""focus"",""40"",""266731""
","""event"",""trial"",""time""
""blur"",""38"",""244530""
""blur"",""40"",""255258""
","""event"",""trial"",""time""
""focus"",""39"",""249552""
""focus"",""40"",""266731""
","""event"",""trial"",""time""
""fullscreenenter"",""0"",""3468""
","
","507.89999985694885","","","","","","","","49","1,0,0","","","","","","","","","","","","","","","",""
"","html-keyboard-response","50","379119","0.0-37.0-0.0","""event"",""trial"",""time""
""fullscreenenter"",""0"",""3468""
""blur"",""38"",""244530""
""focus"",""39"",""249552""
""blur"",""40"",""255258""
""focus"",""40"",""266731""
","""event"",""trial"",""time""
""blur"",""38"",""244530""
""blur"",""40"",""255258""
","""event"",""trial"",""time""
""focus"",""39"",""249552""
""focus"",""40"",""266731""
","""event"",""trial"",""time""
""fullscreenenter"",""0"",""3468""
","
","null","<p></p>","null","","","","","","","","","","","","","","","","","","","","","","",""
"","do_trial","51","385480","0.0-37.0-1.0","""event"",""trial"",""time""
""fullscreenenter"",""0"",""3468""
""blur"",""38"",""244530""
""focus"",""39"",""249552""
""blur"",""40"",""255258""
""focus"",""40"",""266731""
","""event"",""trial"",""time""
""blur"",""38"",""244530""
""blur"",""40"",""255258""
","""event"",""trial"",""time""
""focus"",""39"",""249552""
""focus"",""40"",""266731""
","""event"",""trial"",""time""
""fullscreenenter"",""0"",""3468""
","
","1852.6999998092651","","","","","","","","49","1,1,0","","","","","","","","","","","","","","","",""
"","html-keyboard-response","52","386491","0.0-38.0-0.0","""event"",""trial"",""time""
""fullscreenenter"",""0"",""3468""
""blur"",""38"",""244530""
""focus"",""39"",""249552""
""blur"",""40"",""255258""
""focus"",""40"",""266731""
","""event"",""trial"",""time""
""blur"",""38"",""244530""
""blur"",""40"",""255258""
","""event"",""trial"",""time""
""focus"",""39"",""249552""
""focus"",""40"",""266731""
","""event"",""trial"",""time""
""fullscreenenter"",""0"",""3468""
","
","null","<p></p>","null","","","","","","","","","","","","","","","","","","","","","","",""
"","do_trial","53","392709","0.0-38.0-1.0","""event"",""trial"",""time""
""fullscreenenter"",""0"",""3468""
""blur"",""38"",""244530""
""focus"",""39"",""249552""
""blur"",""40"",""255258""
""focus"",""40"",""266731""
","""event"",""trial"",""time""
""blur"",""38"",""244530""
""blur"",""40"",""255258""
","""event"",""trial"",""time""
""focus"",""39"",""249552""
""focus"",""40"",""266731""
","""event"",""trial"",""time""
""fullscreenenter"",""0"",""3468""
","
","1695.7999999523163","","","","","","","","49","1,0,1","","","","","","","","","","","","","","","",""
"","html-keyboard-response","54","393719","0.0-39.0-0.0","""event"",""trial"",""time""
""fullscreenenter"",""0"",""3468""
""blur"",""38"",""244530""
""focus"",""39"",""249552""
""blur"",""40"",""255258""
""focus"",""40"",""266731""
","""event"",""trial"",""time""
""blur"",""38"",""244530""
""blur"",""40"",""255258""
","""event"",""trial"",""time""
""focus"",""39"",""249552""
""focus"",""40"",""266731""
","""event"",""trial"",""time""
""fullscreenenter"",""0"",""3468""
","
","null","<p></p>","null","","","","","","","","","","","","","","","","","","","","","","",""
"","do_trial","55","400133","0.0-39.0-1.0","""event"",""trial"",""time""
""fullscreenenter"",""0"",""3468""
""blur"",""38"",""244530""
""focus"",""39"",""249552""
""blur"",""40"",""255258""
""focus"",""40"",""266731""
","""event"",""trial"",""time""
""blur"",""38"",""244530""
""blur"",""40"",""255258""
","""event"",""trial"",""time""
""focus"",""39"",""249552""
""focus"",""40"",""266731""
","""event"",""trial"",""time""
""fullscreenenter"",""0"",""3468""
","
","1894.5999999046326","","","","","","","","49","0,1,0","","","","","","","","","","","","","","","",""
"","html-keyboard-response","56","401145","0.0-40.0-0.0","""event"",""trial"",""time""
""fullscreenenter"",""0"",""3468""
""blur"",""38"",""244530""
""focus"",""39"",""249552""
""blur"",""40"",""255258""
""focus"",""40"",""266731""
","""event"",""trial"",""time""
""blur"",""38"",""244530""
""blur"",""40"",""255258""
","""event"",""trial"",""time""
""focus"",""39"",""249552""
""focus"",""40"",""266731""
","""event"",""trial"",""time""
""fullscreenenter"",""0"",""3468""
","
","null","<p></p>","null","","","","","","","","","","","","","","","","","","","","","","",""
"","do_trial","57","406653","0.0-40.0-1.0","""event"",""trial"",""time""
""fullscreenenter"",""0"",""3468""
""blur"",""38"",""244530""
""focus"",""39"",""249552""
""blur"",""40"",""255258""
""focus"",""40"",""266731""
","""event"",""trial"",""time""
""blur"",""38"",""244530""
""blur"",""40"",""255258""
","""event"",""trial"",""time""
""focus"",""39"",""249552""
""focus"",""40"",""266731""
","""event"",""trial"",""time""
""fullscreenenter"",""0"",""3468""
","
","997.2000000476837","","","","","","","","49","1,0,0","","","","","","","","","","","","","","","",""
"","do_bye","58","408162","0.0-41.0-0.0","""event"",""trial"",""time""
""fullscreenenter"",""0"",""3468""
""blur"",""38"",""244530""
""focus"",""39"",""249552""
""blur"",""40"",""255258""
""focus"",""40"",""266731""
","""event"",""trial"",""time""
""blur"",""38"",""244530""
""blur"",""40"",""255258""
","""event"",""trial"",""time""
""focus"",""39"",""249552""
""focus"",""40"",""266731""
","""event"",""trial"",""time""
""fullscreenenter"",""0"",""3468""
","
","null","","","","","","","","null","","","","","","","","","","","","","","","","",""
"","do_travel","59","417167","0.0-41.0-1.0","""event"",""trial"",""time""
""fullscreenenter"",""0"",""3468""
""blur"",""38"",""244530""
""focus"",""39"",""249552""
""blur"",""40"",""255258""
""focus"",""40"",""266731""
","""event"",""trial"",""time""
""blur"",""38"",""244530""
""blur"",""40"",""255258""
","""event"",""trial"",""time""
""focus"",""39"",""249552""
""focus"",""40"",""266731""
","""event"",""trial"",""time""
""fullscreenenter"",""0"",""3468""
","
","null","","","","","","","","null","","","","","","","","","","","","","","","","",""
"","do_welcome","60","421184","0.0-41.0-2.0","""event"",""trial"",""time""
""fullscreenenter"",""0"",""3468""
""blur"",""38"",""244530""
""focus"",""39"",""249552""
""blur"",""40"",""255258""
""focus"",""40"",""266731""
","""event"",""trial"",""time""
""blur"",""38"",""244530""
""blur"",""40"",""255258""
","""event"",""trial"",""time""
""focus"",""39"",""249552""
""focus"",""40"",""266731""
","""event"",""trial"",""time""
""fullscreenenter"",""0"",""3468""
","
","null","","","","","","","","null","","","","","","","","","","","","","","","","",""
"","do_trial","61","427511","0.0-41.0-3.0","""event"",""trial"",""time""
""fullscreenenter"",""0"",""3468""
""blur"",""38"",""244530""
""focus"",""39"",""249552""
""blur"",""40"",""255258""
""focus"",""40"",""266731""
","""event"",""trial"",""time""
""blur"",""38"",""244530""
""blur"",""40"",""255258""
","""event"",""trial"",""time""
""focus"",""39"",""249552""
""focus"",""40"",""266731""
","""event"",""trial"",""time""
""fullscreenenter"",""0"",""3468""
","
","1819.2999999523163","","","","","","","","51","1,0,0","","","","","","","","","","","","","","","",""
"","html-keyboard-response","62","428526","0.0-42.0-0.0","""event"",""trial"",""time""
""fullscreenenter"",""0"",""3468""
""blur"",""38"",""244530""
""focus"",""39"",""249552""
""blur"",""40"",""255258""
""focus"",""40"",""266731""
","""event"",""trial"",""time""
""blur"",""38"",""244530""
""blur"",""40"",""255258""
","""event"",""trial"",""time""
""focus"",""39"",""249552""
""focus"",""40"",""266731""
","""event"",""trial"",""time""
""fullscreenenter"",""0"",""3468""
","
","null","<p></p>","null","","","","","","","","","","","","","","","","","","","","","","",""
"","do_trial","63","433606","0.0-42.0-1.0","""event"",""trial"",""time""
""fullscreenenter"",""0"",""3468""
""blur"",""38"",""244530""
""focus"",""39"",""249552""
""blur"",""40"",""255258""
""focus"",""40"",""266731""
","""event"",""trial"",""time""
""blur"",""38"",""244530""
""blur"",""40"",""255258""
","""event"",""trial"",""time""
""focus"",""39"",""249552""
""focus"",""40"",""266731""
","""event"",""trial"",""time""
""fullscreenenter"",""0"",""3468""
","
","564.5999999046326","","","","","","","","50","1,0,1","","","","","","","","","","","","","","","",""
"","html-keyboard-response","64","434612","0.0-43.0-0.0","""event"",""trial"",""time""
""fullscreenenter"",""0"",""3468""
""blur"",""38"",""244530""
""focus"",""39"",""249552""
""blur"",""40"",""255258""
""focus"",""40"",""266731""
","""event"",""trial"",""time""
""blur"",""38"",""244530""
""blur"",""40"",""255258""
","""event"",""trial"",""time""
""focus"",""39"",""249552""
""focus"",""40"",""266731""
","""event"",""trial"",""time""
""fullscreenenter"",""0"",""3468""
","
","null","<p></p>","null","","","","","","","","","","","","","","","","","","","","","","",""
"","do_trial","65","439550","0.0-43.0-1.0","""event"",""trial"",""time""
""fullscreenenter"",""0"",""3468""
""blur"",""38"",""244530""
""focus"",""39"",""249552""
""blur"",""40"",""255258""
""focus"",""40"",""266731""
","""event"",""trial"",""time""
""blur"",""38"",""244530""
""blur"",""40"",""255258""
","""event"",""trial"",""time""
""focus"",""39"",""249552""
""focus"",""40"",""266731""
","""event"",""trial"",""time""
""fullscreenenter"",""0"",""3468""
","
","431.10000014305115","","","","","","","","49","1,1,0","","","","","","","","","","","","","","","",""
"","html-keyboard-response","66","440558","0.0-44.0-0.0","""event"",""trial"",""time""
""fullscreenenter"",""0"",""3468""
""blur"",""38"",""244530""
""focus"",""39"",""249552""
""blur"",""40"",""255258""
""focus"",""40"",""266731""
","""event"",""trial"",""time""
""blur"",""38"",""244530""
""blur"",""40"",""255258""
","""event"",""trial"",""time""
""focus"",""39"",""249552""
""focus"",""40"",""266731""
","""event"",""trial"",""time""
""fullscreenenter"",""0"",""3468""
","
","null","<p></p>","null","","","","","","","","","","","","","","","","","","","","","","",""
"","do_trial","67","445484","0.0-44.0-1.0","""event"",""trial"",""time""
""fullscreenenter"",""0"",""3468""
""blur"",""38"",""244530""
""focus"",""39"",""249552""
""blur"",""40"",""255258""
""focus"",""40"",""266731""
","""event"",""trial"",""time""
""blur"",""38"",""244530""
""blur"",""40"",""255258""
","""event"",""trial"",""time""
""focus"",""39"",""249552""
""focus"",""40"",""266731""
","""event"",""trial"",""time""
""fullscreenenter"",""0"",""3468""
","
","408.90000009536743","","","","","","","","49","0,0,1","","","","","","","","","","","","","","","",""
"","html-keyboard-response","68","446499","0.0-45.0-0.0","""event"",""trial"",""time""
""fullscreenenter"",""0"",""3468""
""blur"",""38"",""244530""
""focus"",""39"",""249552""
""blur"",""40"",""255258""
""focus"",""40"",""266731""
","""event"",""trial"",""time""
""blur"",""38"",""244530""
""blur"",""40"",""255258""
","""event"",""trial"",""time""
""focus"",""39"",""249552""
""focus"",""40"",""266731""
","""event"",""trial"",""time""
""fullscreenenter"",""0"",""3468""
","
","null","<p></p>","null","","","","","","","","","","","","","","","","","","","","","","",""
"","do_trial","69","451738","0.0-45.0-1.0","""event"",""trial"",""time""
""fullscreenenter"",""0"",""3468""
""blur"",""38"",""244530""
""focus"",""39"",""249552""
""blur"",""40"",""255258""
""focus"",""40"",""266731""
","""event"",""trial"",""time""
""blur"",""38"",""244530""
""blur"",""40"",""255258""
","""event"",""trial"",""time""
""focus"",""39"",""249552""
""focus"",""40"",""266731""
","""event"",""trial"",""time""
""fullscreenenter"",""0"",""3468""
","
","729.3000001907349","","","","","","","","49","1,0,1","","","","","","","","","","","","","","","",""
"","html-keyboard-response","70","456697","0.0-46.0-0.0","""event"",""trial"",""time""
""fullscreenenter"",""0"",""3468""
""blur"",""38"",""244530""
""focus"",""39"",""249552""
""blur"",""40"",""255258""
""focus"",""40"",""266731""
","""event"",""trial"",""time""
""blur"",""38"",""244530""
""blur"",""40"",""255258""
","""event"",""trial"",""time""
""focus"",""39"",""249552""
""focus"",""40"",""266731""
","""event"",""trial"",""time""
""fullscreenenter"",""0"",""3468""
","
","4956.700000047684","<div class='center'><p><img src='run_exp/static/images/tutorial/prac_best_pirate.png'  height='500'></p></div>","49","","","","","","","","","","","","","","","","","","","","","","",""
"","html-keyboard-response","71","459913","0.0-47.0-0.0","""event"",""trial"",""time""
""fullscreenenter"",""0"",""3468""
""blur"",""38"",""244530""
""focus"",""39"",""249552""
""blur"",""40"",""255258""
""focus"",""40"",""266731""
","""event"",""trial"",""time""
""blur"",""38"",""244530""
""blur"",""40"",""255258""
","""event"",""trial"",""time""
""focus"",""39"",""249552""
""focus"",""40"",""266731""
","""event"",""trial"",""time""
""fullscreenenter"",""0"",""3468""
","
","3214.899999856949","<div class='center'><p>That's correct! Red beard was the best.</p><p><b>[Press the space bar to continue]</b></p></div>","32","","","","","","","","","","","","","","","","","","","","","","",""
"","html-keyboard-response","72","463984","0.0-47.0-1.0","""event"",""trial"",""time""
""fullscreenenter"",""0"",""3468""
""blur"",""38"",""244530""
""focus"",""39"",""249552""
""blur"",""40"",""255258""
""focus"",""40"",""266731""
","""event"",""trial"",""time""
""blur"",""38"",""244530""
""blur"",""40"",""255258""
","""event"",""trial"",""time""
""focus"",""39"",""249552""
""focus"",""40"",""266731""
","""event"",""trial"",""time""
""fullscreenenter"",""0"",""3468""
","
","4070","<div class='center'><p><img src='run_exp/static/images/tutorial/prac_source.png'  height='500'></p></div>","50","","","","","","","","","","","","","","","","","","","","","","",""
"","html-keyboard-response","73","465896","0.0-48.0-0.0","""event"",""trial"",""time""
""fullscreenenter"",""0"",""3468""
""blur"",""38"",""244530""
""focus"",""39"",""249552""
""blur"",""40"",""255258""
""focus"",""40"",""266731""
","""event"",""trial"",""time""
""blur"",""38"",""244530""
""blur"",""40"",""255258""
","""event"",""trial"",""time""
""focus"",""39"",""249552""
""focus"",""40"",""266731""
","""event"",""trial"",""time""
""fullscreenenter"",""0"",""3468""
","
","1911.2999999523163","<div class='center'><p>That's correct! You saw this ship on the cavern island.</p><p><b>[Press the space bar to continue]</b></p></div>","32","","","","","","","","","","","","","","","","","","","","","","",""
"","quiz_beginning","74","477651","0.0-48.0-1.0","""event"",""trial"",""time""
""fullscreenenter"",""0"",""3468""
""blur"",""38"",""244530""
""focus"",""39"",""249552""
""blur"",""40"",""255258""
""focus"",""40"",""266731""
","""event"",""trial"",""time""
""blur"",""38"",""244530""
""blur"",""40"",""255258""
","""event"",""trial"",""time""
""focus"",""39"",""249552""
""focus"",""40"",""266731""
","""event"",""trial"",""time""
""fullscreenenter"",""0"",""3468""
","
","null","run_exp/static/audio/clip_16_quiz_intro.m4a","null","","","","","<div class='center'><p>Good job on the practice game! Now, you will be asked some true or false questions to make sure you really understand the rules of the game.</p><p> Press <b>'1'</b> on the keyboard for true and press <b>'2'</b> for false.</p></div>","","","","","","","","","","","","","","","","","",""
"","audio-keyboard-response","75","487450","0.0-48.0-2.0","""event"",""trial"",""time""
""fullscreenenter"",""0"",""3468""
""blur"",""38"",""244530""
""focus"",""39"",""249552""
""blur"",""40"",""255258""
""focus"",""40"",""266731""
","""event"",""trial"",""time""
""blur"",""38"",""244530""
""blur"",""40"",""255258""
","""event"",""trial"",""time""
""focus"",""39"",""249552""
""focus"",""40"",""266731""
","""event"",""trial"",""time""
""fullscreenenter"",""0"",""3468""
","
","9797.099999904633","run_exp/static/audio/clip_17_q1.m4a","49","","","","","","","","","","","","","","","","","","","","","","",""
"","correct","76","489852","0.0-49.0-0.0","""event"",""trial"",""time""
""fullscreenenter"",""0"",""3468""
""blur"",""38"",""244530""
""focus"",""39"",""249552""
""blur"",""40"",""255258""
""focus"",""40"",""266731""
","""event"",""trial"",""time""
""blur"",""38"",""244530""
""blur"",""40"",""255258""
","""event"",""trial"",""time""
""focus"",""39"",""249552""
""focus"",""40"",""266731""
","""event"",""trial"",""time""
""fullscreenenter"",""0"",""3468""
","
","null","run_exp/static/audio/clip_18_correct.m4a","null","","","","","<div class='center'><p>That's correct!</p></div>","","","","","","","","","","","","","","","","","",""
"","html-keyboard-response","77","490736","0.0-49.0-1.0","""event"",""trial"",""time""
""fullscreenenter"",""0"",""3468""
""blur"",""38"",""244530""
""focus"",""39"",""249552""
""blur"",""40"",""255258""
""focus"",""40"",""266731""
","""event"",""trial"",""time""
""blur"",""38"",""244530""
""blur"",""40"",""255258""
","""event"",""trial"",""time""
""focus"",""39"",""249552""
""focus"",""40"",""266731""
","""event"",""trial"",""time""
""fullscreenenter"",""0"",""3468""
","
","883.2999999523163","<div class='center'><p>That's correct!</p><p><b>[Press the space bar to continue]</b></p></div>","32","","","","","","","","","","","","","","","","","","","","","","",""
"","audio-keyboard-response","78","498009","0.0-49.0-2.0","""event"",""trial"",""time""
""fullscreenenter"",""0"",""3468""
""blur"",""38"",""244530""
""focus"",""39"",""249552""
""blur"",""40"",""255258""
""focus"",""40"",""266731""
","""event"",""trial"",""time""
""blur"",""38"",""244530""
""blur"",""40"",""255258""
","""event"",""trial"",""time""
""focus"",""39"",""249552""
""focus"",""40"",""266731""
","""event"",""trial"",""time""
""fullscreenenter"",""0"",""3468""
","
","7271.5","run_exp/static/audio/clip_20_q2.m4a","50","","","","","","","","","","","","","","","","","","","","","","",""
"","correct","79","500411","0.0-50.0-0.0","""event"",""trial"",""time""
""fullscreenenter"",""0"",""3468""
""blur"",""38"",""244530""
""focus"",""39"",""249552""
""blur"",""40"",""255258""
""focus"",""40"",""266731""
","""event"",""trial"",""time""
""blur"",""38"",""244530""
""blur"",""40"",""255258""
","""event"",""trial"",""time""
""focus"",""39"",""249552""
""focus"",""40"",""266731""
","""event"",""trial"",""time""
""fullscreenenter"",""0"",""3468""
","
","null","run_exp/static/audio/clip_18_correct.m4a","null","","","","","<div class='center'><p>That's correct!</p></div>","","","","","","","","","","","","","","","","","",""
"","html-keyboard-response","80","500841","0.0-50.0-1.0","""event"",""trial"",""time""
""fullscreenenter"",""0"",""3468""
""blur"",""38"",""244530""
""focus"",""39"",""249552""
""blur"",""40"",""255258""
""focus"",""40"",""266731""
","""event"",""trial"",""time""
""blur"",""38"",""244530""
""blur"",""40"",""255258""
","""event"",""trial"",""time""
""focus"",""39"",""249552""
""focus"",""40"",""266731""
","""event"",""trial"",""time""
""fullscreenenter"",""0"",""3468""
","
","429","<div class='center'><p>That's correct!</p><p><b>[Press the space bar to continue]</b></p></div>","32","","","","","","","","","","","","","","","","","","","","","","",""
"","audio-keyboard-response","81","506072","0.0-50.0-2.0","""event"",""trial"",""time""
""fullscreenenter"",""0"",""3468""
""blur"",""38"",""244530""
""focus"",""39"",""249552""
""blur"",""40"",""255258""
""focus"",""40"",""266731""
","""event"",""trial"",""time""
""blur"",""38"",""244530""
""blur"",""40"",""255258""
","""event"",""trial"",""time""
""focus"",""39"",""249552""
""focus"",""40"",""266731""
","""event"",""trial"",""time""
""fullscreenenter"",""0"",""3468""
","
","5230.099999904633","run_exp/static/audio/clip_22_q3.m4a","50","","","","","","","","","","","","","","","","","","","","","","",""
"","correct","82","508472","0.0-51.0-0.0","""event"",""trial"",""time""
""fullscreenenter"",""0"",""3468""
""blur"",""38"",""244530""
""focus"",""39"",""249552""
""blur"",""40"",""255258""
""focus"",""40"",""266731""
","""event"",""trial"",""time""
""blur"",""38"",""244530""
""blur"",""40"",""255258""
","""event"",""trial"",""time""
""focus"",""39"",""249552""
""focus"",""40"",""266731""
","""event"",""trial"",""time""
""fullscreenenter"",""0"",""3468""
","
","null","run_exp/static/audio/clip_18_correct.m4a","null","","","","","<div class='center'><p>That's correct!</p></div>","","","","","","","","","","","","","","","","","",""
"","html-keyboard-response","83","508946","0.0-51.0-1.0","""event"",""trial"",""time""
""fullscreenenter"",""0"",""3468""
""blur"",""38"",""244530""
""focus"",""39"",""249552""
""blur"",""40"",""255258""
""focus"",""40"",""266731""
","""event"",""trial"",""time""
""blur"",""38"",""244530""
""blur"",""40"",""255258""
","""event"",""trial"",""time""
""focus"",""39"",""249552""
""focus"",""40"",""266731""
","""event"",""trial"",""time""
""fullscreenenter"",""0"",""3468""
","
","473.19999980926514","<div class='center'><p>That's correct!</p><p><b>[Press the space bar to continue]</b></p></div>","32","","","","","","","","","","","","","","","","","","","","","","",""
"","audio-keyboard-response","84","513695","0.0-51.0-2.0","""event"",""trial"",""time""
""fullscreenenter"",""0"",""3468""
""blur"",""38"",""244530""
""focus"",""39"",""249552""
""blur"",""40"",""255258""
""focus"",""40"",""266731""
","""event"",""trial"",""time""
""blur"",""38"",""244530""
""blur"",""40"",""255258""
","""event"",""trial"",""time""
""focus"",""39"",""249552""
""focus"",""40"",""266731""
","""event"",""trial"",""time""
""fullscreenenter"",""0"",""3468""
","
","4748.400000095367","run_exp/static/audio/clip_24_q4.m4a","49","","","","","","","","","","","","","","","","","","","","","","",""
"","correct","85","516112","0.0-52.0-0.0","""event"",""trial"",""time""
""fullscreenenter"",""0"",""3468""
""blur"",""38"",""244530""
""focus"",""39"",""249552""
""blur"",""40"",""255258""
""focus"",""40"",""266731""
","""event"",""trial"",""time""
""blur"",""38"",""244530""
""blur"",""40"",""255258""
","""event"",""trial"",""time""
""focus"",""39"",""249552""
""focus"",""40"",""266731""
","""event"",""trial"",""time""
""fullscreenenter"",""0"",""3468""
","
","null","run_exp/static/audio/clip_18_correct.m4a","null","","","","","<div class='center'><p>That's correct!</p></div>","","","","","","","","","","","","","","","","","",""
"","html-keyboard-response","86","516609","0.0-52.0-1.0","""event"",""trial"",""time""
""fullscreenenter"",""0"",""3468""
""blur"",""38"",""244530""
""focus"",""39"",""249552""
""blur"",""40"",""255258""
""focus"",""40"",""266731""
","""event"",""trial"",""time""
""blur"",""38"",""244530""
""blur"",""40"",""255258""
","""event"",""trial"",""time""
""focus"",""39"",""249552""
""focus"",""40"",""266731""
","""event"",""trial"",""time""
""fullscreenenter"",""0"",""3468""
","
","495.80000019073486","<div class='center'><p>That's correct!</p><p><b>[Press the space bar to continue]</b></p></div>","32","","","","","","","","","","","","","","","","","","","","","","",""
"","q_all_corr","87","525091","0.0-53.0-0.0","""event"",""trial"",""time""
""fullscreenenter"",""0"",""3468""
""blur"",""38"",""244530""
""focus"",""39"",""249552""
""blur"",""40"",""255258""
""focus"",""40"",""266731""
","""event"",""trial"",""time""
""blur"",""38"",""244530""
""blur"",""40"",""255258""
","""event"",""trial"",""time""
""focus"",""39"",""249552""
""focus"",""40"",""266731""
","""event"",""trial"",""time""
""fullscreenenter"",""0"",""3468""
","
","null","run_exp/static/audio/clip_27_quiz_all_correct.m4a","null","","","","","<div class='center'><p>Good job! You’re now ready to move on to the real game! Remember this game will be difficult but don't get discouraged and try your best!</p></div>","","","","","","","","","","","","","","","","","",""
"","html-keyboard-response","88","525698","0.0-53.0-1.0","""event"",""trial"",""time""
""fullscreenenter"",""0"",""3468""
""blur"",""38"",""244530""
""focus"",""39"",""249552""
""blur"",""40"",""255258""
""focus"",""40"",""266731""
","""event"",""trial"",""time""
""blur"",""38"",""244530""
""blur"",""40"",""255258""
","""event"",""trial"",""time""
""focus"",""39"",""249552""
""focus"",""40"",""266731""
","""event"",""trial"",""time""
""fullscreenenter"",""0"",""3468""
","
","606.0999999046326","<div class='center'><p>Good job! You’re now ready to move on to the real game! Remember this game will be difficult but don't get discouraged and try your best!</p><p><b>[Press the space bar to continue]</b></p></div>","32","","","","","","","","","","","","","","","","","","","","","","",""
"","do_welcome","89","529720","0.0-54.0-0.0","""event"",""trial"",""time""
""fullscreenenter"",""0"",""3468""
""blur"",""38"",""244530""
""focus"",""39"",""249552""
""blur"",""40"",""255258""
""focus"",""40"",""266731""
","""event"",""trial"",""time""
""blur"",""38"",""244530""
""blur"",""40"",""255258""
","""event"",""trial"",""time""
""focus"",""39"",""249552""
""focus"",""40"",""266731""
","""event"",""trial"",""time""
""fullscreenenter"",""0"",""3468""
","
","null","","","","","","","","null","","","","","","","","","","","","","","","","",""
"","do_trial","90","535673","0.0-55.0-0.0","""event"",""trial"",""time""
""fullscreenenter"",""0"",""3468""
""blur"",""38"",""244530""
""focus"",""39"",""249552""
""blur"",""40"",""255258""
""focus"",""40"",""266731""
","""event"",""trial"",""time""
""blur"",""38"",""244530""
""blur"",""40"",""255258""
","""event"",""trial"",""time""
""focus"",""39"",""249552""
""focus"",""40"",""266731""
","""event"",""trial"",""time""
""fullscreenenter"",""0"",""3468""
","
","1426","","","","","","","","49","0,1,0","0","mountain","0","probe-10","0.6","0.3","0.1","0","","","","","","","",""
"","html-keyboard-response","91","536687","0.0-55.0-1.0","""event"",""trial"",""time""
""fullscreenenter"",""0"",""3468""
""blur"",""38"",""244530""
""focus"",""39"",""249552""
""blur"",""40"",""255258""
""focus"",""40"",""266731""
","""event"",""trial"",""time""
""blur"",""38"",""244530""
""blur"",""40"",""255258""
","""event"",""trial"",""time""
""focus"",""39"",""249552""
""focus"",""40"",""266731""
","""event"",""trial"",""time""
""fullscreenenter"",""0"",""3468""
","
","null","<p></p>","null","","","","","","","","","","","","","","","","","","","","","","",""
"","do_trial","92","541717","0.0-56.0-0.0","""event"",""trial"",""time""
""fullscreenenter"",""0"",""3468""
""blur"",""38"",""244530""
""focus"",""39"",""249552""
""blur"",""40"",""255258""
""focus"",""40"",""266731""
","""event"",""trial"",""time""
""blur"",""38"",""244530""
""blur"",""40"",""255258""
","""event"",""trial"",""time""
""focus"",""39"",""249552""
""focus"",""40"",""266731""
","""event"",""trial"",""time""
""fullscreenenter"",""0"",""3468""
","
","497.09999990463257","","","","","","","","50","0,1,1","0","mountain","1","probe-126","0.6372731724134055","0.3328052316494412","0.13666284278256025","1","","","","","","","",""
"","html-keyboard-response","93","542726","0.0-56.0-1.0","""event"",""trial"",""time""
""fullscreenenter"",""0"",""3468""
""blur"",""38"",""244530""
""focus"",""39"",""249552""
""blur"",""40"",""255258""
""focus"",""40"",""266731""
","""event"",""trial"",""time""
""blur"",""38"",""244530""
""blur"",""40"",""255258""
","""event"",""trial"",""time""
""focus"",""39"",""249552""
""focus"",""40"",""266731""
","""event"",""trial"",""time""
""fullscreenenter"",""0"",""3468""
","
","null","<p></p>","null","","","","","","","","","","","","","","","","","","","","","","",""
"","do_trial","94","547760","0.0-57.0-0.0","""event"",""trial"",""time""
""fullscreenenter"",""0"",""3468""
""blur"",""38"",""244530""
""focus"",""39"",""249552""
""blur"",""40"",""255258""
""focus"",""40"",""266731""
","""event"",""trial"",""time""
""blur"",""38"",""244530""
""blur"",""40"",""255258""
","""event"",""trial"",""time""
""focus"",""39"",""249552""
""focus"",""40"",""266731""
","""event"",""trial"",""time""
""fullscreenenter"",""0"",""3468""
","
","507","","","","","","","","50","0,0,0","0","mountain","2","probe-47","0.5582693073110512","0.30719003706615683","0.06355543316813435","0","","","","","","","",""
"","html-keyboard-response","95","548770","0.0-57.0-1.0","""event"",""trial"",""time""
""fullscreenenter"",""0"",""3468""
""blur"",""38"",""244530""
""focus"",""39"",""249552""
""blur"",""40"",""255258""
""focus"",""40"",""266731""
","""event"",""trial"",""time""
""blur"",""38"",""244530""
""blur"",""40"",""255258""
","""event"",""trial"",""time""
""focus"",""39"",""249552""
""focus"",""40"",""266731""
","""event"",""trial"",""time""
""fullscreenenter"",""0"",""3468""
","
","null","<p></p>","null","","","","","","","","","","","","","","","","","","","","","","",""
"","do_trial","96","553722","0.0-58.0-0.0","""event"",""trial"",""time""
""fullscreenenter"",""0"",""3468""
""blur"",""38"",""244530""
""focus"",""39"",""249552""
""blur"",""40"",""255258""
""focus"",""40"",""266731""
","""event"",""trial"",""time""
""blur"",""38"",""244530""
""blur"",""40"",""255258""
","""event"",""trial"",""time""
""focus"",""39"",""249552""
""focus"",""40"",""266731""
","""event"",""trial"",""time""
""fullscreenenter"",""0"",""3468""
","
","416.2999999523163","","","","","","","","51","0,1,0","0","mountain","3","probe-80","0.6249025527746445","0.38399987140377656","0.060225644227802654","0","","","","","","","",""
"","html-keyboard-response","97","554731","0.0-58.0-1.0","""event"",""trial"",""time""
""fullscreenenter"",""0"",""3468""
""blur"",""38"",""244530""
""focus"",""39"",""249552""
""blur"",""40"",""255258""
""focus"",""40"",""266731""
","""event"",""trial"",""time""
""blur"",""38"",""244530""
""blur"",""40"",""255258""
","""event"",""trial"",""time""
""focus"",""39"",""249552""
""focus"",""40"",""266731""
","""event"",""trial"",""time""
""fullscreenenter"",""0"",""3468""
","
","null","<p></p>","null","","","","","","","","","","","","","","","","","","","","","","",""
"","do_trial","98","559608","0.0-59.0-0.0","""event"",""trial"",""time""
""fullscreenenter"",""0"",""3468""
""blur"",""38"",""244530""
""focus"",""39"",""249552""
""blur"",""40"",""255258""
""focus"",""40"",""266731""
","""event"",""trial"",""time""
""blur"",""38"",""244530""
""blur"",""40"",""255258""
","""event"",""trial"",""time""
""focus"",""39"",""249552""
""focus"",""40"",""266731""
","""event"",""trial"",""time""
""fullscreenenter"",""0"",""3468""
","
","339.60000014305115","","","","","","","","50","0,1,0","0","mountain","4","probe-182","0.5793156781103632","0.28769413331930055","0.058940146184853444","1","","","","","","","",""
"","html-keyboard-response","99","560615","0.0-59.0-1.0","""event"",""trial"",""time""
""fullscreenenter"",""0"",""3468""
""blur"",""38"",""244530""
""focus"",""39"",""249552""
""blur"",""40"",""255258""
""focus"",""40"",""266731""
","""event"",""trial"",""time""
""blur"",""38"",""244530""
""blur"",""40"",""255258""
","""event"",""trial"",""time""
""focus"",""39"",""249552""
""focus"",""40"",""266731""
","""event"",""trial"",""time""
""fullscreenenter"",""0"",""3468""
","
","null","<p></p>","null","","","","","","","","","","","","","","","","","","","","","","",""
"","do_trial","100","565553","0.0-60.0-0.0","""event"",""trial"",""time""
""fullscreenenter"",""0"",""3468""
""blur"",""38"",""244530""
""focus"",""39"",""249552""
""blur"",""40"",""255258""
""focus"",""40"",""266731""
","""event"",""trial"",""time""
""blur"",""38"",""244530""
""blur"",""40"",""255258""
","""event"",""trial"",""time""
""focus"",""39"",""249552""
""focus"",""40"",""266731""
","""event"",""trial"",""time""
""fullscreenenter"",""0"",""3468""
","
","409.39999985694885","","","","","","","","50","1,0,0","0","mountain","5","probe-139","0.5932134963972143","0.37723941298953306","0.05277407297781329","0","","","","","","","",""
"","html-keyboard-response","101","566558","0.0-60.0-1.0","""event"",""trial"",""time""
""fullscreenenter"",""0"",""3468""
""blur"",""38"",""244530""
""focus"",""39"",""249552""
""blur"",""40"",""255258""
""focus"",""40"",""266731""
","""event"",""trial"",""time""
""blur"",""38"",""244530""
""blur"",""40"",""255258""
","""event"",""trial"",""time""
""focus"",""39"",""249552""
""focus"",""40"",""266731""
","""event"",""trial"",""time""
""fullscreenenter"",""0"",""3468""
","
","null","<p></p>","null","","","","","","","","","","","","","","","","","","","","","","",""
"","do_trial","102","571557","0.0-61.0-0.0","""event"",""trial"",""time""
""fullscreenenter"",""0"",""3468""
""blur"",""38"",""244530""
""focus"",""39"",""249552""
""blur"",""40"",""255258""
""focus"",""40"",""266731""
","""event"",""trial"",""time""
""blur"",""38"",""244530""
""blur"",""40"",""255258""
","""event"",""trial"",""time""
""focus"",""39"",""249552""
""focus"",""40"",""266731""
","""event"",""trial"",""time""
""fullscreenenter"",""0"",""3468""
","
","465.80000019073486","","","","","","","","51","0,0,0","0","mountain","6","probe-101","0.6566550763324096","0.2261248938135052","0.14201437543815704","0","","","","","","","",""
"","html-keyboard-response","103","572560","0.0-61.0-1.0","""event"",""trial"",""time""
""fullscreenenter"",""0"",""3468""
""blur"",""38"",""244530""
""focus"",""39"",""249552""
""blur"",""40"",""255258""
""focus"",""40"",""266731""
","""event"",""trial"",""time""
""blur"",""38"",""244530""
""blur"",""40"",""255258""
","""event"",""trial"",""time""
""focus"",""39"",""249552""
""focus"",""40"",""266731""
","""event"",""trial"",""time""
""fullscreenenter"",""0"",""3468""
","
","null","<p></p>","null","","","","","","","","","","","","","","","","","","","","","","",""
"","do_trial","104","578149","0.0-62.0-0.0","""event"",""trial"",""time""
""fullscreenenter"",""0"",""3468""
""blur"",""38"",""244530""
""focus"",""39"",""249552""
""blur"",""40"",""255258""
""focus"",""40"",""266731""
","""event"",""trial"",""time""
""blur"",""38"",""244530""
""blur"",""40"",""255258""
","""event"",""trial"",""time""
""focus"",""39"",""249552""
""focus"",""40"",""266731""
","""event"",""trial"",""time""
""fullscreenenter"",""0"",""3468""
","
","1056.6999998092651","","","","","","","","49","1,0,0","0","mountain","7","probe-208","0.6415531953752627","0.31646674678827247","0.08845230613411632","1","","","","","","","",""
"","html-keyboard-response","105","579159","0.0-62.0-1.0","""event"",""trial"",""time""
""fullscreenenter"",""0"",""3468""
""blur"",""38"",""244530""
""focus"",""39"",""249552""
""blur"",""40"",""255258""
""focus"",""40"",""266731""
","""event"",""trial"",""time""
""blur"",""38"",""244530""
""blur"",""40"",""255258""
","""event"",""trial"",""time""
""focus"",""39"",""249552""
""focus"",""40"",""266731""
","""event"",""trial"",""time""
""fullscreenenter"",""0"",""3468""
","
","null","<p></p>","null","","","","","","","","","","","","","","","","","","","","","","",""
"","do_trial","106","584567","0.0-63.0-0.0","""event"",""trial"",""time""
""fullscreenenter"",""0"",""3468""
""blur"",""38"",""244530""
""focus"",""39"",""249552""
""blur"",""40"",""255258""
""focus"",""40"",""266731""
","""event"",""trial"",""time""
""blur"",""38"",""244530""
""blur"",""40"",""255258""
","""event"",""trial"",""time""
""focus"",""39"",""249552""
""focus"",""40"",""266731""
","""event"",""trial"",""time""
""fullscreenenter"",""0"",""3468""
","
","877.5","","","","","","","","49","1,0,0","0","mountain","8","probe-162","0.6943469768815546","0.3373844904544733","0.095391420350731","1","","","","","","","",""
"","html-keyboard-response","107","585576","0.0-63.0-1.0","""event"",""trial"",""time""
""fullscreenenter"",""0"",""3468""
""blur"",""38"",""244530""
""focus"",""39"",""249552""
""blur"",""40"",""255258""
""focus"",""40"",""266731""
","""event"",""trial"",""time""
""blur"",""38"",""244530""
""blur"",""40"",""255258""
","""event"",""trial"",""time""
""focus"",""39"",""249552""
""focus"",""40"",""266731""
","""event"",""trial"",""time""
""fullscreenenter"",""0"",""3468""
","
","null","<p></p>","null","","","","","","","","","","","","","","","","","","","","","","",""
"","do_trial","108","590695","0.0-64.0-0.0","""event"",""trial"",""time""
""fullscreenenter"",""0"",""3468""
""blur"",""38"",""244530""
""focus"",""39"",""249552""
""blur"",""40"",""255258""
""focus"",""40"",""266731""
","""event"",""trial"",""time""
""blur"",""38"",""244530""
""blur"",""40"",""255258""
","""event"",""trial"",""time""
""focus"",""39"",""249552""
""focus"",""40"",""266731""
","""event"",""trial"",""time""
""fullscreenenter"",""0"",""3468""
","
","587.1000001430511","","","","","","","","49","0,0,0","0","mountain","9","probe-216","0.6323096964842126","0.3732493970098569","0.1546031428685222","0","","","","","","","",""
"","html-keyboard-response","109","591705","0.0-64.0-1.0","""event"",""trial"",""time""
""fullscreenenter"",""0"",""3468""
""blur"",""38"",""244530""
""focus"",""39"",""249552""
""blur"",""40"",""255258""
""focus"",""40"",""266731""
","""event"",""trial"",""time""
""blur"",""38"",""244530""
""blur"",""40"",""255258""
","""event"",""trial"",""time""
""focus"",""39"",""249552""
""focus"",""40"",""266731""
","""event"",""trial"",""time""
""fullscreenenter"",""0"",""3468""
","
","null","<p></p>","null","","","","","","","","","","","","","","","","","","","","","","",""
"","do_trial","110","596571","0.0-65.0-0.0","""event"",""trial"",""time""
""fullscreenenter"",""0"",""3468""
""blur"",""38"",""244530""
""focus"",""39"",""249552""
""blur"",""40"",""255258""
""focus"",""40"",""266731""
","""event"",""trial"",""time""
""blur"",""38"",""244530""
""blur"",""40"",""255258""
","""event"",""trial"",""time""
""focus"",""39"",""249552""
""focus"",""40"",""266731""
","""event"",""trial"",""time""
""fullscreenenter"",""0"",""3468""
","
","336.69999980926514","","","","","","","","50","0,0,0","0","mountain","10","probe-206","0.5660997418573573","0.4033338313672668","0.11058797764633248","0","","","","","","","",""
"","html-keyboard-response","111","597575","0.0-65.0-1.0","""event"",""trial"",""time""
""fullscreenenter"",""0"",""3468""
""blur"",""38"",""244530""
""focus"",""39"",""249552""
""blur"",""40"",""255258""
""focus"",""40"",""266731""
","""event"",""trial"",""time""
""blur"",""38"",""244530""
""blur"",""40"",""255258""
","""event"",""trial"",""time""
""focus"",""39"",""249552""
""focus"",""40"",""266731""
","""event"",""trial"",""time""
""fullscreenenter"",""0"",""3468""
","
","null","<p></p>","null","","","","","","","","","","","","","","","","","","","","","","",""
"","do_trial","112","602635","0.0-66.0-0.0","""event"",""trial"",""time""
""fullscreenenter"",""0"",""3468""
""blur"",""38"",""244530""
""focus"",""39"",""249552""
""blur"",""40"",""255258""
""focus"",""40"",""266731""
","""event"",""trial"",""time""
""blur"",""38"",""244530""
""blur"",""40"",""255258""
","""event"",""trial"",""time""
""focus"",""39"",""249552""
""focus"",""40"",""266731""
","""event"",""trial"",""time""
""fullscreenenter"",""0"",""3468""
","
","531.0999999046326","","","","","","","","49","1,0,1","0","mountain","11","probe-195","0.6120163933708371","0.29354133759248613","0.056215045368770165","1","","","","","","","",""
"","html-keyboard-response","113","603641","0.0-66.0-1.0","""event"",""trial"",""time""
""fullscreenenter"",""0"",""3468""
""blur"",""38"",""244530""
""focus"",""39"",""249552""
""blur"",""40"",""255258""
""focus"",""40"",""266731""
","""event"",""trial"",""time""
""blur"",""38"",""244530""
""blur"",""40"",""255258""
","""event"",""trial"",""time""
""focus"",""39"",""249552""
""focus"",""40"",""266731""
","""event"",""trial"",""time""
""fullscreenenter"",""0"",""3468""
","
","null","<p></p>","null","","","","","","","","","","","","","","","","","","","","","","",""
"","do_trial","114","608755","0.0-67.0-0.0","""event"",""trial"",""time""
""fullscreenenter"",""0"",""3468""
""blur"",""38"",""244530""
""focus"",""39"",""249552""
""blur"",""40"",""255258""
""focus"",""40"",""266731""
","""event"",""trial"",""time""
""blur"",""38"",""244530""
""blur"",""40"",""255258""
","""event"",""trial"",""time""
""focus"",""39"",""249552""
""focus"",""40"",""266731""
","""event"",""trial"",""time""
""fullscreenenter"",""0"",""3468""
","
","574.8999998569489","","","","","","","","49","1,0,0","0","mountain","12","probe-99","0.7043940013677029","0.18212659902503994","0.12811041459338637","1","","","","","","","",""
"","html-keyboard-response","115","609764","0.0-67.0-1.0","""event"",""trial"",""time""
""fullscreenenter"",""0"",""3468""
""blur"",""38"",""244530""
""focus"",""39"",""249552""
""blur"",""40"",""255258""
""focus"",""40"",""266731""
","""event"",""trial"",""time""
""blur"",""38"",""244530""
""blur"",""40"",""255258""
","""event"",""trial"",""time""
""focus"",""39"",""249552""
""focus"",""40"",""266731""
","""event"",""trial"",""time""
""fullscreenenter"",""0"",""3468""
","
","null","<p></p>","null","","","","","","","","","","","","","","","","","","","","","","",""
"","do_trial","116","614753","0.0-68.0-0.0","""event"",""trial"",""time""
""fullscreenenter"",""0"",""3468""
""blur"",""38"",""244530""
""focus"",""39"",""249552""
""blur"",""40"",""255258""
""focus"",""40"",""266731""
","""event"",""trial"",""time""
""blur"",""38"",""244530""
""blur"",""40"",""255258""
","""event"",""trial"",""time""
""focus"",""39"",""249552""
""focus"",""40"",""266731""
","""event"",""trial"",""time""
""fullscreenenter"",""0"",""3468""
","
","453.90000009536743","","","","","","","","49","1,0,0","0","mountain","13","probe-164","0.6157130628969248","0.13989616781051614","0.1430232300126745","1","","","","","","","",""
"","html-keyboard-response","117","615762","0.0-68.0-1.0","""event"",""trial"",""time""
""fullscreenenter"",""0"",""3468""
""blur"",""38"",""244530""
""focus"",""39"",""249552""
""blur"",""40"",""255258""
""focus"",""40"",""266731""
","""event"",""trial"",""time""
""blur"",""38"",""244530""
""blur"",""40"",""255258""
","""event"",""trial"",""time""
""focus"",""39"",""249552""
""focus"",""40"",""266731""
","""event"",""trial"",""time""
""fullscreenenter"",""0"",""3468""
","
","null","<p></p>","null","","","","","","","","","","","","","","","","","","","","","","",""
"","do_trial","118","620846","0.0-69.0-0.0","""event"",""trial"",""time""
""fullscreenenter"",""0"",""3468""
""blur"",""38"",""244530""
""focus"",""39"",""249552""
""blur"",""40"",""255258""
""focus"",""40"",""266731""
","""event"",""trial"",""time""
""blur"",""38"",""244530""
""blur"",""40"",""255258""
","""event"",""trial"",""time""
""focus"",""39"",""249552""
""focus"",""40"",""266731""
","""event"",""trial"",""time""
""fullscreenenter"",""0"",""3468""
","
","557.3999998569489","","","","","","","","49","0,1,0","0","mountain","14","probe-63","0.45618778891754824","0.26397728268114357","0.08565768977008814","0","","","","","","","",""
"","html-keyboard-response","119","621849","0.0-69.0-1.0","""event"",""trial"",""time""
""fullscreenenter"",""0"",""3468""
""blur"",""38"",""244530""
""focus"",""39"",""249552""
""blur"",""40"",""255258""
""focus"",""40"",""266731""
","""event"",""trial"",""time""
""blur"",""38"",""244530""
""blur"",""40"",""255258""
","""event"",""trial"",""time""
""focus"",""39"",""249552""
""focus"",""40"",""266731""
","""event"",""trial"",""time""
""fullscreenenter"",""0"",""3468""
","
","null","<p></p>","null","","","","","","","","","","","","","","","","","","","","","","",""
"","do_trial","120","626751","0.0-70.0-0.0","""event"",""trial"",""time""
""fullscreenenter"",""0"",""3468""
""blur"",""38"",""244530""
""focus"",""39"",""249552""
""blur"",""40"",""255258""
""focus"",""40"",""266731""
","""event"",""trial"",""time""
""blur"",""38"",""244530""
""blur"",""40"",""255258""
","""event"",""trial"",""time""
""focus"",""39"",""249552""
""focus"",""40"",""266731""
","""event"",""trial"",""time""
""fullscreenenter"",""0"",""3468""
","
","375.90000009536743","","","","","","","","49","0,0,1","0","mountain","15","probe-156","0.4708191258108005","0.32041467892712716","0.17765735928401755","0","","","","","","","",""
"","html-keyboard-response","121","627761","0.0-70.0-1.0","""event"",""trial"",""time""
""fullscreenenter"",""0"",""3468""
""blur"",""38"",""244530""
""focus"",""39"",""249552""
""blur"",""40"",""255258""
""focus"",""40"",""266731""
","""event"",""trial"",""time""
""blur"",""38"",""244530""
""blur"",""40"",""255258""
","""event"",""trial"",""time""
""focus"",""39"",""249552""
""focus"",""40"",""266731""
","""event"",""trial"",""time""
""fullscreenenter"",""0"",""3468""
","
","null","<p></p>","null","","","","","","","","","","","","","","","","","","","","","","",""
"","do_trial","122","632644","0.0-71.0-0.0","""event"",""trial"",""time""
""fullscreenenter"",""0"",""3468""
""blur"",""38"",""244530""
""focus"",""39"",""249552""
""blur"",""40"",""255258""
""focus"",""40"",""266731""
","""event"",""trial"",""time""
""blur"",""38"",""244530""
""blur"",""40"",""255258""
","""event"",""trial"",""time""
""focus"",""39"",""249552""
""focus"",""40"",""266731""
","""event"",""trial"",""time""
""fullscreenenter"",""0"",""3468""
","
","341.69999980926514","","","","","","","","49","1,1,0","0","mountain","16","probe-26","0.32234033120567424","0.39600775069145655","0.2847726722664726","1","","","","","","","",""
"","html-keyboard-response","123","633656","0.0-71.0-1.0","""event"",""trial"",""time""
""fullscreenenter"",""0"",""3468""
""blur"",""38"",""244530""
""focus"",""39"",""249552""
""blur"",""40"",""255258""
""focus"",""40"",""266731""
","""event"",""trial"",""time""
""blur"",""38"",""244530""
""blur"",""40"",""255258""
","""event"",""trial"",""time""
""focus"",""39"",""249552""
""focus"",""40"",""266731""
","""event"",""trial"",""time""
""fullscreenenter"",""0"",""3468""
","
","null","<p></p>","null","","","","","","","","","","","","","","","","","","","","","","",""
"","do_trial","124","638794","0.0-72.0-0.0","""event"",""trial"",""time""
""fullscreenenter"",""0"",""3468""
""blur"",""38"",""244530""
""focus"",""39"",""249552""
""blur"",""40"",""255258""
""focus"",""40"",""266731""
","""event"",""trial"",""time""
""blur"",""38"",""244530""
""blur"",""40"",""255258""
","""event"",""trial"",""time""
""focus"",""39"",""249552""
""focus"",""40"",""266731""
","""event"",""trial"",""time""
""fullscreenenter"",""0"",""3468""
","
","607.5","","","","","","","","49","0,0,1","0","mountain","17","probe-102","0.469078056359991","0.3612606083097564","0.2184466279267354","0","","","","","","","",""
"","html-keyboard-response","125","639799","0.0-72.0-1.0","""event"",""trial"",""time""
""fullscreenenter"",""0"",""3468""
""blur"",""38"",""244530""
""focus"",""39"",""249552""
""blur"",""40"",""255258""
""focus"",""40"",""266731""
","""event"",""trial"",""time""
""blur"",""38"",""244530""
""blur"",""40"",""255258""
","""event"",""trial"",""time""
""focus"",""39"",""249552""
""focus"",""40"",""266731""
","""event"",""trial"",""time""
""fullscreenenter"",""0"",""3468""
","
","null","<p></p>","null","","","","","","","","","","","","","","","","","","","","","","",""
"","do_trial","126","645371","0.0-73.0-0.0","""event"",""trial"",""time""
""fullscreenenter"",""0"",""3468""
""blur"",""38"",""244530""
""focus"",""39"",""249552""
""blur"",""40"",""255258""
""focus"",""40"",""266731""
","""event"",""trial"",""time""
""blur"",""38"",""244530""
""blur"",""40"",""255258""
","""event"",""trial"",""time""
""focus"",""39"",""249552""
""focus"",""40"",""266731""
","""event"",""trial"",""time""
""fullscreenenter"",""0"",""3468""
","
","1037.3999998569489","","","","","","","","49","1,0,0","0","mountain","18","probe-91","0.6406720484836465","0.15736361582499625","0.10140452917155997","1","","","","","","","",""
"","html-keyboard-response","127","646379","0.0-73.0-1.0","""event"",""trial"",""time""
""fullscreenenter"",""0"",""3468""
""blur"",""38"",""244530""
""focus"",""39"",""249552""
""blur"",""40"",""255258""
""focus"",""40"",""266731""
","""event"",""trial"",""time""
""blur"",""38"",""244530""
""blur"",""40"",""255258""
","""event"",""trial"",""time""
""focus"",""39"",""249552""
""focus"",""40"",""266731""
","""event"",""trial"",""time""
""fullscreenenter"",""0"",""3468""
","
","null","<p></p>","null","","","","","","","","","","","","","","","","","","","","","","",""
"","do_trial","128","651802","0.0-74.0-0.0","""event"",""trial"",""time""
""fullscreenenter"",""0"",""3468""
""blur"",""38"",""244530""
""focus"",""39"",""249552""
""blur"",""40"",""255258""
""focus"",""40"",""266731""
","""event"",""trial"",""time""
""blur"",""38"",""244530""
""blur"",""40"",""255258""
","""event"",""trial"",""time""
""focus"",""39"",""249552""
""focus"",""40"",""266731""
","""event"",""trial"",""time""
""fullscreenenter"",""0"",""3468""
","
","884.7999999523163","","","","","","","","49","1,0,0","0","mountain","19","probe-132","0.5391335324175899","0.2075540373825801","0.08116572045285901","1","","","","","","","",""
"","html-keyboard-response","129","652810","0.0-74.0-1.0","""event"",""trial"",""time""
""fullscreenenter"",""0"",""3468""
""blur"",""38"",""244530""
""focus"",""39"",""249552""
""blur"",""40"",""255258""
""focus"",""40"",""266731""
","""event"",""trial"",""time""
""blur"",""38"",""244530""
""blur"",""40"",""255258""
","""event"",""trial"",""time""
""focus"",""39"",""249552""
""focus"",""40"",""266731""
","""event"",""trial"",""time""
""fullscreenenter"",""0"",""3468""
","
","null","<p></p>","null","","","","","","","","","","","","","","","","","","","","","","",""
"","do_trial","130","657750","0.0-75.0-0.0","""event"",""trial"",""time""
""fullscreenenter"",""0"",""3468""
""blur"",""38"",""244530""
""focus"",""39"",""249552""
""blur"",""40"",""255258""
""focus"",""40"",""266731""
","""event"",""trial"",""time""
""blur"",""38"",""244530""
""blur"",""40"",""255258""
","""event"",""trial"",""time""
""focus"",""39"",""249552""
""focus"",""40"",""266731""
","""event"",""trial"",""time""
""fullscreenenter"",""0"",""3468""
","
","404.89999985694885","","","","","","","","49","0,0,1","0","mountain","20","probe-106","0.49684575757952","0.3004176769377412","0.18567103890485556","0","","","","","","","",""
"","html-keyboard-response","131","658766","0.0-75.0-1.0","""event"",""trial"",""time""
""fullscreenenter"",""0"",""3468""
""blur"",""38"",""244530""
""focus"",""39"",""249552""
""blur"",""40"",""255258""
""focus"",""40"",""266731""
","""event"",""trial"",""time""
""blur"",""38"",""244530""
""blur"",""40"",""255258""
","""event"",""trial"",""time""
""focus"",""39"",""249552""
""focus"",""40"",""266731""
","""event"",""trial"",""time""
""fullscreenenter"",""0"",""3468""
","
","null","<p></p>","null","","","","","","","","","","","","","","","","","","","","","","",""
"","do_trial","132","663843","0.0-76.0-0.0","""event"",""trial"",""time""
""fullscreenenter"",""0"",""3468""
""blur"",""38"",""244530""
""focus"",""39"",""249552""
""blur"",""40"",""255258""
""focus"",""40"",""266731""
","""event"",""trial"",""time""
""blur"",""38"",""244530""
""blur"",""40"",""255258""
","""event"",""trial"",""time""
""focus"",""39"",""249552""
""focus"",""40"",""266731""
","""event"",""trial"",""time""
""fullscreenenter"",""0"",""3468""
","
","538.0999999046326","","","","","","","","49","1,1,0","0","mountain","21","probe-107","0.5481969139951924","0.21094334873921305","0.31896514862900943","1","","","","","","","",""
"","html-keyboard-response","133","664853","0.0-76.0-1.0","""event"",""trial"",""time""
""fullscreenenter"",""0"",""3468""
""blur"",""38"",""244530""
""focus"",""39"",""249552""
""blur"",""40"",""255258""
""focus"",""40"",""266731""
","""event"",""trial"",""time""
""blur"",""38"",""244530""
""blur"",""40"",""255258""
","""event"",""trial"",""time""
""focus"",""39"",""249552""
""focus"",""40"",""266731""
","""event"",""trial"",""time""
""fullscreenenter"",""0"",""3468""
","
","null","<p></p>","null","","","","","","","","","","","","","","","","","","","","","","",""
"","do_trial","134","670531","0.0-77.0-0.0","""event"",""trial"",""time""
""fullscreenenter"",""0"",""3468""
""blur"",""38"",""244530""
""focus"",""39"",""249552""
""blur"",""40"",""255258""
""focus"",""40"",""266731""
","""event"",""trial"",""time""
""blur"",""38"",""244530""
""blur"",""40"",""255258""
","""event"",""trial"",""time""
""focus"",""39"",""249552""
""focus"",""40"",""266731""
","""event"",""trial"",""time""
""fullscreenenter"",""0"",""3468""
","
","1139.1999998092651","","","","","","","","49","0,0,0","0","mountain","22","probe-86","0.5869929248076946","0.16379723732776932","0.2471438281363503","0","","","","","","","",""
"","html-keyboard-response","135","671537","0.0-77.0-1.0","""event"",""trial"",""time""
""fullscreenenter"",""0"",""3468""
""blur"",""38"",""244530""
""focus"",""39"",""249552""
""blur"",""40"",""255258""
""focus"",""40"",""266731""
","""event"",""trial"",""time""
""blur"",""38"",""244530""
""blur"",""40"",""255258""
","""event"",""trial"",""time""
""focus"",""39"",""249552""
""focus"",""40"",""266731""
","""event"",""trial"",""time""
""fullscreenenter"",""0"",""3468""
","
","null","<p></p>","null","","","","","","","","","","","","","","","","","","","","","","",""
"","do_trial","136","676586","0.0-78.0-0.0","""event"",""trial"",""time""
""fullscreenenter"",""0"",""3468""
""blur"",""38"",""244530""
""focus"",""39"",""249552""
""blur"",""40"",""255258""
""focus"",""40"",""266731""
","""event"",""trial"",""time""
""blur"",""38"",""244530""
""blur"",""40"",""255258""
","""event"",""trial"",""time""
""focus"",""39"",""249552""
""focus"",""40"",""266731""
","""event"",""trial"",""time""
""fullscreenenter"",""0"",""3468""
","
","511.59999990463257","","","","","","","","49","0,0,1","0","mountain","23","probe-213","0.4895999344659609","0.19983471086131066","0.10938007150546479","0","","","","","","","",""
"","html-keyboard-response","137","677595","0.0-78.0-1.0","""event"",""trial"",""time""
""fullscreenenter"",""0"",""3468""
""blur"",""38"",""244530""
""focus"",""39"",""249552""
""blur"",""40"",""255258""
""focus"",""40"",""266731""
","""event"",""trial"",""time""
""blur"",""38"",""244530""
""blur"",""40"",""255258""
","""event"",""trial"",""time""
""focus"",""39"",""249552""
""focus"",""40"",""266731""
","""event"",""trial"",""time""
""fullscreenenter"",""0"",""3468""
","
","null","<p></p>","null","","","","","","","","","","","","","","","","","","","","","","",""
"","do_trial","138","682670","0.0-79.0-0.0","""event"",""trial"",""time""
""fullscreenenter"",""0"",""3468""
""blur"",""38"",""244530""
""focus"",""39"",""249552""
""blur"",""40"",""255258""
""focus"",""40"",""266731""
","""event"",""trial"",""time""
""blur"",""38"",""244530""
""blur"",""40"",""255258""
","""event"",""trial"",""time""
""focus"",""39"",""249552""
""focus"",""40"",""266731""
","""event"",""trial"",""time""
""fullscreenenter"",""0"",""3468""
","
","548.4000000953674","","","","","","","","49","1,0,0","0","mountain","24","probe-39","0.4639119520226745","0.23081258909315694","0.11227856556256643","1","","","","","","","",""
"","html-keyboard-response","139","683680","0.0-79.0-1.0","""event"",""trial"",""time""
""fullscreenenter"",""0"",""3468""
""blur"",""38"",""244530""
""focus"",""39"",""249552""
""blur"",""40"",""255258""
""focus"",""40"",""266731""
","""event"",""trial"",""time""
""blur"",""38"",""244530""
""blur"",""40"",""255258""
","""event"",""trial"",""time""
""focus"",""39"",""249552""
""focus"",""40"",""266731""
","""event"",""trial"",""time""
""fullscreenenter"",""0"",""3468""
","
","null","<p></p>","null","","","","","","","","","","","","","","","","","","","","","","",""
"","do_trial","140","689612","0.0-80.0-0.0","""event"",""trial"",""time""
""fullscreenenter"",""0"",""3468""
""blur"",""38"",""244530""
""focus"",""39"",""249552""
""blur"",""40"",""255258""
""focus"",""40"",""266731""
","""event"",""trial"",""time""
""blur"",""38"",""244530""
""blur"",""40"",""255258""
","""event"",""trial"",""time""
""focus"",""39"",""249552""
""focus"",""40"",""266731""
","""event"",""trial"",""time""
""fullscreenenter"",""0"",""3468""
","
","1399.9000000953674","","","","","","","","49","1,0,0","0","mountain","25","probe-225","0.638370323445688","0.2140042178112762","0.080522646290522","1","","","","","","","",""
"","html-keyboard-response","141","690620","0.0-80.0-1.0","""event"",""trial"",""time""
""fullscreenenter"",""0"",""3468""
""blur"",""38"",""244530""
""focus"",""39"",""249552""
""blur"",""40"",""255258""
""focus"",""40"",""266731""
","""event"",""trial"",""time""
""blur"",""38"",""244530""
""blur"",""40"",""255258""
","""event"",""trial"",""time""
""focus"",""39"",""249552""
""focus"",""40"",""266731""
","""event"",""trial"",""time""
""fullscreenenter"",""0"",""3468""
","
","null","<p></p>","null","","","","","","","","","","","","","","","","","","","","","","",""
"","do_trial","142","696081","0.0-81.0-0.0","""event"",""trial"",""time""
""fullscreenenter"",""0"",""3468""
""blur"",""38"",""244530""
""focus"",""39"",""249552""
""blur"",""40"",""255258""
""focus"",""40"",""266731""
","""event"",""trial"",""time""
""blur"",""38"",""244530""
""blur"",""40"",""255258""
","""event"",""trial"",""time""
""focus"",""39"",""249552""
""focus"",""40"",""266731""
","""event"",""trial"",""time""
""fullscreenenter"",""0"",""3468""
","
","923.5","","","","","","","","49","0,0,0","0","mountain","26","probe-128","0.6751815905947116","0.24041466290792252","0.050308551552689054","0","","","","","","","",""
"","html-keyboard-response","143","697093","0.0-81.0-1.0","""event"",""trial"",""time""
""fullscreenenter"",""0"",""3468""
""blur"",""38"",""244530""
""focus"",""39"",""249552""
""blur"",""40"",""255258""
""focus"",""40"",""266731""
","""event"",""trial"",""time""
""blur"",""38"",""244530""
""blur"",""40"",""255258""
","""event"",""trial"",""time""
""focus"",""39"",""249552""
""focus"",""40"",""266731""
","""event"",""trial"",""time""
""fullscreenenter"",""0"",""3468""
","
","null","<p></p>","null","","","","","","","","","","","","","","","","","","","","","","",""
"","do_trial","144","702178","0.0-82.0-0.0","""event"",""trial"",""time""
""fullscreenenter"",""0"",""3468""
""blur"",""38"",""244530""
""focus"",""39"",""249552""
""blur"",""40"",""255258""
""focus"",""40"",""266731""
","""event"",""trial"",""time""
""blur"",""38"",""244530""
""blur"",""40"",""255258""
","""event"",""trial"",""time""
""focus"",""39"",""249552""
""focus"",""40"",""266731""
","""event"",""trial"",""time""
""fullscreenenter"",""0"",""3468""
","
","549.2999999523163","","","","","","","","49","1,1,0","0","mountain","27","probe-70","0.6563991486998296","0.22122676381386192","0.17517376795838882","1","","","","","","","",""
"","html-keyboard-response","145","703182","0.0-82.0-1.0","""event"",""trial"",""time""
""fullscreenenter"",""0"",""3468""
""blur"",""38"",""244530""
""focus"",""39"",""249552""
""blur"",""40"",""255258""
""focus"",""40"",""266731""
","""event"",""trial"",""time""
""blur"",""38"",""244530""
""blur"",""40"",""255258""
","""event"",""trial"",""time""
""focus"",""39"",""249552""
""focus"",""40"",""266731""
","""event"",""trial"",""time""
""fullscreenenter"",""0"",""3468""
","
","null","<p></p>","null","","","","","","","","","","","","","","","","","","","","","","",""
"","do_trial","146","709096","0.0-83.0-0.0","""event"",""trial"",""time""
""fullscreenenter"",""0"",""3468""
""blur"",""38"",""244530""
""focus"",""39"",""249552""
""blur"",""40"",""255258""
""focus"",""40"",""266731""
","""event"",""trial"",""time""
""blur"",""38"",""244530""
""blur"",""40"",""255258""
","""event"",""trial"",""time""
""focus"",""39"",""249552""
""focus"",""40"",""266731""
","""event"",""trial"",""time""
""fullscreenenter"",""0"",""3468""
","
","1385.9000000953674","","","","","","","","49","0,1,0","0","mountain","28","probe-96","0.6187267632874719","0.2380666041486117","0.15532838617526093","0","","","","","","","",""
"","html-keyboard-response","147","710108","0.0-83.0-1.0","""event"",""trial"",""time""
""fullscreenenter"",""0"",""3468""
""blur"",""38"",""244530""
""focus"",""39"",""249552""
""blur"",""40"",""255258""
""focus"",""40"",""266731""
","""event"",""trial"",""time""
""blur"",""38"",""244530""
""blur"",""40"",""255258""
","""event"",""trial"",""time""
""focus"",""39"",""249552""
""focus"",""40"",""266731""
","""event"",""trial"",""time""
""fullscreenenter"",""0"",""3468""
","
","null","<p></p>","null","","","","","","","","","","","","","","","","","","","","","","",""
"","do_trial","148","715433","0.0-84.0-0.0","""event"",""trial"",""time""
""fullscreenenter"",""0"",""3468""
""blur"",""38"",""244530""
""focus"",""39"",""249552""
""blur"",""40"",""255258""
""focus"",""40"",""266731""
","""event"",""trial"",""time""
""blur"",""38"",""244530""
""blur"",""40"",""255258""
","""event"",""trial"",""time""
""focus"",""39"",""249552""
""focus"",""40"",""266731""
","""event"",""trial"",""time""
""fullscreenenter"",""0"",""3468""
","
","796.2999999523163","","","","","","","","49","1,1,0","0","mountain","29","probe-09","0.671066803266907","0.2248244536093667","0.09237301450742916","1","","","","","","","",""
"","html-keyboard-response","149","716446","0.0-84.0-1.0","""event"",""trial"",""time""
""fullscreenenter"",""0"",""3468""
""blur"",""38"",""244530""
""focus"",""39"",""249552""
""blur"",""40"",""255258""
""focus"",""40"",""266731""
","""event"",""trial"",""time""
""blur"",""38"",""244530""
""blur"",""40"",""255258""
","""event"",""trial"",""time""
""focus"",""39"",""249552""
""focus"",""40"",""266731""
","""event"",""trial"",""time""
""fullscreenenter"",""0"",""3468""
","
","null","<p></p>","null","","","","","","","","","","","","","","","","","","","","","","",""
"","do_bye","150","717966","0.0-85.0-0.0","""event"",""trial"",""time""
""fullscreenenter"",""0"",""3468""
""blur"",""38"",""244530""
""focus"",""39"",""249552""
""blur"",""40"",""255258""
""focus"",""40"",""266731""
","""event"",""trial"",""time""
""blur"",""38"",""244530""
""blur"",""40"",""255258""
","""event"",""trial"",""time""
""focus"",""39"",""249552""
""focus"",""40"",""266731""
","""event"",""trial"",""time""
""fullscreenenter"",""0"",""3468""
","
","null","","","","","","","","null","","","","","","","","","","","","","","","","",""
"","break","151","722394","0.0-85.0-1.0","""event"",""trial"",""time""
""fullscreenenter"",""0"",""3468""
""blur"",""38"",""244530""
""focus"",""39"",""249552""
""blur"",""40"",""255258""
""focus"",""40"",""266731""
","""event"",""trial"",""time""
""blur"",""38"",""244530""
""blur"",""40"",""255258""
","""event"",""trial"",""time""
""focus"",""39"",""249552""
""focus"",""40"",""266731""
","""event"",""trial"",""time""
""fullscreenenter"",""0"",""3468""
","
","4427.799999952316","<div class='center'><p>Time to take a quick break! You have 2 minutes to rest, but you can move on sooner if you'd like.</p><p> Press the <b>space bar</b> to continue.</p></div>","32","","","","","","","","","","","","","","","","","","","","","","",""
"","do_travel","152","731399","0.0-86.0-0.0","""event"",""trial"",""time""
""fullscreenenter"",""0"",""3468""
""blur"",""38"",""244530""
""focus"",""39"",""249552""
""blur"",""40"",""255258""
""focus"",""40"",""266731""
","""event"",""trial"",""time""
""blur"",""38"",""244530""
""blur"",""40"",""255258""
","""event"",""trial"",""time""
""focus"",""39"",""249552""
""focus"",""40"",""266731""
","""event"",""trial"",""time""
""fullscreenenter"",""0"",""3468""
","
","null","","","","","","","","null","","","","","","","","","","","","","","","","",""
"","do_welcome","153","735412","0.0-86.0-1.0","""event"",""trial"",""time""
""fullscreenenter"",""0"",""3468""
""blur"",""38"",""244530""
""focus"",""39"",""249552""
""blur"",""40"",""255258""
""focus"",""40"",""266731""
","""event"",""trial"",""time""
""blur"",""38"",""244530""
""blur"",""40"",""255258""
","""event"",""trial"",""time""
""focus"",""39"",""249552""
""focus"",""40"",""266731""
","""event"",""trial"",""time""
""fullscreenenter"",""0"",""3468""
","
","null","","","","","","","","null","","","","","","","","","","","","","","","","",""
"","do_trial","154","742870","0.0-87.0-0.0","""event"",""trial"",""time""
""fullscreenenter"",""0"",""3468""
""blur"",""38"",""244530""
""focus"",""39"",""249552""
""blur"",""40"",""255258""
""focus"",""40"",""266731""
","""event"",""trial"",""time""
""blur"",""38"",""244530""
""blur"",""40"",""255258""
","""event"",""trial"",""time""
""focus"",""39"",""249552""
""focus"",""40"",""266731""
","""event"",""trial"",""time""
""fullscreenenter"",""0"",""3468""
","
","2924.5","","","","","","","","50","1,0,0","1","coast","30","probe-23","1","0.26825424098337436","0.058572439210550185","0","","","","","","","",""
"","html-keyboard-response","155","743882","0.0-87.0-1.0","""event"",""trial"",""time""
""fullscreenenter"",""0"",""3468""
""blur"",""38"",""244530""
""focus"",""39"",""249552""
""blur"",""40"",""255258""
""focus"",""40"",""266731""
","""event"",""trial"",""time""
""blur"",""38"",""244530""
""blur"",""40"",""255258""
","""event"",""trial"",""time""
""focus"",""39"",""249552""
""focus"",""40"",""266731""
","""event"",""trial"",""time""
""fullscreenenter"",""0"",""3468""
","
","null","<p></p>","null","","","","","","","","","","","","","","","","","","","","","","",""
"","do_trial","156","748985","0.0-88.0-0.0","""event"",""trial"",""time""
""fullscreenenter"",""0"",""3468""
""blur"",""38"",""244530""
""focus"",""39"",""249552""
""blur"",""40"",""255258""
""focus"",""40"",""266731""
","""event"",""trial"",""time""
""blur"",""38"",""244530""
""blur"",""40"",""255258""
","""event"",""trial"",""time""
""focus"",""39"",""249552""
""focus"",""40"",""266731""
","""event"",""trial"",""time""
""fullscreenenter"",""0"",""3468""
","
","574.8000001907349","","","","","","","","51","1,0,0","1","coast","31","probe-43","1","0.23069413867601676","0.20177236712476287","0","","","","","","","",""
"","html-keyboard-response","157","749995","0.0-88.0-1.0","""event"",""trial"",""time""
""fullscreenenter"",""0"",""3468""
""blur"",""38"",""244530""
""focus"",""39"",""249552""
""blur"",""40"",""255258""
""focus"",""40"",""266731""
","""event"",""trial"",""time""
""blur"",""38"",""244530""
""blur"",""40"",""255258""
","""event"",""trial"",""time""
""focus"",""39"",""249552""
""focus"",""40"",""266731""
","""event"",""trial"",""time""
""fullscreenenter"",""0"",""3468""
","
","null","<p></p>","null","","","","","","","","","","","","","","","","","","","","","","",""
"","do_trial","158","754869","0.0-89.0-0.0","""event"",""trial"",""time""
""fullscreenenter"",""0"",""3468""
""blur"",""38"",""244530""
""focus"",""39"",""249552""
""blur"",""40"",""255258""
""focus"",""40"",""266731""
","""event"",""trial"",""time""
""blur"",""38"",""244530""
""blur"",""40"",""255258""
","""event"",""trial"",""time""
""focus"",""39"",""249552""
""focus"",""40"",""266731""
","""event"",""trial"",""time""
""fullscreenenter"",""0"",""3468""
","
","344","","","","","","","","49","1,0,1","1","coast","32","probe-223","1","0.24700257012618657","0.23760089977765433","1","","","","","","","",""
"","html-keyboard-response","159","755877","0.0-89.0-1.0","""event"",""trial"",""time""
""fullscreenenter"",""0"",""3468""
""blur"",""38"",""244530""
""focus"",""39"",""249552""
""blur"",""40"",""255258""
""focus"",""40"",""266731""
","""event"",""trial"",""time""
""blur"",""38"",""244530""
""blur"",""40"",""255258""
","""event"",""trial"",""time""
""focus"",""39"",""249552""
""focus"",""40"",""266731""
","""event"",""trial"",""time""
