"success","trial_type","trial_index","time_elapsed","internal_node_id","rt","stimulus","key_press","subject_id","response","choice_outcomes","context_n","context_img_id","trial_n","probe_img_id","pR_red","pR_white","pR_black","outcome","contextArray_ind","validImageProbes","invalidImageProbes","pRew_Red","pRew_White","pRew_Black","availableForMemProbe","choice_blocks"
"true","fullscreen","0","9939","0.0-0.0","","","","","","","","","","","","","","","","","","","","","",""
"","pavlovia","1","9942","0.0-1.0","","","","","","","","","","","","","","","","","","","","","",""
"","html-keyboard-response","2","14054","0.0-2.0","4111","<div class='center'><p>Welcome! This is the first day of the experiment which will last ~30 minutes. In this experiment, you are the head captain of a pirate ship traveling around the world to different places. You will complete several different tasks during this experiment. Here is an overview of these tasks:</p><br><p>Day 1</p><p>1. Tutorial and quiz</p><p>2. Pick a pirate game in 6 different places</p><br><p>Day 2</p><p>3. Pick a pirate game and memory game</p><p>4. Final questions and payment</p><br><p>If you complete the entire experiment, you will receive $15 and a possible bonus payment.</p><p><b>[Press the space bar to begin the tutorial]</b></p></div>","32","5e3f3ebc0fa771000bd26166","","","","","","","","","","","","","","","","","",""
"","html-keyboard-response","3","16814","0.0-3.0","2759.7000000029802","<div class='center'><p>You’ll stop at these 6 islands on your journey. You'll be able to see them in the distance from your ship.</p><p><img src='run_exp/static/images/contexts/all_contexts.png' height='500'></p><p><b>[Press the space bar to continue]</b></p></div>","32","","","","","","","","","","","","","","","","","","",""
"","html-keyboard-response","4","21895","0.0-4.0","5079.4000000059605","<div class='center'><p> The pirates on your ship will rob other ships as they leave island</p> These ships have just sold their things to the people living on the island, so they will have lots and lots of gold on them.</p><p><img src='run_exp/static/images/tutorial/ship_center.png' height='400'></p><p><b>[Press the space bar to continue]</b></p></div>","32","","","","","","","","","","","","","","","","","","",""
"","html-keyboard-response","5","28077","0.0-5.0","6181.4000000059605","<div class='center'><p>As the head captain, you do not have to rob any ships yourself.</p><p>Another pirate will be doing the robbing for you. </p><p><img src='run_exp/static/images/tutorial/pirates_all_crop.png' height='200'></p><p>If they could rob the ship, then you will get a stack of gold coins like this:</p><p><img src='run_exp/static/images/tutorial/reward.png' height='150'></p><p> If they couldn't rob the ship, then you will get no gold coins and you'll see a big red x like this: </p><p><img src='run_exp/static/images/tutorial/reward_no.png' height='150'></p><p> How much bonus money you make is based on how many gold coins you collect.</p><p><b>[Press the space bar to continue]</b></p><div>","32","","","","","","","","","","","","","","","","","","",""
"","html-keyboard-response","6","40968","0.0-6.0","12890.70000000298","<div class='center'><p>Even the most skilled pirate can not rob EVERY ship.</p><p> Some ships will have very strong defenses against pirate attacks.</p><p> For example, blue beard, here, is very, very good at robbing ships.</p><p> You can press the <b>‘1’</b> button on the keyboard to choose him.</p><p> Try choosing him 10 times to see how often he can rob a ship. </p><p><img src='run_exp/static/images/tutorial/blue.png' height='500'></p></div>","49","","","","","","","","","","","","","","","","","","",""
"","html-keyboard-response","7","42480","0.0-7.0","null","<div class='center'><p><img src='run_exp/static/images/tutorial/blue_win.png' height='500'></p></div>","null","","","","","","","","","","","","","","","","","","",""
"","html-keyboard-response","8","42759","0.0-8.0","277.40000000596046","<div class='center'><img src='run_exp/static/images/tutorial/blue.png' height='500'></p></div>","49","","","","","","","","","","","","","","","","","","",""
"","html-keyboard-response","9","44269","0.0-9.0","null","<div class='center'><p><img src='run_exp/static/images/tutorial/blue_win.png' height='500'></p></div>","null","","","","","","","","","","","","","","","","","","",""
"","html-keyboard-response","10","45164","0.0-10.0","894.5999999940395","<div class='center'><img src='run_exp/static/images/tutorial/blue.png' height='500'></p></div>","49","","","","","","","","","","","","","","","","","","",""
"","html-keyboard-response","11","46679","0.0-11.0","null","<div class='center'><p><img src='run_exp/static/images/tutorial/blue_win.png' height='500'></p></div>","null","","","","","","","","","","","","","","","","","","",""
"","html-keyboard-response","12","46972","0.0-12.0","292.70000000298023","<div class='center'><img src='run_exp/static/images/tutorial/blue.png' height='500'></p></div>","49","","","","","","","","","","","","","","","","","","",""
"","html-keyboard-response","13","48480","0.0-13.0","null","<div class='center'><p><img src='run_exp/static/images/tutorial/blue_no_win.png' height='500'></p></div>","null","","","","","","","","","","","","","","","","","","",""
"","html-keyboard-response","14","48757","0.0-14.0","275.69999998807907","<div class='center'><img src='run_exp/static/images/tutorial/blue.png' height='500'></p></div>","49","","","","","","","","","","","","","","","","","","",""
"","html-keyboard-response","15","50268","0.0-15.0","null","<div class='center'><p><img src='run_exp/static/images/tutorial/blue_win.png' height='500'></p></div>","null","","","","","","","","","","","","","","","","","","",""
"","html-keyboard-response","16","50534","0.0-16.0","265.70000000298023","<div class='center'><img src='run_exp/static/images/tutorial/blue.png' height='500'></p></div>","49","","","","","","","","","","","","","","","","","","",""
"","html-keyboard-response","17","52039","0.0-17.0","null","<div class='center'><p><img src='run_exp/static/images/tutorial/blue_win.png' height='500'></p></div>","null","","","","","","","","","","","","","","","","","","",""
"","html-keyboard-response","18","52264","0.0-18.0","224.19999998807907","<div class='center'><img src='run_exp/static/images/tutorial/blue.png' height='500'></p></div>","49","","","","","","","","","","","","","","","","","","",""
"","html-keyboard-response","19","53777","0.0-19.0","null","<div class='center'><p><img src='run_exp/static/images/tutorial/blue_win.png' height='500'></p></div>","null","","","","","","","","","","","","","","","","","","",""
"","html-keyboard-response","20","53972","0.0-20.0","194.6000000089407","<div class='center'><img src='run_exp/static/images/tutorial/blue.png' height='500'></p></div>","49","","","","","","","","","","","","","","","","","","",""
"","html-keyboard-response","21","55486","0.0-21.0","null","<div class='center'><p><img src='run_exp/static/images/tutorial/blue_no_win.png' height='500'></p></div>","null","","","","","","","","","","","","","","","","","","",""
"","html-keyboard-response","22","55735","0.0-22.0","247.90000000596046","<div class='center'><img src='run_exp/static/images/tutorial/blue.png' height='500'></p></div>","49","","","","","","","","","","","","","","","","","","",""
"","html-keyboard-response","23","57243","0.0-23.0","null","<div class='center'><p><img src='run_exp/static/images/tutorial/blue_win.png' height='500'></p></div>","null","","","","","","","","","","","","","","","","","","",""
"","html-keyboard-response","24","57468","0.0-24.0","224","<div class='center'><img src='run_exp/static/images/tutorial/blue.png' height='500'></p></div>","49","","","","","","","","","","","","","","","","","","",""
"","html-keyboard-response","25","58984","0.0-25.0","null","<div class='center'><p><img src='run_exp/static/images/tutorial/blue_win.png' height='500'></p></div>","null","","","","","","","","","","","","","","","","","","",""
"","html-keyboard-response","26","60462","0.0-26.0","1477.9000000059605","<div class='center'><p> See, he could rob the ships most of the time but not every time. </p><p><b>[Press the space bar to continue]</b></p></div>","32","","","","","","","","","","","","","","","","","","",""
"","html-keyboard-response","27","65335","0.0-27.0","4872","<div class='center'><p>You will get to choose which of three pirates you want to rob the next ship. <p>Press the <b>‘1’</b> button on your keyboard to pick the pirate with the red beard.</p><p> Press <b>‘2’</b> to pick the pirate with the white beard.</p><p> Press <b>‘3’</b> to pick the pirate with the black beard.</p><p>Try picking a pirate now!</p><p><img src='run_exp/static/images/tutorial/all_pirates.png' height='500'></p></div>","51","","","","","","","","","","","","","","","","","","",""
"","html-keyboard-response","28","66270","0.0-28.0-0.0","934.2000000029802","<div class='center'><p>This pirate could rob the ship!</p><p><img src='run_exp/static/images/tutorial/black_win.png' height='500'></p><p><b>[Press the space bar to continue]</b></p></div>","32","","","","","","","","","","","","","","","","","","",""
"","html-keyboard-response","29","67394","0.0-28.0-1.0","1123.3999999910593","<div class='center'><p>Now try choosing another</p><p><img src='run_exp/static/images/tutorial/all_pirates.png' height='500'></p></div>","51","","","","","","","","","","","","","","","","","","",""
"","html-keyboard-response","30","67993","0.0-29.0-0.0","598.2999999970198","<div class='center'><p>This pirate could not rob the ship!</p><p><img src='run_exp/static/images/tutorial/black_no_win.png' height='500'></p><p><b>[Press the space bar to continue]</b></p></div>","32","","","","","","","","","","","","","","","","","","",""
"","html-keyboard-response","31","72415","0.0-30.0-0.0","4420.79999999702","<div class='center'><p>If you don’t make your choice fast enough, you’ll have to wait a few seconds before you can make another one. </p><p>You can’t collect more gold coins. You just have to sit and wait.</p><p><img src='run_exp/static/images/miscellaneous/hurry_up.png' height='500'></p><p><b>[Press the space bar to continue]</b></p></div>","32","","","","","","","","","","","","","","","","","","",""
"","html-keyboard-response","32","86393","0.0-30.0-1.0","13978.29999999702","<div class='center'><p>Once you choose a pirate, you’ll be shown the ship they are robbing.</p><p>You will never rob the same ship twice.</p><p>Ships can be told apart from one another by the image on them.</p><p> Every time you see a ship, you will have to remember on which island you saw it.</p><p> Remembering correctly will help you win more bonus money!</p><p>A helpful strategy is to try to come up with a story of the object on the ship interacting with the current island scene.</p><p> For example, here, you could imagine a mug full of water in the desert. </p><p>For a ship with an apple on it on the forest island, you could imagine an apple falling from a tree in the forest.</p><p><img src='run_exp/static/images/tutorial/example_probe.png' height='500'></p><p><b>[Press the space bar to continue]</b></p></div>","32","","","","","","","","","","","","","","","","","","",""
"","html-keyboard-response","33","90320","0.0-30.0-2.0","3927","<div class='center'><p>How good a pirate is at robbing ships will depend on the current island.</p><p> A pirate may have visited the island many times before and gained a lot of practice robbing ships there.</p><p>So, they're more likely to bring back gold coins than a pirate who has never visited this island before. </p><p><b>[Press the space bar to continue]</b></p></div>","32","","","","","","","","","","","","","","","","","","",""
"","html-keyboard-response","34","98524","0.0-30.0-3.0","8203.79999999702","<div class='center'><p>How good a pirate is at robbing ships can also change over the time spent on the island<p> Ships may hear from islanders about the pirates coming and will improve their protection against the attack. This may make it harder to rob them.</p><p> Ships may also become lazy and lower their protection. This may make it easier to rob them.</p><br><p>Things are always changing on the high seas! So, try your best to pay attention!</p><p><img src='run_exp/static/images/tutorial/contingency.png' height='500'></p><p><b>[Press the space bar to continue]</b></p></div>","32","","","","","","","","","","","","","","","","","","",""
"","html-keyboard-response","35","108646","0.0-30.0-4.0","10120.70000000298","<div class='center'><p>Let's go over the instructions quickly again.You have two important things to do: </p><b><p> 1. Pick the pirate who is the best at robbing ships on the current island.</p></b><b><p> 2. Remember on which island a ship was robbed.</p> </b><p>How much bonus money you make is based on both. </p><br><p>Let’s try a practice game. The game will start by showing you the pirates. First pick a pirate using the <b> 1, 2, 3 </b> buttons on your keyboard. When you are shown a ship, try to remember the island you’re on by making up a story.</p><p> You only have 3 seconds to pick a pirate, so please make a choice quickly! If you are too slow, you’ll have to wait a bit during the time out.</p><p> Don’t feel rushed, but please do try to make a choice every time.</p><p>This is just a practice game, so you’re not playing for money. </p><p> Good luck, remember press <b>'1'</b> to choose red beard, <b>'2'</b> to choose white beard, and <b>'3'</b> to choose black beard</p><p><b>[Press the space bar to begin the practice game]</b></p></div>","32","","","","","","","","","","","","","","","","","","",""
"","do_welcome","36","110156","0.0-30.0-5.0","null","","","","null","","","","","","","","","","","","","","","","",""
"","do_trial","37","116182","0.0-30.0-6.0","1507.9000000059605","","","","49","1,0,0","","","","","","","","","","","","","","","",""
"","html-keyboard-response","38","117193","0.0-31.0-0.0","null","<p></p>","null","","","","","","","","","","","","","","","","","","",""
"","do_trial","39","123551","0.0-31.0-1.0","1842.2999999970198","","","","50","1,1,0","","","","","","","","","","","","","","","",""
"","html-keyboard-response","40","124560","0.0-32.0-0.0","null","<p></p>","null","","","","","","","","","","","","","","","","","","",""
"","do_trial","41","130053","0.0-32.0-1.0","973.9000000059605","","","","51","1,0,1","","","","","","","","","","","","","","","",""
"","html-keyboard-response","42","131062","0.0-33.0-0.0","null","<p></p>","null","","","","","","","","","","","","","","","","","","",""
"","do_trial","43","136615","0.0-33.0-1.0","1041.9000000059605","","","","49","0,1,0","","","","","","","","","","","","","","","",""
"","html-keyboard-response","44","137627","0.0-34.0-0.0","null","<p></p>","null","","","","","","","","","","","","","","","","","","",""
"","do_trial","45","143551","0.0-34.0-1.0","1404.9000000059605","","","","50","1,0,0","","","","","","","","","","","","","","","",""
"","do_bye","46","145058","0.0-35.0-0.0","null","","","","null","","","","","","","","","","","","","","","","",""
"","do_travel","47","151064","0.0-35.0-1.0","null","","","","null","","","","","","","","","","","","","","","","",""
"","do_welcome","48","152573","0.0-35.0-2.0","null","","","","null","","","","","","","","","","","","","","","","",""
"","do_trial","49","157951","0.0-35.0-3.0","873.0999999940395","","","","49","1,0,0","","","","","","","","","","","","","","","",""
"","html-keyboard-response","50","158959","0.0-36.0-0.0","null","<p></p>","null","","","","","","","","","","","","","","","","","","",""
"","do_trial","51","164053","0.0-36.0-1.0","585.3000000119209","","","","50","1,0,1","","","","","","","","","","","","","","","",""
"","html-keyboard-response","52","165065","0.0-37.0-0.0","null","<p></p>","null","","","","","","","","","","","","","","","","","","",""
"","do_trial","53","170054","0.0-37.0-1.0","483.5","","","","51","1,1,0","","","","","","","","","","","","","","","",""
"","html-keyboard-response","54","171065","0.0-38.0-0.0","null","<p></p>","null","","","","","","","","","","","","","","","","","","",""
"","do_trial","55","175899","0.0-38.0-1.0","329.90000000596046","","","","49","0,0,1","","","","","","","","","","","","","","","",""
"","html-keyboard-response","56","176910","0.0-39.0-0.0","null","<p></p>","null","","","","","","","","","","","","","","","","","","",""
"","do_trial","57","182266","0.0-39.0-1.0","846","","","","50","1,0,1","","","","","","","","","","","","","","","",""
"","html-keyboard-response","58","184801","0.0-40.0-0.0","2533.5","<div class='center'><p><img src='run_exp/static/images/tutorial/prac_best_pirate.png'  height='500'></p></div>","49","","","","","","","","","","","","","","","","","","",""
"","html-keyboard-response","59","185932","0.0-41.0-0.0","1130.4000000059605","<div class='center'><p>That's correct! Red beard was the best.</p><p><b>[Press the space bar to continue]</b></p></div>","32","","","","","","","","","","","","","","","","","","",""
"","html-keyboard-response","60","188383","0.0-41.0-1.0","2450","<div class='center'><p><img src='run_exp/static/images/tutorial/prac_source.png'  height='500'></p></div>","50","","","","","","","","","","","","","","","","","","",""
"","html-keyboard-response","61","189410","0.0-42.0-0.0","1027","<div class='center'><p>That's correct! You saw this ship on the cavern island.</p><p><b>[Press the space bar to continue]</b></p></div>","32","","","","","","","","","","","","","","","","","","",""
"","html-keyboard-response","62","193287","0.0-42.0-1.0","3876.5","<div class='center'><p>Good job on the practice game! Now, you will be asked you some true or false questions to make sure you really understand the rules of the game.</p><p> Press <b>'1'</b> on the keyboard for true and press <b>'2'</b> for false.</p><p><b>[Press the space bar to begin the quiz]</b></p></div>","32","","","","","","","","","","","","","","","","","","",""
"","html-keyboard-response","63","200818","0.0-42.0-2.0","7530.5","<div class='center'><p>You win bonus money by making choices as fast as possible.</p><p>Press 1 for true and press  2 for false.</p></div>","49","","","","","","","","","","","","","","","","","","",""
"","html-keyboard-response","64","202293","0.0-43.0-0.0","1474.2000000029802","<<div class='center'><p>That’s incorrect! You win bonus money by collecting as many gold coins as possible!</p><p><b>[press the space bar to continue with the quiz]</b></p></div>","32","","","","","","","","","","","","","","","","","","",""
"","html-keyboard-response","65","208865","0.0-43.0-1.0","6572.399999991059","<div class='center'><p>You press the <b>‘3’</b> button on the keyboard to choose the red bearded pirate. </p><p>Press 1 for true and press  2 for false.</p></div>","49","","","","","","","","","","","","","","","","","","",""
"","html-keyboard-response","66","210813","0.0-44.0-0.0","1946.7000000029802","<div class='center'><p>That’s incorrect! You press the <b>‘1’</b> button to choose the red bearded pirate!</p><p><b>[press the space bar to continue with the quiz]</b></p></div>","32","","","","","","","","","","","","","","","","","","",""
"","html-keyboard-response","67","212964","0.0-44.0-1.0","2151.2000000029802","<div class='center'><p>The pirate who is the best at robbing ships on the first island will be the best on every other island.</p><p>Press 1 for true and press  2 for false.</p></div>","50","","","","","","","","","","","","","","","","","","",""
"","html-keyboard-response","68","213577","0.0-45.0-0.0","612.2999999970198","<div class='center'><p>That's correct!</p> <p><b>[press the space bar to continue with the quiz]</b></p></div>","32","","","","","","","","","","","","","","","","","","",""
"","html-keyboard-response","69","214762","0.0-45.0-1.0","1183.7999999970198","<div class='center'><p>You should remember the island where a pirate robbed a ship.</p><p>Press 1 for true and press  2 for false.</p></div>","50","","","","","","","","","","","","","","","","","","",""
"","html-keyboard-response","70","216338","0.0-46.0-0.0","1575.1000000089407","<div class='center'><p>That’s incorrect! You should remember the island where a pirate robbed a ship. You can try associating the object on the ship with the island to better remember.</p><p><b>[press the space bar to continue with the quiz]</b></p></div>","32","","","","","","","","","","","","","","","","","","",""
"","html-keyboard-response","71","219134","0.0-47.0-0.0","2795.7000000029802","<div class='center'><p>Oops, you missed some questions. Now that you’ve heard the correct answers. Try the quiz again! If you fail the quiz too many times, you won’t be able to do the experiment. </p> <p><br>[press the space bar to repeat the quiz]</br></p></div>","32","","","","","","","","","","","","","","","","","","",""
"","html-keyboard-response","72","221814","0.0-47.0-1.0","2678.5999999940395","<div class='center'><p>You win bonus money by making choices as fast as possible.</p><p>Press 1 for true and press  2 for false.</p></div>","49","","","","","","","","","","","","","","","","","","",""
"","html-keyboard-response","73","223339","0.0-48.0-0.0","1525.2000000029802","<<div class='center'><p>That’s incorrect! You win bonus money by collecting as many gold coins as possible!</p><p><b>[press the space bar to continue with the quiz]</b></p></div>","32","","","","","","","","","","","","","","","","","","",""
"","html-keyboard-response","74","226139","0.0-48.0-1.0","2799.199999988079","<div class='center'><p>You press the <b>‘3’</b> button on the keyboard to choose the red bearded pirate. </p><p>Press 1 for true and press  2 for false.</p></div>","50","","","","","","","","","","","","","","","","","","",""
"","html-keyboard-response","75","226830","0.0-49.0-0.0","690.4000000059605","<div class='center'><p>That's correct!</p> <p><b>[press the space bar to continue with the quiz]</b></p></div>","32","","","","","","","","","","","","","","","","","","",""
"","html-keyboard-response","76","230329","0.0-49.0-1.0","3498.199999988079","<div class='center'><p>The pirate who is the best at robbing ships on the first island will be the best on every other island.</p><p>Press 1 for true and press  2 for false.</p></div>","50","","","","","","","","","","","","","","","","","","",""
"","html-keyboard-response","77","230757","0.0-50.0-0.0","428.1000000089407","<div class='center'><p>That's correct!</p> <p><b>[press the space bar to continue with the quiz]</b></p></div>","32","","","","","","","","","","","","","","","","","","",""
"","html-keyboard-response","78","232194","0.0-50.0-1.0","1436.4000000059605","<div class='center'><p>You should remember the island where a pirate robbed a ship.</p><p>Press 1 for true and press  2 for false.</p></div>","49","","","","","","","","","","","","","","","","","","",""
"","html-keyboard-response","79","232586","0.0-51.0-0.0","391.3999999910593","<div class='center'><p>That's correct!</p> <p><b>[press the space bar to continue with the quiz]</b></p></div>","32","","","","","","","","","","","","","","","","","","",""
"","html-keyboard-response","80","234294","0.0-52.0-0.0","1707.4000000059605","<div class='center'><p>Oops, you missed some questions. Now that you’ve heard the correct answers. Try the quiz again! If you fail the quiz too many times, you won’t be able to do the experiment. </p> <p><br>[press the space bar to repeat the quiz]</br></p></div>","32","","","","","","","","","","","","","","","","","","",""
"","html-keyboard-response","81","235574","0.0-52.0-1.0","1279.8999999910593","<div class='center'><p>You win bonus money by making choices as fast as possible.</p><p>Press 1 for true and press  2 for false.</p></div>","50","","","","","","","","","","","","","","","","","","",""
"","html-keyboard-response","82","235963","0.0-53.0-0.0","388.19999998807907","<div class='center'><p>That's correct!</p> <p><b>[press the space bar to continue with the quiz]</b></p></div>","32","","","","","","","","","","","","","","","","","","",""
"","html-keyboard-response","83","237171","0.0-53.0-1.0","1207.1000000089407","<div class='center'><p>You press the <b>‘3’</b> button on the keyboard to choose the red bearded pirate. </p><p>Press 1 for true and press  2 for false.</p></div>","50","","","","","","","","","","","","","","","","","","",""
"","html-keyboard-response","84","237525","0.0-54.0-0.0","354","<div class='center'><p>That's correct!</p> <p><b>[press the space bar to continue with the quiz]</b></p></div>","32","","","","","","","","","","","","","","","","","","",""
"","html-keyboard-response","85","239125","0.0-54.0-1.0","1599.4000000059605","<div class='center'><p>The pirate who is the best at robbing ships on the first island will be the best on every other island.</p><p>Press 1 for true and press  2 for false.</p></div>","50","","","","","","","","","","","","","","","","","","",""
"","html-keyboard-response","86","239443","0.0-55.0-0.0","317.79999999701977","<div class='center'><p>That's correct!</p> <p><b>[press the space bar to continue with the quiz]</b></p></div>","32","","","","","","","","","","","","","","","","","","",""
"","html-keyboard-response","87","240226","0.0-55.0-1.0","782.2000000029802","<div class='center'><p>You should remember the island where a pirate robbed a ship.</p><p>Press 1 for true and press  2 for false.</p></div>","49","","","","","","","","","","","","","","","","","","",""
"","html-keyboard-response","88","240453","0.0-56.0-0.0","221.29999999701977","<div class='center'><p>That's correct!</p> <p><b>[press the space bar to continue with the quiz]</b></p></div>","32","","","","","","","","","","","","","","","","","","",""
"","html-keyboard-response","89","241368","0.0-57.0-0.0","914.7999999970198","<div class='center'><p>Good job! You’re now ready to move on to the real game!</p> <p><br>[press the space bar to begin!]</br></p></div>","32","","","","","","","","","","","","","","","","","","",""
"","do_welcome","90","242876","0.0-58.0-0.0","null","","","","null","","","","","","","","","","","","","","","","",""
"","do_trial","91","248895","0.0-59.0-0.0","1467.7000000029802","","","","49","1,0,0","0","forest","0","probe-66","0.6","0.3","0.1","1","","","","","","","",""
"","html-keyboard-response","92","249905","0.0-59.0-1.0","null","<p></p>","null","","","","","","","","","","","","","","","","","","",""
"","do_trial","93","254645","0.0-60.0-0.0","191","","","","50","0,0,0","0","forest","1","probe-36","0.47937845845924976","0.2836926499773267","0.26835986996679617","0","","","","","","","",""
"","html-keyboard-response","94","255655","0.0-60.0-1.0","null","<p></p>","null","","","","","","","","","","","","","","","","","","",""
"","do_trial","95","260430","0.0-61.0-0.0","238.59999999403954","","","","51","0,0,1","0","forest","2","probe-20","0.5943146701350128","0.2722729757243944","0.1695450259645353","1","","","","","","","",""
"","html-keyboard-response","96","261440","0.0-61.0-1.0","null","<p></p>","null","","","","","","","","","","","","","","","","","","",""
"","do_trial","97","266212","0.0-62.0-0.0","229.20000000298023","","","","49","1,0,1","0","forest","3","probe-60","0.646333409627538","0.2726701962807129","0.12713264643563327","1","","","","","","","",""
"","html-keyboard-response","98","267222","0.0-62.0-1.0","null","<p></p>","null","","","","","","","","","","","","","","","","","","",""
"","do_trial","99","272167","0.0-63.0-0.0","396.20000000298023","","","","50","1,0,0","0","forest","4","probe-133","0.592578909434268","0.2168892830301033","0.054773808955180824","0","","","","","","","",""
"","html-keyboard-response","100","273178","0.0-63.0-1.0","null","<p></p>","null","","","","","","","","","","","","","","","","","","",""
"","do_trial","101","278014","0.0-64.0-0.0","293.09999999403954","","","","51","1,1,1","0","forest","5","probe-51","0.6875857491106456","0.31867148001546797","0.10216420967840219","1","","","","","","","",""
"","html-keyboard-response","102","279024","0.0-64.0-1.0","null","<p></p>","null","","","","","","","","","","","","","","","","","","",""
"","do_trial","103","284355","0.0-65.0-0.0","794.2000000029802","","","","51","1,1,0","0","forest","6","probe-70","0.6658632178030487","0.335361694150984","0.10904012529127112","0","","","","","","","",""
"","html-keyboard-response","104","285366","0.0-65.0-1.0","null","<p></p>","null","","","","","","","","","","","","","","","","","","",""
"","do_trial","105","290136","0.0-66.0-0.0","224.8999999910593","","","","51","1,0,0","0","forest","7","probe-106","0.7255143083012239","0.4613937328095047","0.0945288324511166","0","","","","","","","",""
"","html-keyboard-response","106","291146","0.0-66.0-1.0","null","<p></p>","null","","","","","","","","","","","","","","","","","","",""
"","do_trial","107","295866","0.0-67.0-0.0","185.09999999403954","","","","49","1,0,0","0","forest","8","probe-88","0.6405190892941702","0.4286246749197979","0.12310322031404082","1","","","","","","","",""
"","html-keyboard-response","108","296877","0.0-67.0-1.0","null","<p></p>","null","","","","","","","","","","","","","","","","","","",""
"","do_trial","109","301820","0.0-68.0-0.0","404.90000000596046","","","","49","1,0,0","0","forest","9","probe-62","0.7181979599555406","0.3726404766359161","0.22367743587220745","1","","","","","","","",""
"","html-keyboard-response","110","302829","0.0-68.0-1.0","null","<p></p>","null","","","","","","","","","","","","","","","","","","",""
"","do_trial","111","309932","0.0-69.0-0.0","2565.2999999970198","","","","50","1,0,0","0","forest","10","probe-228","0.6507717163916674","0.2746500361371573","0.10469520500332326","0","","","","","","","",""
"","html-keyboard-response","112","310941","0.0-69.0-1.0","null","<p></p>","null","","","","","","","","","","","","","","","","","","",""
"","do_trial","113","315887","0.0-70.0-0.0","400.79999999701977","","","","49","0,0,0","0","forest","11","probe-137","0.6231155326252241","0.32974284275483745","0.08366565960157842","0","","","","","","","",""
"","html-keyboard-response","114","316896","0.0-70.0-1.0","null","<p></p>","null","","","","","","","","","","","","","","","","","","",""
"","do_trial","115","321793","0.0-71.0-0.0","360.70000000298023","","","","49","1,0,0","0","forest","12","probe-153","0.6247110249806144","0.37938302296084303","0.13131311888156502","1","","","","","","","",""
"","html-keyboard-response","116","322804","0.0-71.0-1.0","null","<p></p>","null","","","","","","","","","","","","","","","","","","",""
"","do_trial","117","327629","0.0-72.0-0.0","276.20000000298023","","","","49","1,0,0","0","forest","13","probe-97","0.5045242173844691","0.3078750181451714","0.062411228451918745","1","","","","","","","",""
"","html-keyboard-response","118","328641","0.0-72.0-1.0","null","<p></p>","null","","","","","","","","","","","","","","","","","","",""
"","do_trial","119","333391","0.0-73.0-0.0","211.79999999701977","","","","49","0,1,0","0","forest","14","probe-141","0.5551576875718209","0.33251806445160126","0.06746516871820786","0","","","","","","","",""
"","html-keyboard-response","120","334399","0.0-73.0-1.0","null","<p></p>","null","","","","","","","","","","","","","","","","","","",""
"","do_trial","121","338935","0.0-74.0-0.0","0.09999999403953552","","","","50","1,0,0","0","forest","15","probe-67","0.5875021684491528","0.3114083844905296","0.12702588615768698","0","","","","","","","",""
"","html-keyboard-response","122","339946","0.0-74.0-1.0","null","<p></p>","null","","","","","","","","","","","","","","","","","","",""
"","do_trial","123","344712","0.0-75.0-0.0","215.1000000089407","","","","51","1,0,0","0","forest","16","probe-113","0.49772414527226216","0.27729018343009165","0.16039482109148878","0","","","","","","","",""
"","html-keyboard-response","124","345722","0.0-75.0-1.0","null","<p></p>","null","","","","","","","","","","","","","","","","","","",""
"","do_trial","125","350448","0.0-76.0-0.0","186.30000001192093","","","","49","1,0,1","0","forest","17","probe-114","0.5111275930783241","0.3571719853469938","0.18426244418533472","1","","","","","","","",""
"","html-keyboard-response","126","351460","0.0-76.0-1.0","null","<p></p>","null","","","","","","","","","","","","","","","","","","",""
"","do_trial","127","356511","0.0-77.0-0.0","512.5999999940395","","","","49","1,1,1","0","forest","18","probe-99","0.5088543847016993","0.2530515953873648","0.09577508865138999","1","","","","","","","",""
"","html-keyboard-response","128","357520","0.0-77.0-1.0","null","<p></p>","null","","","","","","","","","","","","","","","","","","",""
"","do_trial","129","362259","0.0-78.0-0.0","190.8999999910593","","","","50","0,1,0","0","forest","19","probe-140","0.5387138010729698","0.09957979085622974","0.0840660592897098","1","","","","","","","",""
"","html-keyboard-response","130","363268","0.0-78.0-1.0","null","<p></p>","null","","","","","","","","","","","","","","","","","","",""
"","do_trial","131","368104","0.0-79.0-0.0","296.29999999701977","","","","51","1,0,0","0","forest","20","probe-13","0.5425028799796504","0.1306082373910127","0.07430654143082537","0","","","","","","","",""
"","html-keyboard-response","132","369116","0.0-79.0-1.0","null","<p></p>","null","","","","","","","","","","","","","","","","","","",""
"","do_trial","133","373853","0.0-80.0-0.0","186","","","","49","0,1,0","0","forest","21","probe-04","0.49692781875185005","0.16065560755195663","0.21928858345479943","0","","","","","","","",""
"","html-keyboard-response","134","374861","0.0-80.0-1.0","null","<p></p>","null","","","","","","","","","","","","","","","","","","",""
"","do_trial","135","379568","0.0-81.0-0.0","156.90000000596046","","","","49","0,0,0","0","forest","22","probe-10","0.5896182522620473","0.1525702962871273","0.17651011442371858","0","","","","","","","",""
"","html-keyboard-response","136","380579","0.0-81.0-1.0","null","<p></p>","null","","","","","","","","","","","","","","","","","","",""
"","do_trial","137","385305","0.0-82.0-0.0","179.3999999910593","","","","51","0,0,1","0","forest","23","probe-101","0.619259261612762","0.11126962772752799","0.20928128595222809","1","","","","","","","",""
"","html-keyboard-response","138","386319","0.0-82.0-1.0","null","<p></p>","null","","","","","","","","","","","","","","","","","","",""
"","do_trial","139","391308","0.0-83.0-0.0","446.6000000089407","","","","49","1,0,0","0","forest","24","probe-216","0.7152918262057457","0.26150376971211886","0.17746126944024038","1","","","","","","","",""
"","html-keyboard-response","140","392321","0.0-83.0-1.0","null","<p></p>","null","","","","","","","","","","","","","","","","","","",""
"","do_trial","141","397183","0.0-84.0-0.0","317.90000000596046","","","","51","1,1,0","0","forest","25","probe-12","0.5497902355890751","0.27059984299271395","0.13837960222574178","0","","","","","","","",""
"","html-keyboard-response","142","398196","0.0-84.0-1.0","null","<p></p>","null","","","","","","","","","","","","","","","","","","",""
"","do_trial","143","403138","0.0-85.0-0.0","393","","","","50","1,1,0","0","forest","26","probe-188","0.5894465739340277","0.38467448200960613","0.12252573149732786","1","","","","","","","",""
"","html-keyboard-response","144","404146","0.0-85.0-1.0","null","<p></p>","null","","","","","","","","","","","","","","","","","","",""
"","do_trial","145","409106","0.0-86.0-0.0","414.8999999910593","","","","49","1,1,1","0","forest","27","probe-116","0.5696167721220026","0.3640397548501745","0.14158312362712697","1","","","","","","","",""
"","html-keyboard-response","146","410116","0.0-86.0-1.0","null","<p></p>","null","","","","","","","","","","","","","","","","","","",""
"","do_trial","147","414856","0.0-87.0-0.0","198.79999999701977","","","","50","1,1,0","0","forest","28","probe-127","0.5575982688817097","0.3993742909443107","0.1276941888739749","1","","","","","","","",""
"","html-keyboard-response","148","415866","0.0-87.0-1.0","null","<p></p>","null","","","","","","","","","","","","","","","","","","",""
"","do_trial","149","420575","0.0-88.0-0.0","167.19999998807907","","","","51","1,1,0","0","forest","29","probe-120","0.664278895573984","0.40236028843570204","0.06038893243433701","0","","","","","","","",""
"","html-keyboard-response","150","421586","0.0-88.0-1.0","null","<p></p>","null","","","","","","","","","","","","","","","","","","",""
"","do_bye","151","423092","0.0-89.0-0.0","null","","","","null","","","","","","","","","","","","","","","","",""
"","do_travel","152","429105","0.0-90.0-0.0","null","","","","null","","","","","","","","","","","","","","","","",""
"","do_welcome","153","430616","0.0-90.0-1.0","null","","","","null","","","","","","","","","","","","","","","","",""
"","do_trial","154","435622","0.0-91.0-0.0","460.70000000298023","","","","49","1,0,0","1","coast","30","probe-26","1","0.3982289539902746","0.06918943797471015","1","","","","","","","",""
"","html-keyboard-response","155","436633","0.0-91.0-1.0","null","<p></p>","null","","","","","","","","","","","","","","","","","","",""
"","do_trial","156","441559","0.0-92.0-0.0","380.09999999403954","","","","50","1,0,0","1","coast","31","probe-09","1","0.3980259206645518","0.08151031638562507","0","","","","","","","",""
"","html-keyboard-response","157","442570","0.0-92.0-1.0","null","<p></p>","null","","","","","","","","","","","","","","","","","","",""
"","do_trial","158","447307","0.0-93.0-0.0","197.59999999403954","","","","51","1,1,0","1","coast","32","probe-17","1","0.2597799051041254","0.07547235982911364","0","","","","","","","",""
"","html-keyboard-response","159","448317","0.0-93.0-1.0","null","<p></p>","null","","","","","","","","","","","","","","","","","","",""
"","do_trial","160","452918","0.0-94.0-0.0","64.59999999403954","","","","49","1,0,0","1","coast","33","probe-146","0.8938560620784979","0.2911610926598027","0.16952806212704316","1","","","","","","","",""
"","html-keyboard-response","161","453927","0.0-94.0-1.0","null","<p></p>","null","","","","","","","","","","","","","","","","","","",""
"","do_trial","162","458663","0.0-95.0-0.0","187.20000000298023","","","","50","1,0,0","1","coast","34","probe-202","0.8605225357484344","0.17050967079459212","0.1861270555541456","0","","","","","","","",""
"","html-keyboard-response","163","459671","0.0-95.0-1.0","null","<p></p>","null","","","","","","","","","","","","","","","","","","",""
"","do_trial","164","464210","0.0-96.0-0.0","0.09999999403953552","","","","51","1,0,0","1","coast","35","probe-83","0.7930243443686895","0.2296176921327086","0.12500477223610235","0","","","","","","","",""
"","html-keyboard-response","165","465218","0.0-96.0-1.0","null","<p></p>","null","","","","","","","","","","","","","","","","","","",""
"","do_trial","166","469847","0.0-97.0-0.0","89","","","","49","1,0,1","1","coast","36","probe-171","0.6550601322963944","0.26331490264653623","0.28114726263885537","1","","","","","","","",""
"","html-keyboard-response","167","470856","0.0-97.0-1.0","null","<p></p>","null","","","","","","","","","","","","","","","","","","",""
"","do_trial","168","475563","0.0-98.0-0.0","169.5","","","","50","1,0,0","1","coast","37","probe-76","0.6651023885485665","0.15005801270886654","0.21588453838118007","0","","","","","","","",""
"","html-keyboard-response","169","476572","0.0-98.0-1.0","null","<p></p>","null","","","","","","","","","","","","","","","","","","",""
"","do_trial","170","481284","0.0-99.0-0.0","163.6000000089407","","","","51","1,1,0","1","coast","38","probe-65","0.5635281101727733","0.1284169225172611","0.11558458783983072","0","","","","","","","",""
"","html-keyboard-response","171","482292","0.0-99.0-1.0","null","<p></p>","null","","","","","","","","","","","","","","","","","","",""
"","do_trial","172","486941","0.0-100.0-0.0","98.20000000298023","","","","49","1,0,0","1","coast","39","probe-187","0.6067102900732165","0.11895409703781816","0.17275904954583454","1","","","","","","","",""
"","html-keyboard-response","173","487952","0.0-100.0-1.0","null","<p></p>","null","","","","","","","","","","","","","","","","","","",""
"","do_trial","174","492567","0.0-101.0-0.0","72.8999999910593","","","","50","1,1,0","1","coast","40","probe-203","0.7077442580570472","0.1019022238727676","0.23283892269241666","1","","","","","","","",""
"","html-keyboard-response","175","493576","0.0-101.0-1.0","null","<p></p>","null","","","","","","","","","","","","","","","","","","",""
"","do_trial","176","498286","0.0-102.0-0.0","167.70000000298023","","","","51","1,0,0","1","coast","41","probe-211","0.6282460386823842","0.05916309023274041","0.31072693911308896","0","","","","","","","",""
"","html-keyboard-response","177","499296","0.0-102.0-1.0","null","<p></p>","null","","","","","","","","","","","","","","","","","","",""
"","do_trial","178","503958","0.0-103.0-0.0","123.90000000596046","","","","49","1,0,0","1","coast","42","probe-63","0.7117372824244403","0.08840003667236689","0.44131093293068857","1","","","","","","","",""
"","html-keyboard-response","179","504966","0.0-103.0-1.0","null","<p></p>","null","","","","","","","","","","","","","","","","","","",""
"","do_trial","180","509503","0.0-104.0-0.0","0","","","","50","1,0,1","1","coast","43","probe-71","0.46703630561879517","0.09726772550166275","0.5975067394428611","0","","","","","","","",""
"","html-keyboard-response","181","510513","0.0-104.0-1.0","null","<p></p>","null","","","","","","","","","","","","","","","","","","",""
"","do_trial","182","515331","0.0-105.0-0.0","267","","","","51","1,0,1","1","coast","44","probe-85","0.4002486252903152","0.058375215498620715","0.7336520455590381","1","","","","","","","",""
"","html-keyboard-response","183","516344","0.0-105.0-1.0","null","<p></p>","null","","","","","","","","","","","","","","","","","","",""
"","do_trial","184","522887","0.0-106.0-0.0","1994.2999999970198","","","","49","0,0,1","1","coast","45","probe-34","0.4288376594147955","0.052923327516724544","0.6568803888521445","0","","","","","","","",""
"","html-keyboard-response","185","523895","0.0-106.0-1.0","null","<p></p>","null","","","","","","","","","","","","","","","","","","",""
"","do_trial","186","528680","0.0-107.0-0.0","238.90000000596046","","","","50","0,0,1","1","coast","46","probe-95","0.3077914060400739","0.09492149609206349","0.6728016908464474","0","","","","","","","",""
"","html-keyboard-response","187","529691","0.0-107.0-1.0","null","<p></p>","null","","","","","","","","","","","","","","","","","","",""
"","do_trial","188","534389","0.0-108.0-0.0","148.29999999701977","","","","51","0,0,0","1","coast","47","probe-108","0.2636415691072069","0.07018884127478879","0.6138404114396897","0","","","","","","","",""
"","html-keyboard-response","189","535399","0.0-108.0-1.0","null","<p></p>","null","","","","","","","","","","","","","","","","","","",""
"","do_trial","190","540216","0.0-109.0-0.0","275.70000000298023","","","","49","0,0,1","1","coast","48","probe-104","0.13926719851457214","0.06294112506722953","0.4663884106587874","0","","","","","","","",""
"","html-keyboard-response","191","541227","0.0-109.0-1.0","null","<p></p>","null","","","","","","","","","","","","","","","","","","",""
"","do_trial","192","546199","0.0-110.0-0.0","424.70000000298023","","","","50","0,0,1","1","coast","49","probe-40","0.19038200348194195","0.11151905052827144","0.5229184173175337","0","","","","","","","",""
"","html-keyboard-response","193","547209","0.0-110.0-1.0","null","<p></p>","null","","","","","","","","","","","","","","","","","","",""
"","do_trial","194","551811","0.0-111.0-0.0","55.70000000298023","","","","51","0,0,1","1","coast","50","probe-182","0.2614918992687917","0.18568633906083182","0.6133446302752712","1","","","","","","","",""
"","html-keyboard-response","195","552821","0.0-111.0-1.0","null","<p></p>","null","","","","","","","","","","","","","","","","","","",""
"","do_trial","196","557545","0.0-112.0-0.0","179.6000000089407","","","","49","0,0,1","1","coast","51","probe-230","0.059746216601250776","0.19916224816889483","0.41231034005073086","0","","","","","","","",""
"","html-keyboard-response","197","558555","0.0-112.0-1.0","null","<p></p>","null","","","","","","","","","","","","","","","","","","",""
"","do_trial","198","563138","0.0-113.0-0.0","45.69999998807907","","","","50","0,0,1","1","coast","52","probe-35","0.05934138912580995","0.18396614830407515","0.6055841531869656","0","","","","","","","",""
"","html-keyboard-response","199","564149","0.0-113.0-1.0","null","<p></p>","null","","","","","","","","","","","","","","","","","","",""
"","do_trial","200","568968","0.0-114.0-0.0","272.79999999701977","","","","51","1,0,0","1","coast","53","probe-18","0.10833271653255512","0.16104000833071458","0.550793223496456","0","","","","","","","",""
"","html-keyboard-response","201","569979","0.0-114.0-1.0","null","<p></p>","null","","","","","","","","","","","","","","","","","","",""
"","do_trial","202","574515","0.0-115.0-0.0","0.20000000298023224","","","","49","0,0,1","1","coast","54","probe-75","0.2992417521419761","0.11105717069697853","0.5210328301629432","0","","","","","","","",""
"","html-keyboard-response","203","575527","0.0-115.0-1.0","null","<p></p>","null","","","","","","","","","","","","","","","","","","",""
"","do_trial","204","580763","0.0-116.0-0.0","690.5999999940395","","","","50","1,0,1","1","coast","55","probe-68","0.39700543478316297","0.059475913531576885","0.5003554404053423","0","","","","","","","",""
"","html-keyboard-response","205","581772","0.0-116.0-1.0","null","<p></p>","null","","","","","","","","","","","","","","","","","","",""
"","do_trial","206","586511","0.0-117.0-0.0","198.30000001192093","","","","51","0,1,1","1","coast","56","probe-23","0.37437860442988197","0.10005602978117435","0.5645856846877954","1","","","","","","","",""
"","html-keyboard-response","207","587523","0.0-117.0-1.0","null","<p></p>","null","","","","","","","","","","","","","","","","","","",""
"","do_trial","208","592324","0.0-118.0-0.0","252.09999999403954","","","","49","0,0,0","1","coast","57","probe-205","0.2572785781873293","0.11499854526168664","0.48431415812715845","0","","","","","","","",""
"","html-keyboard-response","209","593336","0.0-118.0-1.0","null","<p></p>","null","","","","","","","","","","","","","","","","","","",""
"","do_trial","210","597873","0.0-119.0-0.0","0.10000000894069672","","","","50","0,0,1","1","coast","58","probe-189","0.28620611751961866","0.13806548777958774","0.44359229646191367","0","","","","","","","",""
"","html-keyboard-response","211","598883","0.0-119.0-1.0","null","<p></p>","null","","","","","","","","","","","","","","","","","","",""
"","do_trial","212","603660","0.0-120.0-0.0","241.79999999701977","","","","51","0,0,1","1","coast","59","probe-64","0.2646438348178927","0.13491132543798112","0.4278143748925956","1","","","","","","","",""
"","html-keyboard-response","213","604672","0.0-120.0-1.0","null","<p></p>","null","","","","","","","","","","","","","","","","","","",""
"","do_trial","214","609864","0.0-121.0-0.0","652.4000000059605","","","","49","0,0,1","1","coast","60","probe-117","0.23978653987705106","0.13020421306351676","0.40074923149681213","0","","","","","","","",""
"","html-keyboard-response","215","610874","0.0-121.0-1.0","null","<p></p>","null","","","","","","","","","","","","","","","","","","",""
"","do_trial","216","615554","0.0-122.0-0.0","137.6000000089407","","","","50","0,0,1","1","coast","61","probe-102","0.10986864610657499","0.10039450122255937","0.4613254660826009","0","","","","","","","",""
"","html-keyboard-response","217","616565","0.0-122.0-1.0","null","<p></p>","null","","","","","","","","","","","","","","","","","","",""
"","do_trial","218","621635","0.0-123.0-0.0","525.2999999970198","","","","51","0,1,1","1","coast","62","probe-157","0.1119928261905099","0.09235214450579146","0.49673414183908043","1","","","","","","","",""
"","html-keyboard-response","219","622644","0.0-123.0-1.0","null","<p></p>","null","","","","","","","","","","","","","","","","","","",""
"","do_trial","220","627620","0.0-124.0-0.0","429.79999999701977","","","","49","0,0,1","1","coast","63","probe-218","0.16418575414676922","0.18959698386482998","0.5687801619260967","0","","","","","","","",""
"","html-keyboard-response","221","628631","0.0-124.0-1.0","null","<p></p>","null","","","","","","","","","","","","","","","","","","",""
"","do_trial","222","633678","0.0-125.0-0.0","507.59999999403954","","","","50","0,0,1","1","coast","64","probe-110","0.23624433954193513","0.10255134594811505","0.6041329932042012","0","","","","","","","",""
"","html-keyboard-response","223","634688","0.0-125.0-1.0","null","<p></p>","null","","","","","","","","","","","","","","","","","","",""
"","do_trial","224","639412","0.0-126.0-0.0","178.40000000596046","","","","51","0,0,1","1","coast","65","probe-77","0.31635423076994035","0.0709952705683144","0.5304264313701514","1","","","","","","","",""
"","html-keyboard-response","225","640420","0.0-126.0-1.0","null","<p></p>","null","","","","","","","","","","","","","","","","","","",""
"","do_trial","226","645006","0.0-127.0-0.0","35.79999999701977","","","","51","1,0,0","1","coast","66","probe-79","0.2227399552972346","0.060141861086886676","0.435702805640723","0","","","","","","","",""
"","html-keyboard-response","227","646015","0.0-127.0-1.0","null","<p></p>","null","","","","","","","","","","","","","","","","","","",""
"","do_trial","228","650963","0.0-128.0-0.0","409.5","","","","49","0,0,1","1","coast","67","probe-02","0.3366839634187933","0.0625430695609823","0.5621576442784767","0","","","","","","","",""
"","html-keyboard-response","229","651975","0.0-128.0-1.0","null","<p></p>","null","","","","","","","","","","","","","","","","","","",""
"","do_trial","230","657064","0.0-129.0-0.0","538.2000000029802","","","","50","0,0,1","1","coast","68","probe-78","0.29219378857957723","0.12354358875451939","0.6899906314075056","0","","","","","","","",""
"","html-keyboard-response","231","658074","0.0-129.0-1.0","null","<p></p>","null","","","","","","","","","","","","","","","","","","",""
"","do_trial","232","662624","0.0-130.0-0.0","0.09999999403953552","","","","51","0,0,1","1","coast","69","probe-184","0.33956512809919803","0.1583006697226288","0.7444236084693712","1","","","","","","","",""
"","html-keyboard-response","233","663635","0.0-130.0-1.0","null","<p></p>","null","","","","","","","","","","","","","","","","","","",""
"","do_bye","234","665147","0.0-131.0-0.0","null","","","","null","","","","","","","","","","","","","","","","",""
"","do_travel","235","671153","0.0-132.0-0.0","null","","","","null","","","","","","","","","","","","","","","","",""
"","do_welcome","236","672666","0.0-132.0-1.0","null","","","","null","","","","","","","","","","","","","","","","",""
"","do_trial","237","677683","0.0-133.0-0.0","467.6000000089407","","","","49","0,0,1","2","mountain","70","probe-174","0.23221481900286065","0.1840274350908175","1","0","","","","","","","",""
"","html-keyboard-response","238","678699","0.0-133.0-1.0","null","<p></p>","null","","","","","","","","","","","","","","","","","","",""
"","do_trial","239","683235","0.0-134.0-0.0","0","","","","50","0,0,1","2","mountain","71","probe-32","0.1382622312217655","0.06960424628806113","1","0","","","","","","","",""
"","html-keyboard-response","240","684245","0.0-134.0-1.0","null","<p></p>","null","","","","","","","","","","","","","","","","","","",""
"","do_trial","241","689117","0.0-135.0-0.0","322.30000001192093","","","","51","0,0,1","2","mountain","72","probe-119","0.186699182693609","0.09750267899790592","0.8981509742601531","1","","","","","","","",""
"","html-keyboard-response","242","690127","0.0-135.0-1.0","null","<p></p>","null","","","","","","","","","","","","","","","","","","",""
"","do_trial","243","694847","0.0-136.0-0.0","177","","","","51","1,0,0","2","mountain","73","probe-186","0.24057895869654697","0.1338166875198648","0.7991002915109533","0","","","","","","","",""
"","html-keyboard-response","244","695857","0.0-136.0-1.0","null","<p></p>","null","","","","","","","","","","","","","","","","","","",""
"","do_trial","245","700687","0.0-137.0-0.0","284.79999999701977","","","","51","0,0,0","2","mountain","74","probe-07","0.24186710160987093","0.07047186953079049","0.6464475325570848","0","","","","","","","",""
"","html-keyboard-response","246","701697","0.0-137.0-1.0","null","<p></p>","null","","","","","","","","","","","","","","","","","","",""
"","do_trial","247","706372","0.0-138.0-0.0","129.79999999701977","","","","50","0,1,1","2","mountain","75","probe-221","0.18853197892965243","0.11162912374603287","0.6429872520004649","1","","","","","","","",""
"","html-keyboard-response","248","707382","0.0-138.0-1.0","null","<p></p>","null","","","","","","","","","","","","","","","","","","",""
"","do_trial","249","712169","0.0-139.0-0.0","240.40000000596046","","","","49","0,0,0","2","mountain","76","probe-172","0.21177726069846212","0.13856448721474415","0.5902331350654987","0","","","","","","","",""
"","html-keyboard-response","250","713180","0.0-139.0-1.0","null","<p></p>","null","","","","","","","","","","","","","","","","","","",""
"","do_trial","251","717719","0.0-140.0-0.0","0.09999999403953552","","","","50","0,0,0","2","mountain","77","probe-73","0.24561562187745567","0.07783092425718456","0.6076658702072567","0","","","","","","","",""
"","html-keyboard-response","252","718728","0.0-140.0-1.0","null","<p></p>","null","","","","","","","","","","","","","","","","","","",""
"","do_trial","253","723312","0.0-141.0-0.0","33.79999999701977","","","","51","1,0,0","2","mountain","78","probe-214","0.2972788722919351","0.09986945097809134","0.565804863772842","0","","","","","","","",""
"","html-keyboard-response","254","724319","0.0-141.0-1.0","null","<p></p>","null","","","","","","","","","","","","","","","","","","",""
"","do_trial","255","729182","0.0-142.0-0.0","325","","","","49","0,0,0","2","mountain","79","probe-192","0.2719974242917329","0.05599635538212835","0.5341088699565456","0","","","","","","","",""
"","html-keyboard-response","256","730193","0.0-142.0-1.0","null","<p></p>","null","","","","","","","","","","","","","","","","","","",""
"","do_trial","257","734907","0.0-143.0-0.0","174.70000000298023","","","","50","0,0,0","2","mountain","80","probe-38","0.189906134923138","0.063202597196192","0.5802237258957271","0","","","","","","","",""
"","html-keyboard-response","258","735917","0.0-143.0-1.0","null","<p></p>","null","","","","","","","","","","","","","","","","","","",""
"","do_trial","259","740825","0.0-144.0-0.0","363.40000000596046","","","","51","0,0,1","2","mountain","81","probe-30","0.17983903417943672","0.056687283417675156","0.6140501625208314","1","","","","","","","",""
"","html-keyboard-response","260","741836","0.0-144.0-1.0","null","<p></p>","null","","","","","","","","","","","","","","","","","","",""
"","do_trial","261","748382","0.0-145.0-0.0","1999.7999999970198","","","","49","0,0,1","2","mountain","82","probe-45","0.3022333290204883","0.2051235935695652","0.462839733376265","0","","","","","","","",""
"","html-keyboard-response","262","749392","0.0-145.0-1.0","null","<p></p>","null","","","","","","","","","","","","","","","","","","",""
"","do_trial","263","754115","0.0-146.0-0.0","173.90000000596046","","","","50","0,0,0","2","mountain","83","probe-195","0.4918315644185012","0.1474997497159293","0.29281547271993746","0","","","","","","","",""
"","html-keyboard-response","264","755125","0.0-146.0-1.0","null","<p></p>","null","","","","","","","","","","","","","","","","","","",""
"","do_trial","265","760565","0.0-147.0-0.0","894.6000000089407","","","","49","0,0,0","2","mountain","84","probe-29","0.5316803362054732","0.1798023916787748","0.07780190873636493","0","","","","","","","",""
"","html-keyboard-response","266","761574","0.0-147.0-1.0","null","<p></p>","null","","","","","","","","","","","","","","","","","","",""
"","do_trial","267","766401","0.0-148.0-0.0","290.6000000089407","","","","51","1,0,0","2","mountain","85","probe-16","0.5503971294707081","0.14954986985088617","0.1687672693914924","0","","","","","","","",""
"","html-keyboard-response","268","767413","0.0-148.0-1.0","null","<p></p>","null","","","","","","","","","","","","","","","","","","",""
"","do_trial","269","773910","0.0-149.0-0.0","1953","","","","49","1,1,1","2","mountain","86","probe-87","0.5293821039224926","0.13363962020677247","0.1667910163523854","1","","","","","","","",""
"","html-keyboard-response","270","774919","0.0-149.0-1.0","null","<p></p>","null","","","","","","","","","","","","","","","","","","",""
"","do_trial","271","779860","0.0-150.0-0.0","398","","","","50","1,0,1","2","mountain","87","probe-138","0.703405143195751","0.07606395699143068","0.17505115142604882","0","","","","","","","",""
"","html-keyboard-response","272","780871","0.0-150.0-1.0","null","<p></p>","null","","","","","","","","","","","","","","","","","","",""
"","do_trial","273","785408","0.0-151.0-0.0","0","","","","51","1,0,0","2","mountain","88","probe-145","0.6908786805485922","0.26436629378766097","0.055146175211452264","0","","","","","","","",""
"","html-keyboard-response","274","786418","0.0-151.0-1.0","null","<p></p>","null","","","","","","","","","","","","","","","","","","",""
"","do_trial","275","791128","0.0-152.0-0.0","164.40000000596046","","","","50","0,0,1","2","mountain","89","probe-147","0.6461701442219503","0.36174534096288696","0.0902605843235214","0","","","","","","","",""
"","html-keyboard-response","276","792138","0.0-152.0-1.0","null","<p></p>","null","","","","","","","","","","","","","","","","","","",""
"","do_trial","277","796698","0.0-153.0-0.0","17.599999994039536","","","","49","1,1,0","2","mountain","90","probe-168","0.558242521303589","0.3989923506724108","0.053849392068357316","1","","","","","","","",""
"","html-keyboard-response","278","797699","0.0-153.0-1.0","null","<p></p>","null","","","","","","","","","","","","","","","","","","",""
"","do_trial","279","802776","0.0-154.0-0.0","541.5","","","","51","1,0,0","2","mountain","91","probe-200","0.4905402413722047","0.3385855105786494","0.08530131924217874","0","","","","","","","",""
"","html-keyboard-response","280","803789","0.0-154.0-1.0","null","<p></p>","null","","","","","","","","","","","","","","","","","","",""
"","do_trial","281","808406","0.0-155.0-0.0","70.79999999701977","","","","49","1,0,0","2","mountain","92","probe-226","0.5950991611397097","0.3901728194431118","0.0834181757299263","1","","","","","","","",""
"","html-keyboard-response","282","809416","0.0-155.0-1.0","null","<p></p>","null","","","","","","","","","","","","","","","","","","",""
"","do_trial","283","814187","0.0-156.0-0.0","225","","","","51","1,0,0","2","mountain","93","probe-115","0.6089234053831423","0.35428760233699746","0.17540622490843602","0","","","","","","","",""
"","html-keyboard-response","284","815195","0.0-156.0-1.0","null","<p></p>","null","","","","","","","","","","","","","","","","","","",""
"","do_trial","285","819935","0.0-157.0-0.0","200.29999999701977","","","","49","0,0,0","2","mountain","94","probe-86","0.5560349718044058","0.18323510898579087","0.10710164665866799","0","","","","","","","",""
"","html-keyboard-response","286","820946","0.0-157.0-1.0","null","<p></p>","null","","","","","","","","","","","","","","","","","","",""
"","do_trial","287","825559","0.0-158.0-0.0","66.70000000298023","","","","50","1,0,0","2","mountain","95","probe-118","0.48142755343291127","0.27771863167091115","0.11469006565355605","0","","","","","","","",""
"","html-keyboard-response","288","826569","0.0-158.0-1.0","null","<p></p>","null","","","","","","","","","","","","","","","","","","",""
"","do_trial","289","831609","0.0-159.0-0.0","503.69999998807907","","","","51","1,0,0","2","mountain","96","probe-173","0.5377889355332108","0.28456013448436035","0.09925757096994353","0","","","","","","","",""
"","html-keyboard-response","290","832620","0.0-159.0-1.0","null","<p></p>","null","","","","","","","","","","","","","","","","","","",""
"","do_trial","291","838769","0.0-160.0-0.0","1612.2999999970198","","","","50","1,0,1","2","mountain","97","probe-22","0.5316661906848504","0.21371352665995014","0.15336673744525559","0","","","","","","","",""
"","html-keyboard-response","292","839780","0.0-160.0-1.0","null","<p></p>","null","","","","","","","","","","","","","","","","","","",""
"","do_trial","293","844697","0.0-161.0-0.0","382.1000000089407","","","","49","1,0,0","2","mountain","98","probe-177","0.608262002389416","0.12784813194011402","0.058036615673325596","1","","","","","","","",""
"","html-keyboard-response","294","845706","0.0-161.0-1.0","null","<p></p>","null","","","","","","","","","","","","","","","","","","",""
"","do_trial","295","850555","0.0-162.0-0.0","305","","","","50","1,0,1","2","mountain","99","probe-33","0.5551197646978349","0.22919307988679818","0.07621323413307685","0","","","","","","","",""
"","html-keyboard-response","296","851566","0.0-162.0-1.0","null","<p></p>","null","","","","","","","","","","","","","","","","","","",""
"","do_trial","297","856530","0.0-163.0-0.0","424.5","","","","49","0,1,0","2","mountain","100","probe-74","0.5228192476787719","0.1834506120738163","0.0711610265215865","0","","","","","","","",""
"","html-keyboard-response","298","857539","0.0-163.0-1.0","null","<p></p>","null","","","","","","","","","","","","","","","","","","",""
"","do_trial","299","862369","0.0-164.0-0.0","286.29999999701977","","","","50","1,0,0","2","mountain","101","probe-37","0.3999757093500049","0.16577172901076914","0.0769666668129439","0","","","","","","","",""
"","html-keyboard-response","300","863377","0.0-164.0-1.0","null","<p></p>","null","","","","","","","","","","","","","","","","","","",""
"","do_trial","301","868819","0.0-165.0-0.0","904.2000000029802","","","","49","1,0,0","2","mountain","102","probe-158","0.4463413032404527","0.09650397620798253","0.07667065582953789","1","","","","","","","",""
"","html-keyboard-response","302","869829","0.0-165.0-1.0","null","<p></p>","null","","","","","","","","","","","","","","","","","","",""
"","do_trial","303","874477","0.0-166.0-0.0","101.79999999701977","","","","49","0,0,0","2","mountain","103","probe-92","0.4222775221492945","0.1666198177582989","0.05066052770504872","0","","","","","","","",""
"","html-keyboard-response","304","875488","0.0-166.0-1.0","null","<p></p>","null","","","","","","","","","","","","","","","","","","",""
"","do_trial","305","880258","0.0-167.0-0.0","220.80000001192093","","","","51","0,0,0","2","mountain","104","probe-160","0.3687314293406882","0.2771635925499604","0.06578547933926952","0","","","","","","","",""
"","html-keyboard-response","306","881268","0.0-167.0-1.0","null","<p></p>","null","","","","","","","","","","","","","","","","","","",""
"","do_trial","307","885964","0.0-168.0-0.0","152.90000000596046","","","","50","0,1,0","2","mountain","105","probe-144","0.5175489707898281","0.40440871506098924","0.09707756436327934","1","","","","","","","",""
"","html-keyboard-response","308","886976","0.0-168.0-1.0","null","<p></p>","null","","","","","","","","","","","","","","","","","","",""
"","do_trial","309","891563","0.0-169.0-0.0","50.8999999910593","","","","49","1,0,0","2","mountain","106","probe-164","0.5657179146474912","0.23972400583998338","0.05192751008183479","1","","","","","","","",""
"","html-keyboard-response","310","892572","0.0-169.0-1.0","null","<p></p>","null","","","","","","","","","","","","","","","","","","",""
"","do_trial","311","897535","0.0-170.0-0.0","422.19999998807907","","","","51","0,1,0","2","mountain","107","probe-167","0.48651267526527286","0.3875504364666532","0.1901430297802304","0","","","","","","","",""
"","html-keyboard-response","312","898546","0.0-170.0-1.0","null","<p></p>","null","","","","","","","","","","","","","","","","","","",""
"","do_trial","313","903533","0.0-171.0-0.0","441.70000000298023","","","","50","0,0,0","2","mountain","108","probe-212","0.5134863869579737","0.405815260508999","0.14300244299260553","0","","","","","","","",""
"","html-keyboard-response","314","904544","0.0-171.0-1.0","null","<p></p>","null","","","","","","","","","","","","","","","","","","",""
"","do_trial","315","911115","0.0-172.0-0.0","2031.5999999940395","","","","49","0,0,0","2","mountain","109","probe-159","0.5592292708709","0.37747790774398915","0.09431451637384458","0","","","","","","","",""
"","html-keyboard-response","316","912127","0.0-172.0-1.0","null","<p></p>","null","","","","","","","","","","","","","","","","","","",""
"","do_bye","317","913635","0.0-173.0-0.0","null","","","","null","","","","","","","","","","","","","","","","",""
"","do_travel","318","919649","0.0-174.0-0.0","null","","","","null","","","","","","","","","","","","","","","","",""
"","do_welcome","319","921157","0.0-174.0-1.0","null","","","","null","","","","","","","","","","","","","","","","",""
"","do_trial","320","926179","0.0-175.0-0.0","478.1000000089407","","","","49","1,1,0","3","city","110","probe-08","1","0.49321987741564677","0.058681310038932094","1","","","","","","","",""
"","html-keyboard-response","321","927189","0.0-175.0-1.0","null","<p></p>","null","","","","","","","","","","","","","","","","","","",""
"","do_trial","322","931729","0.0-176.0-0.0","0.10000000894069672","","","","50","1,1,0","3","city","111","probe-69","1","0.4117680125166253","0.2132894068723703","1","","","","","","","",""
"","html-keyboard-response","323","932741","0.0-176.0-1.0","null","<p></p>","null","","","","","","","","","","","","","","","","","","",""
"","do_trial","324","937403","0.0-177.0-0.0","118.19999998807907","","","","51","1,0,0","3","city","112","probe-178","0.8101314089961861","0.34401559872930826","0.14031299365132813","0","","","","","","","",""
"","html-keyboard-response","325","938414","0.0-177.0-1.0","null","<p></p>","null","","","","","","","","","","","","","","","","","","",""
"","do_trial","326","943074","0.0-178.0-0.0","115.69999998807907","","","","49","1,1,1","3","city","113","probe-206","0.7448469815357585","0.389929643354626","0.1657022538239477","1","","","","","","","",""
"","html-keyboard-response","327","944080","0.0-178.0-1.0","null","<p></p>","null","","","","","","","","","","","","","","","","","","",""
"","do_trial","328","948754","0.0-179.0-0.0","137.1000000089407","","","","50","0,0,0","3","city","114","probe-130","0.5918612300437085","0.24190708183707138","0.1893714919037183","0","","","","","","","",""
"","html-keyboard-response","329","949765","0.0-179.0-1.0","null","<p></p>","null","","","","","","","","","","","","","","","","","","",""
"","do_trial","330","954433","0.0-180.0-0.0","120.79999999701977","","","","51","0,0,0","3","city","115","probe-59","0.6533411738181514","0.24134163770495753","0.1057693500395469","0","","","","","","","",""
"","html-keyboard-response","331","955439","0.0-180.0-1.0","null","<p></p>","null","","","","","","","","","","","","","","","","","","",""
"","do_trial","332","960208","0.0-181.0-0.0","227.70000000298023","","","","49","0,0,0","3","city","116","probe-112","0.7864555498738345","0.24416536917301135","0.23696125326088427","0","","","","","","","",""
"","html-keyboard-response","333","961216","0.0-181.0-1.0","null","<p></p>","null","","","","","","","","","","","","","","","","","","",""
"","do_trial","334","966017","0.0-182.0-0.0","261.6000000089407","","","","50","0,1,0","3","city","117","probe-52","0.6538920710213322","0.19777879070640494","0.13531617236583496","1","","","","","","","",""
"","html-keyboard-response","335","967026","0.0-182.0-1.0","null","<p></p>","null","","","","","","","","","","","","","","","","","","",""
"","do_trial","336","973057","0.0-183.0-0.0","1493.1000000089407","","","","49","1,0,0","3","city","118","probe-136","0.7274038003630281","0.2533460735535633","0.06920828024357217","1","","","","","","","",""
"","html-keyboard-response","337","974066","0.0-183.0-1.0","null","<p></p>","null","","","","","","","","","","","","","","","","","","",""
"","do_trial","338","981371","0.0-184.0-0.0","2754","","","","49","0,0,0","3","city","119","probe-132","0.8237663876104769","0.25186021706267864","0.13918934547085038","0","","","","","","","",""
"","html-keyboard-response","339","982382","0.0-184.0-1.0","null","<p></p>","null","","","","","","","","","","","","","","","","","","",""
"","do_trial","340","987859","0.0-185.0-0.0","935.5","","","","51","0,0,0","3","city","120","probe-169","0.5795666209208264","0.38948436086570143","0.17297719074280363","0","","","","","","","",""
"","html-keyboard-response","341","988870","0.0-185.0-1.0","null","<p></p>","null","","","","","","","","","","","","","","","","","","",""
"","do_trial","342","993858","0.0-186.0-0.0","445.09999999403954","","","","50","1,0,1","3","city","121","probe-58","0.6110236166490163","0.3325573791049105","0.21353206365775979","0","","","","","","","",""
"","html-keyboard-response","343","994868","0.0-186.0-1.0","null","<p></p>","null","","","","","","","","","","","","","","","","","","",""
"","do_trial","344","1001037","0.0-187.0-0.0","1628.7000000029802","","","","50","1,0,1","3","city","122","probe-217","0.3495026363743719","0.37940878496288866","0.31137859217976416","0","","","","","","","",""
"","html-keyboard-response","345","1002047","0.0-187.0-1.0","null","<p></p>","null","","","","","","","","","","","","","","","","","","",""
"","do_trial","346","1006773","0.0-188.0-0.0","189.79999999701977","","","","49","0,1,0","3","city","123","probe-96","0.20148676275591337","0.48772045893882293","0.2909675923098821","0","","","","","","","",""
"","html-keyboard-response","347","1007782","0.0-188.0-1.0","null","<p></p>","null","","","","","","","","","","","","","","","","","","",""
"","do_trial","348","1012503","0.0-189.0-0.0","180","","","","51","0,0,0","3","city","124","probe-198","0.19275219657659792","0.618714220060742","0.26800033007908086","0","","","","","","","",""
"","html-keyboard-response","349","1013509","0.0-189.0-1.0","null","<p></p>","null","","","","","","","","","","","","","","","","","","",""
"","do_trial","350","1018109","0.0-190.0-0.0","54.20000000298023","","","","50","0,1,0","3","city","125","probe-123","0.1439832832815005","0.5626251557129734","0.20173689644482004","1","","","","","","","",""
"","html-keyboard-response","351","1019118","0.0-190.0-1.0","null","<p></p>","null","","","","","","","","","","","","","","","","","","",""
"","do_trial","352","1023889","0.0-191.0-0.0","231.40000000596046","","","","51","1,0,0","3","city","126","probe-154","0.12225776912220365","0.5318850957971816","0.2596433081279343","0","","","","","","","",""
"","html-keyboard-response","353","1024897","0.0-191.0-1.0","null","<p></p>","null","","","","","","","","","","","","","","","","","","",""
"","do_trial","354","1029545","0.0-192.0-0.0","105.30000001192093","","","","49","1,0,0","3","city","127","probe-89","0.23601488608717153","0.6264716149756899","0.3021474882832566","1","","","","","","","",""
"","html-keyboard-response","355","1030554","0.0-192.0-1.0","null","<p></p>","null","","","","","","","","","","","","","","","","","","",""
"","do_trial","356","1035307","0.0-193.0-0.0","218.1000000089407","","","","51","0,1,0","3","city","128","probe-170","0.10890111078063378","0.7800176817501137","0.17735482946518383","0","","","","","","","",""
"","html-keyboard-response","357","1036318","0.0-193.0-1.0","null","<p></p>","null","","","","","","","","","","","","","","","","","","",""
"","do_trial","358","1041116","0.0-194.0-0.0","259.29999999701977","","","","49","1,1,0","3","city","129","probe-176","0.10047667896863997","0.7579415552579947","0.219502622730866","1","","","","","","","",""
"","html-keyboard-response","359","1042128","0.0-194.0-1.0","null","<p></p>","null","","","","","","","","","","","","","","","","","","",""
"","do_trial","360","1046913","0.0-195.0-0.0","248.5","","","","50","0,1,0","3","city","130","probe-219","0.13266774591181332","0.6468372449485322","0.25096870311804387","1","","","","","","","",""
"","html-keyboard-response","361","1047923","0.0-195.0-1.0","null","<p></p>","null","","","","","","","","","","","","","","","","","","",""
"","do_trial","362","1052717","0.0-196.0-0.0","254.5","","","","51","0,1,1","3","city","131","probe-82","0.1882816963189958","0.5779621505070487","0.3268410325281756","1","","","","","","","",""
"","html-keyboard-response","363","1053728","0.0-196.0-1.0","null","<p></p>","null","","","","","","","","","","","","","","","","","","",""
"","do_trial","364","1058517","0.0-197.0-0.0","249.8999999910593","","","","49","0,0,0","3","city","132","probe-156","0.07258321954006894","0.4590666425895884","0.2915040842735903","0","","","","","","","",""
"","html-keyboard-response","365","1059525","0.0-197.0-1.0","null","<p></p>","null","","","","","","","","","","","","","","","","","","",""
"","do_trial","366","1064112","0.0-198.0-0.0","38","","","","50","0,0,0","3","city","133","probe-142","0.1653259284935018","0.3543238929673163","0.3951753994895244","0","","","","","","","",""
"","html-keyboard-response","367","1065121","0.0-198.0-1.0","null","<p></p>","null","","","","","","","","","","","","","","","","","","",""
"","do_trial","368","1070137","0.0-199.0-0.0","467.5","","","","51","0,1,1","3","city","134","probe-98","0.17911688660773845","0.403464834021467","0.4409282762186301","1","","","","","","","",""
"","html-keyboard-response","369","1071149","0.0-199.0-1.0","null","<p></p>","null","","","","","","","","","","","","","","","","","","",""
"","do_trial","370","1075777","0.0-200.0-0.0","92.40000000596046","","","","49","1,1,1","3","city","135","probe-215","0.15420425752717926","0.4984963100885302","0.47521436064901934","1","","","","","","","",""
"","html-keyboard-response","371","1076787","0.0-200.0-1.0","null","<p></p>","null","","","","","","","","","","","","","","","","","","",""
"","do_trial","372","1081727","0.0-201.0-0.0","391","","","","50","0,0,1","3","city","136","probe-213","0.08668296268716763","0.4808307321920108","0.323354826104718","0","","","","","","","",""
"","html-keyboard-response","373","1082737","0.0-201.0-1.0","null","<p></p>","null","","","","","","","","","","","","","","","","","","",""
"","do_trial","374","1087621","0.0-202.0-0.0","342.1000000089407","","","","51","1,0,1","3","city","137","probe-135","0.07757809915786988","0.49128680660727453","0.41868765155726684","1","","","","","","","",""
"","html-keyboard-response","375","1088631","0.0-202.0-1.0","null","<p></p>","null","","","","","","","","","","","","","","","","","","",""
"","do_trial","376","1093464","0.0-203.0-0.0","295.5","","","","49","0,1,1","3","city","138","probe-55","0.10826411160893379","0.6718532774917201","0.46787809428089555","0","","","","","","","",""
"","html-keyboard-response","377","1094476","0.0-203.0-1.0","null","<p></p>","null","","","","","","","","","","","","","","","","","","",""
"","do_trial","378","1099541","0.0-204.0-0.0","518.8999999910593","","","","50","0,1,1","3","city","139","probe-149","0.08719450006344698","0.6919577959118685","0.43667314559756265","1","","","","","","","",""
"","html-keyboard-response","379","1100552","0.0-204.0-1.0","null","<p></p>","null","","","","","","","","","","","","","","","","","","",""
"","do_trial","380","1105523","0.0-205.0-0.0","421.79999999701977","","","","49","0,1,0","3","city","140","probe-54","0.14052689375176175","0.7436563112102167","0.4684071757114659","0","","","","","","","",""
"","html-keyboard-response","381","1106532","0.0-205.0-1.0","null","<p></p>","null","","","","","","","","","","","","","","","","","","",""
"","do_trial","382","1111414","0.0-206.0-0.0","332.69999998807907","","","","49","0,1,1","3","city","141","probe-122","0.21231450607121283","0.6728208077467335","0.36446739376017684","0","","","","","","","",""
"","html-keyboard-response","383","1112422","0.0-206.0-1.0","null","<p></p>","null","","","","","","","","","","","","","","","","","","",""
"","do_trial","384","1117659","0.0-207.0-0.0","694.5999999940395","","","","50","0,1,1","3","city","142","probe-31","0.16303468550509642","0.40992128626752616","0.3632855729425651","1","","","","","","","",""
"","html-keyboard-response","385","1118668","0.0-207.0-1.0","null","<p></p>","null","","","","","","","","","","","","","","","","","","",""
"","do_trial","386","1123826","0.0-208.0-0.0","613.6000000089407","","","","51","0,0,0","3","city","143","probe-21","0.11966248777437573","0.6275756802204951","0.37996454078600184","0","","","","","","","",""
"","html-keyboard-response","387","1124837","0.0-208.0-1.0","null","<p></p>","null","","","","","","","","","","","","","","","","","","",""
"","do_trial","388","1129620","0.0-209.0-0.0","245.29999999701977","","","","50","0,1,0","3","city","144","probe-50","0.05507493477764065","0.7365394064678012","0.30750161251918046","1","","","","","","","",""
"","html-keyboard-response","389","1130628","0.0-209.0-1.0","null","<p></p>","null","","","","","","","","","","","","","","","","","","",""
"","do_trial","390","1135491","0.0-210.0-0.0","324.20000000298023","","","","49","1,1,0","3","city","145","probe-166","0.11479207115387344","0.766160660374793","0.15576507098612774","1","","","","","","","",""
"","html-keyboard-response","391","1136503","0.0-210.0-1.0","null","<p></p>","null","","","","","","","","","","","","","","","","","","",""
"","do_trial","392","1141380","0.0-211.0-0.0","337.5","","","","50","0,1,0","3","city","146","probe-57","0.13101114915648063","0.7364921847445887","0.2791999482721388","1","","","","","","","",""
"","html-keyboard-response","393","1142387","0.0-211.0-1.0","null","<p></p>","null","","","","","","","","","","","","","","","","","","",""
"","do_trial","394","1147341","0.0-212.0-0.0","408.29999999701977","","","","49","0,1,1","3","city","147","probe-197","0.1031276054469713","0.7982785705890058","0.32044121074425114","0","","","","","","","",""
"","html-keyboard-response","395","1148352","0.0-212.0-1.0","null","<p></p>","null","","","","","","","","","","","","","","","","","","",""
"","do_trial","396","1153072","0.0-213.0-0.0","179.5","","","","51","0,1,1","3","city","148","probe-84","0.17324218741688296","0.794772620544195","0.13194425902883514","1","","","","","","","",""
"","html-keyboard-response","397","1154081","0.0-213.0-1.0","null","<p></p>","null","","","","","","","","","","","","","","","","","","",""
"","do_trial","398","1158822","0.0-214.0-0.0","192.90000000596046","","","","49","0,1,0","3","city","149","probe-14","0.1218301152913691","0.7437954681852966","0.12855364770872973","0","","","","","","","",""
"","html-keyboard-response","399","1159834","0.0-214.0-1.0","null","<p></p>","null","","","","","","","","","","","","","","","","","","",""
"","do_bye","400","1161342","0.0-215.0-0.0","null","","","","null","","","","","","","","","","","","","","","","",""
"","do_travel","401","1167354","0.0-216.0-0.0","null","","","","null","","","","","","","","","","","","","","","","",""
"","do_welcome","402","1168866","0.0-216.0-1.0","null","","","","null","","","","","","","","","","","","","","","","",""
"","do_trial","403","1173904","0.0-217.0-0.0","501.90000000596046","","","","51","0,1,0","4","countryside","150","probe-105","0.08484659436878275","1","0.08342524451335263","0","","","","","","","",""
"","html-keyboard-response","404","1174915","0.0-217.0-1.0","null","<p></p>","null","","","","","","","","","","","","","","","","","","",""
"","do_trial","405","1179654","0.0-218.0-0.0","200.79999999701977","","","","51","0,1,0","4","countryside","151","probe-24","0.1074341164185344","1","0.3310062916336799","0","","","","","","","",""
"","html-keyboard-response","406","1180657","0.0-218.0-1.0","null","<p></p>","null","","","","","","","","","","","","","","","","","","",""
"","do_trial","407","1185603","0.0-219.0-0.0","411.09999999403954","","","","51","0,1,0","4","countryside","152","probe-175","0.0960950386846443","0.7189632820941574","0.37918180109113786","0","","","","","","","",""
"","html-keyboard-response","408","1186611","0.0-219.0-1.0","null","<p></p>","null","","","","","","","","","","","","","","","","","","",""
"","do_trial","409","1191194","0.0-220.0-0.0","33.599999994039536","","","","51","0,1,0","4","countryside","153","probe-220","0.07530193957304408","0.6853879825996935","0.30764988061588905","0","","","","","","","",""
"","html-keyboard-response","410","1192202","0.0-220.0-1.0","null","<p></p>","null","","","","","","","","","","","","","","","","","","",""
"","do_trial","411","1196850","0.0-221.0-0.0","103.80000001192093","","","","51","0,1,0","4","countryside","154","probe-46","0.09341124448474432","0.5130359296874394","0.3890801972234141","0","","","","","","","",""
"","html-keyboard-response","412","1197859","0.0-221.0-1.0","null","<p></p>","null","","","","","","","","","","","","","","","","","","",""
"","do_trial","413","1202668","0.0-222.0-0.0","267.40000000596046","","","","51","0,1,1","4","countryside","155","probe-06","0.06306228858601313","0.5078470922487471","0.38286460407007156","1","","","","","","","",""
"","html-keyboard-response","414","1203677","0.0-222.0-1.0","null","<p></p>","null","","","","","","","","","","","","","","","","","","",""
"","do_trial","415","1208293","0.0-223.0-0.0","77.5","","","","51","0,1,0","4","countryside","156","probe-161","0.12580733636618435","0.7417351020544863","0.26705318268734757","0","","","","","","","",""
"","html-keyboard-response","416","1209303","0.0-223.0-1.0","null","<p></p>","null","","","","","","","","","","","","","","","","","","",""
"","do_trial","417","1214495","0.0-224.0-0.0","650.2999999970198","","","","51","0,1,1","4","countryside","157","probe-124","0.07892061275346221","0.6908231956556016","0.26853574783137646","1","","","","","","","",""
"","html-keyboard-response","418","1215506","0.0-224.0-1.0","null","<p></p>","null","","","","","","","","","","","","","","","","","","",""
"","do_trial","419","1220211","0.0-225.0-0.0","159.20000000298023","","","","50","1,1,0","4","countryside","158","probe-209","0.14302323669232625","0.6263058139675273","0.37056439975717553","1","","","","","","","",""
"","html-keyboard-response","420","1221220","0.0-225.0-1.0","null","<p></p>","null","","","","","","","","","","","","","","","","","","",""
"","do_trial","421","1226725","0.0-226.0-0.0","960.5","","","","50","0,0,0","4","countryside","159","probe-185","0.2562015351134864","0.47670203491429525","0.21110719093292346","0","","","","","","","",""
"","html-keyboard-response","422","1227734","0.0-226.0-1.0","null","<p></p>","null","","","","","","","","","","","","","","","","","","",""
"","do_trial","423","1232380","0.0-227.0-0.0","99.5","","","","50","0,1,1","4","countryside","160","probe-44","0.2658711040760594","0.5992353386623173","0.29307732334259506","1","","","","","","","",""
"","html-keyboard-response","424","1233388","0.0-227.0-1.0","null","<p></p>","null","","","","","","","","","","","","","","","","","","",""
"","do_trial","425","1238266","0.0-228.0-0.0","341","","","","50","0,0,0","4","countryside","161","probe-94","0.25040813049636224","0.566434163089569","0.267520263897616","0","","","","","","","",""
"","html-keyboard-response","426","1239276","0.0-228.0-1.0","null","<p></p>","null","","","","","","","","","","","","","","","","","","",""
"","do_trial","427","1244358","0.0-229.0-0.0","538.7999999970198","","","","50","0,0,1","4","countryside","162","probe-181","0.15784947456095305","0.33803873841870397","0.4514105956585719","0","","","","","","","",""
"","html-keyboard-response","428","1245366","0.0-229.0-1.0","null","<p></p>","null","","","","","","","","","","","","","","","","","","",""
"","do_trial","429","1250295","0.0-230.0-0.0","392.90000000596046","","","","50","1,0,0","4","countryside","163","probe-05","0.26305661215836634","0.335802849573612","0.47050590622569133","0","","","","","","","",""
"","html-keyboard-response","430","1251306","0.0-230.0-1.0","null","<p></p>","null","","","","","","","","","","","","","","","","","","",""
"","do_trial","431","1256092","0.0-231.0-0.0","249","","","","50","0,0,1","4","countryside","164","probe-207","0.23737647758128513","0.22416815315985125","0.5657196463278947","0","","","","","","","",""
"","html-keyboard-response","432","1257103","0.0-231.0-1.0","null","<p></p>","null","","","","","","","","","","","","","","","","","","",""
"","do_trial","433","1262432","0.0-232.0-0.0","779.0999999940395","","","","50","0,0,1","4","countryside","165","probe-39","0.2050802499990462","0.19575636180032135","0.4585481625852897","0","","","","","","","",""
"","html-keyboard-response","434","1263442","0.0-232.0-1.0","null","<p></p>","null","","","","","","","","","","","","","","","","","","",""
"","do_trial","435","1268121","0.0-233.0-0.0","138.90000000596046","","","","50","0,0,0","4","countryside","166","probe-163","0.29658110744266586","0.18130926187562188","0.2922886397792149","0","","","","","","","",""
"","html-keyboard-response","436","1269133","0.0-233.0-1.0","null","<p></p>","null","","","","","","","","","","","","","","","","","","",""
"","do_trial","437","1273884","0.0-234.0-0.0","207.79999999701977","","","","49","0,0,1","4","countryside","167","probe-81","0.15783116706182831","0.13577543041929382","0.51215651027201","0","","","","","","","",""
"","html-keyboard-response","438","1274894","0.0-234.0-1.0","null","<p></p>","null","","","","","","","","","","","","","","","","","","",""
"","do_trial","439","1279855","0.0-235.0-0.0","423.3999999910593","","","","49","0,1,0","4","countryside","168","probe-196","0.27730567229277114","0.2826261664049126","0.5358591675556083","0","","","","","","","",""
"","html-keyboard-response","440","1280862","0.0-235.0-1.0","null","<p></p>","null","","","","","","","","","","","","","","","","","","",""
"","do_trial","441","1285635","0.0-236.0-0.0","235","","","","49","0,0,1","4","countryside","169","probe-162","0.23513842191671228","0.17728268053725632","0.5068183061394097","0","","","","","","","",""
"","html-keyboard-response","442","1286649","0.0-236.0-1.0","null","<p></p>","null","","","","","","","","","","","","","","","","","","",""
"","do_trial","443","1292226","0.0-237.0-0.0","1029.2000000029802","","","","49","1,0,1","4","countryside","170","probe-53","0.26803474605011285","0.17466896796368353","0.44467168107531174","1","","","","","","","",""
"","html-keyboard-response","444","1293235","0.0-237.0-1.0","null","<p></p>","null","","","","","","","","","","","","","","","","","","",""
"","do_trial","445","1299744","0.0-238.0-0.0","1963.8999999910593","","","","50","0,0,1","4","countryside","171","probe-183","0.17890185335298406","0.13577563332035117","0.516893412019869","0","","","","","","","",""
"","html-keyboard-response","446","1300755","0.0-238.0-1.0","null","<p></p>","null","","","","","","","","","","","","","","","","","","",""
"","do_trial","447","1306323","0.0-239.0-0.0","1028.199999988079","","","","50","0,0,1","4","countryside","172","probe-126","0.18907128215323218","0.06451486054555133","0.7462563457293703","0","","","","","","","",""
"","html-keyboard-response","448","1307332","0.0-239.0-1.0","null","<p></p>","null","","","","","","","","","","","","","","","","","","",""
"","do_trial","449","1312263","0.0-240.0-0.0","390.1000000089407","","","","51","0,0,0","4","countryside","173","probe-190","0.24088094675388733","0.07414641331922919","0.6368127393829865","0","","","","","","","",""
"","html-keyboard-response","450","1313275","0.0-240.0-1.0","null","<p></p>","null","","","","","","","","","","","","","","","","","","",""
"","do_trial","451","1319334","0.0-241.0-0.0","null","","","","null","0,0,0","4","countryside","174","probe-93","0.24266688184145283","0.11071658892256865","0.6112098347196327","","","","","","","","",""
"","html-keyboard-response","452","1320343","0.0-241.0-1.0","null","<p></p>","null","","","","","","","","","","","","","","","","","","",""
"","do_trial","453","1325084","0.0-242.0-0.0","205.70000000298023","","","","51","1,0,0","4","countryside","175","probe-25","0.3048147572869126","0.1826336203960738","0.6032676533817221","0","","","","","","","",""
"","html-keyboard-response","454","1326094","0.0-242.0-1.0","null","<p></p>","null","","","","","","","","","","","","","","","","","","",""
"","do_trial","455","1331411","0.0-243.0-0.0","776.1999999880791","","","","50","0,0,1","4","countryside","176","probe-111","0.2850624590501398","0.18155648258289808","0.7977678927015365","0","","","","","","","",""
"","html-keyboard-response","456","1332423","0.0-243.0-1.0","null","<p></p>","null","","","","","","","","","","","","","","","","","","",""
"","do_trial","457","1338480","0.0-244.0-0.0","null","","","","null","0,0,1","4","countryside","177","probe-90","0.4039805022793807","0.14625960784073713","0.6600569476238164","","","","","","","","",""
"","html-keyboard-response","458","1339490","0.0-244.0-1.0","null","<p></p>","null","","","","","","","","","","","","","","","","","","",""
"","do_trial","459","1344082","0.0-245.0-0.0","52.8999999910593","","","","51","1,0,1","4","countryside","178","probe-107","0.43150702887498865","0.29637512154835693","0.595434812508235","1","","","","","","","",""
"","html-keyboard-response","460","1345088","0.0-245.0-1.0","null","<p></p>","null","","","","","","","","","","","","","","","","","","",""
"","do_trial","461","1349702","0.0-246.0-0.0","71.5","","","","49","0,1,0","4","countryside","179","probe-11","0.3240241203569129","0.2141258505977234","0.6206300451042754","0","","","","","","","",""
"","html-keyboard-response","462","1350713","0.0-246.0-1.0","null","<p></p>","null","","","","","","","","","","","","","","","","","","",""
"","do_trial","463","1355577","0.0-247.0-0.0","317.20000000298023","","","","51","1,1,0","4","countryside","180","probe-103","0.3446988651602475","0.10319100604058885","0.6950761522668853","0","","","","","","","",""
"","html-keyboard-response","464","1356588","0.0-247.0-1.0","null","<p></p>","null","","","","","","","","","","","","","","","","","","",""
"","do_trial","465","1361452","0.0-248.0-0.0","327.40000000596046","","","","51","0,0,0","4","countryside","181","probe-109","0.41880949530687667","0.255812639229713","0.7437767618847032","0","","","","","","","",""
"","html-keyboard-response","466","1362461","0.0-248.0-1.0","null","<p></p>","null","","","","","","","","","","","","","","","","","","",""
"","do_trial","467","1367108","0.0-249.0-0.0","99.79999999701977","","","","49","1,0,1","4","countryside","182","probe-222","0.3412272520384274","0.12229115740256631","0.6042232260765887","1","","","","","","","",""
"","html-keyboard-response","468","1368117","0.0-249.0-1.0","null","<p></p>","null","","","","","","","","","","","","","","","","","","",""
"","do_trial","469","1372745","0.0-250.0-0.0","81.20000000298023","","","","51","0,1,1","4","countryside","183","probe-179","0.3054227335363192","0.34463305532893773","0.6517987150320559","1","","","","","","","",""
"","html-keyboard-response","470","1373756","0.0-250.0-1.0","null","<p></p>","null","","","","","","","","","","","","","","","","","","",""
"","do_trial","471","1379520","0.0-251.0-0.0","1228","","","","49","0,1,1","4","countryside","184","probe-61","0.23395408222141484","0.14455184941643057","0.6093798941834685","0","","","","","","","",""
"","html-keyboard-response","472","1380530","0.0-251.0-1.0","null","<p></p>","null","","","","","","","","","","","","","","","","","","",""
"","do_trial","473","1385538","0.0-252.0-0.0","469.09999999403954","","","","49","0,1,0","4","countryside","185","probe-180","0.47778018607312467","0.25527751016015254","0.5663297007774143","0","","","","","","","",""
"","html-keyboard-response","474","1386550","0.0-252.0-1.0","null","<p></p>","null","","","","","","","","","","","","","","","","","","",""
"","do_trial","475","1391165","0.0-253.0-0.0","75.5","","","","50","0,1,0","4","countryside","186","probe-194","0.37914853393982895","0.16645326488140097","0.4485902975308259","1","","","","","","","",""
"","html-keyboard-response","476","1392176","0.0-253.0-1.0","null","<p></p>","null","","","","","","","","","","","","","","","","","","",""
"","do_trial","477","1397331","0.0-254.0-0.0","608.8999999910593","","","","50","1,0,0","4","countryside","187","probe-128","0.33766870253376113","0.25664629437319136","0.5859376504168823","0","","","","","","","",""
"","html-keyboard-response","478","1398341","0.0-254.0-1.0","null","<p></p>","null","","","","","","","","","","","","","","","","","","",""
"","do_trial","479","1403020","0.0-255.0-0.0","133.20000000298023","","","","51","0,1,1","4","countryside","188","probe-224","0.3360129637253041","0.19900882534722542","0.539600260202088","1","","","","","","","",""
"","html-keyboard-response","480","1404030","0.0-255.0-1.0","null","<p></p>","null","","","","","","","","","","","","","","","","","","",""
"","do_trial","481","1409034","0.0-256.0-0.0","456.79999999701977","","","","50","0,0,0","4","countryside","189","probe-49","0.2697356367698373","0.16760352144551108","0.5869642256677884","0","","","","","","","",""
"","html-keyboard-response","482","1410042","0.0-256.0-1.0","null","<p></p>","null","","","","","","","","","","","","","","","","","","",""
"","do_bye","483","1411548","0.0-257.0-0.0","null","","","","null","","","","","","","","","","","","","","","","",""
"","do_travel","484","1417564","0.0-258.0-0.0","null","","","","null","","","","","","","","","","","","","","","","",""
"","do_welcome","485","1419076","0.0-258.0-1.0","null","","","","null","","","","","","","","","","","","","","","","",""
"","do_trial","486","1424321","0.0-259.0-0.0","697.5","","","","50","0,0,1","5","highway","190","probe-129","0.16395319819511842","0.15449068387173973","1","0","","","","","","","",""
"","html-keyboard-response","487","1425323","0.0-259.0-1.0","null","<p></p>","null","","","","","","","","","","","","","","","","","","",""
"","do_trial","488","1430156","0.0-260.0-0.0","289.1000000089407","","","","51","0,0,1","5","highway","191","probe-131","0.2695793431764571","0.21374584605005276","1","1","","","","","","","",""
"","html-keyboard-response","489","1431166","0.0-260.0-1.0","null","<p></p>","null","","","","","","","","","","","","","","","","","","",""
"","do_trial","490","1436376","0.0-261.0-0.0","668.1999999880791","","","","49","0,0,1","5","highway","192","probe-210","0.21492645235691182","0.15535169306061014","0.9406888859842026","0","","","","","","","",""
"","html-keyboard-response","491","1437385","0.0-261.0-1.0","null","<p></p>","null","","","","","","","","","","","","","","","","","","",""
"","do_trial","492","1442124","0.0-262.0-0.0","202.79999999701977","","","","51","0,0,1","5","highway","193","probe-155","0.3677286162156023","0.14665508631880958","0.8157658093252441","1","","","","","","","",""
"","html-keyboard-response","493","1443134","0.0-262.0-1.0","null","<p></p>","null","","","","","","","","","","","","","","","","","","",""
"","do_trial","494","1447671","0.0-263.0-0.0","0.09999999403953552","","","","49","0,0,1","5","highway","194","probe-152","0.3622003263384579","0.05908582460338172","0.8380318331425732","0","","","","","","","",""
"","html-keyboard-response","495","1448682","0.0-263.0-1.0","null","<p></p>","null","","","","","","","","","","","","","","","","","","",""
"","do_trial","496","1453643","0.0-264.0-0.0","418","","","","50","0,0,1","5","highway","195","probe-143","0.2818802239303992","0.17175410581167166","0.6173995620882816","0","","","","","","","",""
"","html-keyboard-response","497","1454653","0.0-264.0-1.0","null","<p></p>","null","","","","","","","","","","","","","","","","","","",""
"","do_trial","498","1459763","0.0-265.0-0.0","563","","","","51","0,0,1","5","highway","196","probe-193","0.3738500991100998","0.17267664130172897","0.4023626545157136","1","","","","","","","",""
"","html-keyboard-response","499","1460772","0.0-265.0-1.0","null","<p></p>","null","","","","","","","","","","","","","","","","","","",""
"","do_trial","500","1465415","0.0-266.0-0.0","93","","","","49","1,0,1","5","highway","197","probe-91","0.30585310251366393","0.2096033315560214","0.5607174210674486","1","","","","","","","",""
"","html-keyboard-response","501","1466424","0.0-266.0-1.0","null","<p></p>","null","","","","","","","","","","","","","","","","","","",""
"","do_trial","502","1471321","0.0-267.0-0.0","359.59999999403954","","","","51","0,0,0","5","highway","198","probe-229","0.25511650628726207","0.20102866987832366","0.731399313326422","0","","","","","","","",""
"","html-keyboard-response","503","1472331","0.0-267.0-1.0","null","<p></p>","null","","","","","","","","","","","","","","","","","","",""
"","do_trial","504","1477316","0.0-268.0-0.0","445.3999999910593","","","","49","0,0,1","5","highway","199","probe-56","0.2925814654979469","0.07804519883561697","0.7643006545074671","0","","","","","","","",""
"","html-keyboard-response","505","1478326","0.0-268.0-1.0","null","<p></p>","null","","","","","","","","","","","","","","","","","","",""
"","do_trial","506","1482927","0.0-269.0-0.0","55.70000000298023","","","","50","0,0,1","5","highway","200","probe-204","0.2729177085079928","0.129992318814253","0.7646732988199125","0","","","","","","","",""
"","html-keyboard-response","507","1483936","0.0-269.0-1.0","null","<p></p>","null","","","","","","","","","","","","","","","","","","",""
"","do_trial","508","1488686","0.0-270.0-0.0","198.20000000298023","","","","51","0,0,0","5","highway","201","probe-15","0.26656181982253896","0.1575917051995856","0.7486798273540529","0","","","","","","","",""
"","html-keyboard-response","509","1489698","0.0-270.0-1.0","null","<p></p>","null","","","","","","","","","","","","","","","","","","",""
"","do_trial","510","1494331","0.0-271.0-0.0","96.79999999701977","","","","50","1,1,1","5","highway","202","probe-03","0.22683308622330806","0.37873514890046756","0.6577533816445328","1","","","","","","","",""
"","html-keyboard-response","511","1495340","0.0-271.0-1.0","null","<p></p>","null","","","","","","","","","","","","","","","","","","",""
"","do_trial","512","1500136","0.0-272.0-0.0","256","","","","49","1,1,1","5","highway","203","probe-43","0.24255922217961687","0.47603272458292945","0.5996269497040635","1","","","","","","","",""
"","html-keyboard-response","513","1501146","0.0-272.0-1.0","null","<p></p>","null","","","","","","","","","","","","","","","","","","",""
"","do_trial","514","1505829","0.0-273.0-0.0","137.40000000596046","","","","51","0,1,1","5","highway","204","probe-48","0.15915237034423943","0.5232725854016229","0.5608750611078097","1","","","","","","","",""
"","html-keyboard-response","515","1506839","0.0-273.0-1.0","null","<p></p>","null","","","","","","","","","","","","","","","","","","",""
"","do_trial","516","1512856","0.0-274.0-0.0","1474.0999999940395","","","","49","0,0,0","5","highway","205","probe-151","0.1021816351695977","0.5266940886680744","0.3550756191832376","0","","","","","","","",""
"","html-keyboard-response","517","1513867","0.0-274.0-1.0","null","<p></p>","null","","","","","","","","","","","","","","","","","","",""
