"success","trial_type","trial_index","time_elapsed","internal_node_id","rt","stimulus","key_press","subject_id","participant_id","age","gender","prompt","response","choice_outcomes","context_n","context_img_id","trial_n","probe_img_id","pR_red","pR_white","pR_black","outcome","contextArray_ind","validImageProbes","invalidImageProbes","pRew_Red","pRew_White","pRew_Black","availableForMemProbe","choice_blocks"
"true","fullscreen","0","7086","0.0-0.0","","","","","","","","","","","","","","","","","","","","","","","","","",""
"","pavlovia","1","7091","0.0-1.0","","","","","","","","","","","","","","","","","","","","","","","","","",""
"","break","2","18922","0.0-2.0","11829.199999999255","<div class='center'><p>Time to take a quick break! You have 2 minutes to rest, but you can move on sooner if you'd like.</p><p> Press the <b>space bar</b> to continue.</p></div>","32","","","","","","","","","","","","","","","","","","","","","","",""
"","instruc1","3","75830","0.0-3.0","null","run_exp/static/audio/clip_1_welcome.m4a","null","55","18","8","Female","<div class='center'><p>Welcome! This is the first part of the experiment. It will last ~30 minutes. In this experiment, you are the head captain of a pirate ship traveling around the world to different islands. You will play a few different games during this experiment. Here is an overview of these games:</p><br><p>Part 1 (today)</p><p>1. Instructions, practice game, and quiz</p><p>2. Pick a pirate game on 6 different islands</p><br><p>Part 2 (1 day later)</p><p>3. Pick a pirate game and memory game</p><p>4. Where did I see this ship? game</p><p>5. Which pirate was the best? game</p><br><p>Part 3 (1 week later)</p><p>6. Alien space mining game</p><p>7. Memory game</p></div>","","","","","","","","","","","","","","","","","",""
"","html-keyboard-response","4","79208","0.0-4.0","3376.800000000745","<div class='center'><p>Welcome! This is the first part of the experiment. It will last ~30 minutes. In this experiment, you are the head captain of a pirate ship traveling around the world to different islands. You will play a few different games during this experiment. Here is an overview of these games:</p><br><p>Part 1 (today)</p><p>1. Instructions, practice game, and quiz</p><p>2. Pick a pirate game on 6 different islands</p><br><p>Part 2 (1 day later)</p><p>3. Pick a pirate game and memory game</p><p>4. Where did I see this ship? game</p><p>5. Which pirate was the best? game</p><br><p>Part 3 (1 week later)</p><p>6. Alien space mining game</p><p>7. Memory game</p><p><b>[Press the space bar to continue]</b></p></div>","32","","","","","","","","","","","","","","","","","","","","","","",""
"","instruc2","5","87413","0.0-5.0","null","run_exp/static/audio/clip_2_different_places.m4a","null","","","","","<div class='center'><p>Today, you’ll visit these 6 islands on your journey. You'll be able to see these islands from your ship.</p><p><img src='run_exp/static/images/contexts/all_contexts.png' height='500'></p></div>","","","","","","","","","","","","","","","","","",""
"","html-keyboard-response","6","89720","0.0-6.0","2305.699999999255","<div class='center'><p>Today, you’ll visit these 6 islands on your journey. You'll be able to see these islands from your ship.</p><p><img src='run_exp/static/images/contexts/all_contexts.png' height='500'></p><p><b>[Press the space bar to continue]</b></p></div>","32","","","","","","","","","","","","","","","","","","","","","","",""
"","instruc3","7","102496","0.0-7.0","null","run_exp/static/audio/clip_3_goal_of_game_1.m4a","null","","","","","<div class='center'><p> The pirates on your ship will rob other ships as they leave the island</p> These ships have just sold their things to people on the island, so they will be filled with lots and lots of gold.</p><p><img src='run_exp/static/images/tutorial/ship_center.png' height='400'></p></div>","","","","","","","","","","","","","","","","","",""
"","html-keyboard-response","8","103465","0.0-8.0","967.5","<div class='center'><p> The pirates on your ship will rob other ships as they leave the island</p> These ships have just sold their things to people on the island, so they will be filled with lots and lots of gold.</p><p><img src='run_exp/static/images/tutorial/ship_center.png' height='400'></p><p><b>[Press the space bar to continue]</b></p></div>","32","","","","","","","","","","","","","","","","","","","","","","",""
"","instruc4","9","136843","0.0-9.0","null","run_exp/static/audio/clip_4_goal_of_game_2.m4a","null","","","","","<div class='center'><p>As the head captain, you do not have to rob any ships yourself.</p><p>Another pirate will be doing the robbing for you. </p><p>First, you will  choose a pirate to rob the next ship.</p><p><img src='run_exp/static/images/tutorial/pirates_all_crop.png' height='200'></p><p>Then, you'll see if the pirate successfully robbed the ship of their gold. If they were successful, then you'll  get a stack of gold coins like this:</p><p><img src='run_exp/static/images/tutorial/reward.png' height='150'></p><p> If they were <b>not</b> successful, then you'll get no gold coins, and you'll see a big red x like this: </p><p><img src='run_exp/static/images/tutorial/reward_no.png' height='150'></p><p> How much bonus money you make is based on how many gold coins you collect.</p><div>","","","","","","","","","","","","","","","","","",""
"","html-keyboard-response","10","138697","0.0-10.0","1852.1000000014901","<div class='center'><p>As the head captain, you do not have to rob any ships yourself.</p><p>Another pirate will be doing the robbing for you. </p><p>First, you will  choose a pirate to rob the next ship.</p><p><img src='run_exp/static/images/tutorial/pirates_all_crop.png' height='200'></p><p>Then, you'll see if the pirate successfully robbed the ship of their gold. If they were successful, then you'll  get a stack of gold coins like this:</p><p><img src='run_exp/static/images/tutorial/reward.png' height='150'></p><p> If they were <b>not</b> successful, then you'll get no gold coins, and you'll see a big red x like this: </p><p><img src='run_exp/static/images/tutorial/reward_no.png' height='150'></p><p> How much bonus money you make is based on how many gold coins you collect.</p<p><b>[Press the space bar to continue]</b></p></div>","32","","","","","","","","","","","","","","","","","","","","","","",""
"","instruc5","11","166827","0.0-11.0","28129.099999997765","run_exp/static/audio/clip_5_probabilistic.m4a","49","","","","","<div class='center'><p>Even the most skilled pirate can not rob EVERY ship.</p><p> Some ships will have very strong protections against pirate attacks.</p><p> Blue beard, here, is very, very good at robbing ships, but he won't be successful every time he tries to rob one.</p><p> You can press the <b>‘1’</b> key on the keyboard to choose him.</p><p> Try choosing him 10 times to see how often he succeeds at robbing a ship. </p><p><img src='run_exp/static/images/tutorial/blue.png' height='500'></p></div>","","","","","","","","","","","","","","","","","",""
"","html-keyboard-response","12","168330","0.0-12.0","null","<div class='center'><p><img src='run_exp/static/images/tutorial/blue_win.png' height='500'></p></div>","null","","","","","","","","","","","","","","","","","","","","","","",""
"","html-keyboard-response","13","169660","0.0-13.0","1328.300000000745","<div class='center'><img src='run_exp/static/images/tutorial/blue.png' height='500'></p></div>","49","","","","","","","","","","","","","","","","","","","","","","",""
"","html-keyboard-response","14","171163","0.0-14.0","null","<div class='center'><p><img src='run_exp/static/images/tutorial/blue_win.png' height='500'></p></div>","null","","","","","","","","","","","","","","","","","","","","","","",""
"","html-keyboard-response","15","171189","0.0-15.0","25.400000002235174","<div class='center'><img src='run_exp/static/images/tutorial/blue.png' height='500'></p></div>","49","","","","","","","","","","","","","","","","","","","","","","",""
"","html-keyboard-response","16","172691","0.0-16.0","null","<div class='center'><p><img src='run_exp/static/images/tutorial/blue_win.png' height='500'></p></div>","null","","","","","","","","","","","","","","","","","","","","","","",""
"","html-keyboard-response","17","174097","0.0-17.0","1405","<div class='center'><img src='run_exp/static/images/tutorial/blue.png' height='500'></p></div>","49","","","","","","","","","","","","","","","","","","","","","","",""
"","html-keyboard-response","18","175601","0.0-18.0","null","<div class='center'><p><img src='run_exp/static/images/tutorial/blue_no_win.png' height='500'></p></div>","null","","","","","","","","","","","","","","","","","","","","","","",""
"","html-keyboard-response","19","175794","0.0-19.0","192.39999999850988","<div class='center'><img src='run_exp/static/images/tutorial/blue.png' height='500'></p></div>","49","","","","","","","","","","","","","","","","","","","","","","",""
"","html-keyboard-response","20","177299","0.0-20.0","null","<div class='center'><p><img src='run_exp/static/images/tutorial/blue_win.png' height='500'></p></div>","null","","","","","","","","","","","","","","","","","","","","","","",""
"","html-keyboard-response","21","178258","0.0-21.0","958.3999999985099","<div class='center'><img src='run_exp/static/images/tutorial/blue.png' height='500'></p></div>","49","","","","","","","","","","","","","","","","","","","","","","",""
"","html-keyboard-response","22","179764","0.0-22.0","null","<div class='center'><p><img src='run_exp/static/images/tutorial/blue_win.png' height='500'></p></div>","null","","","","","","","","","","","","","","","","","","","","","","",""
"","html-keyboard-response","23","179804","0.0-23.0","38.899999998509884","<div class='center'><img src='run_exp/static/images/tutorial/blue.png' height='500'></p></div>","49","","","","","","","","","","","","","","","","","","","","","","",""
"","html-keyboard-response","24","181307","0.0-24.0","null","<div class='center'><p><img src='run_exp/static/images/tutorial/blue_win.png' height='500'></p></div>","null","","","","","","","","","","","","","","","","","","","","","","",""
"","html-keyboard-response","25","181779","0.0-25.0","470.3999999985099","<div class='center'><img src='run_exp/static/images/tutorial/blue.png' height='500'></p></div>","49","","","","","","","","","","","","","","","","","","","","","","",""
"","html-keyboard-response","26","183284","0.0-26.0","null","<div class='center'><p><img src='run_exp/static/images/tutorial/blue_no_win.png' height='500'></p></div>","null","","","","","","","","","","","","","","","","","","","","","","",""
"","html-keyboard-response","27","184018","0.0-27.0","732.5","<div class='center'><img src='run_exp/static/images/tutorial/blue.png' height='500'></p></div>","49","","","","","","","","","","","","","","","","","","","","","","",""
"","html-keyboard-response","28","185519","0.0-28.0","null","<div class='center'><p><img src='run_exp/static/images/tutorial/blue_win.png' height='500'></p></div>","null","","","","","","","","","","","","","","","","","","","","","","",""
"","html-keyboard-response","29","186073","0.0-29.0","553.8999999985099","<div class='center'><img src='run_exp/static/images/tutorial/blue.png' height='500'></p></div>","49","","","","","","","","","","","","","","","","","","","","","","",""
"","html-keyboard-response","30","187579","0.0-30.0","null","<div class='center'><p><img src='run_exp/static/images/tutorial/blue_win.png' height='500'></p></div>","null","","","","","","","","","","","","","","","","","","","","","","",""
"","instruc6","31","195057","0.0-31.0","null","run_exp/static/audio/clip_6_blue_beard_outcome.m4a","null","","","","","<div class='center'><p> See, he succeeded in robbing the ships most of the time but not every time. </p></div>","","","","","","","","","","","","","","","","","",""
"","html-keyboard-response","32","196409","0.0-32.0","1351.199999999255","<div class='center'><p> See, he succeeded in robbing the ships most of the time but not every time. </p><p><b>[Press the space bar to continue]</b></p></div>","32","","","","","","","","","","","","","","","","","","","","","","",""
"","audio-keyboard-response","33","215356","0.0-33.0","18945.5","run_exp/static/audio/clip_7_pick_pirate.m4a","49","","","","","","","","","","","","","","","","","","","","","","",""
"","audio-keyboard-response","34","222610","0.0-34.0-0.0","7252.5","run_exp/static/audio/clip_8_chosen_pirate_win.m4a","32","","","","","","","","","","","","","","","","","","","","","","",""
"","audio-keyboard-response","35","225970","0.0-34.0-1.0","3358.300000000745","run_exp/static/audio/clip_9_pick_a_pirate_again.m4a","50","","","","","","","","","","","","","","","","","","","","","","",""
"","audio-keyboard-response","36","231530","0.0-35.0-0.0","5559","run_exp/static/audio/clip_10_chosen_pirate_loss.m4a","32","","","","","","","","","","","","","","","","","","","","","","",""
"","instruc9","37","238855","0.0-36.0-0.0","null","run_exp/static/audio/clip_11_time_out.m4a","null","","","","","<div class='center'><p>If you don’t make your choice fast enough, you’ll have to wait a few seconds before you can make another one. </p><p><img src='run_exp/static/images/miscellaneous/hurry_up.png' height='500'></p></div>","","","","","","","","","","","","","","","","","",""
"","html-keyboard-response","38","240195","0.0-36.0-1.0","1338.7999999970198","<div class='center'><p>If you don’t make your choice fast enough, you’ll have to wait a few seconds before you can make another one. </p><p><img src='run_exp/static/images/miscellaneous/hurry_up.png' height='500'></p><p><b>[Press the space bar to continue]</b></p></div>","32","","","","","","","","","","","","","","","","","","","","","","",""
"","instruc10","39","289031","0.0-36.0-2.0","null","run_exp/static/audio/clip_12_probe.m4a","null","","","","","<div class='center'><p>Once you've choose a pirate, you’ll be shown the ship they are robbing.</p><p>You will never rob the same ship twice. After all, ships that have already been robbed won’t have gold on them. </p><p>Ships can be told apart from one another by the image on them. See, this one has a travel mug on it. </p><p> You’ll have to remember which island you saw each ship on.You will win more bonus money if you remember correctly! To help you remember, you can imagine a story. For example, here, you could imagine a mug full of water in the desert. Or, as another example, if on the forest island, your pirate robbed a ship with an apple on it, you could imagine an apple falling from a tree in the forest. </p><p><img src='run_exp/static/images/tutorial/example_probe.png' height='500'></p></div>","","","","","","","","","","","","","","","","","",""
"","html-keyboard-response","40","292883","0.0-36.0-3.0","3850.699999999255","<div class='center'><p>Once you've choose a pirate, you’ll be shown the ship they are robbing.</p><p>You will never rob the same ship twice. After all, ships that have already been robbed won’t have gold on them. </p><p>Ships can be told apart from one another by the image on them. See, this one has a travel mug on it. </p><p> You’ll have to remember which island you saw each ship on.You will win more bonus money if you remember correctly! To help you remember, you can imagine a story. For example, here, you could imagine a mug full of water in the desert. Or, as another example, if on the forest island, your pirate robbed a ship with an apple on it, you could imagine an apple falling from a tree in the forest. </p><p><img src='run_exp/static/images/tutorial/example_probe.png' height='500'></p><p><b>[Press the space bar to continue]</b></p></div>","32","","","","","","","","","","","","","","","","","","","","","","",""
"","instruc11","41","313928","0.0-36.0-4.0","null","run_exp/static/audio/clip_13_changepoint.m4a","null","","","","","<div class='center'><p>How successful a pirate is at robbing ships will depend on the island you’re on.</p><p> A pirate may have visited this island many times before and gained a lot of practice robbing ships there.</p><p>So, they’re more likely to be successful than a pirate who has never visited the island before.</p></div>","","","","","","","","","","","","","","","","","",""
"","html-keyboard-response","42","315336","0.0-36.0-5.0","1407.199999999255","<div class='center'><p>How successful a pirate is at robbing ships will depend on the island you’re on.</p><p> A pirate may have visited this island many times before and gained a lot of practice robbing ships there.</p><p>So, they’re more likely to be successful than a pirate who has never visited the island before.</p><p><b>[Press the space bar to continue]</b></p></div>","32","","","","","","","","","","","","","","","","","","","","","","",""
"","instruc12","43","343560","0.0-36.0-6.0","null","run_exp/static/audio/clip_14_drift.m4a","null","","","","","<div class='center'><p>How successful a pirate is at robbing ships can also change over the time spent on the island. </p><p> Ships may hear from islanders about the pirates coming and will improve their protections against the attack. This may make it harder to rob them.</p><p> Ships may also become lazy and weaken the strength of their protections. This may make it easier to rob them.</p><br><p>Things are always changing on the high seas! So, try your best to pay attention!</p><p><img src='run_exp/static/images/tutorial/contingency.png' height='500'></p></div>","","","","","","","","","","","","","","","","","",""
"","html-keyboard-response","44","344947","0.0-36.0-7.0","1385.6000000014901","<div class='center'><p>How successful a pirate is at robbing ships can also change over the time spent on the island. </p><p> Ships may hear from islanders about the pirates coming and will improve their protections against the attack. This may make it harder to rob them.</p><p> Ships may also become lazy and weaken the strength of their protections. This may make it easier to rob them.</p><br><p>Things are always changing on the high seas! So, try your best to pay attention!</p><p><img src='run_exp/static/images/tutorial/contingency.png' height='500'></p><p><b>[Press the space bar to continue]</b></p></div>","32","","","","","","","","","","","","","","","","","","","","","","",""
"","instruc13","45","389769","0.0-36.0-8.0","null","run_exp/static/audio/clip_15_summary.m4a","null","","","","","<div class='center'><p>Let's go over the instructions quickly again. You have two important things to do: </p><b><p> 1. Pick the pirate who is the best at robbing ships on the current island. This way you'll collect more gold coins!</p></b><b><p> 2. Remember on which island a ship was robbed.</p> </b><p>The amount of bonus money you can win depends on both.</p><p><br><p>Let’s try a practice game. The game will start by showing you the pirates. First, pick a pirate using the <b> 1, 2, 3 </b> keys on your keyboard. When you are shown a ship, try to remember which island you’re on by making up a story.</p><p>This is just a practice game, so you’re not playing for money. </p><p> Good luck!</p></div>","","","","","","","","","","","","","","","","","",""
"","html-keyboard-response","46","390699","0.0-36.0-9.0","929.3999999985099","<div class='center'><p>Let's go over the instructions quickly again. You have two important things to do: </p><b><p> 1. Pick the pirate who is the best at robbing ships on the current island. This way you'll collect more gold coins!</p></b><b><p> 2. Remember on which island a ship was robbed.</p> </b><p>The amount of bonus money you can win depends on both.</p><p><br><p>Let’s try a practice game. The game will start by showing you the pirates. First, pick a pirate using the <b> 1, 2, 3 </b> keys on your keyboard. When you are shown a ship, try to remember which island you’re on by making up a story.</p><p>This is just a practice game, so you’re not playing for money. </p><p> Good luck!</p><p><b>[Press the space bar to continue]</b></p></div>","32","","","","","","","","","","","","","","","","","","","","","","",""
"","do_welcome","47","392204","0.0-36.0-10.0","null","","","","","","","","null","","","","","","","","","","","","","","","","",""
"","do_trial","48","398225","0.0-36.0-11.0","null","","","","","","","","null","1,0,0","","","","","","","","","","","","","","","",""
"","html-keyboard-response","49","399228","0.0-37.0-0.0","null","<p></p>","null","","","","","","","","","","","","","","","","","","","","","","",""
"","do_trial","50","404463","0.0-37.0-1.0","726.6000000014901","","","","","","","","51","1,0,0","","","","","","","","","","","","","","","",""
"","html-keyboard-response","51","405468","0.0-38.0-0.0","null","<p></p>","null","","","","","","","","","","","","","","","","","","","","","","",""
"","do_trial","52","411905","0.0-38.0-1.0","1931.699999999255","","","","","","","","50","1,1,0","","","","","","","","","","","","","","","",""
"","html-keyboard-response","53","412911","0.0-39.0-0.0","null","<p></p>","null","","","","","","","","","","","","","","","","","","","","","","",""
"","do_trial","54","418993","0.0-39.0-1.0","1577.5999999977648","","","","","","","","49","1,0,1","","","","","","","","","","","","","","","",""
"","html-keyboard-response","55","419997","0.0-40.0-0.0","null","<p></p>","null","","","","","","","","","","","","","","","","","","","","","","",""
"","do_trial","56","425170","0.0-40.0-1.0","663.3000000007451","","","","","","","","49","0,1,0","","","","","","","","","","","","","","","",""
"","html-keyboard-response","57","426174","0.0-41.0-0.0","null","<p></p>","null","","","","","","","","","","","","","","","","","","","","","","",""
"","do_trial","58","431116","0.0-41.0-1.0","433.0999999977648","","","","","","","","50","1,0,0","","","","","","","","","","","","","","","",""
"","do_bye","59","432624","0.0-42.0-0.0","null","","","","","","","","null","","","","","","","","","","","","","","","","",""
"","do_travel","60","438629","0.0-42.0-1.0","null","","","","","","","","null","","","","","","","","","","","","","","","","",""
"","do_welcome","61","440138","0.0-42.0-2.0","null","","","","","","","","null","","","","","","","","","","","","","","","","",""
"","do_trial","62","445629","0.0-42.0-3.0","981.3000000007451","","","","","","","","49","1,0,0","","","","","","","","","","","","","","","",""
"","html-keyboard-response","63","446631","0.0-43.0-0.0","null","<p></p>","null","","","","","","","","","","","","","","","","","","","","","","",""
"","do_trial","64","451677","0.0-43.0-1.0","537.2999999970198","","","","","","","","49","1,0,1","","","","","","","","","","","","","","","",""
"","html-keyboard-response","65","452680","0.0-44.0-0.0","null","<p></p>","null","","","","","","","","","","","","","","","","","","","","","","",""
"","do_trial","66","458450","0.0-44.0-1.0","1260.1000000014901","","","","","","","","50","1,1,0","","","","","","","","","","","","","","","",""
"","html-keyboard-response","67","459454","0.0-45.0-0.0","null","<p></p>","null","","","","","","","","","","","","","","","","","","","","","","",""
"","do_trial","68","464594","0.0-45.0-1.0","629.5999999977648","","","","","","","","49","0,0,1","","","","","","","","","","","","","","","",""
"","html-keyboard-response","69","465596","0.0-46.0-0.0","null","<p></p>","null","","","","","","","","","","","","","","","","","","","","","","",""
"","do_trial","70","470687","0.0-46.0-1.0","581.3999999985099","","","","","","","","51","1,0,1","","","","","","","","","","","","","","","",""
"","html-keyboard-response","71","472595","0.0-47.0-0.0","1905.800000000745","<div class='center'><p><img src='run_exp/static/images/tutorial/prac_best_pirate.png'  height='500'></p></div>","49","","","","","","","","","","","","","","","","","","","","","","",""
"","html-keyboard-response","72","475074","0.0-48.0-0.0","2478.099999997765","<div class='center'><p>That's correct! Red beard was the best.</p><p><b>[Press the space bar to continue]</b></p></div>","32","","","","","","","","","","","","","","","","","","","","","","",""
"","html-keyboard-response","73","477458","0.0-48.0-1.0","2384.10000000149","<div class='center'><p><img src='run_exp/static/images/tutorial/prac_source.png'  height='500'></p></div>","50","","","","","","","","","","","","","","","","","","","","","","",""
"","html-keyboard-response","74","479385","0.0-49.0-0.0","1925.800000000745","<div class='center'><p>That's correct! You saw this ship on the cavern island.</p><p><b>[Press the space bar to continue]</b></p></div>","32","","","","","","","","","","","","","","","","","","","","","","",""
"","quiz_beginning","75","494489","0.0-49.0-1.0","null","run_exp/static/audio/clip_16_quiz_intro.m4a","null","","","","","<div class='center'><p>Good job on the practice game! Now, you will be asked some true or false questions to make sure you really understand the rules of the game.</p><p> Press <b>'1'</b> on the keyboard for true and press <b>'2'</b> for false.</p></div>","","","","","","","","","","","","","","","","","",""
"","audio-keyboard-response","76","517753","0.0-49.0-2.0","23262.39999999851","run_exp/static/audio/clip_17_q1.m4a","49","","","","","","","","","","","","","","","","","","","","","","",""
"","q1_err","77","525694","0.0-50.0-0.0","null","run_exp/static/audio/clip_19_wrong_q1.m4a","null","","","","","<div class='center'><p>That’s incorrect! You win bonus money by collecting as many gold coins as possible!</p></div>","","","","","","","","","","","","","","","","","",""
"","html-keyboard-response","78","526962","0.0-50.0-1.0","1267.699999999255","<div class='center'><p>That’s incorrect! You win bonus money by collecting as many gold coins as possible!</p><p><b>[Press the space bar to continue]</b></p></div>","32","","","","","","","","","","","","","","","","","","","","","","",""
"","audio-keyboard-response","79","533128","0.0-50.0-2.0","5951.5","run_exp/static/audio/clip_20_q2.m4a","50","","","","","","","","","","","","","","","","","","","","","","",""
"","correct","80","536276","0.0-51.0-0.0","null","run_exp/static/audio/clip_18_correct.m4a","null","","","","","<div class='center'><p>That's correct!</p></div>","","","","","","","","","","","","","","","","","",""
"","html-keyboard-response","81","538183","0.0-51.0-1.0","1906.699999999255","<div class='center'><p>That's correct!</p><p><b>[Press the space bar to continue]</b></p></div>","32","","","","","","","","","","","","","","","","","","","","","","",""
"","audio-keyboard-response","82","546840","0.0-51.0-2.0","8656.70000000298","run_exp/static/audio/clip_22_q3.m4a","50","","","","","","","","","","","","","","","","","","","","","","",""
"","correct","83","549971","0.0-52.0-0.0","null","run_exp/static/audio/clip_18_correct.m4a","null","","","","","<div class='center'><p>That's correct!</p></div>","","","","","","","","","","","","","","","","","",""
"","html-keyboard-response","84","550319","0.0-52.0-1.0","347.4000000022352","<div class='center'><p>That's correct!</p><p><b>[Press the space bar to continue]</b></p></div>","32","","","","","","","","","","","","","","","","","","","","","","",""
"","audio-keyboard-response","85","555407","0.0-52.0-2.0","5087.300000000745","run_exp/static/audio/clip_24_q4.m4a","50","","","","","","","","","","","","","","","","","","","","","","",""
"","q4_err","86","567721","0.0-53.0-0.0","null","run_exp/static/audio/clip_25_wrong_q4.m4a","null","","","","","<div class='center'><p>That’s incorrect! You should remember the island where a pirate robbed a ship. To help you remember, you can make up a story associating the object on the ship with the island</p></div>","","","","","","","","","","","","","","","","","",""
"","html-keyboard-response","87","568144","0.0-53.0-1.0","421.5","<div class='center'><p>That’s incorrect! You should remember the island where a pirate robbed a ship. To help you remember, you can make up a story associating the object on the ship with the island</p><p><b>[Press the space bar to continue]</b></p></div>","32","","","","","","","","","","","","","","","","","","","","","","",""
"","q_all_err","88","575849","0.0-54.0-0.0","null","run_exp/static/audio/clip_26_quiz_redo.m4a","null","","","","","<div class='center'><p>Oops, you missed some questions. Now that you’ve heard the correct answers. Try the quiz again! </p></div>","","","","","","","","","","","","","","","","","",""
"","html-keyboard-response","89","576315","0.0-54.0-1.0","464.5999999977648","<div class='center'><p>Oops, you missed some questions. Now that you’ve heard the correct answers. Try the quiz again! </p><p><b>[Press the space bar to continue]</b></p></div>","32","","","","","","","","","","","","","","","","","","","","","","",""
"","audio-keyboard-response","90","582801","0.0-54.0-2.0","6485.5","run_exp/static/audio/clip_17_q1.m4a","50","","","","","","","","","","","","","","","","","","","","","","",""
"","correct","91","585962","0.0-55.0-0.0","null","run_exp/static/audio/clip_18_correct.m4a","null","","","","","<div class='center'><p>That's correct!</p></div>","","","","","","","","","","","","","","","","","",""
"","html-keyboard-response","92","586403","0.0-55.0-1.0","440.1000000014901","<div class='center'><p>That's correct!</p><p><b>[Press the space bar to continue]</b></p></div>","32","","","","","","","","","","","","","","","","","","","","","","",""
"","audio-keyboard-response","93","592571","0.0-55.0-2.0","6167.39999999851","run_exp/static/audio/clip_20_q2.m4a","50","","","","","","","","","","","","","","","","","","","","","","",""
"","correct","94","595712","0.0-56.0-0.0","null","run_exp/static/audio/clip_18_correct.m4a","null","","","","","<div class='center'><p>That's correct!</p></div>","","","","","","","","","","","","","","","","","",""
"","html-keyboard-response","95","596128","0.0-56.0-1.0","416.0999999977648","<div class='center'><p>That's correct!</p><p><b>[Press the space bar to continue]</b></p></div>","32","","","","","","","","","","","","","","","","","","","","","","",""
"","audio-keyboard-response","96","598241","0.0-56.0-2.0","2112.60000000149","run_exp/static/audio/clip_22_q3.m4a","50","","","","","","","","","","","","","","","","","","","","","","",""
"","correct","97","601365","0.0-57.0-0.0","null","run_exp/static/audio/clip_18_correct.m4a","null","","","","","<div class='center'><p>That's correct!</p></div>","","","","","","","","","","","","","","","","","",""
"","html-keyboard-response","98","601729","0.0-57.0-1.0","363.5","<div class='center'><p>That's correct!</p><p><b>[Press the space bar to continue]</b></p></div>","32","","","","","","","","","","","","","","","","","","","","","","",""
"","audio-keyboard-response","99","606410","0.0-57.0-2.0","4680.5","run_exp/static/audio/clip_24_q4.m4a","49","","","","","","","","","","","","","","","","","","","","","","",""
"","correct","100","609600","0.0-58.0-0.0","null","run_exp/static/audio/clip_18_correct.m4a","null","","","","","<div class='center'><p>That's correct!</p></div>","","","","","","","","","","","","","","","","","",""
"","html-keyboard-response","101","609946","0.0-58.0-1.0","345.6000000014901","<div class='center'><p>That's correct!</p><p><b>[Press the space bar to continue]</b></p></div>","32","","","","","","","","","","","","","","","","","","","","","","",""
"","q_all_corr","102","617088","0.0-59.0-0.0","null","run_exp/static/audio/clip_27_quiz_all_correct.m4a","null","","","","","<div class='center'><p>Good job! You’re now ready to move on to the real game!</p></div>","","","","","","","","","","","","","","","","","",""
"","html-keyboard-response","103","617441","0.0-59.0-1.0","352.6000000014901","<div class='center'><p>Good job! You’re now ready to move on to the real game!</p><p><b>[Press the space bar to continue]</b></p></div>","32","","","","","","","","","","","","","","","","","","","","","","",""
"","do_welcome","104","618949","0.0-60.0-0.0","null","","","","","","","","null","","","","","","","","","","","","","","","","",""
"","do_trial","105","624955","0.0-61.0-0.0","1462.6000000014901","","","","","","","","49","1,1,0","0","city","0","probe-214","0.6","0.3","0.1","1","","","","","","","",""
"","html-keyboard-response","106","625957","0.0-61.0-1.0","null","<p></p>","null","","","","","","","","","","","","","","","","","","","","","","",""
"","do_trial","107","631424","0.0-62.0-0.0","925.5","","","","","","","","51","0,0,0","0","city","1","probe-184","0.6125438574170837","0.3203360178398975","0.09034545849657823","0","","","","","","","",""
"","html-keyboard-response","108","632427","0.0-62.0-1.0","null","<p></p>","null","","","","","","","","","","","","","","","","","","","","","","",""
"","do_trial","109","637468","0.0-63.0-0.0","487.5","","","","","","","","50","1,1,0","0","city","2","probe-230","0.5326876352286553","0.4167425493663919","0.14431934216510878","1","","","","","","","",""
"","html-keyboard-response","110","638470","0.0-63.0-1.0","null","<p></p>","null","","","","","","","","","","","","","","","","","","","","","","",""
"","do_trial","111","644081","0.0-64.0-0.0","1068.4000000022352","","","","","","","","49","1,0,0","0","city","3","probe-177","0.5261871311246368","0.42000966863116096","0.21778556634014087","1","","","","","","","",""
"","html-keyboard-response","112","645083","0.0-64.0-1.0","null","<p></p>","null","","","","","","","","","","","","","","","","","","","","","","",""
"","do_trial","113","650907","0.0-65.0-0.0","1280.3999999985099","","","","","","","","50","0,0,0","0","city","4","probe-142","0.5768468491555142","0.28021916142389935","0.13487226154095636","0","","","","","","","",""
"","html-keyboard-response","114","651912","0.0-65.0-1.0","null","<p></p>","null","","","","","","","","","","","","","","","","","","","","","","",""
"","do_trial","115","656871","0.0-66.0-0.0","417.20000000298023","","","","","","","","49","1,0,0","0","city","5","probe-212","0.5658625390587109","0.30909948905694723","0.09999622321838401","1","","","","","","","",""
"","html-keyboard-response","116","657873","0.0-66.0-1.0","null","<p></p>","null","","","","","","","","","","","","","","","","","","","","","","",""
"","do_trial","117","663105","0.0-67.0-0.0","687.5","","","","","","","","49","0,0,0","0","city","6","probe-217","0.4098283853393556","0.36144688462556146","0.15414226138569548","0","","","","","","","",""
"","html-keyboard-response","118","664110","0.0-67.0-1.0","null","<p></p>","null","","","","","","","","","","","","","","","","","","","","","","",""
"","do_trial","119","669436","0.0-68.0-0.0","784.6999999992549","","","","","","","","51","0,1,0","0","city","7","probe-119","0.2119339887077252","0.47970852166267164","0.14570913352883447","0","","","","","","","",""
"","html-keyboard-response","120","670440","0.0-68.0-1.0","null","<p></p>","null","","","","","","","","","","","","","","","","","","","","","","",""
"","do_trial","121","675490","0.0-69.0-0.0","508.19999999925494","","","","","","","","50","0,1,0","0","city","8","probe-94","0.3097748004484621","0.46177140115718046","0.19927370852251622","1","","","","","","","",""
"","html-keyboard-response","122","676495","0.0-69.0-1.0","null","<p></p>","null","","","","","","","","","","","","","","","","","","","","","","",""
"","do_trial","123","681751","0.0-70.0-0.0","713.3999999985099","","","","","","","","49","0,1,1","0","city","9","probe-50","0.4623489651766439","0.5673167017062025","0.1700364277494954","0","","","","","","","",""
"","html-keyboard-response","124","682754","0.0-70.0-1.0","null","<p></p>","null","","","","","","","","","","","","","","","","","","","","","","",""
"","do_trial","125","687948","0.0-71.0-0.0","648.5","","","","","","","","50","0,0,0","0","city","10","probe-113","0.5969057006444136","0.3865413402274067","0.23241402006367642","0","","","","","","","",""
"","html-keyboard-response","126","688953","0.0-71.0-1.0","null","<p></p>","null","","","","","","","","","","","","","","","","","","","","","","",""
"","do_trial","127","693991","0.0-72.0-0.0","496.6000000014901","","","","","","","","49","1,0,0","0","city","11","probe-149","0.5162278302540437","0.3558091199634576","0.13531520635862815","1","","","","","","","",""
"","html-keyboard-response","128","694995","0.0-72.0-1.0","null","<p></p>","null","","","","","","","","","","","","","","","","","","","","","","",""
"","do_trial","129","700023","0.0-73.0-0.0","485.8999999985099","","","","","","","","49","0,0,0","0","city","12","probe-185","0.5884397740848983","0.26328108123161825","0.15475737520488658","0","","","","","","","",""
"","html-keyboard-response","130","701027","0.0-73.0-1.0","null","<p></p>","null","","","","","","","","","","","","","","","","","","","","","","",""
"","do_trial","131","706168","0.0-74.0-0.0","598.0999999977648","","","","","","","","50","1,0,0","0","city","13","probe-70","0.6147985267690684","0.32240684063613245","0.1710208136606043","0","","","","","","","",""
"","html-keyboard-response","132","707173","0.0-74.0-1.0","null","<p></p>","null","","","","","","","","","","","","","","","","","","","","","","",""
"","do_trial","133","712168","0.0-75.0-0.0","452.4000000022352","","","","","","","","51","0,0,0","0","city","14","probe-158","0.5904745009446587","0.2340481332479977","0.08059961383759985","0","","","","","","","",""
"","html-keyboard-response","134","713171","0.0-75.0-1.0","null","<p></p>","null","","","","","","","","","","","","","","","","","","","","","","",""
"","do_trial","135","718712","0.0-76.0-0.0","998","","","","","","","","49","1,1,0","0","city","15","probe-131","0.6143988923534006","0.2676229265143757","0.08784855659431162","1","","","","","","","",""
"","html-keyboard-response","136","719717","0.0-76.0-1.0","null","<p></p>","null","","","","","","","","","","","","","","","","","","","","","","",""
"","do_trial","137","724863","0.0-77.0-0.0","601.8000000007451","","","","","","","","49","0,0,1","0","city","16","probe-128","0.5799154875765475","0.2711781099462697","0.14718687817548656","0","","","","","","","",""
"","html-keyboard-response","138","725867","0.0-77.0-1.0","null","<p></p>","null","","","","","","","","","","","","","","","","","","","","","","",""
"","do_trial","139","730999","0.0-78.0-0.0","588.3000000007451","","","","","","","","49","1,0,0","0","city","17","probe-98","0.684642610015984","0.23200904827914287","0.08821976654243467","1","","","","","","","",""
"","html-keyboard-response","140","732003","0.0-78.0-1.0","null","<p></p>","null","","","","","","","","","","","","","","","","","","","","","","",""
"","do_trial","141","737172","0.0-79.0-0.0","624.1999999992549","","","","","","","","49","0,0,0","0","city","18","probe-106","0.586297181487311","0.2558410717943125","0.08551669731692231","0","","","","","","","",""
"","html-keyboard-response","142","738174","0.0-79.0-1.0","null","<p></p>","null","","","","","","","","","","","","","","","","","","","","","","",""
"","do_trial","143","743166","0.0-80.0-0.0","452.6000000014901","","","","","","","","51","1,0,0","0","city","19","probe-104","0.589003369128307","0.2441849904082938","0.10139554111542959","0","","","","","","","",""
"","html-keyboard-response","144","744171","0.0-80.0-1.0","null","<p></p>","null","","","","","","","","","","","","","","","","","","","","","","",""
"","do_trial","145","749291","0.0-81.0-0.0","578.6000000014901","","","","","","","","50","1,0,0","0","city","20","probe-122","0.6912182573291574","0.153197434864346","0.1619922979378337","0","","","","","","","",""
"","html-keyboard-response","146","750293","0.0-81.0-1.0","null","<p></p>","null","","","","","","","","","","","","","","","","","","","","","","",""
"","do_trial","147","755369","0.0-82.0-0.0","534.6999999992549","","","","","","","","49","1,0,1","0","city","21","probe-138","0.5861230955304328","0.10668340359284569","0.271569306740391","1","","","","","","","",""
"","html-keyboard-response","148","756374","0.0-82.0-1.0","null","<p></p>","null","","","","","","","","","","","","","","","","","","","","","","",""
"","do_trial","149","761465","0.0-83.0-0.0","552.8999999985099","","","","","","","","49","0,0,0","0","city","22","probe-67","0.6107012670722647","0.2074342224062104","0.06299464956926673","0","","","","","","","",""
"","html-keyboard-response","150","762469","0.0-83.0-1.0","null","<p></p>","null","","","","","","","","","","","","","","","","","","","","","","",""
"","do_trial","151","767370","0.0-84.0-0.0","362","","","","","","","","51","1,0,0","0","city","23","probe-124","0.4495649870985743","0.20076155970314585","0.1120551147175694","0","","","","","","","",""
"","html-keyboard-response","152","768372","0.0-84.0-1.0","null","<p></p>","null","","","","","","","","","","","","","","","","","","","","","","",""
"","do_trial","153","773461","0.0-85.0-0.0","542.3000000007451","","","","","","","","49","0,0,0","0","city","24","probe-99","0.44289623877834283","0.2911984946928235","0.10350882574232846","0","","","","","","","",""
"","html-keyboard-response","154","774466","0.0-85.0-1.0","null","<p></p>","null","","","","","","","","","","","","","","","","","","","","","","",""
"","do_trial","155","779456","0.0-86.0-0.0","448","","","","","","","","50","0,0,0","0","city","25","probe-156","0.5238223918311067","0.3763394568292007","0.09339478621887606","0","","","","","","","",""
"","html-keyboard-response","156","780459","0.0-86.0-1.0","null","<p></p>","null","","","","","","","","","","","","","","","","","","","","","","",""
"","do_trial","157","785605","0.0-87.0-0.0","595.0999999977648","","","","","","","","50","0,1,0","0","city","26","probe-151","0.5426824584426074","0.4087847789012854","0.10683439535491834","1","","","","","","","",""
"","html-keyboard-response","158","786608","0.0-87.0-1.0","null","<p></p>","null","","","","","","","","","","","","","","","","","","","","","","",""
"","do_trial","159","791663","0.0-88.0-0.0","512.6999999992549","","","","","","","","50","1,0,0","0","city","27","probe-152","0.5219621684094478","0.37525846625835113","0.06799633319147767","0","","","","","","","",""
"","html-keyboard-response","160","792668","0.0-88.0-1.0","null","<p></p>","null","","","","","","","","","","","","","","","","","","","","","","",""
"","do_trial","161","797677","0.0-89.0-0.0","466.0999999977648","","","","","","","","50","0,0,0","0","city","28","probe-116","0.5488922057134682","0.38701436320777804","0.05158250115339287","0","","","","","","","",""
"","html-keyboard-response","162","798683","0.0-89.0-1.0","null","<p></p>","null","","","","","","","","","","","","","","","","","","","","","","",""
"","do_trial","163","803715","0.0-90.0-0.0","484.80000000074506","","","","","","","","49","1,0,0","0","city","29","probe-24","0.591380211805391","0.5099384480146584","0.16192983938115993","1","","","","","","","",""
"","html-keyboard-response","164","804720","0.0-90.0-1.0","null","<p></p>","null","","","","","","","","","","","","","","","","","","","","","","",""
"","do_bye","165","806229","0.0-91.0-0.0","null","","","","","","","","null","","","","","","","","","","","","","","","","",""
"","break","166","808718","0.0-91.0-1.0","2488.2999999970198","<div class='center'><p>Time to take a quick break! You have 2 minutes to rest, but you can move on sooner if you'd like.</p><p> Press the <b>space bar</b> to continue.</p></div>","32","","","","","","","","","","","","","","","","","","","","","","",""
"","do_travel","167","814721","0.0-92.0-0.0","null","","","","","","","","null","","","","","","","","","","","","","","","","",""
"","do_welcome","168","816228","0.0-92.0-1.0","null","","","","","","","","null","","","","","","","","","","","","","","","","",""
"","do_trial","169","822315","0.0-93.0-0.0","1543.199999999255","","","","","","","","49","1,1,0","1","highway","30","probe-171","1","0.5169351749306267","0.14940804372547972","1","","","","","","","",""
"","html-keyboard-response","170","823320","0.0-93.0-1.0","null","<p></p>","null","","","","","","","","","","","","","","","","","","","","","","",""
"","do_trial","171","828438","0.0-94.0-0.0","576.8000000007451","","","","","","","","50","1,0,0","1","highway","31","probe-227","1","0.3072444408447987","0.16994879549085948","0","","","","","","","",""
"","html-keyboard-response","172","829443","0.0-94.0-1.0","null","<p></p>","null","","","","","","","","","","","","","","","","","","","","","","",""
"","do_trial","173","834668","0.0-95.0-0.0","682.1000000014901","","","","","","","","50","1,0,0","1","highway","32","probe-42","1","0.31095423742976963","0.09344774819570774","0","","","","","","","",""
"","html-keyboard-response","174","835672","0.0-95.0-1.0","null","<p></p>","null","","","","","","","","","","","","","","","","","","","","","","",""
"","do_trial","175","840735","0.0-96.0-0.0","515.4000000022352","","","","","","","","50","1,0,0","1","highway","33","probe-65","0.925193551602564","0.3824384389847801","0.11345369935418644","0","","","","","","","",""
"","html-keyboard-response","176","841740","0.0-96.0-1.0","null","<p></p>","null","","","","","","","","","","","","","","","","","","","","","","",""
"","do_trial","177","847127","0.0-97.0-0.0","847.2000000029802","","","","","","","","51","1,0,0","1","highway","34","probe-13","0.8569720943104939","0.34699305991466634","0.050079653271554225","0","","","","","","","",""
"","html-keyboard-response","178","848130","0.0-97.0-1.0","null","<p></p>","null","","","","","","","","","","","","","","","","","","","","","","",""
"","do_trial","179","853096","0.0-98.0-0.0","417.6000000014901","","","","","","","","49","1,0,0","1","highway","35","probe-181","0.7537542360167275","0.44528305907639526","0.20326126317640317","1","","","","","","","",""
"","html-keyboard-response","180","854098","0.0-98.0-1.0","null","<p></p>","null","","","","","","","","","","","","","","","","","","","","","","",""
"","do_trial","181","859164","0.0-99.0-0.0","521.2000000029802","","","","","","","","49","1,0,1","1","highway","36","probe-105","0.6691902157782811","0.4848897239767382","0.24699945631218","1","","","","","","","",""
"","html-keyboard-response","182","860170","0.0-99.0-1.0","null","<p></p>","null","","","","","","","","","","","","","","","","","","","","","","",""
"","do_trial","183","865249","0.0-100.0-0.0","538.1000000014901","","","","","","","","49","1,0,0","1","highway","37","probe-110","0.7598826404158133","0.5602034920622168","0.23282449522880944","1","","","","","","","",""
"","html-keyboard-response","184","866254","0.0-100.0-1.0","null","<p></p>","null","","","","","","","","","","","","","","","","","","","","","","",""
"","do_trial","185","871418","0.0-101.0-0.0","623.8999999985099","","","","","","","","49","1,0,1","1","highway","38","probe-222","0.7105054308367045","0.4470464231899126","0.24623565218177668","1","","","","","","","",""
"","html-keyboard-response","186","872423","0.0-101.0-1.0","null","<p></p>","null","","","","","","","","","","","","","","","","","","","","","","",""
"","do_trial","187","877496","0.0-102.0-0.0","530","","","","","","","","49","0,0,0","1","highway","39","probe-183","0.6641879425007763","0.4337359928544777","0.26559920348976646","0","","","","","","","",""
"","html-keyboard-response","188","878498","0.0-102.0-1.0","null","<p></p>","null","","","","","","","","","","","","","","","","","","","","","","",""
"","do_trial","189","883666","0.0-103.0-0.0","627","","","","","","","","49","1,0,0","1","highway","40","probe-89","0.5470532461199391","0.398380976106568","0.339689231283484","1","","","","","","","",""
"","html-keyboard-response","190","884670","0.0-103.0-1.0","null","<p></p>","null","","","","","","","","","","","","","","","","","","","","","","",""
"","do_trial","191","890355","0.0-104.0-0.0","1139","","","","","","","","49","1,1,0","1","highway","41","probe-91","0.47655309618096725","0.3531176224866806","0.22495569569910664","1","","","","","","","",""
"","html-keyboard-response","192","891357","0.0-104.0-1.0","null","<p></p>","null","","","","","","","","","","","","","","","","","","","","","","",""
"","do_trial","193","896446","0.0-105.0-0.0","549.3999999985099","","","","","","","","49","0,1,0","1","highway","42","probe-160","0.44263829043526565","0.25589045703939856","0.32656935869175846","0","","","","","","","",""
"","html-keyboard-response","194","897451","0.0-105.0-1.0","null","<p></p>","null","","","","","","","","","","","","","","","","","","","","","","",""
"","do_trial","195","902654","0.0-106.0-0.0","656.8000000007451","","","","","","","","49","0,1,1","1","highway","43","probe-52","0.513040021811509","0.18110102945793952","0.5238063957359357","0","","","","","","","",""
"","html-keyboard-response","196","903656","0.0-106.0-1.0","null","<p></p>","null","","","","","","","","","","","","","","","","","","","","","","",""
"","do_trial","197","908661","0.0-107.0-0.0","454.9000000022352","","","","","","","","50","0,0,0","1","highway","44","probe-162","0.5093243055281992","0.12433027187220465","0.4975178147548549","0","","","","","","","",""
"","html-keyboard-response","198","909664","0.0-107.0-1.0","null","<p></p>","null","","","","","","","","","","","","","","","","","","","","","","",""
"","do_trial","199","914644","0.0-108.0-0.0","434.4000000022352","","","","","","","","51","0,0,1","1","highway","45","probe-190","0.3817569590720437","0.275447040115258","0.44278668177706004","1","","","","","","","",""
"","html-keyboard-response","200","915646","0.0-108.0-1.0","null","<p></p>","null","","","","","","","","","","","","","","","","","","","","","","",""
"","do_trial","201","920805","0.0-109.0-0.0","611.0999999977648","","","","","","","","49","1,0,0","1","highway","46","probe-198","0.3414083851835607","0.24594915251177518","0.4438520230387104","1","","","","","","","",""
"","html-keyboard-response","202","921808","0.0-109.0-1.0","null","<p></p>","null","","","","","","","","","","","","","","","","","","","","","","",""
"","do_trial","203","926900","0.0-110.0-0.0","550.8000000007451","","","","","","","","49","0,0,1","1","highway","47","probe-38","0.2945674058341203","0.12607353285073022","0.5422266242488761","0","","","","","","","",""
"","html-keyboard-response","204","927904","0.0-110.0-1.0","null","<p></p>","null","","","","","","","","","","","","","","","","","","","","","","",""
"","do_trial","205","933586","0.0-111.0-0.0","1138.3999999985099","","","","","","","","51","0,0,0","1","highway","48","probe-157","0.4277817542387539","0.10056013626437738","0.48131056665600797","0","","","","","","","",""
"","html-keyboard-response","206","934590","0.0-111.0-1.0","null","<p></p>","null","","","","","","","","","","","","","","","","","","","","","","",""
"","do_trial","207","939666","0.0-112.0-0.0","531.3000000007451","","","","","","","","50","0,0,1","1","highway","49","probe-226","0.3789177078033268","0.10253701619795529","0.5261269335855042","0","","","","","","","",""
"","html-keyboard-response","208","940670","0.0-112.0-1.0","null","<p></p>","null","","","","","","","","","","","","","","","","","","","","","","",""
"","do_trial","209","945964","0.0-113.0-0.0","750.4000000022352","","","","","","","","49","0,0,0","1","highway","50","probe-121","0.2715351489807642","0.11753627013463441","0.5303354066030534","0","","","","","","","",""
"","html-keyboard-response","210","946970","0.0-113.0-1.0","null","<p></p>","null","","","","","","","","","","","","","","","","","","","","","","",""
"","do_trial","211","952068","0.0-114.0-0.0","554.2999999970198","","","","","","","","51","0,0,0","1","highway","51","probe-25","0.3601246839421682","0.08202211512866196","0.5387137257969483","0","","","","","","","",""
"","html-keyboard-response","212","953071","0.0-114.0-1.0","null","<p></p>","null","","","","","","","","","","","","","","","","","","","","","","",""
"","do_trial","213","958265","0.0-115.0-0.0","653.3000000007451","","","","","","","","49","0,0,1","1","highway","52","probe-19","0.3425615701744804","0.14350119970620248","0.6660798547746436","0","","","","","","","",""
"","html-keyboard-response","214","959270","0.0-115.0-1.0","null","<p></p>","null","","","","","","","","","","","","","","","","","","","","","","",""
"","do_trial","215","964466","0.0-116.0-0.0","652.5","","","","","","","","50","0,0,0","1","highway","53","probe-192","0.35534912738721147","0.05353619432893751","0.5275961949669953","0","","","","","","","",""
"","html-keyboard-response","216","965470","0.0-116.0-1.0","null","<p></p>","null","","","","","","","","","","","","","","","","","","","","","","",""
"","do_trial","217","970523","0.0-117.0-0.0","509.0999999977648","","","","","","","","50","0,0,1","1","highway","54","probe-154","0.3247077129606702","0.11792983664998438","0.5943791931279914","0","","","","","","","",""
"","html-keyboard-response","218","971525","0.0-117.0-1.0","null","<p></p>","null","","","","","","","","","","","","","","","","","","","","","","",""
"","do_trial","219","976523","0.0-118.0-0.0","457.1000000014901","","","","","","","","50","0,0,1","1","highway","55","probe-118","0.22605654352060228","0.05070514892787273","0.6674780733632507","0","","","","","","","",""
"","html-keyboard-response","220","977527","0.0-118.0-1.0","null","<p></p>","null","","","","","","","","","","","","","","","","","","","","","","",""
"","do_trial","221","982550","0.0-119.0-0.0","483","","","","","","","","50","0,0,1","1","highway","56","probe-148","0.3289156341765789","0.09100648663386561","0.6519357182525822","0","","","","","","","",""
"","html-keyboard-response","222","983553","0.0-119.0-1.0","null","<p></p>","null","","","","","","","","","","","","","","","","","","","","","","",""
"","do_trial","223","988679","0.0-120.0-0.0","579.3000000007451","","","","","","","","50","1,0,1","1","highway","57","probe-53","0.41045125893482953","0.07431856946112474","0.7145966502830879","0","","","","","","","",""
"","html-keyboard-response","224","989684","0.0-120.0-1.0","null","<p></p>","null","","","","","","","","","","","","","","","","","","","","","","",""
"","do_trial","225","994859","0.0-121.0-0.0","626.8999999985099","","","","","","","","50","0,0,1","1","highway","58","probe-23","0.3964770284060078","0.11452730758178145","0.609973259597563","0","","","","","","","",""
"","html-keyboard-response","226","995862","0.0-121.0-1.0","null","<p></p>","null","","","","","","","","","","","","","","","","","","","","","","",""
"","do_trial","227","1001086","0.0-122.0-0.0","676.3999999985099","","","","","","","","50","0,0,1","1","highway","59","probe-186","0.2662784165194394","0.09768447272808452","0.603805294367261","0","","","","","","","",""
"","html-keyboard-response","228","1002091","0.0-122.0-1.0","null","<p></p>","null","","","","","","","","","","","","","","","","","","","","","","",""
"","do_trial","229","1007157","0.0-123.0-0.0","523.2999999970198","","","","","","","","50","0,0,1","1","highway","60","probe-100","0.14077321617299074","0.11379362528623124","0.6905099781717611","0","","","","","","","",""
"","html-keyboard-response","230","1008161","0.0-123.0-1.0","null","<p></p>","null","","","","","","","","","","","","","","","","","","","","","","",""
"","do_trial","231","1013206","0.0-124.0-0.0","505.19999999925494","","","","","","","","49","1,1,0","1","highway","61","probe-146","0.34993124809124787","0.17127131287587616","0.6908267218240447","1","","","","","","","",""
"","html-keyboard-response","232","1014210","0.0-124.0-1.0","null","<p></p>","null","","","","","","","","","","","","","","","","","","","","","","",""
"","do_trial","233","1019390","0.0-125.0-0.0","634.5999999977648","","","","","","","","49","1,0,0","1","highway","62","probe-219","0.3078800074185294","0.20859751855729733","0.6848010464930298","1","","","","","","","",""
"","html-keyboard-response","234","1020396","0.0-125.0-1.0","null","<p></p>","null","","","","","","","","","","","","","","","","","","","","","","",""
"","do_trial","235","1025384","0.0-126.0-0.0","443.19999999925494","","","","","","","","49","0,0,0","1","highway","63","probe-170","0.30876001183912716","0.20481471974266616","0.6778951950220955","0","","","","","","","",""
"","html-keyboard-response","236","1026389","0.0-126.0-1.0","null","<p></p>","null","","","","","","","","","","","","","","","","","","","","","","",""
"","do_trial","237","1031634","0.0-127.0-0.0","703.3000000007451","","","","","","","","49","0,0,0","1","highway","64","probe-57","0.33169275909640056","0.1426757483200325","0.7098964861258006","0","","","","","","","",""
"","html-keyboard-response","238","1032636","0.0-127.0-1.0","null","<p></p>","null","","","","","","","","","","","","","","","","","","","","","","",""
"","do_trial","239","1037314","0.0-128.0-0.0","135.80000000074506","","","","","","","","49","0,0,1","1","highway","65","probe-40","0.35416173156751884","0.23310559778997075","0.6422048014136976","0","","","","","","","",""
"","html-keyboard-response","240","1038319","0.0-128.0-1.0","null","<p></p>","null","","","","","","","","","","","","","","","","","","","","","","",""
"","do_trial","241","1043428","0.0-129.0-0.0","565","","","","","","","","50","0,0,1","1","highway","66","probe-155","0.3571972493384615","0.20112252747878187","0.6060736099687496","0","","","","","","","",""
"","html-keyboard-response","242","1044434","0.0-129.0-1.0","null","<p></p>","null","","","","","","","","","","","","","","","","","","","","","","",""
"","do_trial","243","1049534","0.0-130.0-0.0","554.6000000014901","","","","","","","","51","1,0,1","1","highway","67","probe-62","0.40151713457185184","0.19014694327273612","0.6601612036806861","1","","","","","","","",""
"","html-keyboard-response","244","1050539","0.0-130.0-1.0","null","<p></p>","null","","","","","","","","","","","","","","","","","","","","","","",""
"","do_trial","245","1055576","0.0-131.0-0.0","495.30000000447035","","","","","","","","51","0,1,1","1","highway","68","probe-68","0.37490882551265403","0.24822439324712786","0.7492172241669027","1","","","","","","","",""
"","html-keyboard-response","246","1056578","0.0-131.0-1.0","null","<p></p>","null","","","","","","","","","","","","","","","","","","","","","","",""
"","do_trial","247","1061650","0.0-132.0-0.0","525.7000000029802","","","","","","","","51","0,0,1","1","highway","69","probe-45","0.26064388709249736","0.20065106375676642","0.6768616913106373","1","","","","","","","",""
"","html-keyboard-response","248","1062654","0.0-132.0-1.0","null","<p></p>","null","","","","","","","","","","","","","","","","","","","","","","",""
"","do_bye","249","1064163","0.0-133.0-0.0","null","","","","","","","","null","","","","","","","","","","","","","","","","",""
"","break","250","1065913","0.0-133.0-1.0","1749.7000000029802","<div class='center'><p>Time to take a quick break! You have 2 minutes to rest, but you can move on sooner if you'd like.</p><p> Press the <b>space bar</b> to continue.</p></div>","32","","","","","","","","","","","","","","","","","","","","","","",""
"","do_travel","251","1071919","0.0-134.0-0.0","null","","","","","","","","null","","","","","","","","","","","","","","","","",""
"","do_welcome","252","1073427","0.0-134.0-1.0","null","","","","","","","","null","","","","","","","","","","","","","","","","",""
"","do_trial","253","1079611","0.0-135.0-0.0","1640.6000000014901","","","","","","","","49","0,0,1","2","coast","70","probe-64","0.2591099618952448","0.05667066736624023","1","0","","","","","","","",""
"","html-keyboard-response","254","1080616","0.0-135.0-1.0","null","<p></p>","null","","","","","","","","","","","","","","","","","","","","","","",""
"","do_trial","255","1085892","0.0-136.0-0.0","735.9000000059605","","","","","","","","50","1,0,1","2","coast","71","probe-28","0.2261536443194527","0.06524105996661059","1","0","","","","","","","",""
"","html-keyboard-response","256","1086896","0.0-136.0-1.0","null","<p></p>","null","","","","","","","","","","","","","","","","","","","","","","",""
"","do_trial","257","1091943","0.0-137.0-0.0","504.6000000014901","","","","","","","","51","0,0,1","2","coast","72","probe-01","0.2836106162846183","0.06570158863202852","0.716564897377487","1","","","","","","","",""
"","html-keyboard-response","258","1092947","0.0-137.0-1.0","null","<p></p>","null","","","","","","","","","","","","","","","","","","","","","","",""
"","do_trial","259","1097990","0.0-138.0-0.0","493.1000000014901","","","","","","","","51","0,0,0","2","coast","73","probe-205","0.3492307822210132","0.052708453359388584","0.610050164953436","0","","","","","","","",""
"","html-keyboard-response","260","1098996","0.0-138.0-1.0","null","<p></p>","null","","","","","","","","","","","","","","","","","","","","","","",""
"","do_trial","261","1104102","0.0-139.0-0.0","563.3999999985099","","","","","","","","51","1,0,1","2","coast","74","probe-127","0.26967990250061247","0.07554122136341246","0.5634619457485573","1","","","","","","","",""
"","html-keyboard-response","262","1105107","0.0-139.0-1.0","null","<p></p>","null","","","","","","","","","","","","","","","","","","","","","","",""
"","do_trial","263","1110170","0.0-140.0-0.0","518.1000000014901","","","","","","","","51","0,0,0","2","coast","75","probe-114","0.16551381100563792","0.20435548792074967","0.6674697843119347","0","","","","","","","",""
"","html-keyboard-response","264","1111175","0.0-140.0-1.0","null","<p></p>","null","","","","","","","","","","","","","","","","","","","","","","",""
"","do_trial","265","1115957","0.0-141.0-0.0","239.5","","","","","","","","51","0,0,1","2","coast","76","probe-72","0.2098636126425257","0.17943781157046765","0.6842278110026527","1","","","","","","","",""
"","html-keyboard-response","266","1116961","0.0-141.0-1.0","null","<p></p>","null","","","","","","","","","","","","","","","","","","","","","","",""
"","do_trial","267","1122083","0.0-142.0-0.0","578.0999999940395","","","","","","","","51","0,0,0","2","coast","77","probe-180","0.2342933448605596","0.2690462536916884","0.6862933011951851","0","","","","","","","",""
"","html-keyboard-response","268","1123088","0.0-142.0-1.0","null","<p></p>","null","","","","","","","","","","","","","","","","","","","","","","",""
"","do_trial","269","1128159","0.0-143.0-0.0","530.5999999940395","","","","","","","","51","0,0,0","2","coast","78","probe-176","0.28761584733160767","0.13414406211877847","0.6374625128094041","0","","","","","","","",""
"","html-keyboard-response","270","1129164","0.0-143.0-1.0","null","<p></p>","null","","","","","","","","","","","","","","","","","","","","","","",""
"","do_trial","271","1134261","0.0-144.0-0.0","553.8999999985099","","","","","","","","49","0,0,1","2","coast","79","probe-175","0.38517555014798277","0.09299399603030338","0.6024723801217508","0","","","","","","","",""
"","html-keyboard-response","272","1135265","0.0-144.0-1.0","null","<p></p>","null","","","","","","","","","","","","","","","","","","","","","","",""
"","do_trial","273","1140298","0.0-145.0-0.0","490","","","","","","","","51","0,0,1","2","coast","80","probe-201","0.4083799629039545","0.10305246934146894","0.7180097348179959","1","","","","","","","",""
"","html-keyboard-response","274","1141302","0.0-145.0-1.0","null","<p></p>","null","","","","","","","","","","","","","","","","","","","","","","",""
"","do_trial","275","1146480","0.0-146.0-0.0","638.6000000014901","","","","","","","","51","0,0,0","2","coast","81","probe-135","0.2513874093552749","0.2344155942659112","0.6500553807985339","0","","","","","","","",""
"","html-keyboard-response","276","1147485","0.0-146.0-1.0","null","<p></p>","null","","","","","","","","","","","","","","","","","","","","","","",""
"","do_trial","277","1152330","0.0-147.0-0.0","298.29999999701977","","","","","","","","51","0,0,0","2","coast","82","probe-69","0.3633277444587324","0.24788302848650873","0.3463069381062777","0","","","","","","","",""
"","html-keyboard-response","278","1153333","0.0-147.0-1.0","null","<p></p>","null","","","","","","","","","","","","","","","","","","","","","","",""
"","do_trial","279","1158005","0.0-148.0-0.0","127.10000000149012","","","","","","","","51","0,0,1","2","coast","83","probe-221","0.4740681880472851","0.26681226210611664","0.3147531669514918","1","","","","","","","",""
"","html-keyboard-response","280","1159010","0.0-148.0-1.0","null","<p></p>","null","","","","","","","","","","","","","","","","","","","","","","",""
"","do_trial","281","1163611","0.0-149.0-0.0","60.5","","","","","","","","51","1,1,0","2","coast","84","probe-123","0.5485643183565737","0.232027495805263","0.17327936711008607","0","","","","","","","",""
"","html-keyboard-response","282","1164616","0.0-149.0-1.0","null","<p></p>","null","","","","","","","","","","","","","","","","","","","","","","",""
"","do_trial","283","1169172","0.0-150.0-0.0","0","","","","","","","","50","1,0,1","2","coast","85","probe-133","0.5222840343971814","0.3516311616326456","0.21390654243799936","0","","","","","","","",""
"","html-keyboard-response","284","1170178","0.0-150.0-1.0","null","<p></p>","null","","","","","","","","","","","","","","","","","","","","","","",""
"","do_trial","285","1174753","0.0-151.0-0.0","26.100000001490116","","","","","","","","49","1,0,0","2","coast","86","probe-14","0.74804356005671","0.23147940630020994","0.1067101312792384","1","","","","","","","",""
"","html-keyboard-response","286","1175756","0.0-151.0-1.0","null","<p></p>","null","","","","","","","","","","","","","","","","","","","","","","",""
"","do_trial","287","1181659","0.0-152.0-0.0","1362.6000000014901","","","","","","","","51","1,0,0","2","coast","87","probe-144","0.6329651308976357","0.16123526161804122","0.07598021132357037","0","","","","","","","",""
"","html-keyboard-response","288","1182664","0.0-152.0-1.0","null","<p></p>","null","","","","","","","","","","","","","","","","","","","","","","",""
"","do_trial","289","1187773","0.0-153.0-0.0","562.6000000014901","","","","","","","","49","1,1,0","2","coast","88","probe-102","0.4862134955400878","0.2824907965290108","0.06793428884249092","1","","","","","","","",""
"","html-keyboard-response","290","1188777","0.0-153.0-1.0","null","<p></p>","null","","","","","","","","","","","","","","","","","","","","","","",""
"","do_trial","291","1193774","0.0-154.0-0.0","452.3999999985099","","","","","","","","49","0,0,0","2","coast","89","probe-61","0.4245552624141968","0.3395166651638219","0.09812114469914673","0","","","","","","","",""
"","html-keyboard-response","292","1194775","0.0-154.0-1.0","null","<p></p>","null","","","","","","","","","","","","","","","","","","","","","","",""
"","do_trial","293","1199394","0.0-155.0-0.0","76.79999999701977","","","","","","","","49","0,0,0","2","coast","90","probe-145","0.3874279857234975","0.2844805164309507","0.18050259032863544","0","","","","","","","",""
"","html-keyboard-response","294","1200399","0.0-155.0-1.0","null","<p></p>","null","","","","","","","","","","","","","","","","","","","","","","",""
"","do_trial","295","1205474","0.0-156.0-0.0","534.5","","","","","","","","51","1,0,0","2","coast","91","probe-86","0.4734992350069886","0.2021429490441981","0.050413669748110394","0","","","","","","","",""
"","html-keyboard-response","296","1206476","0.0-156.0-1.0","null","<p></p>","null","","","","","","","","","","","","","","","","","","","","","","",""
"","do_trial","297","1211580","0.0-157.0-0.0","560.5","","","","","","","","49","1,0,0","2","coast","92","probe-12","0.5909645513623857","0.3029992671651619","0.17963838903962742","1","","","","","","","",""
"","html-keyboard-response","298","1212585","0.0-157.0-1.0","null","<p></p>","null","","","","","","","","","","","","","","","","","","","","","","",""
"","do_trial","299","1217645","0.0-158.0-0.0","514.2000000029802","","","","","","","","49","0,1,0","2","coast","93","probe-27","0.5200284670816945","0.19806480043219382","0.31255476404570764","0","","","","","","","",""
"","html-keyboard-response","300","1218650","0.0-158.0-1.0","null","<p></p>","null","","","","","","","","","","","","","","","","","","","","","","",""
"","do_trial","301","1223602","0.0-159.0-0.0","411.30000000447035","","","","","","","","50","1,1,0","2","coast","94","probe-167","0.5424186846919102","0.28810793811808316","0.18279385473459825","1","","","","","","","",""
"","html-keyboard-response","302","1224606","0.0-159.0-1.0","null","<p></p>","null","","","","","","","","","","","","","","","","","","","","","","",""
"","do_trial","303","1229680","0.0-160.0-0.0","528.3000000044703","","","","","","","","50","0,0,0","2","coast","95","probe-202","0.5619870231565224","0.23326766202554391","0.24510405634269652","0","","","","","","","",""
"","html-keyboard-response","304","1230684","0.0-160.0-1.0","null","<p></p>","null","","","","","","","","","","","","","","","","","","","","","","",""
"","do_trial","305","1235619","0.0-161.0-0.0","394.20000000298023","","","","","","","","51","1,0,1","2","coast","96","probe-63","0.6183029167248054","0.14522508411091142","0.1713057261624428","1","","","","","","","",""
"","html-keyboard-response","306","1236623","0.0-161.0-1.0","null","<p></p>","null","","","","","","","","","","","","","","","","","","","","","","",""
"","do_trial","307","1241757","0.0-162.0-0.0","592.2999999970198","","","","","","","","51","1,1,0","2","coast","97","probe-169","0.7612504990001294","0.2119791214827486","0.1939957915913716","0","","","","","","","",""
"","html-keyboard-response","308","1242759","0.0-162.0-1.0","null","<p></p>","null","","","","","","","","","","","","","","","","","","","","","","",""
"","do_trial","309","1247870","0.0-163.0-0.0","567.6000000014901","","","","","","","","49","0,0,0","2","coast","98","probe-26","0.8056982459122952","0.14960655181969226","0.20695640958647887","0","","","","","","","",""
"","html-keyboard-response","310","1248872","0.0-163.0-1.0","null","<p></p>","null","","","","","","","","","","","","","","","","","","","","","","",""
"","do_trial","311","1253918","0.0-164.0-0.0","500.90000000596046","","","","","","","","50","1,0,0","2","coast","99","probe-189","0.8089951294872124","0.15685749248590325","0.15930940558529386","0","","","","","","","",""
"","html-keyboard-response","312","1254921","0.0-164.0-1.0","null","<p></p>","null","","","","","","","","","","","","","","","","","","","","","","",""
"","do_trial","313","1259913","0.0-165.0-0.0","447.19999999552965","","","","","","","","51","1,0,1","2","coast","100","probe-200","0.8478068916953521","0.2513128971401001","0.11013816912821144","1","","","","","","","",""
"","html-keyboard-response","314","1260917","0.0-165.0-1.0","null","<p></p>","null","","","","","","","","","","","","","","","","","","","","","","",""
"","do_trial","315","1266078","0.0-166.0-0.0","618.7999999970198","","","","","","","","51","1,0,0","2","coast","101","probe-173","0.7140199123992079","0.39649346733843277","0.10837508182472305","0","","","","","","","",""
"","html-keyboard-response","316","1267083","0.0-166.0-1.0","null","<p></p>","null","","","","","","","","","","","","","","","","","","","","","","",""
"","do_trial","317","1272197","0.0-167.0-0.0","571.3000000044703","","","","","","","","50","1,1,1","2","coast","102","probe-194","0.7555113565791178","0.505288613375319","0.364066112776884","1","","","","","","","",""
"","html-keyboard-response","318","1273201","0.0-167.0-1.0","null","<p></p>","null","","","","","","","","","","","","","","","","","","","","","","",""
"","do_trial","319","1278420","0.0-168.0-0.0","679.6000000014901","","","","","","","","50","1,1,0","2","coast","103","probe-43","0.8279571077624973","0.5570071379457225","0.3050734484663082","1","","","","","","","",""
"","html-keyboard-response","320","1279425","0.0-168.0-1.0","null","<p></p>","null","","","","","","","","","","","","","","","","","","","","","","",""
"","do_trial","321","1284512","0.0-169.0-0.0","544.3999999985099","","","","","","","","50","0,0,1","2","coast","104","probe-166","0.6619821635033705","0.39884697287107385","0.20947577012028792","0","","","","","","","",""
"","html-keyboard-response","322","1285514","0.0-169.0-1.0","null","<p></p>","null","","","","","","","","","","","","","","","","","","","","","","",""
"","do_trial","323","1290585","0.0-170.0-0.0","520.9000000059605","","","","","","","","49","1,0,0","2","coast","105","probe-15","0.6416977150898135","0.20894127625478306","0.051399151837718884","1","","","","","","","",""
"","html-keyboard-response","324","1291588","0.0-170.0-1.0","null","<p></p>","null","","","","","","","","","","","","","","","","","","","","","","",""
"","do_trial","325","1296864","0.0-171.0-0.0","734.5","","","","","","","","49","0,0,1","2","coast","106","probe-73","0.6562440582481519","0.19852746381844316","0.12945955720965127","0","","","","","","","",""
"","html-keyboard-response","326","1297870","0.0-171.0-1.0","null","<p></p>","null","","","","","","","","","","","","","","","","","","","","","","",""
"","do_trial","327","1302904","0.0-172.0-0.0","491.70000000298023","","","","","","","","51","0,0,1","2","coast","107","probe-34","0.7260594048422712","0.26482731165499573","0.13835126765703387","1","","","","","","","",""
"","html-keyboard-response","328","1303908","0.0-172.0-1.0","null","<p></p>","null","","","","","","","","","","","","","","","","","","","","","","",""
"","do_trial","329","1309068","0.0-173.0-0.0","591.7999999970198","","","","","","","","51","0,0,0","2","coast","108","probe-213","0.6991429410332417","0.2121506502386697","0.1705476987824121","0","","","","","","","",""
"","html-keyboard-response","330","1310070","0.0-173.0-1.0","null","<p></p>","null","","","","","","","","","","","","","","","","","","","","","","",""
"","do_trial","331","1315169","0.0-174.0-0.0","554.2000000029802","","","","","","","","50","0,0,1","2","coast","109","probe-88","0.631219846286218","0.33822590480098214","0.20921922108647015","0","","","","","","","",""
"","html-keyboard-response","332","1316174","0.0-174.0-1.0","null","<p></p>","null","","","","","","","","","","","","","","","","","","","","","","",""
"","do_bye","333","1317680","0.0-175.0-0.0","null","","","","","","","","null","","","","","","","","","","","","","","","","",""
"","break","334","1319040","0.0-175.0-1.0","1359","<div class='center'><p>Time to take a quick break! You have 2 minutes to rest, but you can move on sooner if you'd like.</p><p> Press the <b>space bar</b> to continue.</p></div>","32","","","","","","","","","","","","","","","","","","","","","","",""
"","do_travel","335","1325045","0.0-176.0-0.0","null","","","","","","","","null","","","","","","","","","","","","","","","","",""
"","do_welcome","336","1326551","0.0-176.0-1.0","null","","","","","","","","null","","","","","","","","","","","","","","","","",""
"","do_trial","337","1332439","0.0-177.0-0.0","1345.2999999970198","","","","","","","","49","1,0,0","3","countryside","110","probe-211","1","0.260015710992036","0.1480732795118759","1","","","","","","","",""
"","html-keyboard-response","338","1333442","0.0-177.0-1.0","null","<p></p>","null","","","","","","","","","","","","","","","","","","","","","","",""
"","do_trial","339","1338579","0.0-178.0-0.0","594.1000000014901","","","","","","","","49","1,0,0","3","countryside","111","probe-191","1","0.2489054516651261","0.20157034302633023","1","","","","","","","",""
"","html-keyboard-response","340","1339584","0.0-178.0-1.0","null","<p></p>","null","","","","","","","","","","","","","","","","","","","","","","",""
"","do_trial","341","1344763","0.0-179.0-0.0","632.0999999940395","","","","","","","","49","1,0,0","3","countryside","112","probe-03","0.70416669544662","0.27812279778855753","0.07998303419284096","1","","","","","","","",""
"","html-keyboard-response","342","1345766","0.0-179.0-1.0","null","<p></p>","null","","","","","","","","","","","","","","","","","","","","","","",""
"","do_trial","343","1350782","0.0-180.0-0.0","462.70000000298023","","","","","","","","49","1,1,1","3","countryside","113","probe-103","0.5419434947147838","0.2551118472135283","0.1706212522014478","1","","","","","","","",""
"","html-keyboard-response","344","1351787","0.0-180.0-1.0","null","<p></p>","null","","","","","","","","","","","","","","","","","","","","","","",""
"","do_trial","345","1356680","0.0-181.0-0.0","350.40000000596046","","","","","","","","49","1,0,0","3","countryside","114","probe-09","0.536402094528753","0.2161960463736105","0.07921495740793588","1","","","","","","","",""
"","html-keyboard-response","346","1357684","0.0-181.0-1.0","null","<p></p>","null","","","","","","","","","","","","","","","","","","","","","","",""
"","do_trial","347","1362630","0.0-182.0-0.0","392.30000000447035","","","","","","","","49","1,0,0","3","countryside","115","probe-137","0.5336411592297915","0.1698841159004369","0.05631584326506761","1","","","","","","","",""
"","html-keyboard-response","348","1363634","0.0-182.0-1.0","null","<p></p>","null","","","","","","","","","","","","","","","","","","","","","","",""
"","do_trial","349","1368598","0.0-183.0-0.0","421.3999999985099","","","","","","","","49","1,0,0","3","countryside","116","probe-78","0.7057229347021519","0.0673645575211765","0.12315898331589982","1","","","","","","","",""
"","html-keyboard-response","350","1369602","0.0-183.0-1.0","null","<p></p>","null","","","","","","","","","","","","","","","","","","","","","","",""
"","do_trial","351","1374954","0.0-184.0-0.0","807.1999999955297","","","","","","","","49","0,0,0","3","countryside","117","probe-77","0.7033913627384993","0.21715727022317224","0.09535614738071793","0","","","","","","","",""
"","html-keyboard-response","352","1375959","0.0-184.0-1.0","null","<p></p>","null","","","","","","","","","","","","","","","","","","","","","","",""
"","do_trial","353","1381105","0.0-185.0-0.0","602.8000000044703","","","","","","","","51","1,0,0","3","countryside","118","probe-56","0.457578751643363","0.25509076755156146","0.14044403475487433","0","","","","","","","",""
"","html-keyboard-response","354","1382111","0.0-185.0-1.0","null","<p></p>","null","","","","","","","","","","","","","","","","","","","","","","",""
"","do_trial","355","1387170","0.0-186.0-0.0","518.1000000014901","","","","","","","","50","0,0,0","3","countryside","119","probe-47","0.46463961785315533","0.29019710098663865","0.12712839562042677","0","","","","","","","",""
"","html-keyboard-response","356","1388172","0.0-186.0-1.0","null","<p></p>","null","","","","","","","","","","","","","","","","","","","","","","",""
"","do_trial","357","1393220","0.0-187.0-0.0","503.3999999985099","","","","","","","","49","0,0,1","3","countryside","120","probe-223","0.4714168303842996","0.25911622124877487","0.2682819032631049","0","","","","","","","",""
"","html-keyboard-response","358","1394223","0.0-187.0-1.0","null","<p></p>","null","","","","","","","","","","","","","","","","","","","","","","",""
"","do_trial","359","1399294","0.0-188.0-0.0","490.79999999701977","","","","","","","","51","1,0,0","3","countryside","121","probe-125","0.40180491944829655","0.3751653471036178","0.13909297011691896","0","","","","","","","",""
"","html-keyboard-response","360","1400299","0.0-188.0-1.0","null","<p></p>","null","","","","","","","","","","","","","","","","","","","","","","",""
"","do_trial","361","1405368","0.0-189.0-0.0","524.7999999970198","","","","","","","","50","0,0,1","3","countryside","122","probe-164","0.27848510466330484","0.30454978287922047","0.28676906244555667","0","","","","","","","",""
"","html-keyboard-response","362","1406373","0.0-189.0-1.0","null","<p></p>","null","","","","","","","","","","","","","","","","","","","","","","",""
"","do_trial","363","1411442","0.0-190.0-0.0","522.3999999985099","","","","","","","","49","0,0,0","3","countryside","123","probe-134","0.19044238816804845","0.32916523901346834","0.1764122483674495","0","","","","","","","",""
"","html-keyboard-response","364","1412447","0.0-190.0-1.0","null","<p></p>","null","","","","","","","","","","","","","","","","","","","","","","",""
"","do_trial","365","1417433","0.0-191.0-0.0","444.5","","","","","","","","51","0,0,1","3","countryside","124","probe-107","0.09517114454876267","0.22185974228536676","0.3932514146123303","1","","","","","","","",""
"","html-keyboard-response","366","1418439","0.0-191.0-1.0","null","<p></p>","null","","","","","","","","","","","","","","","","","","","","","","",""
"","do_trial","367","1423408","0.0-192.0-0.0","426","","","","","","","","51","0,0,0","3","countryside","125","probe-96","0.0538622537883776","0.23472589349766185","0.4098287407695743","0","","","","","","","",""
"","html-keyboard-response","368","1424413","0.0-192.0-1.0","null","<p></p>","null","","","","","","","","","","","","","","","","","","","","","","",""
"","do_trial","369","1429360","0.0-193.0-0.0","406.1000000014901","","","","","","","","49","0,0,0","3","countryside","126","probe-117","0.06621885535527935","0.31651438058614295","0.480831933204637","0","","","","","","","",""
"","html-keyboard-response","370","1430365","0.0-193.0-1.0","null","<p></p>","null","","","","","","","","","","","","","","","","","","","","","","",""
"","do_trial","371","1435334","0.0-194.0-0.0","410.90000000596046","","","","","","","","51","0,1,1","3","countryside","127","probe-85","0.05588059505565808","0.30796361956789753","0.5180069460778847","1","","","","","","","",""
"","html-keyboard-response","372","1436339","0.0-194.0-1.0","null","<p></p>","null","","","","","","","","","","","","","","","","","","","","","","",""
"","do_trial","373","1441427","0.0-195.0-0.0","544.5","","","","","","","","51","0,0,1","3","countryside","128","probe-210","0.16346438899506666","0.135899408660851","0.5128106744208762","1","","","","","","","",""
"","html-keyboard-response","374","1442430","0.0-195.0-1.0","null","<p></p>","null","","","","","","","","","","","","","","","","","","","","","","",""
"","do_trial","375","1447428","0.0-196.0-0.0","452.69999999552965","","","","","","","","51","0,0,1","3","countryside","129","probe-36","0.06427435799838702","0.2139702314813613","0.6461233402318606","1","","","","","","","",""
"","html-keyboard-response","376","1448430","0.0-196.0-1.0","null","<p></p>","null","","","","","","","","","","","","","","","","","","","","","","",""
"","do_trial","377","1453407","0.0-197.0-0.0","427.29999999701977","","","","","","","","51","0,0,1","3","countryside","130","probe-05","0.15933659754263693","0.16359458356882656","0.626141263631302","1","","","","","","","",""
"","html-keyboard-response","378","1454412","0.0-197.0-1.0","null","<p></p>","null","","","","","","","","","","","","","","","","","","","","","","",""
"","do_trial","379","1460101","0.0-198.0-0.0","1135.5","","","","","","","","51","0,0,1","3","countryside","131","probe-159","0.06050230081871078","0.07099963038201323","0.542726081857417","1","","","","","","","",""
"","html-keyboard-response","380","1461105","0.0-198.0-1.0","null","<p></p>","null","","","","","","","","","","","","","","","","","","","","","","",""
"","do_trial","381","1466225","0.0-199.0-0.0","575.1000000014901","","","","","","","","51","0,0,0","3","countryside","132","probe-49","0.10389088695552527","0.12682434429272507","0.6633289397310479","0","","","","","","","",""
"","html-keyboard-response","382","1467230","0.0-199.0-1.0","null","<p></p>","null","","","","","","","","","","","","","","","","","","","","","","",""
"","do_trial","383","1472307","0.0-200.0-0.0","529.2000000029802","","","","","","","","49","0,1,1","3","countryside","133","probe-93","0.07842187916155302","0.24227144836135428","0.6767438347271117","0","","","","","","","",""
"","html-keyboard-response","384","1473313","0.0-200.0-1.0","null","<p></p>","null","","","","","","","","","","","","","","","","","","","","","","",""
"","do_trial","385","1478492","0.0-201.0-0.0","633.7999999970198","","","","","","","","50","0,0,1","3","countryside","134","probe-80","0.19242852627063567","0.09791729771753759","0.6551118372028547","0","","","","","","","",""
"","html-keyboard-response","386","1479498","0.0-201.0-1.0","null","<p></p>","null","","","","","","","","","","","","","","","","","","","","","","",""
"","do_trial","387","1485373","0.0-202.0-0.0","1330.3000000044703","","","","","","","","51","0,1,1","3","countryside","135","probe-18","0.2104591371379023","0.17371982854934523","0.6712464226962526","1","","","","","","","",""
"","html-keyboard-response","388","1486378","0.0-202.0-1.0","null","<p></p>","null","","","","","","","","","","","","","","","","","","","","","","",""
"","do_trial","389","1491949","0.0-203.0-0.0","1027.8999999985099","","","","","","","","51","1,0,0","3","countryside","136","probe-48","0.25125259027197117","0.23573938197923114","0.5685097481370951","0","","","","","","","",""
"","html-keyboard-response","390","1492952","0.0-203.0-1.0","null","<p></p>","null","","","","","","","","","","","","","","","","","","","","","","",""
"","do_trial","391","1498085","0.0-204.0-0.0","586.3999999985099","","","","","","","","49","1,0,1","3","countryside","137","probe-95","0.15832304508185088","0.380298382116199","0.509440931688308","1","","","","","","","",""
"","html-keyboard-response","392","1499088","0.0-204.0-1.0","null","<p></p>","null","","","","","","","","","","","","","","","","","","","","","","",""
"","do_trial","393","1505253","0.0-205.0-0.0","1623.4000000059605","","","","","","","","49","0,1,1","3","countryside","138","probe-141","0.0624753392328104","0.3568934425588298","0.5043058720972814","0","","","","","","","",""
"","html-keyboard-response","394","1506258","0.0-205.0-1.0","null","<p></p>","null","","","","","","","","","","","","","","","","","","","","","","",""
"","do_trial","395","1511483","0.0-206.0-0.0","684.2000000029802","","","","","","","","51","0,0,1","3","countryside","139","probe-31","0.05217655390917427","0.3351885146584247","0.5365325773775554","1","","","","","","","",""
"","html-keyboard-response","396","1512488","0.0-206.0-1.0","null","<p></p>","null","","","","","","","","","","","","","","","","","","","","","","",""
"","do_trial","397","1517747","0.0-207.0-0.0","710.0999999940395","","","","","","","","51","0,1,0","3","countryside","140","probe-182","0.11636948881531399","0.39526369934075606","0.5331487428879338","0","","","","","","","",""
"","html-keyboard-response","398","1518760","0.0-207.0-1.0","null","<p></p>","null","","","","","","","","","","","","","","","","","","","","","","",""
"","do_trial","399","1523937","0.0-208.0-0.0","628.6000000014901","","","","","","","","50","0,0,1","3","countryside","141","probe-204","0.1703691094091244","0.38591733443318454","0.4771325172498094","0","","","","","","","",""
"","html-keyboard-response","400","1524939","0.0-208.0-1.0","null","<p></p>","null","","","","","","","","","","","","","","","","","","","","","","",""
"","do_trial","401","1530048","0.0-209.0-0.0","569","","","","","","","","49","0,0,0","3","countryside","142","probe-22","0.13207234823150674","0.21316530362252287","0.522778641782825","0","","","","","","","",""
"","html-keyboard-response","402","1531053","0.0-209.0-1.0","null","<p></p>","null","","","","","","","","","","","","","","","","","","","","","","",""
"","do_trial","403","1536109","0.0-210.0-0.0","515.1999999955297","","","","","","","","51","0,0,1","3","countryside","143","probe-153","0.2248365515633751","0.08713351107533232","0.5558007139475851","1","","","","","","","",""
"","html-keyboard-response","404","1537113","0.0-210.0-1.0","null","<p></p>","null","","","","","","","","","","","","","","","","","","","","","","",""
"","do_trial","405","1542332","0.0-211.0-0.0","674","","","","","","","","51","0,0,1","3","countryside","144","probe-224","0.20947367785152599","0.0864299673899166","0.6720292755247192","1","","","","","","","",""
"","html-keyboard-response","406","1543336","0.0-211.0-1.0","null","<p></p>","null","","","","","","","","","","","","","","","","","","","","","","",""
"","do_trial","407","1548754","0.0-212.0-0.0","875.6000000014901","","","","","","","","51","0,0,1","3","countryside","145","probe-229","0.182781969005862","0.13299630198756268","0.7691997233710801","1","","","","","","","",""
"","html-keyboard-response","408","1549759","0.0-212.0-1.0","null","<p></p>","null","","","","","","","","","","","","","","","","","","","","","","",""
"","do_trial","409","1555016","0.0-213.0-0.0","714.1999999955297","","","","","","","","51","0,1,1","3","countryside","146","probe-92","0.18665552084681278","0.24760471574017515","0.7316749570105026","1","","","","","","","",""
"","html-keyboard-response","410","1556021","0.0-213.0-1.0","null","<p></p>","null","","","","","","","","","","","","","","","","","","","","","","",""
"","do_trial","411","1561223","0.0-214.0-0.0","659.1000000014901","","","","","","","","51","0,0,1","3","countryside","147","probe-79","0.17361258551678493","0.22796478442082332","0.7001746832758403","1","","","","","","","",""
"","html-keyboard-response","412","1562226","0.0-214.0-1.0","null","<p></p>","null","","","","","","","","","","","","","","","","","","","","","","",""
"","do_trial","413","1567324","0.0-215.0-0.0","557.7000000029802","","","","","","","","51","0,0,1","3","countryside","148","probe-193","0.13349024183716637","0.10589924106974338","0.5984422887033229","1","","","","","","","",""
"","html-keyboard-response","414","1568328","0.0-215.0-1.0","null","<p></p>","null","","","","","","","","","","","","","","","","","","","","","","",""
"","do_trial","415","1574058","0.0-216.0-0.0","1185.2999999970198","","","","","","","","51","0,0,1","3","countryside","149","probe-39","0.15170275472616535","0.23444642811556293","0.5994229870228828","1","","","","","","","",""
"","html-keyboard-response","416","1575063","0.0-216.0-1.0","null","<p></p>","null","","","","","","","","","","","","","","","","","","","","","","",""
"","do_bye","417","1576571","0.0-217.0-0.0","null","","","","","","","","null","","","","","","","","","","","","","","","","",""
"","break","418","1577685","0.0-217.0-1.0","1112.5","<div class='center'><p>Time to take a quick break! You have 2 minutes to rest, but you can move on sooner if you'd like.</p><p> Press the <b>space bar</b> to continue.</p></div>","32","","","","","","","","","","","","","","","","","","","","","","",""
"","do_travel","419","1583689","0.0-218.0-0.0","null","","","","","","","","null","","","","","","","","","","","","","","","","",""
"","do_welcome","420","1585197","0.0-218.0-1.0","null","","","","","","","","null","","","","","","","","","","","","","","","","",""
"","do_trial","421","1591054","0.0-219.0-0.0","1315","","","","","","","","49","0,1,1","4","forest","150","probe-207","0.06269410743240457","0.2784028718544364","1","0","","","","","","","",""
"","html-keyboard-response","422","1592060","0.0-219.0-1.0","null","<p></p>","null","","","","","","","","","","","","","","","","","","","","","","",""
"","do_trial","423","1597272","0.0-220.0-0.0","665.8999999985099","","","","","","","","50","0,0,1","4","forest","151","probe-20","0.21600329592464002","0.25579748740450126","1","0","","","","","","","",""
"","html-keyboard-response","424","1598277","0.0-220.0-1.0","null","<p></p>","null","","","","","","","","","","","","","","","","","","","","","","",""
"","do_trial","425","1603443","0.0-221.0-0.0","625","","","","","","","","51","0,0,1","4","forest","152","probe-140","0.20765638702616038","0.15599179834193366","0.7988944476068237","1","","","","","","","",""
"","html-keyboard-response","426","1604447","0.0-221.0-1.0","null","<p></p>","null","","","","","","","","","","","","","","","","","","","","","","",""
"","do_trial","427","1609443","0.0-222.0-0.0","450.29999999701977","","","","","","","","51","0,1,1","4","forest","153","probe-32","0.15286877859011638","0.14965946200227057","0.7756431618332862","1","","","","","","","",""
"","html-keyboard-response","428","1610447","0.0-222.0-1.0","null","<p></p>","null","","","","","","","","","","","","","","","","","","","","","","",""
"","do_trial","429","1615725","0.0-223.0-0.0","735.1000000014901","","","","","","","","51","0,0,0","4","forest","154","probe-11","0.08813582456444947","0.17179373853639734","0.6068025755943086","0","","","","","","","",""
"","html-keyboard-response","430","1616731","0.0-223.0-1.0","null","<p></p>","null","","","","","","","","","","","","","","","","","","","","","","",""
"","do_trial","431","1622485","0.0-224.0-0.0","1209.7999999970198","","","","","","","","49","0,0,1","4","forest","155","probe-07","0.12196518374574104","0.30885576062154874","0.5686598551242654","0","","","","","","","",""
"","html-keyboard-response","432","1623488","0.0-224.0-1.0","null","<p></p>","null","","","","","","","","","","","","","","","","","","","","","","",""
"","do_trial","433","1630327","0.0-225.0-0.0","2298.5","","","","","","","","50","1,1,1","4","forest","156","probe-228","0.11054348513971267","0.18992139370292066","0.512391508680914","1","","","","","","","",""
"","html-keyboard-response","434","1631332","0.0-225.0-1.0","null","<p></p>","null","","","","","","","","","","","","","","","","","","","","","","",""
"","do_trial","435","1636358","0.0-226.0-0.0","481.59999999403954","","","","","","","","50","0,1,0","4","forest","157","probe-46","0.09747404664268178","0.29866270064972744","0.4609732649413127","1","","","","","","","",""
"","html-keyboard-response","436","1637363","0.0-226.0-1.0","null","<p></p>","null","","","","","","","","","","","","","","","","","","","","","","",""
"","do_trial","437","1642303","0.0-227.0-0.0","398","","","","","","","","50","0,0,0","4","forest","158","probe-126","0.0737690706185036","0.26923874480684623","0.575418838309722","0","","","","","","","",""
"","html-keyboard-response","438","1643307","0.0-227.0-1.0","null","<p></p>","null","","","","","","","","","","","","","","","","","","","","","","",""
"","do_trial","439","1648399","0.0-228.0-0.0","548.6000000014901","","","","","","","","51","0,1,0","4","forest","159","probe-147","0.0628076725429179","0.2611273969578703","0.5500427699530868","0","","","","","","","",""
"","html-keyboard-response","440","1649402","0.0-228.0-1.0","null","<p></p>","null","","","","","","","","","","","","","","","","","","","","","","",""
"","do_trial","441","1654309","0.0-229.0-0.0","365.29999999701977","","","","","","","","49","0,0,0","4","forest","160","probe-168","0.08038128957858588","0.24916155155328049","0.5320929852504086","0","","","","","","","",""
"","html-keyboard-response","442","1655312","0.0-229.0-1.0","null","<p></p>","null","","","","","","","","","","","","","","","","","","","","","","",""
"","do_trial","443","1660327","0.0-230.0-0.0","473.1000000014901","","","","","","","","50","1,1,0","4","forest","161","probe-129","0.18603720952767774","0.3924778977199721","0.4302502110076861","1","","","","","","","",""
"","html-keyboard-response","444","1661333","0.0-230.0-1.0","null","<p></p>","null","","","","","","","","","","","","","","","","","","","","","","",""
"","do_trial","445","1666342","0.0-231.0-0.0","467.79999999701977","","","","","","","","50","1,0,1","4","forest","162","probe-60","0.1563166299506464","0.368984429149232","0.4116186823538272","0","","","","","","","",""
"","html-keyboard-response","446","1667346","0.0-231.0-1.0","null","<p></p>","null","","","","","","","","","","","","","","","","","","","","","","",""
"","do_trial","447","1672383","0.0-232.0-0.0","492.6000000014901","","","","","","","","51","1,1,1","4","forest","163","probe-178","0.18500251348341348","0.4024275915100197","0.4392885502119031","1","","","","","","","",""
"","html-keyboard-response","448","1673389","0.0-232.0-1.0","null","<p></p>","null","","","","","","","","","","","","","","","","","","","","","","",""
"","do_trial","449","1678853","0.0-233.0-0.0","922.8999999985099","","","","","","","","51","0,1,0","4","forest","164","probe-188","0.2019367627563433","0.537393867314486","0.34547401233670755","0","","","","","","","",""
"","html-keyboard-response","450","1679856","0.0-233.0-1.0","null","<p></p>","null","","","","","","","","","","","","","","","","","","","","","","",""
"","do_trial","451","1684928","0.0-234.0-0.0","528.6000000014901","","","","","","","","49","0,1,1","4","forest","165","probe-220","0.27381266342470445","0.6806301653247576","0.14099887774552833","0","","","","","","","",""
"","html-keyboard-response","452","1685931","0.0-234.0-1.0","null","<p></p>","null","","","","","","","","","","","","","","","","","","","","","","",""
"","do_trial","453","1691002","0.0-235.0-0.0","500.70000000298023","","","","","","","","50","0,1,0","4","forest","166","probe-90","0.28033658863160216","0.4923287485250144","0.20867858029168773","1","","","","","","","",""
"","html-keyboard-response","454","1692006","0.0-235.0-1.0","null","<p></p>","null","","","","","","","","","","","","","","","","","","","","","","",""
"","do_trial","455","1697079","0.0-236.0-0.0","530.1999999955297","","","","","","","","50","0,0,1","4","forest","167","probe-132","0.212134047200715","0.6033432313063363","0.2581443924387274","0","","","","","","","",""
"","html-keyboard-response","456","1698085","0.0-236.0-1.0","null","<p></p>","null","","","","","","","","","","","","","","","","","","","","","","",""
"","do_trial","457","1703089","0.0-237.0-0.0","461.5","","","","","","","","51","0,1,1","4","forest","168","probe-75","0.12849432151875453","0.7085300408480818","0.20439364008642366","1","","","","","","","",""
"","html-keyboard-response","458","1704093","0.0-237.0-1.0","null","<p></p>","null","","","","","","","","","","","","","","","","","","","","","","",""
"","do_trial","459","1709137","0.0-238.0-0.0","495.3999999985099","","","","","","","","51","0,1,0","4","forest","169","probe-111","0.116436199920612","0.7437246026164981","0.14259899074900706","0","","","","","","","",""
"","html-keyboard-response","460","1710142","0.0-238.0-1.0","null","<p></p>","null","","","","","","","","","","","","","","","","","","","","","","",""
"","do_trial","461","1716629","0.0-239.0-0.0","1941.6000000014901","","","","","","","","50","0,1,0","4","forest","170","probe-195","0.12721819296441164","0.8026576045539895","0.20198862265606937","1","","","","","","","",""
"","html-keyboard-response","462","1717633","0.0-239.0-1.0","null","<p></p>","null","","","","","","","","","","","","","","","","","","","","","","",""
"","do_trial","463","1722572","0.0-240.0-0.0","396.1000000014901","","","","","","","","50","1,1,0","4","forest","171","probe-120","0.20354593134719623","0.7508539355342002","0.2532751868687894","1","","","","","","","",""
"","html-keyboard-response","464","1723576","0.0-240.0-1.0","null","<p></p>","null","","","","","","","","","","","","","","","","","","","","","","",""
"","do_trial","465","1728550","0.0-241.0-0.0","389.6000000014901","","","","","","","","50","0,1,0","4","forest","172","probe-83","0.1598727823101424","0.72882331915439","0.16381668544081457","1","","","","","","","",""
"","html-keyboard-response","466","1729554","0.0-241.0-1.0","null","<p></p>","null","","","","","","","","","","","","","","","","","","","","","","",""
"","do_trial","467","1734839","0.0-242.0-0.0","742.1000000014901","","","","","","","","50","0,1,0","4","forest","173","probe-101","0.10704013595813988","0.5826794387140141","0.29071959614108694","1","","","","","","","",""
