success,trial_type,trial_index,time_elapsed,internal_node_id,interactions,blur_events,focus_events,fullscreenenter_events,fullscreenexit_events,rt,stimulus,key_press,subject_id,participant_id,age,gender,prompt,response,choice_outcomes,context_n,context_img_id,trial_n,probe_img_id,pR_red,pR_white,pR_black,outcome,contextArray_ind,validImageProbes,invalidImageProbes,pRew_Red,pRew_White,pRew_Black,availableForMemProbe,choice_blocks
TRUE,fullscreen,0,2667,0.0-0.0,"""event"",""trial"",""time""
""fullscreenenter"",""0"",""1705""
","
","
","""event"",""trial"",""time""
""fullscreenenter"",""0"",""1705""
","
",,,,,,,,,,,,,,,,,,,,,,,,,,
,pavlovia,1,2674,0.0-1.0,"""event"",""trial"",""time""
""fullscreenenter"",""0"",""1705""
","
","
","""event"",""trial"",""time""
""fullscreenenter"",""0"",""1705""
","
",,,,,,,,,,,,,,,,,,,,,,,,,,
,instruc1,2,47822,0.0-2.0,"""event"",""trial"",""time""
""fullscreenenter"",""0"",""1705""
","
","
","""event"",""trial"",""time""
""fullscreenenter"",""0"",""1705""
","
",null,run_exp/static/audio/clip_1_welcome.m4a,null,347,894,21,Female,"<div class='center'><p>Welcome! This is the first part of the study. It will last ~30 minutes. In part 1 and part 2 of the study, you are the head captain of a pirate ship traveling around the world to different islands. You will play a few different games throughout these two parts. Here is an overview of them:</p><br><p>Part 1 (today)</p><p>1. Instructions, practice game, and quiz</p><p>2. Pick a pirate game on 6 different islands</p><br><p>Part 2 (tomorrow)</p><p>3. Pick a pirate game and memory game</p><p>4. Where did you see this ship? </p></div>",,,,,,,,,,,,,,,,,,
,html-keyboard-response,3,49546,0.0-3.0,"""event"",""trial"",""time""
""fullscreenenter"",""0"",""1705""
","
","
","""event"",""trial"",""time""
""fullscreenenter"",""0"",""1705""
","
",1721.3,"<div class='center'><p>Welcome! This is the first part of the study. It will last ~30 minutes. In part 1 and part 2 of the study, you are the head captain of a pirate ship traveling around the world to different islands. You will play a few different games throughout these two parts. Here is an overview of them:</p><br><p>Part 1 (today)</p><p>1. Instructions, practice game, and quiz</p><p>2. Pick a pirate game on 6 different islands</p><br><p>Part 2 (tomorrow)</p><p>3. Pick a pirate game and memory game</p><p>4. Where did you see this ship? </p><p><b>[Press the space bar to continue]</b></p></div>",32,,,,,,,,,,,,,,,,,,,,,,,
,instruc2,4,54860,0.0-4.0,"""event"",""trial"",""time""
""fullscreenenter"",""0"",""1705""
","
","
","""event"",""trial"",""time""
""fullscreenenter"",""0"",""1705""
","
",null,run_exp/static/audio/clip_2_different_places.m4a,null,,,,,"<div class='center'><p>Today, you’ll visit these 6 islands on your journey. You'll be able to see these islands from your ship.</p><p><img src='run_exp/static/images/contexts/all_contexts.png' height='500'></p></div>",,,,,,,,,,,,,,,,,,
,html-keyboard-response,5,56541,0.0-5.0,"""event"",""trial"",""time""
""fullscreenenter"",""0"",""1705""
","
","
","""event"",""trial"",""time""
""fullscreenenter"",""0"",""1705""
","
",1677.8,"<div class='center'><p>Today, you’ll visit these 6 islands on your journey. You'll be able to see these islands from your ship.</p><p><img src='run_exp/static/images/contexts/all_contexts.png' height='500'></p><p><b>[Press the space bar to continue]</b></p></div>",32,,,,,,,,,,,,,,,,,,,,,,,
,instruc3,6,66252,0.0-6.0,"""event"",""trial"",""time""
""fullscreenenter"",""0"",""1705""
","
","
","""event"",""trial"",""time""
""fullscreenenter"",""0"",""1705""
","
",null,run_exp/static/audio/clip_3_goal_of_game_1.m4a,null,,,,,"<div class='center'><p> The pirates on your ship will rob other ships as they leave the island.</p> These ships have just sold their goods to the islanders, so they will be filled with lots and lots of gold.</p><p><img src='run_exp/static/images/tutorial/ship_center.png' height='400'></p></div>",,,,,,,,,,,,,,,,,,
,html-keyboard-response,7,67854,0.0-7.0,"""event"",""trial"",""time""
""fullscreenenter"",""0"",""1705""
","
","
","""event"",""trial"",""time""
""fullscreenenter"",""0"",""1705""
","
",1599.4,"<div class='center'><p> The pirates on your ship will rob other ships as they leave the island.</p> These ships have just sold their goods to the islanders, so they will be filled with lots and lots of gold.</p><p><img src='run_exp/static/images/tutorial/ship_center.png' height='400'></p><p><b>[Press the space bar to continue]</b></p></div>",32,,,,,,,,,,,,,,,,,,,,,,,
,instruc4,8,95864,0.0-8.0,"""event"",""trial"",""time""
""fullscreenenter"",""0"",""1705""
","
","
","""event"",""trial"",""time""
""fullscreenenter"",""0"",""1705""
","
",null,run_exp/static/audio/clip_4_goal_of_game_2.m4a,null,,,,,"<div class='center'><p>As the head captain, you do not have to rob any ships yourself. Another pirate will be doing the robbing for you. First, you will choose a pirate to rob the next ship.</p><p><img src='run_exp/static/images/tutorial/pirates_all_crop.png' height='200'></p><p>Then, you'll see if the pirate successfully robbed the ship of their gold. If they were successful, then you'll get a stack of gold coins like this:</p><p><img src='run_exp/static/images/tutorial/reward.png' height='150'></p><p> If they were <b>not</b> successful, then you'll get no gold coins, and you'll see a big red x like this: </p><p><img src='run_exp/static/images/tutorial/reward_no.png' height='150'></p><p> How much bonus money you make is based on how many gold coins you collect.</p><div>",,,,,,,,,,,,,,,,,,
,html-keyboard-response,9,97304,0.0-9.0,"""event"",""trial"",""time""
""fullscreenenter"",""0"",""1705""
","
","
","""event"",""trial"",""time""
""fullscreenenter"",""0"",""1705""
","
",1437,"<div class='center'><p>As the head captain, you do not have to rob any ships yourself. Another pirate will be doing the robbing for you. First, you will choose a pirate to rob the next ship.</p><p><img src='run_exp/static/images/tutorial/pirates_all_crop.png' height='200'></p><p>Then, you'll see if the pirate successfully robbed the ship of their gold. If they were successful, then you'll get a stack of gold coins like this:</p><p><img src='run_exp/static/images/tutorial/reward.png' height='150'></p><p> If they were <b>not</b> successful, then you'll get no gold coins, and you'll see a big red x like this: </p><p><img src='run_exp/static/images/tutorial/reward_no.png' height='150'></p><p> How much bonus money you make is based on how many gold coins you collect.</p<p><b>[Press the space bar to continue]</b></p></div>",32,,,,,,,,,,,,,,,,,,,,,,,
,instruc5,10,118341,0.0-10.0,"""event"",""trial"",""time""
""fullscreenenter"",""0"",""1705""
","
","
","""event"",""trial"",""time""
""fullscreenenter"",""0"",""1705""
","
",21034.9,run_exp/static/audio/clip_5_probabilistic.m4a,49,,,,,"<div class='center'><p>Even the most skilled pirate can not rob EVERY ship.</p><p> Some ships will have very strong protections against pirate attacks.</p><p> Blue beard, here, is very, very good at robbing ships, but he won't be successful every time he tries to rob one.</p><p> You can press the <b>‘1’</b> key on the keyboard to choose him.</p><p> Try choosing him 10 times to see how often he succeeds at robbing a ship. </p><p><img src='run_exp/static/images/tutorial/blue.png' height='500'></p></div>",,,,,,,,,,,,,,,,,,
,html-keyboard-response,11,119849,0.0-11.0,"""event"",""trial"",""time""
""fullscreenenter"",""0"",""1705""
","
","
","""event"",""trial"",""time""
""fullscreenenter"",""0"",""1705""
","
",null,<div class='center'><p><img src='run_exp/static/images/tutorial/blue_win.png' height='500'></p></div>,null,,,,,,,,,,,,,,,,,,,,,,,
,html-keyboard-response,12,121338,0.0-12.0,"""event"",""trial"",""time""
""fullscreenenter"",""0"",""1705""
","
","
","""event"",""trial"",""time""
""fullscreenenter"",""0"",""1705""
","
",1486.3,<div class='center'><img src='run_exp/static/images/tutorial/blue.png' height='500'></p></div>,49,,,,,,,,,,,,,,,,,,,,,,,
,html-keyboard-response,13,122841,0.0-13.0,"""event"",""trial"",""time""
""fullscreenenter"",""0"",""1705""
","
","
","""event"",""trial"",""time""
""fullscreenenter"",""0"",""1705""
","
",null,<div class='center'><p><img src='run_exp/static/images/tutorial/blue_win.png' height='500'></p></div>,null,,,,,,,,,,,,,,,,,,,,,,,
,html-keyboard-response,14,123360,0.0-14.0,"""event"",""trial"",""time""
""fullscreenenter"",""0"",""1705""
","
","
","""event"",""trial"",""time""
""fullscreenenter"",""0"",""1705""
","
",517.1,<div class='center'><img src='run_exp/static/images/tutorial/blue.png' height='500'></p></div>,49,,,,,,,,,,,,,,,,,,,,,,,
,html-keyboard-response,15,124864,0.0-15.0,"""event"",""trial"",""time""
""fullscreenenter"",""0"",""1705""
","
","
","""event"",""trial"",""time""
""fullscreenenter"",""0"",""1705""
","
",null,<div class='center'><p><img src='run_exp/static/images/tutorial/blue_win.png' height='500'></p></div>,null,,,,,,,,,,,,,,,,,,,,,,,
,html-keyboard-response,16,125120,0.0-16.0,"""event"",""trial"",""time""
""fullscreenenter"",""0"",""1705""
","
","
","""event"",""trial"",""time""
""fullscreenenter"",""0"",""1705""
","
",255.1,<div class='center'><img src='run_exp/static/images/tutorial/blue.png' height='500'></p></div>,49,,,,,,,,,,,,,,,,,,,,,,,
,html-keyboard-response,17,126627,0.0-17.0,"""event"",""trial"",""time""
""fullscreenenter"",""0"",""1705""
","
","
","""event"",""trial"",""time""
""fullscreenenter"",""0"",""1705""
","
",null,<div class='center'><p><img src='run_exp/static/images/tutorial/blue_no_win.png' height='500'></p></div>,null,,,,,,,,,,,,,,,,,,,,,,,
,html-keyboard-response,18,126924,0.0-18.0,"""event"",""trial"",""time""
""fullscreenenter"",""0"",""1705""
","
","
","""event"",""trial"",""time""
""fullscreenenter"",""0"",""1705""
","
",295,<div class='center'><img src='run_exp/static/images/tutorial/blue.png' height='500'></p></div>,49,,,,,,,,,,,,,,,,,,,,,,,
,html-keyboard-response,19,128426,0.0-19.0,"""event"",""trial"",""time""
""fullscreenenter"",""0"",""1705""
","
","
","""event"",""trial"",""time""
""fullscreenenter"",""0"",""1705""
","
",null,<div class='center'><p><img src='run_exp/static/images/tutorial/blue_win.png' height='500'></p></div>,null,,,,,,,,,,,,,,,,,,,,,,,
,html-keyboard-response,20,128903,0.0-20.0,"""event"",""trial"",""time""
""fullscreenenter"",""0"",""1705""
","
","
","""event"",""trial"",""time""
""fullscreenenter"",""0"",""1705""
","
",476.1,<div class='center'><img src='run_exp/static/images/tutorial/blue.png' height='500'></p></div>,49,,,,,,,,,,,,,,,,,,,,,,,
,html-keyboard-response,21,130406,0.0-21.0,"""event"",""trial"",""time""
""fullscreenenter"",""0"",""1705""
","
","
","""event"",""trial"",""time""
""fullscreenenter"",""0"",""1705""
","
",null,<div class='center'><p><img src='run_exp/static/images/tutorial/blue_win.png' height='500'></p></div>,null,,,,,,,,,,,,,,,,,,,,,,,
,html-keyboard-response,22,130691,0.0-22.0,"""event"",""trial"",""time""
""fullscreenenter"",""0"",""1705""
","
","
","""event"",""trial"",""time""
""fullscreenenter"",""0"",""1705""
","
",281.4,<div class='center'><img src='run_exp/static/images/tutorial/blue.png' height='500'></p></div>,49,,,,,,,,,,,,,,,,,,,,,,,
,html-keyboard-response,23,132194,0.0-23.0,"""event"",""trial"",""time""
""fullscreenenter"",""0"",""1705""
","
","
","""event"",""trial"",""time""
""fullscreenenter"",""0"",""1705""
","
",null,<div class='center'><p><img src='run_exp/static/images/tutorial/blue_win.png' height='500'></p></div>,null,,,,,,,,,,,,,,,,,,,,,,,
,html-keyboard-response,24,132469,0.0-24.0,"""event"",""trial"",""time""
""fullscreenenter"",""0"",""1705""
","
","
","""event"",""trial"",""time""
""fullscreenenter"",""0"",""1705""
","
",272.3,<div class='center'><img src='run_exp/static/images/tutorial/blue.png' height='500'></p></div>,49,,,,,,,,,,,,,,,,,,,,,,,
,html-keyboard-response,25,133971,0.0-25.0,"""event"",""trial"",""time""
""fullscreenenter"",""0"",""1705""
","
","
","""event"",""trial"",""time""
""fullscreenenter"",""0"",""1705""
","
",null,<div class='center'><p><img src='run_exp/static/images/tutorial/blue_no_win.png' height='500'></p></div>,null,,,,,,,,,,,,,,,,,,,,,,,
,html-keyboard-response,26,134270,0.0-26.0,"""event"",""trial"",""time""
""fullscreenenter"",""0"",""1705""
","
","
","""event"",""trial"",""time""
""fullscreenenter"",""0"",""1705""
","
",296.8,<div class='center'><img src='run_exp/static/images/tutorial/blue.png' height='500'></p></div>,49,,,,,,,,,,,,,,,,,,,,,,,
,html-keyboard-response,27,135777,0.0-27.0,"""event"",""trial"",""time""
""fullscreenenter"",""0"",""1705""
","
","
","""event"",""trial"",""time""
""fullscreenenter"",""0"",""1705""
","
",null,<div class='center'><p><img src='run_exp/static/images/tutorial/blue_win.png' height='500'></p></div>,null,,,,,,,,,,,,,,,,,,,,,,,
,html-keyboard-response,28,136001,0.0-28.0,"""event"",""trial"",""time""
""fullscreenenter"",""0"",""1705""
","
","
","""event"",""trial"",""time""
""fullscreenenter"",""0"",""1705""
","
",222.1,<div class='center'><img src='run_exp/static/images/tutorial/blue.png' height='500'></p></div>,49,,,,,,,,,,,,,,,,,,,,,,,
,html-keyboard-response,29,137507,0.0-29.0,"""event"",""trial"",""time""
""fullscreenenter"",""0"",""1705""
","
","
","""event"",""trial"",""time""
""fullscreenenter"",""0"",""1705""
","
",null,<div class='center'><p><img src='run_exp/static/images/tutorial/blue_win.png' height='500'></p></div>,null,,,,,,,,,,,,,,,,,,,,,,,
,instruc6,30,142931,0.0-30.0,"""event"",""trial"",""time""
""fullscreenenter"",""0"",""1705""
","
","
","""event"",""trial"",""time""
""fullscreenenter"",""0"",""1705""
","
",null,run_exp/static/audio/clip_6_blue_beard_outcome.m4a,null,,,,,"<div class='center'><p> See, he succeeded in robbing the ships most of the time but not every time. </p></div>",,,,,,,,,,,,,,,,,,
,html-keyboard-response,31,144065,0.0-31.0,"""event"",""trial"",""time""
""fullscreenenter"",""0"",""1705""
","
","
","""event"",""trial"",""time""
""fullscreenenter"",""0"",""1705""
","
",1132.1,"<div class='center'><p> See, he succeeded in robbing the ships most of the time but not every time. </p><p><b>[Press the space bar to continue]</b></p></div>",32,,,,,,,,,,,,,,,,,,,,,,,
,audio-keyboard-response,32,150667,0.0-32.0,"""event"",""trial"",""time""
""fullscreenenter"",""0"",""1705""
","
","
","""event"",""trial"",""time""
""fullscreenenter"",""0"",""1705""
","
",6600.2,run_exp/static/audio/clip_7_pick_pirate.m4a,51,,,,,,,,,,,,,,,,,,,,,,,
,audio-keyboard-response,33,153416,0.0-33.0-0.0,"""event"",""trial"",""time""
""fullscreenenter"",""0"",""1705""
","
","
","""event"",""trial"",""time""
""fullscreenenter"",""0"",""1705""
","
",2745,run_exp/static/audio/clip_8_chosen_pirate_win.m4a,32,,,,,,,,,,,,,,,,,,,,,,,
,audio-keyboard-response,34,155744,0.0-33.0-1.0,"""event"",""trial"",""time""
""fullscreenenter"",""0"",""1705""
","
","
","""event"",""trial"",""time""
""fullscreenenter"",""0"",""1705""
","
",2325.7,run_exp/static/audio/clip_9_pick_a_pirate_again.m4a,51,,,,,,,,,,,,,,,,,,,,,,,
,audio-keyboard-response,35,158910,0.0-34.0-0.0,"""event"",""trial"",""time""
""fullscreenenter"",""0"",""1705""
","
","
","""event"",""trial"",""time""
""fullscreenenter"",""0"",""1705""
","
",3162.7,run_exp/static/audio/clip_10_chosen_pirate_loss.m4a,32,,,,,,,,,,,,,,,,,,,,,,,
,instruc9,36,164415,0.0-35.0-0.0,"""event"",""trial"",""time""
""fullscreenenter"",""0"",""1705""
","
","
","""event"",""trial"",""time""
""fullscreenenter"",""0"",""1705""
","
",null,run_exp/static/audio/clip_11_time_out.m4a,null,,,,,"<div class='center'><p>If you don’t make your choice fast enough, you’ll have to wait a few seconds before you can make another one. </p><p><img src='run_exp/static/images/miscellaneous/hurry_up.png' height='500'></p></div>",,,,,,,,,,,,,,,,,,
,html-keyboard-response,37,165554,0.0-35.0-1.0,"""event"",""trial"",""time""
""fullscreenenter"",""0"",""1705""
","
","
","""event"",""trial"",""time""
""fullscreenenter"",""0"",""1705""
","
",1137,"<div class='center'><p>If you don’t make your choice fast enough, you’ll have to wait a few seconds before you can make another one. </p><p><img src='run_exp/static/images/miscellaneous/hurry_up.png' height='500'></p><p><b>[Press the space bar to continue]</b></p></div>",32,,,,,,,,,,,,,,,,,,,,,,,
,instruc10,38,204650,0.0-35.0-2.0,"""event"",""trial"",""time""
""fullscreenenter"",""0"",""1705""
","
","
","""event"",""trial"",""time""
""fullscreenenter"",""0"",""1705""
","
",null,run_exp/static/audio/clip_12_probe.m4a,null,,,,,"<div class='center'><p>Once you've chosen a pirate, you’ll be shown the ship they are robbing. You will never rob the same ship twice. Ships can be told apart from one another by the image on them. These are the goods that they sell. See, this ship has a travel mug on it. </p><p> You’ll have to remember which island you saw each ship on. You will win more gold coins and hence more bonus money if you remember correctly! To help you remember, you can imagine a story. For example, here, you could imagine a mug full of water in the desert. Or, as another example, if on the forest island, your pirate robbed a ship with an apple on it, you could imagine an apple falling from a tree in the forest. </p><p><img src='run_exp/static/images/tutorial/example_probe.png' height='500'></p></div>",,,,,,,,,,,,,,,,,,
,html-keyboard-response,39,205354,0.0-35.0-3.0,"""event"",""trial"",""time""
""fullscreenenter"",""0"",""1705""
","
","
","""event"",""trial"",""time""
""fullscreenenter"",""0"",""1705""
","
",700.7,"<div class='center'><p>Once you've chosen a pirate, you’ll be shown the ship they are robbing. You will never rob the same ship twice. Ships can be told apart from one another by the image on them. These are the goods that they sell. See, this ship has a travel mug on it. </p><p> You’ll have to remember which island you saw each ship on. You will win more gold coins and hence more bonus money if you remember correctly! To help you remember, you can imagine a story. For example, here, you could imagine a mug full of water in the desert. Or, as another example, if on the forest island, your pirate robbed a ship with an apple on it, you could imagine an apple falling from a tree in the forest. </p><p><img src='run_exp/static/images/tutorial/example_probe.png' height='500'></p><p><b>[Press the space bar to continue]</b></p></div>",32,,,,,,,,,,,,,,,,,,,,,,,
,instruc11,40,221760,0.0-35.0-4.0,"""event"",""trial"",""time""
""fullscreenenter"",""0"",""1705""
","
","
","""event"",""trial"",""time""
""fullscreenenter"",""0"",""1705""
","
",null,run_exp/static/audio/clip_13_changepoint.m4a,null,,,,,"<div class='center'><p>How successful a pirate is at robbing ships will depend on the island you’re on.</p><p> A pirate may have visited this island many times before and gained a lot of practice robbing ships there.</p><p>So, they’re more likely to be successful than a pirate who has never visited the island before.</p></div>",,,,,,,,,,,,,,,,,,
,html-keyboard-response,41,230745,0.0-35.0-5.0,"""event"",""trial"",""time""
""fullscreenenter"",""0"",""1705""
","
","
","""event"",""trial"",""time""
""fullscreenenter"",""0"",""1705""
","
",8983.2,"<div class='center'><p>How successful a pirate is at robbing ships will depend on the island you’re on.</p><p> A pirate may have visited this island many times before and gained a lot of practice robbing ships there.</p><p>So, they’re more likely to be successful than a pirate who has never visited the island before.</p><p><b>[Press the space bar to continue]</b></p></div>",32,,,,,,,,,,,,,,,,,,,,,,,
,instruc12,42,271831,0.0-35.0-6.0,"""event"",""trial"",""time""
""fullscreenenter"",""0"",""1705""
","
","
","""event"",""trial"",""time""
""fullscreenenter"",""0"",""1705""
","
",null,run_exp/static/audio/clip_14_drift.m4a,null,,,,,"<div class='center'><p>How successful a pirate is at robbing ships can also change over the time spent on the island. </p><p> Ships may hear from islanders about the pirates coming and will improve their protections against the attack. This may make it harder to rob them.</p><p> Ships may also become lazy and weaken the strength of their protections. This may make it easier to rob them.</p><br><p>Things are always changing on the high seas! So, try your best to pay attention!</p><p><img src='run_exp/static/images/tutorial/contingency.png' height='500'></p></div>",,,,,,,,,,,,,,,,,,
,html-keyboard-response,43,272794,0.0-35.0-7.0,"""event"",""trial"",""time""
""fullscreenenter"",""0"",""1705""
","
","
","""event"",""trial"",""time""
""fullscreenenter"",""0"",""1705""
","
",960,"<div class='center'><p>How successful a pirate is at robbing ships can also change over the time spent on the island. </p><p> Ships may hear from islanders about the pirates coming and will improve their protections against the attack. This may make it harder to rob them.</p><p> Ships may also become lazy and weaken the strength of their protections. This may make it easier to rob them.</p><br><p>Things are always changing on the high seas! So, try your best to pay attention!</p><p><img src='run_exp/static/images/tutorial/contingency.png' height='500'></p><p><b>[Press the space bar to continue]</b></p></div>",32,,,,,,,,,,,,,,,,,,,,,,,
,instruc13,44,307992,0.0-35.0-8.0,"""event"",""trial"",""time""
""fullscreenenter"",""0"",""1705""
","
","
","""event"",""trial"",""time""
""fullscreenenter"",""0"",""1705""
","
",null,run_exp/static/audio/clip_15_summary.m4a,null,,,,,"<div class='center'><p>Let's go over the instructions quickly again. You have two important things to do: </p><b><p> 1. Pick the pirate who is the best at robbing ships on the current island. </p></b><b><p> 2. Remember on which island a ship was robbed.</p> </b><p>The amount of bonus money you can win depends on both.</p><p><br><p>Let’s try a practice game. The game will start by showing you the pirates. First, pick a pirate using the <b> 1, 2, 3 </b> keys on your keyboard. When you are shown a ship, try to remember which island you’re on by making up a story.</p><p>This is just a practice game, so you’re not playing for money. </p><p> Good luck! This game will be very difficult but try your best!</p></div>",,,,,,,,,,,,,,,,,,
,html-keyboard-response,45,308583,0.0-35.0-9.0,"""event"",""trial"",""time""
""fullscreenenter"",""0"",""1705""
","
","
","""event"",""trial"",""time""
""fullscreenenter"",""0"",""1705""
","
",589.2,"<div class='center'><p>Let's go over the instructions quickly again. You have two important things to do: </p><b><p> 1. Pick the pirate who is the best at robbing ships on the current island. </p></b><b><p> 2. Remember on which island a ship was robbed.</p> </b><p>The amount of bonus money you can win depends on both.</p><p><br><p>Let’s try a practice game. The game will start by showing you the pirates. First, pick a pirate using the <b> 1, 2, 3 </b> keys on your keyboard. When you are shown a ship, try to remember which island you’re on by making up a story.</p><p>This is just a practice game, so you’re not playing for money. </p><p> Good luck! This game will be very difficult but try your best!</p><p><b>[Press the space bar to continue]</b></p></div>",32,,,,,,,,,,,,,,,,,,,,,,,
,do_welcome,46,312594,0.0-35.0-10.0,"""event"",""trial"",""time""
""fullscreenenter"",""0"",""1705""
","
","
","""event"",""trial"",""time""
""fullscreenenter"",""0"",""1705""
","
",null,,,,,,,,null,,,,,,,,,,,,,,,,,
,do_trial,47,318606,0.0-35.0-11.0,"""event"",""trial"",""time""
""fullscreenenter"",""0"",""1705""
","
","
","""event"",""trial"",""time""
""fullscreenenter"",""0"",""1705""
","
",null,,,,,,,,null,"1,0,0",,,,,,,,,,,,,,,,
,html-keyboard-response,48,319612,0.0-36.0-0.0,"""event"",""trial"",""time""
""fullscreenenter"",""0"",""1705""
","
","
","""event"",""trial"",""time""
""fullscreenenter"",""0"",""1705""
","
",null,<p></p>,null,,,,,,,,,,,,,,,,,,,,,,,
,do_trial,49,324750,0.0-36.0-1.0,"""event"",""trial"",""time""
""fullscreenenter"",""0"",""1705""
","
","
","""event"",""trial"",""time""
""fullscreenenter"",""0"",""1705""
","
",628.8,,,,,,,,49,"1,0,0",,,,,,,,,,,,,,,,
,html-keyboard-response,50,325757,0.0-37.0-0.0,"""event"",""trial"",""time""
""fullscreenenter"",""0"",""1705""
","
","
","""event"",""trial"",""time""
""fullscreenenter"",""0"",""1705""
","
",null,<p></p>,null,,,,,,,,,,,,,,,,,,,,,,,
,do_trial,51,331529,0.0-37.0-1.0,"""event"",""trial"",""time""
""fullscreenenter"",""0"",""1705""
","
","
","""event"",""trial"",""time""
""fullscreenenter"",""0"",""1705""
","
",1260.2,,,,,,,,51,"1,1,0",,,,,,,,,,,,,,,,
,html-keyboard-response,52,332536,0.0-38.0-0.0,"""event"",""trial"",""time""
""fullscreenenter"",""0"",""1705""
","
","
","""event"",""trial"",""time""
""fullscreenenter"",""0"",""1705""
","
",null,<p></p>,null,,,,,,,,,,,,,,,,,,,,,,,
,do_trial,53,337701,0.0-38.0-1.0,"""event"",""trial"",""time""
""fullscreenenter"",""0"",""1705""
","
","
","""event"",""trial"",""time""
""fullscreenenter"",""0"",""1705""
","
",656.4,,,,,,,,49,"1,0,1",,,,,,,,,,,,,,,,
,html-keyboard-response,54,338707,0.0-39.0-0.0,"""event"",""trial"",""time""
""fullscreenenter"",""0"",""1705""
","
","
","""event"",""trial"",""time""
""fullscreenenter"",""0"",""1705""
","
",null,<p></p>,null,,,,,,,,,,,,,,,,,,,,,,,
,do_trial,55,344906,0.0-39.0-1.0,"""event"",""trial"",""time""
""fullscreenenter"",""0"",""1705""
","
","
","""event"",""trial"",""time""
""fullscreenenter"",""0"",""1705""
","
",1685.5,,,,,,,,50,"0,1,0",,,,,,,,,,,,,,,,
,html-keyboard-response,56,345912,0.0-40.0-0.0,"""event"",""trial"",""time""
""fullscreenenter"",""0"",""1705""
","
","
","""event"",""trial"",""time""
""fullscreenenter"",""0"",""1705""
","
",null,<p></p>,null,,,,,,,,,,,,,,,,,,,,,,,
,do_trial,57,351266,0.0-40.0-1.0,"""event"",""trial"",""time""
""fullscreenenter"",""0"",""1705""
","
","
","""event"",""trial"",""time""
""fullscreenenter"",""0"",""1705""
","
",844.5,,,,,,,,49,"1,0,0",,,,,,,,,,,,,,,,
,do_bye,58,352779,0.0-41.0-0.0,"""event"",""trial"",""time""
""fullscreenenter"",""0"",""1705""
","
","
","""event"",""trial"",""time""
""fullscreenenter"",""0"",""1705""
","
",null,,,,,,,,null,,,,,,,,,,,,,,,,,
,do_travel,59,361784,0.0-41.0-1.0,"""event"",""trial"",""time""
""fullscreenenter"",""0"",""1705""
","
","
","""event"",""trial"",""time""
""fullscreenenter"",""0"",""1705""
","
",null,,,,,,,,null,,,,,,,,,,,,,,,,,
,do_welcome,60,365795,0.0-41.0-2.0,"""event"",""trial"",""time""
""fullscreenenter"",""0"",""1705""
","
","
","""event"",""trial"",""time""
""fullscreenenter"",""0"",""1705""
","
",null,,,,,,,,null,,,,,,,,,,,,,,,,,
,do_trial,61,371247,0.0-41.0-3.0,"""event"",""trial"",""time""
""fullscreenenter"",""0"",""1705""
","
","
","""event"",""trial"",""time""
""fullscreenenter"",""0"",""1705""
","
",941,,,,,,,,51,"1,0,0",,,,,,,,,,,,,,,,
,html-keyboard-response,62,372251,0.0-42.0-0.0,"""event"",""trial"",""time""
""fullscreenenter"",""0"",""1705""
","
","
","""event"",""trial"",""time""
""fullscreenenter"",""0"",""1705""
","
",null,<p></p>,null,,,,,,,,,,,,,,,,,,,,,,,
,do_trial,63,377594,0.0-42.0-1.0,"""event"",""trial"",""time""
""fullscreenenter"",""0"",""1705""
","
","
","""event"",""trial"",""time""
""fullscreenenter"",""0"",""1705""
","
",833.2,,,,,,,,50,"1,0,1",,,,,,,,,,,,,,,,
,html-keyboard-response,64,378597,0.0-43.0-0.0,"""event"",""trial"",""time""
""fullscreenenter"",""0"",""1705""
","
","
","""event"",""trial"",""time""
""fullscreenenter"",""0"",""1705""
","
",null,<p></p>,null,,,,,,,,,,,,,,,,,,,,,,,
,do_trial,65,383663,0.0-43.0-1.0,"""event"",""trial"",""time""
""fullscreenenter"",""0"",""1705""
","
","
","""event"",""trial"",""time""
""fullscreenenter"",""0"",""1705""
","
",556.7,,,,,,,,50,"1,1,0",,,,,,,,,,,,,,,,
,html-keyboard-response,66,384668,0.0-44.0-0.0,"""event"",""trial"",""time""
""fullscreenenter"",""0"",""1705""
","
","
","""event"",""trial"",""time""
""fullscreenenter"",""0"",""1705""
","
",null,<p></p>,null,,,,,,,,,,,,,,,,,,,,,,,
,do_trial,67,390042,0.0-44.0-1.0,"""event"",""trial"",""time""
""fullscreenenter"",""0"",""1705""
","
","
","""event"",""trial"",""time""
""fullscreenenter"",""0"",""1705""
","
",862.5,,,,,,,,49,"0,0,1",,,,,,,,,,,,,,,,
,html-keyboard-response,68,391046,0.0-45.0-0.0,"""event"",""trial"",""time""
""fullscreenenter"",""0"",""1705""
","
","
","""event"",""trial"",""time""
""fullscreenenter"",""0"",""1705""
","
",null,<p></p>,null,,,,,,,,,,,,,,,,,,,,,,,
,do_trial,69,395885,0.0-45.0-1.0,"""event"",""trial"",""time""
""fullscreenenter"",""0"",""1705""
","
","
","""event"",""trial"",""time""
""fullscreenenter"",""0"",""1705""
","
",325.2,,,,,,,,51,"1,0,1",,,,,,,,,,,,,,,,
,html-keyboard-response,70,399062,0.0-46.0-0.0,"""event"",""trial"",""time""
""fullscreenenter"",""0"",""1705""
","
","
","""event"",""trial"",""time""
""fullscreenenter"",""0"",""1705""
","
",3172.1,<div class='center'><p><img src='run_exp/static/images/tutorial/prac_best_pirate.png'  height='500'></p></div>,49,,,,,,,,,,,,,,,,,,,,,,,
,html-keyboard-response,71,402354,0.0-47.0-0.0,"""event"",""trial"",""time""
""fullscreenenter"",""0"",""1705""
","
","
","""event"",""trial"",""time""
""fullscreenenter"",""0"",""1705""
","
",3290.3,<div class='center'><p>That's correct! Red beard was the best.</p><p><b>[Press the space bar to continue]</b></p></div>,32,,,,,,,,,,,,,,,,,,,,,,,
,html-keyboard-response,72,405247,0.0-47.0-1.0,"""event"",""trial"",""time""
""fullscreenenter"",""0"",""1705""
","
","
","""event"",""trial"",""time""
""fullscreenenter"",""0"",""1705""
","
",2891.1,<div class='center'><p><img src='run_exp/static/images/tutorial/prac_source.png'  height='500'></p></div>,50,,,,,,,,,,,,,,,,,,,,,,,
,html-keyboard-response,73,406676,0.0-48.0-0.0,"""event"",""trial"",""time""
""fullscreenenter"",""0"",""1705""
","
","
","""event"",""trial"",""time""
""fullscreenenter"",""0"",""1705""
","
",1427,<div class='center'><p>That's correct! You saw this ship on the cavern island.</p><p><b>[Press the space bar to continue]</b></p></div>,32,,,,,,,,,,,,,,,,,,,,,,,
,quiz_beginning,74,417928,0.0-48.0-1.0,"""event"",""trial"",""time""
""fullscreenenter"",""0"",""1705""
","
","
","""event"",""trial"",""time""
""fullscreenenter"",""0"",""1705""
","
",null,run_exp/static/audio/clip_16_quiz_intro.m4a,null,,,,,"<div class='center'><p>Good job on the practice game! Now, you will be asked some true or false questions to make sure you really understand the rules of the game.</p><p> Press <b>'1'</b> on the keyboard for true and press <b>'2'</b> for false.</p></div>",,,,,,,,,,,,,,,,,,
,audio-keyboard-response,75,422317,0.0-48.0-2.0,"""event"",""trial"",""time""
""fullscreenenter"",""0"",""1705""
","
","
","""event"",""trial"",""time""
""fullscreenenter"",""0"",""1705""
","
",4387.6,run_exp/static/audio/clip_17_q1.m4a,50,,,,,,,,,,,,,,,,,,,,,,,
,q1_err,76,427229,0.0-49.0-0.0,"""event"",""trial"",""time""
""fullscreenenter"",""0"",""1705""
","
","
","""event"",""trial"",""time""
""fullscreenenter"",""0"",""1705""
","
",null,run_exp/static/audio/clip_19_wrong_q1.m4a,null,,,,,<div class='center'><p>That’s incorrect. You win bonus money by collecting gold coins.</p></div>,,,,,,,,,,,,,,,,,,
,html-keyboard-response,77,428556,0.0-49.0-1.0,"""event"",""trial"",""time""
""fullscreenenter"",""0"",""1705""
","
","
","""event"",""trial"",""time""
""fullscreenenter"",""0"",""1705""
","
",1325.2,<div class='center'><p>That’s incorrect. You win bonus money by collecting gold coins.</p><p><b>[Press the space bar to continue]</b></p></div>,32,,,,,,,,,,,,,,,,,,,,,,,
,audio-keyboard-response,78,435065,0.0-49.0-2.0,"""event"",""trial"",""time""
""fullscreenenter"",""0"",""1705""
","
","
","""event"",""trial"",""time""
""fullscreenenter"",""0"",""1705""
","
",6507.6,run_exp/static/audio/clip_20_q2.m4a,50,,,,,,,,,,,,,,,,,,,,,,,
,correct,79,437470,0.0-50.0-0.0,"""event"",""trial"",""time""
""fullscreenenter"",""0"",""1705""
","
","
","""event"",""trial"",""time""
""fullscreenenter"",""0"",""1705""
","
",null,run_exp/static/audio/clip_18_correct.m4a,null,,,,,<div class='center'><p>That's correct!</p></div>,,,,,,,,,,,,,,,,,,
,html-keyboard-response,80,438445,0.0-50.0-1.0,"""event"",""trial"",""time""
""fullscreenenter"",""0"",""1705""
","
","
","""event"",""trial"",""time""
""fullscreenenter"",""0"",""1705""
","
",974.4,<div class='center'><p>That's correct!</p><p><b>[Press the space bar to continue]</b></p></div>,32,,,,,,,,,,,,,,,,,,,,,,,
,audio-keyboard-response,81,444870,0.0-50.0-2.0,"""event"",""trial"",""time""
""fullscreenenter"",""0"",""1705""
","
","
","""event"",""trial"",""time""
""fullscreenenter"",""0"",""1705""
","
",6422.9,run_exp/static/audio/clip_22_q3.m4a,50,,,,,,,,,,,,,,,,,,,,,,,
,correct,82,447283,0.0-51.0-0.0,"""event"",""trial"",""time""
""fullscreenenter"",""0"",""1705""
","
","
","""event"",""trial"",""time""
""fullscreenenter"",""0"",""1705""
","
",null,run_exp/static/audio/clip_18_correct.m4a,null,,,,,<div class='center'><p>That's correct!</p></div>,,,,,,,,,,,,,,,,,,
,html-keyboard-response,83,447981,0.0-51.0-1.0,"""event"",""trial"",""time""
""fullscreenenter"",""0"",""1705""
","
","
","""event"",""trial"",""time""
""fullscreenenter"",""0"",""1705""
","
",696.8,<div class='center'><p>That's correct!</p><p><b>[Press the space bar to continue]</b></p></div>,32,,,,,,,,,,,,,,,,,,,,,,,
,audio-keyboard-response,84,452367,0.0-51.0-2.0,"""event"",""trial"",""time""
""fullscreenenter"",""0"",""1705""
","
","
","""event"",""trial"",""time""
""fullscreenenter"",""0"",""1705""
","
",4384.1,run_exp/static/audio/clip_24_q4.m4a,49,,,,,,,,,,,,,,,,,,,,,,,
,correct,85,454771,0.0-52.0-0.0,"""event"",""trial"",""time""
""fullscreenenter"",""0"",""1705""
","
","
","""event"",""trial"",""time""
""fullscreenenter"",""0"",""1705""
","
",null,run_exp/static/audio/clip_18_correct.m4a,null,,,,,<div class='center'><p>That's correct!</p></div>,,,,,,,,,,,,,,,,,,
,html-keyboard-response,86,455229,0.0-52.0-1.0,"""event"",""trial"",""time""
""fullscreenenter"",""0"",""1705""
","
","
","""event"",""trial"",""time""
""fullscreenenter"",""0"",""1705""
","
",456.7,<div class='center'><p>That's correct!</p><p><b>[Press the space bar to continue]</b></p></div>,32,,,,,,,,,,,,,,,,,,,,,,,
,q_all_err,87,461406,0.0-53.0-0.0,"""event"",""trial"",""time""
""fullscreenenter"",""0"",""1705""
","
","
","""event"",""trial"",""time""
""fullscreenenter"",""0"",""1705""
","
",null,run_exp/static/audio/clip_26_quiz_redo.m4a,null,,,,,"<div class='center'><p>Oops, you missed some questions. Now that you’ve heard the correct answers. Try the quiz again! </p></div>",,,,,,,,,,,,,,,,,,
,html-keyboard-response,88,461780,0.0-53.0-1.0,"""event"",""trial"",""time""
""fullscreenenter"",""0"",""1705""
","
","
","""event"",""trial"",""time""
""fullscreenenter"",""0"",""1705""
","
",372.4,"<div class='center'><p>Oops, you missed some questions. Now that you’ve heard the correct answers. Try the quiz again! </p><p><b>[Press the space bar to continue]</b></p></div>",32,,,,,,,,,,,,,,,,,,,,,,,
,audio-keyboard-response,89,463392,0.0-53.0-2.0,"""event"",""trial"",""time""
""fullscreenenter"",""0"",""1705""
","
","
","""event"",""trial"",""time""
""fullscreenenter"",""0"",""1705""
","
",1610.5,run_exp/static/audio/clip_17_q1.m4a,49,,,,,,,,,,,,,,,,,,,,,,,
,correct,90,465801,0.0-54.0-0.0,"""event"",""trial"",""time""
""fullscreenenter"",""0"",""1705""
","
","
","""event"",""trial"",""time""
""fullscreenenter"",""0"",""1705""
","
",null,run_exp/static/audio/clip_18_correct.m4a,null,,,,,<div class='center'><p>That's correct!</p></div>,,,,,,,,,,,,,,,,,,
,html-keyboard-response,91,466042,0.0-54.0-1.0,"""event"",""trial"",""time""
""fullscreenenter"",""0"",""1705""
","
","
","""event"",""trial"",""time""
""fullscreenenter"",""0"",""1705""
","
",240,<div class='center'><p>That's correct!</p><p><b>[Press the space bar to continue]</b></p></div>,32,,,,,,,,,,,,,,,,,,,,,,,
,audio-keyboard-response,92,467603,0.0-54.0-2.0,"""event"",""trial"",""time""
""fullscreenenter"",""0"",""1705""
","
","
","""event"",""trial"",""time""
""fullscreenenter"",""0"",""1705""
","
",1559.5,run_exp/static/audio/clip_20_q2.m4a,50,,,,,,,,,,,,,,,,,,,,,,,
,correct,93,470004,0.0-55.0-0.0,"""event"",""trial"",""time""
""fullscreenenter"",""0"",""1705""
","
","
","""event"",""trial"",""time""
""fullscreenenter"",""0"",""1705""
","
",null,run_exp/static/audio/clip_18_correct.m4a,null,,,,,<div class='center'><p>That's correct!</p></div>,,,,,,,,,,,,,,,,,,
,html-keyboard-response,94,470355,0.0-55.0-1.0,"""event"",""trial"",""time""
""fullscreenenter"",""0"",""1705""
","
","
","""event"",""trial"",""time""
""fullscreenenter"",""0"",""1705""
","
",349.8,<div class='center'><p>That's correct!</p><p><b>[Press the space bar to continue]</b></p></div>,32,,,,,,,,,,,,,,,,,,,,,,,
,audio-keyboard-response,95,472111,0.0-55.0-2.0,"""event"",""trial"",""time""
""fullscreenenter"",""0"",""1705""
","
","
","""event"",""trial"",""time""
""fullscreenenter"",""0"",""1705""
","
",1754.3,run_exp/static/audio/clip_22_q3.m4a,50,,,,,,,,,,,,,,,,,,,,,,,
,correct,96,474505,0.0-56.0-0.0,"""event"",""trial"",""time""
""fullscreenenter"",""0"",""1705""
","
","
","""event"",""trial"",""time""
""fullscreenenter"",""0"",""1705""
","
",null,run_exp/static/audio/clip_18_correct.m4a,null,,,,,<div class='center'><p>That's correct!</p></div>,,,,,,,,,,,,,,,,,,
,html-keyboard-response,97,474956,0.0-56.0-1.0,"""event"",""trial"",""time""
""fullscreenenter"",""0"",""1705""
","
","
","""event"",""trial"",""time""
""fullscreenenter"",""0"",""1705""
","
",449.5,<div class='center'><p>That's correct!</p><p><b>[Press the space bar to continue]</b></p></div>,32,,,,,,,,,,,,,,,,,,,,,,,
,audio-keyboard-response,98,476370,0.0-56.0-2.0,"""event"",""trial"",""time""
""fullscreenenter"",""0"",""1705""
","
","
","""event"",""trial"",""time""
""fullscreenenter"",""0"",""1705""
","
",1412.6,run_exp/static/audio/clip_24_q4.m4a,49,,,,,,,,,,,,,,,,,,,,,,,
,correct,99,478815,0.0-57.0-0.0,"""event"",""trial"",""time""
""fullscreenenter"",""0"",""1705""
","
","
","""event"",""trial"",""time""
""fullscreenenter"",""0"",""1705""
","
",null,run_exp/static/audio/clip_18_correct.m4a,null,,,,,<div class='center'><p>That's correct!</p></div>,,,,,,,,,,,,,,,,,,
,html-keyboard-response,100,479107,0.0-57.0-1.0,"""event"",""trial"",""time""
""fullscreenenter"",""0"",""1705""
","
","
","""event"",""trial"",""time""
""fullscreenenter"",""0"",""1705""
","
",289.6,<div class='center'><p>That's correct!</p><p><b>[Press the space bar to continue]</b></p></div>,32,,,,,,,,,,,,,,,,,,,,,,,
,q_all_corr,101,487605,0.0-58.0-0.0,"""event"",""trial"",""time""
""fullscreenenter"",""0"",""1705""
","
","
","""event"",""trial"",""time""
""fullscreenenter"",""0"",""1705""
","
",null,run_exp/static/audio/clip_27_quiz_all_correct.m4a,null,,,,,<div class='center'><p>Good job! You’re now ready to move on to the real game! Remember this game will be difficult but don't get discouraged and try your best!</p></div>,,,,,,,,,,,,,,,,,,
,html-keyboard-response,102,489018,0.0-58.0-1.0,"""event"",""trial"",""time""
""fullscreenenter"",""0"",""1705""
","
","
","""event"",""trial"",""time""
""fullscreenenter"",""0"",""1705""
","
",1409.6,<div class='center'><p>Good job! You’re now ready to move on to the real game! Remember this game will be difficult but don't get discouraged and try your best!</p><p><b>[Press the space bar to continue]</b></p></div>,32,,,,,,,,,,,,,,,,,,,,,,,
,do_welcome,103,493027,0.0-59.0-0.0,"""event"",""trial"",""time""
""fullscreenenter"",""0"",""1705""
","
","
","""event"",""trial"",""time""
""fullscreenenter"",""0"",""1705""
","
",null,,,,,,,,null,,,,,,,,,,,,,,,,,
,do_trial,104,498587,0.0-60.0-0.0,"""event"",""trial"",""time""
""fullscreenenter"",""0"",""1705""
","
","
","""event"",""trial"",""time""
""fullscreenenter"",""0"",""1705""
","
",1021.7,,,,,,,,49,"0,0,0",0,city,0,probe-20,0.6,0.3,0.1,0,,,,,,,,
,html-keyboard-response,105,499592,0.0-60.0-1.0,"""event"",""trial"",""time""
""fullscreenenter"",""0"",""1705""
","
","
","""event"",""trial"",""time""
""fullscreenenter"",""0"",""1705""
","
",null,<p></p>,null,,,,,,,,,,,,,,,,,,,,,,,
,do_trial,106,504964,0.0-61.0-0.0,"""event"",""trial"",""time""
""fullscreenenter"",""0"",""1705""
","
","
","""event"",""trial"",""time""
""fullscreenenter"",""0"",""1705""
","
",818.4,,,,,,,,50,"0,0,0",0,city,1,probe-71,0.699036515,0.356251754,0.121102602,0,,,,,,,,
,html-keyboard-response,107,505969,0.0-61.0-1.0,"""event"",""trial"",""time""
""fullscreenenter"",""0"",""1705""
","
","
","""event"",""trial"",""time""
""fullscreenenter"",""0"",""1705""
","
",null,<p></p>,null,,,,,,,,,,,,,,,,,,,,,,,
,do_trial,108,510866,0.0-62.0-0.0,"""event"",""trial"",""time""
""fullscreenenter"",""0"",""1705""
","
","
","""event"",""trial"",""time""
""fullscreenenter"",""0"",""1705""
","
",341.3,,,,,,,,51,"0,0,1",0,city,2,probe-224,0.69230271,0.295229211,0.271551927,1,,,,,,,,
,html-keyboard-response,109,511869,0.0-62.0-1.0,"""event"",""trial"",""time""
""fullscreenenter"",""0"",""1705""
","
","
","""event"",""trial"",""time""
""fullscreenenter"",""0"",""1705""
","
",null,<p></p>,null,,,,,,,,,,,,,,,,,,,,,,,
,do_trial,110,517113,0.0-63.0-0.0,"""event"",""trial"",""time""
""fullscreenenter"",""0"",""1705""
","
","
","""event"",""trial"",""time""
""fullscreenenter"",""0"",""1705""
","
",695.4,,,,,,,,49,"1,1,0",0,city,3,probe-22,0.696407932,0.23359083,0.297078733,1,,,,,,,,
,html-keyboard-response,111,518121,0.0-63.0-1.0,"""event"",""trial"",""time""
""fullscreenenter"",""0"",""1705""
","
","
","""event"",""trial"",""time""
""fullscreenenter"",""0"",""1705""
","
",null,<p></p>,null,,,,,,,,,,,,,,,,,,,,,,,
,do_trial,112,523563,0.0-64.0-0.0,"""event"",""trial"",""time""
""fullscreenenter"",""0"",""1705""
","
","
","""event"",""trial"",""time""
""fullscreenenter"",""0"",""1705""
","
",891.1,,,,,,,,51,"0,1,0",0,city,4,probe-145,0.595361741,0.216185626,0.149377304,0,,,,,,,,
,html-keyboard-response,113,524567,0.0-64.0-1.0,"""event"",""trial"",""time""
""fullscreenenter"",""0"",""1705""
","
","
","""event"",""trial"",""time""
""fullscreenenter"",""0"",""1705""
","
",null,<p></p>,null,,,,,,,,,,,,,,,,,,,,,,,
,do_trial,114,529868,0.0-65.0-0.0,"""event"",""trial"",""time""
""fullscreenenter"",""0"",""1705""
","
","
","""event"",""trial"",""time""
""fullscreenenter"",""0"",""1705""
","
",742.8,,,,,,,,50,"0,1,0",0,city,5,probe-125,0.599748486,0.265842477,0.099964512,1,,,,,,,,
,html-keyboard-response,115,530875,0.0-65.0-1.0,"""event"",""trial"",""time""
""fullscreenenter"",""0"",""1705""
","
","
","""event"",""trial"",""time""
""fullscreenenter"",""0"",""1705""
","
",null,<p></p>,null,,,,,,,,,,,,,,,,,,,,,,,
,do_trial,116,535927,0.0-66.0-0.0,"""event"",""trial"",""time""
""fullscreenenter"",""0"",""1705""
","
","
","""event"",""trial"",""time""
""fullscreenenter"",""0"",""1705""
","
",510,,,,,,,,49,"0,0,0",0,city,6,probe-152,0.420943889,0.165161868,0.076461502,0,,,,,,,,
,html-keyboard-response,117,536930,0.0-66.0-1.0,"""event"",""trial"",""time""
""fullscreenenter"",""0"",""1705""
","
","
","""event"",""trial"",""time""
""fullscreenenter"",""0"",""1705""
","
",null,<p></p>,null,,,,,,,,,,,,,,,,,,,,,,,
,do_trial,118,541910,0.0-67.0-0.0,"""event"",""trial"",""time""
""fullscreenenter"",""0"",""1705""
","
","
","""event"",""trial"",""time""
""fullscreenenter"",""0"",""1705""
","
",431,,,,,,,,51,"1,0,0",0,city,7,probe-98,0.31739934,0.29429145,0.0783358,0,,,,,,,,
,html-keyboard-response,119,542915,0.0-67.0-1.0,"""event"",""trial"",""time""
""fullscreenenter"",""0"",""1705""
","
","
","""event"",""trial"",""time""
""fullscreenenter"",""0"",""1705""
","
",null,<p></p>,null,,,,,,,,,,,,,,,,,,,,,,,
,do_trial,120,547935,0.0-68.0-0.0,"""event"",""trial"",""time""
""fullscreenenter"",""0"",""1705""
","
","
","""event"",""trial"",""time""
""fullscreenenter"",""0"",""1705""
","
",468.6,,,,,,,,50,"0,0,1",0,city,8,probe-127,0.35920734,0.430841381,0.188208661,0,,,,,,,,
,html-keyboard-response,121,548940,0.0-68.0-1.0,"""event"",""trial"",""time""
""fullscreenenter"",""0"",""1705""
","
","
","""event"",""trial"",""time""
""fullscreenenter"",""0"",""1705""
","
",null,<p></p>,null,,,,,,,,,,,,,,,,,,,,,,,
,do_trial,122,553775,0.0-69.0-0.0,"""event"",""trial"",""time""
""fullscreenenter"",""0"",""1705""
","
","
","""event"",""trial"",""time""
""fullscreenenter"",""0"",""1705""
","
",280.3,,,,,,,,49,"0,0,0",0,city,9,probe-32,0.502259927,0.30327661,0.073417,0,,,,,,,,
,html-keyboard-response,123,554779,0.0-69.0-1.0,"""event"",""trial"",""time""
""fullscreenenter"",""0"",""1705""
","
","
","""event"",""trial"",""time""
""fullscreenenter"",""0"",""1705""
","
",null,<p></p>,null,,,,,,,,,,,,,,,,,,,,,,,
,do_trial,124,559772,0.0-70.0-0.0,"""event"",""trial"",""time""
""fullscreenenter"",""0"",""1705""
","
","
","""event"",""trial"",""time""
""fullscreenenter"",""0"",""1705""
","
",433.3,,,,,,,,49,"0,0,0",0,city,10,probe-53,0.518568468,0.305625411,0.096473462,0,,,,,,,,
,html-keyboard-response,125,560777,0.0-70.0-1.0,"""event"",""trial"",""time""
""fullscreenenter"",""0"",""1705""
","
","
","""event"",""trial"",""time""
""fullscreenenter"",""0"",""1705""
","
",null,<p></p>,null,,,,,,,,,,,,,,,,,,,,,,,
,do_trial,126,565666,0.0-71.0-0.0,"""event"",""trial"",""time""
""fullscreenenter"",""0"",""1705""
","
","
","""event"",""trial"",""time""
""fullscreenenter"",""0"",""1705""
","
",335.1,,,,,,,,51,"1,1,0",0,city,11,probe-168,0.435433928,0.387154548,0.081967607,0,,,,,,,,
,html-keyboard-response,127,566672,0.0-71.0-1.0,"""event"",""trial"",""time""
""fullscreenenter"",""0"",""1705""
","
","
","""event"",""trial"",""time""
""fullscreenenter"",""0"",""1705""
","
",null,<p></p>,null,,,,,,,,,,,,,,,,,,,,,,,
,do_trial,128,571570,0.0-72.0-0.0,"""event"",""trial"",""time""
""fullscreenenter"",""0"",""1705""
","
","
","""event"",""trial"",""time""
""fullscreenenter"",""0"",""1705""
","
",344.6,,,,,,,,49,"0,0,0",0,city,12,probe-81,0.419886524,0.40722119,0.242778782,0,,,,,,,,
,html-keyboard-response,129,572577,0.0-72.0-1.0,"""event"",""trial"",""time""
""fullscreenenter"",""0"",""1705""
","
","
","""event"",""trial"",""time""
""fullscreenenter"",""0"",""1705""
","
",null,<p></p>,null,,,,,,,,,,,,,,,,,,,,,,,
,do_trial,130,577468,0.0-73.0-0.0,"""event"",""trial"",""time""
""fullscreenenter"",""0"",""1705""
","
","
","""event"",""trial"",""time""
""fullscreenenter"",""0"",""1705""
","
",338.6,,,,,,,,50,"1,0,0",0,city,13,probe-75,0.513747018,0.475961684,0.262419418,0,,,,,,,,
,html-keyboard-response,131,578475,0.0-73.0-1.0,"""event"",""trial"",""time""
""fullscreenenter"",""0"",""1705""
","
","
","""event"",""trial"",""time""
""fullscreenenter"",""0"",""1705""
","
",null,<p></p>,null,,,,,,,,,,,,,,,,,,,,,,,
,do_trial,132,583396,0.0-74.0-0.0,"""event"",""trial"",""time""
""fullscreenenter"",""0"",""1705""
","
","
","""event"",""trial"",""time""
""fullscreenenter"",""0"",""1705""
","
",375.9,,,,,,,,51,"0,0,0",0,city,14,probe-110,0.56447217,0.364771699,0.063554213,0,,,,,,,,
,html-keyboard-response,133,584401,0.0-74.0-1.0,"""event"",""trial"",""time""
""fullscreenenter"",""0"",""1705""
","
","
","""event"",""trial"",""time""
""fullscreenenter"",""0"",""1705""
","
",null,<p></p>,null,,,,,,,,,,,,,,,,,,,,,,,
,do_trial,134,588949,0.0-75.0-0.0,"""event"",""trial"",""time""
""fullscreenenter"",""0"",""1705""
","
","
","""event"",""trial"",""time""
""fullscreenenter"",""0"",""1705""
","
",0.100000024,,,,,,,,49,"1,0,0",0,city,15,probe-94,0.606561778,0.398478632,0.055034655,1,,,,,,,,
,html-keyboard-response,135,589954,0.0-75.0-1.0,"""event"",""trial"",""time""
""fullscreenenter"",""0"",""1705""
","
","
","""event"",""trial"",""time""
""fullscreenenter"",""0"",""1705""
","
",null,<p></p>,null,,,,,,,,,,,,,,,,,,,,,,,
,do_trial,136,594993,0.0-76.0-0.0,"""event"",""trial"",""time""
""fullscreenenter"",""0"",""1705""
","
","
","""event"",""trial"",""time""
""fullscreenenter"",""0"",""1705""
","
",486.1,,,,,,,,49,"0,0,0",0,city,16,probe-67,0.491998916,0.398567013,0.089109442,0,,,,,,,,
,html-keyboard-response,137,595999,0.0-76.0-1.0,"""event"",""trial"",""time""
""fullscreenenter"",""0"",""1705""
","
","
","""event"",""trial"",""time""
""fullscreenenter"",""0"",""1705""
","
",null,<p></p>,null,,,,,,,,,,,,,,,,,,,,,,,
,do_trial,138,600547,0.0-77.0-0.0,"""event"",""trial"",""time""
""fullscreenenter"",""0"",""1705""
","
","
","""event"",""trial"",""time""
""fullscreenenter"",""0"",""1705""
","
",0.700000048,,,,,,,,50,"0,0,0",0,city,17,probe-05,0.572123446,0.346716318,0.154225796,0,,,,,,,,
,html-keyboard-response,139,601553,0.0-77.0-1.0,"""event"",""trial"",""time""
""fullscreenenter"",""0"",""1705""
","
","
","""event"",""trial"",""time""
""fullscreenenter"",""0"",""1705""
","
",null,<p></p>,null,,,,,,,,,,,,,,,,,,,,,,,
,do_trial,140,606544,0.0-78.0-0.0,"""event"",""trial"",""time""
""fullscreenenter"",""0"",""1705""
","
","
","""event"",""trial"",""time""
""fullscreenenter"",""0"",""1705""
","
",436.5,,,,,,,,51,"1,0,0",0,city,18,probe-202,0.676367847,0.425687837,0.062359417,0,,,,,,,,
,html-keyboard-response,141,607549,0.0-78.0-1.0,"""event"",""trial"",""time""
""fullscreenenter"",""0"",""1705""
","
","
","""event"",""trial"",""time""
""fullscreenenter"",""0"",""1705""
","
",null,<p></p>,null,,,,,,,,,,,,,,,,,,,,,,,
,do_trial,142,613543,0.0-79.0-0.0,"""event"",""trial"",""time""
""fullscreenenter"",""0"",""1705""
","
","
","""event"",""trial"",""time""
""fullscreenenter"",""0"",""1705""
","
",1438.8,,,,,,,,51,"1,0,0",0,city,19,probe-207,0.561491276,0.537897021,0.172827977,0,,,,,,,,
,html-keyboard-response,143,614547,0.0-79.0-1.0,"""event"",""trial"",""time""
""fullscreenenter"",""0"",""1705""
","
","
","""event"",""trial"",""time""
""fullscreenenter"",""0"",""1705""
","
",null,<p></p>,null,,,,,,,,,,,,,,,,,,,,,,,
,do_trial,144,619608,0.0-80.0-0.0,"""event"",""trial"",""time""
""fullscreenenter"",""0"",""1705""
","
","
","""event"",""trial"",""time""
""fullscreenenter"",""0"",""1705""
","
",510.6,,,,,,,,49,"1,1,0",0,city,20,probe-218,0.597182957,0.449694784,0.116593551,1,,,,,,,,
,html-keyboard-response,145,620612,0.0-80.0-1.0,"""event"",""trial"",""time""
""fullscreenenter"",""0"",""1705""
","
","
","""event"",""trial"",""time""
""fullscreenenter"",""0"",""1705""
","
",null,<p></p>,null,,,,,,,,,,,,,,,,,,,,,,,
,do_trial,146,625493,0.0-81.0-0.0,"""event"",""trial"",""time""
""fullscreenenter"",""0"",""1705""
","
","
","""event"",""trial"",""time""
""fullscreenenter"",""0"",""1705""
","
",338.8,,,,,,,,49,"0,0,0",0,city,21,probe-216,0.564887338,0.428360811,0.087546857,0,,,,,,,,
,html-keyboard-response,147,626500,0.0-81.0-1.0,"""event"",""trial"",""time""
""fullscreenenter"",""0"",""1705""
","
","
","""event"",""trial"",""time""
""fullscreenenter"",""0"",""1705""
","
",null,<p></p>,null,,,,,,,,,,,,,,,,,,,,,,,
,do_trial,148,631501,0.0-82.0-0.0,"""event"",""trial"",""time""
""fullscreenenter"",""0"",""1705""
","
","
","""event"",""trial"",""time""
""fullscreenenter"",""0"",""1705""
","
",454.9,,,,,,,,51,"0,0,0",0,city,22,probe-116,0.632752734,0.368319533,0.141188793,0,,,,,,,,
,html-keyboard-response,149,632508,0.0-82.0-1.0,"""event"",""trial"",""time""
""fullscreenenter"",""0"",""1705""
","
","
","""event"",""trial"",""time""
""fullscreenenter"",""0"",""1705""
","
",null,<p></p>,null,,,,,,,,,,,,,,,,,,,,,,,
,do_trial,150,637409,0.0-83.0-0.0,"""event"",""trial"",""time""
""fullscreenenter"",""0"",""1705""
","
","
","""event"",""trial"",""time""
""fullscreenenter"",""0"",""1705""
","
",352.4,,,,,,,,50,"1,0,0",0,city,23,probe-193,0.623001305,0.270567024,0.075077595,0,,,,,,,,
,html-keyboard-response,151,638415,0.0-83.0-1.0,"""event"",""trial"",""time""
""fullscreenenter"",""0"",""1705""
","
","
","""event"",""trial"",""time""
""fullscreenenter"",""0"",""1705""
","
",null,<p></p>,null,,,,,,,,,,,,,,,,,,,,,,,
,do_trial,152,644107,0.0-84.0-0.0,"""event"",""trial"",""time""
""fullscreenenter"",""0"",""1705""
","
","
","""event"",""trial"",""time""
""fullscreenenter"",""0"",""1705""
","
",1142.4,,,,,,,,49,"0,0,0",0,city,24,probe-148,0.560107462,0.216194377,0.057618583,0,,,,,,,,
,html-keyboard-response,153,645111,0.0-84.0-1.0,"""event"",""trial"",""time""
""fullscreenenter"",""0"",""1705""
","
","
","""event"",""trial"",""time""
""fullscreenenter"",""0"",""1705""
","
",null,<p></p>,null,,,,,,,,,,,,,,,,,,,,,,,
,do_trial,154,650188,0.0-85.0-0.0,"""event"",""trial"",""time""
""fullscreenenter"",""0"",""1705""
","
","
","""event"",""trial"",""time""
""fullscreenenter"",""0"",""1705""
","
",525.7,,,,,,,,49,"0,0,0",0,city,25,probe-84,0.579060721,0.186968287,0.06735046,0,,,,,,,,
,html-keyboard-response,155,651193,0.0-85.0-1.0,"""event"",""trial"",""time""
""fullscreenenter"",""0"",""1705""
","
","
","""event"",""trial"",""time""
""fullscreenenter"",""0"",""1705""
","
",null,<p></p>,null,,,,,,,,,,,,,,,,,,,,,,,
,do_trial,156,656186,0.0-86.0-0.0,"""event"",""trial"",""time""
""fullscreenenter"",""0"",""1705""
","
","
","""event"",""trial"",""time""
""fullscreenenter"",""0"",""1705""
","
",443.5,,,,,,,,49,"1,0,1",0,city,26,probe-50,0.465780429,0.217825476,0.128398572,1,,,,,,,,
,html-keyboard-response,157,657190,0.0-86.0-1.0,"""event"",""trial"",""time""
""fullscreenenter"",""0"",""1705""
","
","
","""event"",""trial"",""time""
""fullscreenenter"",""0"",""1705""
","
",null,<p></p>,null,,,,,,,,,,,,,,,,,,,,,,,
,do_trial,158,662959,0.0-87.0-0.0,"""event"",""trial"",""time""
""fullscreenenter"",""0"",""1705""
","
","
","""event"",""trial"",""time""
""fullscreenenter"",""0"",""1705""
","
",1216,,,,,,,,51,"0,0,0",0,city,27,probe-06,0.539707924,0.32847276,0.063593784,0,,,,,,,,
,html-keyboard-response,159,663967,0.0-87.0-1.0,"""event"",""trial"",""time""
""fullscreenenter"",""0"",""1705""
","
","
","""event"",""trial"",""time""
""fullscreenenter"",""0"",""1705""
","
",null,<p></p>,null,,,,,,,,,,,,,,,,,,,,,,,
,do_trial,160,668828,0.0-88.0-0.0,"""event"",""trial"",""time""
""fullscreenenter"",""0"",""1705""
","
","
","""event"",""trial"",""time""
""fullscreenenter"",""0"",""1705""
","
",310.5,,,,,,,,49,"1,0,0",0,city,28,probe-132,0.580761366,0.197716603,0.199285595,1,,,,,,,,
,html-keyboard-response,161,669835,0.0-88.0-1.0,"""event"",""trial"",""time""
""fullscreenenter"",""0"",""1705""
","
","
","""event"",""trial"",""time""
""fullscreenenter"",""0"",""1705""
","
",null,<p></p>,null,,,,,,,,,,,,,,,,,,,,,,,
,do_trial,162,674947,0.0-89.0-0.0,"""event"",""trial"",""time""
""fullscreenenter"",""0"",""1705""
","
","
","""event"",""trial"",""time""
""fullscreenenter"",""0"",""1705""
","
",559,,,,,,,,50,"1,0,0",0,city,29,probe-187,0.52020145,0.1379459,0.205805654,0,,,,,,,,
,html-keyboard-response,163,675952,0.0-89.0-1.0,"""event"",""trial"",""time""
""fullscreenenter"",""0"",""1705""
","
","
","""event"",""trial"",""time""
""fullscreenenter"",""0"",""1705""
","
",null,<p></p>,null,,,,,,,,,,,,,,,,,,,,,,,
,do_bye,164,677464,0.0-90.0-0.0,"""event"",""trial"",""time""
""fullscreenenter"",""0"",""1705""
","
","
","""event"",""trial"",""time""
""fullscreenenter"",""0"",""1705""
","
",null,,,,,,,,null,,,,,,,,,,,,,,,,,
,break,165,714436,0.0-90.0-1.0,"""event"",""trial"",""time""
""fullscreenenter"",""0"",""1705""
","
","
","""event"",""trial"",""time""
""fullscreenenter"",""0"",""1705""
","
",36969.8,"<div class='center'><p>Time to take a quick break! You have 2 minutes to rest, but you can move on sooner if you'd like.</p><p> Press the <b>space bar</b> to continue.</p></div>",32,,,,,,,,,,,,,,,,,,,,,,,
,do_travel,166,723444,0.0-91.0-0.0,"""event"",""trial"",""time""
""fullscreenenter"",""0"",""1705""
","
","
","""event"",""trial"",""time""
""fullscreenenter"",""0"",""1705""
","
",null,,,,,,,,null,,,,,,,,,,,,,,,,,
,do_welcome,167,727451,0.0-91.0-1.0,"""event"",""trial"",""time""
""fullscreenenter"",""0"",""1705""
","
","
","""event"",""trial"",""time""
""fullscreenenter"",""0"",""1705""
","
",null,,,,,,,,null,,,,,,,,,,,,,,,,,
,do_trial,168,733332,0.0-92.0-0.0,"""event"",""trial"",""time""
""fullscreenenter"",""0"",""1705""
","
","
","""event"",""trial"",""time""
""fullscreenenter"",""0"",""1705""
","
",1339.2,,,,,,,,49,"1,0,0",1,highway,30,probe-136,1,0.188004336,0.163637456,1,,,,,,,,
,html-keyboard-response,169,734338,0.0-92.0-1.0,"""event"",""trial"",""time""
""fullscreenenter"",""0"",""1705""
","
","
","""event"",""trial"",""time""
""fullscreenenter"",""0"",""1705""
","
",null,<p></p>,null,,,,,,,,,,,,,,,,,,,,,,,
,do_trial,170,739304,0.0-93.0-0.0,"""event"",""trial"",""time""
""fullscreenenter"",""0"",""1705""
","
","
","""event"",""trial"",""time""
""fullscreenenter"",""0"",""1705""
","
",415.9,,,,,,,,51,"1,0,0",1,highway,31,probe-227,1,0.160947554,0.149531888,0,,,,,,,,
,html-keyboard-response,171,740312,0.0-93.0-1.0,"""event"",""trial"",""time""
""fullscreenenter"",""0"",""1705""
","
","
","""event"",""trial"",""time""
""fullscreenenter"",""0"",""1705""
","
",null,<p></p>,null,,,,,,,,,,,,,,,,,,,,,,,
,do_trial,172,745191,0.0-94.0-0.0,"""event"",""trial"",""time""
""fullscreenenter"",""0"",""1705""
","
","
","""event"",""trial"",""time""
""fullscreenenter"",""0"",""1705""
","
",330.9,,,,,,,,49,"1,0,0",1,highway,32,probe-15,1,0.185428169,0.103969925,1,,,,,,,,
,html-keyboard-response,173,746198,0.0-94.0-1.0,"""event"",""trial"",""time""
""fullscreenenter"",""0"",""1705""
","
","
","""event"",""trial"",""time""
""fullscreenenter"",""0"",""1705""
","
",null,<p></p>,null,,,,,,,,,,,,,,,,,,,,,,,
,do_trial,174,751098,0.0-95.0-0.0,"""event"",""trial"",""time""
""fullscreenenter"",""0"",""1705""
","
","
","""event"",""trial"",""time""
""fullscreenenter"",""0"",""1705""
","
",356.2,,,,,,,,50,"1,0,0",1,highway,33,probe-206,0.927191173,0.067266763,0.188212089,0,,,,,,,,
,html-keyboard-response,175,752103,0.0-95.0-1.0,"""event"",""trial"",""time""
""fullscreenenter"",""0"",""1705""
","
","
","""event"",""trial"",""time""
""fullscreenenter"",""0"",""1705""
","
",null,<p></p>,null,,,,,,,,,,,,,,,,,,,,,,,
,do_trial,176,756948,0.0-96.0-0.0,"""event"",""trial"",""time""
""fullscreenenter"",""0"",""1705""
","
","
","""event"",""trial"",""time""
""fullscreenenter"",""0"",""1705""
","
",290.7,,,,,,,,49,"0,0,1",1,highway,34,probe-109,0.679613098,0.222108847,0.208120082,0,,,,,,,,
,html-keyboard-response,177,757951,0.0-96.0-1.0,"""event"",""trial"",""time""
""fullscreenenter"",""0"",""1705""
","
","
","""event"",""trial"",""time""
""fullscreenenter"",""0"",""1705""
","
",null,<p></p>,null,,,,,,,,,,,,,,,,,,,,,,,
,do_trial,178,762795,0.0-97.0-0.0,"""event"",""trial"",""time""
""fullscreenenter"",""0"",""1705""
","
","
","""event"",""trial"",""time""
""fullscreenenter"",""0"",""1705""
","
",287,,,,,,,,51,"1,1,0",1,highway,35,probe-105,0.601563693,0.310705619,0.321173752,0,,,,,,,,
,html-keyboard-response,179,763803,0.0-97.0-1.0,"""event"",""trial"",""time""
""fullscreenenter"",""0"",""1705""
","
","
","""event"",""trial"",""time""
""fullscreenenter"",""0"",""1705""
","
",null,<p></p>,null,,,,,,,,,,,,,,,,,,,,,,,
,do_trial,180,768678,0.0-98.0-0.0,"""event"",""trial"",""time""
""fullscreenenter"",""0"",""1705""
","
","
","""event"",""trial"",""time""
""fullscreenenter"",""0"",""1705""
","
",321,,,,,,,,51,"1,1,0",1,highway,36,probe-160,0.550518256,0.376042957,0.166379541,0,,,,,,,,
,html-keyboard-response,181,769684,0.0-98.0-1.0,"""event"",""trial"",""time""
""fullscreenenter"",""0"",""1705""
","
","
","""event"",""trial"",""time""
""fullscreenenter"",""0"",""1705""
","
",null,<p></p>,null,,,,,,,,,,,,,,,,,,,,,,,
,do_trial,182,774578,0.0-99.0-0.0,"""event"",""trial"",""time""
""fullscreenenter"",""0"",""1705""
","
","
","""event"",""trial"",""time""
""fullscreenenter"",""0"",""1705""
","
",343.1,,,,,,,,50,"0,0,0",1,highway,37,probe-167,0.567160773,0.441182486,0.096012594,0,,,,,,,,
,html-keyboard-response,183,775582,0.0-99.0-1.0,"""event"",""trial"",""time""
""fullscreenenter"",""0"",""1705""
","
","
","""event"",""trial"",""time""
""fullscreenenter"",""0"",""1705""
","
",null,<p></p>,null,,,,,,,,,,,,,,,,,,,,,,,
,do_trial,184,780525,0.0-100.0-0.0,"""event"",""trial"",""time""
""fullscreenenter"",""0"",""1705""
","
","
","""event"",""trial"",""time""
""fullscreenenter"",""0"",""1705""
","
",392.3,,,,,,,,49,"1,0,0",1,highway,38,probe-68,0.622732125,0.494025851,0.106738536,1,,,,,,,,
,html-keyboard-response,185,781530,0.0-100.0-1.0,"""event"",""trial"",""time""
""fullscreenenter"",""0"",""1705""
","
","
","""event"",""trial"",""time""
""fullscreenenter"",""0"",""1705""
","
",null,<p></p>,null,,,,,,,,,,,,,,,,,,,,,,,
,do_trial,186,786392,0.0-101.0-0.0,"""event"",""trial"",""time""
""fullscreenenter"",""0"",""1705""
","
","
","""event"",""trial"",""time""
""fullscreenenter"",""0"",""1705""
","
",308.1,,,,,,,,51,"1,0,1",1,highway,39,probe-89,0.590575892,0.33841298,0.101912719,1,,,,,,,,
,html-keyboard-response,187,787398,0.0-101.0-1.0,"""event"",""trial"",""time""
""fullscreenenter"",""0"",""1705""
","
","
","""event"",""trial"",""time""
""fullscreenenter"",""0"",""1705""
","
",null,<p></p>,null,,,,,,,,,,,,,,,,,,,,,,,
,do_trial,188,792403,0.0-102.0-0.0,"""event"",""trial"",""time""
""fullscreenenter"",""0"",""1705""
","
","
","""event"",""trial"",""time""
""fullscreenenter"",""0"",""1705""
","
",449,,,,,,,,50,"0,0,0",1,highway,40,probe-27,0.538919918,0.45762031,0.053875034,0,,,,,,,,
,html-keyboard-response,189,793407,0.0-102.0-1.0,"""event"",""trial"",""time""
""fullscreenenter"",""0"",""1705""
","
","
","""event"",""trial"",""time""
""fullscreenenter"",""0"",""1705""
","
",null,<p></p>,null,,,,,,,,,,,,,,,,,,,,,,,
,do_trial,190,798237,0.0-103.0-0.0,"""event"",""trial"",""time""
""fullscreenenter"",""0"",""1705""
","
","
","""event"",""trial"",""time""
""fullscreenenter"",""0"",""1705""
","
",276.3,,,,,,,,51,"1,0,0",1,highway,41,probe-24,0.570787253,0.397895566,0.074598657,0,,,,,,,,
,html-keyboard-response,191,799242,0.0-103.0-1.0,"""event"",""trial"",""time""
""fullscreenenter"",""0"",""1705""
","
","
","""event"",""trial"",""time""
""fullscreenenter"",""0"",""1705""
","
",null,<p></p>,null,,,,,,,,,,,,,,,,,,,,,,,
,do_trial,192,804188,0.0-104.0-0.0,"""event"",""trial"",""time""
""fullscreenenter"",""0"",""1705""
","
","
","""event"",""trial"",""time""
""fullscreenenter"",""0"",""1705""
","
",394.5,,,,,,,,49,"0,1,0",1,highway,42,probe-183,0.358140512,0.433450625,0.102277196,0,,,,,,,,
,html-keyboard-response,193,805195,0.0-104.0-1.0,"""event"",""trial"",""time""
""fullscreenenter"",""0"",""1705""
","
","
","""event"",""trial"",""time""
""fullscreenenter"",""0"",""1705""
","
",null,<p></p>,null,,,,,,,,,,,,,,,,,,,,,,,
,do_trial,194,810725,0.0-105.0-0.0,"""event"",""trial"",""time""
""fullscreenenter"",""0"",""1705""
","
","
","""event"",""trial"",""time""
""fullscreenenter"",""0"",""1705""
","
",980.8,,,,,,,,51,"1,0,0",1,highway,43,probe-82,0.226746711,0.382333243,0.080747396,0,,,,,,,,
,html-keyboard-response,195,811729,0.0-105.0-1.0,"""event"",""trial"",""time""
""fullscreenenter"",""0"",""1705""
","
","
","""event"",""trial"",""time""
""fullscreenenter"",""0"",""1705""
","
",null,<p></p>,null,,,,,,,,,,,,,,,,,,,,,,,
,do_trial,196,816811,0.0-106.0-0.0,"""event"",""trial"",""time""
""fullscreenenter"",""0"",""1705""
","
","
","""event"",""trial"",""time""
""fullscreenenter"",""0"",""1705""
","
",535.9,,,,,,,,49,"0,0,1",1,highway,44,probe-61,0.184756793,0.477138525,0.112325745,0,,,,,,,,
,html-keyboard-response,197,817813,0.0-106.0-1.0,"""event"",""trial"",""time""
""fullscreenenter"",""0"",""1705""
","
","
","""event"",""trial"",""time""
""fullscreenenter"",""0"",""1705""
","
",null,<p></p>,null,,,,,,,,,,,,,,,,,,,,,,,
,do_trial,198,822729,0.0-107.0-0.0,"""event"",""trial"",""time""
""fullscreenenter"",""0"",""1705""
","
","
","""event"",""trial"",""time""
""fullscreenenter"",""0"",""1705""
","
",370.3,,,,,,,,50,"0,1,0",1,highway,45,probe-65,0.105192087,0.533363655,0.166814548,1,,,,,,,,
,html-keyboard-response,199,823734,0.0-107.0-1.0,"""event"",""trial"",""time""
""fullscreenenter"",""0"",""1705""
","
","
","""event"",""trial"",""time""
""fullscreenenter"",""0"",""1705""
","
",null,<p></p>,null,,,,,,,,,,,,,,,,,,,,,,,
,do_trial,200,828973,0.0-108.0-0.0,"""event"",""trial"",""time""
""fullscreenenter"",""0"",""1705""
","
","
","""event"",""trial"",""time""
""fullscreenenter"",""0"",""1705""
","
",686.2,,,,,,,,49,"0,0,0",1,highway,46,probe-230,0.078255908,0.63829562,0.265066879,0,,,,,,,,
,html-keyboard-response,201,829978,0.0-108.0-1.0,"""event"",""trial"",""time""
""fullscreenenter"",""0"",""1705""
","
","
","""event"",""trial"",""time""
""fullscreenenter"",""0"",""1705""
","
",null,<p></p>,null,,,,,,,,,,,,,,,,,,,,,,,
,do_trial,202,834859,0.0-109.0-0.0,"""event"",""trial"",""time""
""fullscreenenter"",""0"",""1705""
","
","
","""event"",""trial"",""time""
""fullscreenenter"",""0"",""1705""
","
",331.7,,,,,,,,49,"0,0,0",1,highway,47,probe-217,0.062753839,0.678694167,0.354492437,0,,,,,,,,
,html-keyboard-response,203,835866,0.0-109.0-1.0,"""event"",""trial"",""time""
""fullscreenenter"",""0"",""1705""
","
","
","""event"",""trial"",""time""
""fullscreenenter"",""0"",""1705""
","
",null,<p></p>,null,,,,,,,,,,,,,,,,,,,,,,,
,do_trial,204,840939,0.0-110.0-0.0,"""event"",""trial"",""time""
""fullscreenenter"",""0"",""1705""
","
","
","""event"",""trial"",""time""
""fullscreenenter"",""0"",""1705""
","
",521.8,,,,,,,,51,"0,1,1",1,highway,48,probe-174,0.057036472,0.622044755,0.398544622,1,,,,,,,,
,html-keyboard-response,205,841943,0.0-110.0-1.0,"""event"",""trial"",""time""
""fullscreenenter"",""0"",""1705""
","
","
","""event"",""trial"",""time""
""fullscreenenter"",""0"",""1705""
","
",null,<p></p>,null,,,,,,,,,,,,,,,,,,,,,,,
,do_trial,206,847225,0.0-111.0-0.0,"""event"",""trial"",""time""
""fullscreenenter"",""0"",""1705""
","
","
","""event"",""trial"",""time""
""fullscreenenter"",""0"",""1705""
","
",729.6,,,,,,,,49,"0,1,0",1,highway,49,probe-112,0.074955446,0.524410169,0.323150039,0,,,,,,,,
,html-keyboard-response,207,848227,0.0-111.0-1.0,"""event"",""trial"",""time""
""fullscreenenter"",""0"",""1705""
","
","
","""event"",""trial"",""time""
""fullscreenenter"",""0"",""1705""
","
",null,<p></p>,null,,,,,,,,,,,,,,,,,,,,,,,
,do_trial,208,853114,0.0-112.0-0.0,"""event"",""trial"",""time""
""fullscreenenter"",""0"",""1705""
","
","
","""event"",""trial"",""time""
""fullscreenenter"",""0"",""1705""
","
",334.1,,,,,,,,50,"0,0,0",1,highway,50,probe-55,0.115869928,0.38171725,0.204359735,0,,,,,,,,
,html-keyboard-response,209,854119,0.0-112.0-1.0,"""event"",""trial"",""time""
""fullscreenenter"",""0"",""1705""
","
","
","""event"",""trial"",""time""
""fullscreenenter"",""0"",""1705""
","
",null,<p></p>,null,,,,,,,,,,,,,,,,,,,,,,,
,do_trial,210,859033,0.0-113.0-0.0,"""event"",""trial"",""time""
""fullscreenenter"",""0"",""1705""
","
","
","""event"",""trial"",""time""
""fullscreenenter"",""0"",""1705""
","
",361.9,,,,,,,,49,"1,0,0",1,highway,51,probe-128,0.21827309,0.335400465,0.262901074,1,,,,,,,,
,html-keyboard-response,211,860040,0.0-113.0-1.0,"""event"",""trial"",""time""
""fullscreenenter"",""0"",""1705""
","
","
","""event"",""trial"",""time""
""fullscreenenter"",""0"",""1705""
","
",null,<p></p>,null,,,,,,,,,,,,,,,,,,,,,,,
,do_trial,212,865388,0.0-114.0-0.0,"""event"",""trial"",""time""
""fullscreenenter"",""0"",""1705""
","
","
","""event"",""trial"",""time""
""fullscreenenter"",""0"",""1705""
","
",790.2,,,,,,,,49,"0,1,1",1,highway,52,probe-80,0.10356387,0.613564602,0.296845909,0,,,,,,,,
,html-keyboard-response,213,866393,0.0-114.0-1.0,"""event"",""trial"",""time""
""fullscreenenter"",""0"",""1705""
","
","
","""event"",""trial"",""time""
""fullscreenenter"",""0"",""1705""
","
",null,<p></p>,null,,,,,,,,,,,,,,,,,,,,,,,
,do_trial,214,871339,0.0-115.0-0.0,"""event"",""trial"",""time""
""fullscreenenter"",""0"",""1705""
","
","
","""event"",""trial"",""time""
""fullscreenenter"",""0"",""1705""
","
",393.7,,,,,,,,51,"0,1,0",1,highway,53,probe-107,0.073940673,0.698558569,0.278001584,0,,,,,,,,
,html-keyboard-response,215,872342,0.0-115.0-1.0,"""event"",""trial"",""time""
""fullscreenenter"",""0"",""1705""
","
","
","""event"",""trial"",""time""
""fullscreenenter"",""0"",""1705""
","
",null,<p></p>,null,,,,,,,,,,,,,,,,,,,,,,,
,do_trial,216,877217,0.0-116.0-0.0,"""event"",""trial"",""time""
""fullscreenenter"",""0"",""1705""
","
","
","""event"",""trial"",""time""
""fullscreenenter"",""0"",""1705""
","
",321.5,,,,,,,,50,"0,1,0",1,highway,54,probe-54,0.062759012,0.676413504,0.278414092,1,,,,,,,,
,html-keyboard-response,217,878222,0.0-116.0-1.0,"""event"",""trial"",""time""
""fullscreenenter"",""0"",""1705""
","
","
","""event"",""trial"",""time""
""fullscreenenter"",""0"",""1705""
","
",null,<p></p>,null,,,,,,,,,,,,,,,,,,,,,,,
,do_trial,218,883197,0.0-117.0-0.0,"""event"",""trial"",""time""
""fullscreenenter"",""0"",""1705""
","
","
","""event"",""trial"",""time""
""fullscreenenter"",""0"",""1705""
","
",420.9,,,,,,,,49,"0,1,1",1,highway,55,probe-07,0.127995551,0.619593064,0.379708105,0,,,,,,,,
,html-keyboard-response,219,884202,0.0-117.0-1.0,"""event"",""trial"",""time""
""fullscreenenter"",""0"",""1705""
","
","
","""event"",""trial"",""time""
""fullscreenenter"",""0"",""1705""
","
",null,<p></p>,null,,,,,,,,,,,,,,,,,,,,,,,
,do_trial,220,889192,0.0-118.0-0.0,"""event"",""trial"",""time""
""fullscreenenter"",""0"",""1705""
","
","
","""event"",""trial"",""time""
""fullscreenenter"",""0"",""1705""
","
",446.3,,,,,,,,51,"0,1,0",1,highway,56,probe-18,0.17590191,0.614279558,0.383482062,0,,,,,,,,
,html-keyboard-response,221,890196,0.0-118.0-1.0,"""event"",""trial"",""time""
""fullscreenenter"",""0"",""1705""
","
","
","""event"",""trial"",""time""
""fullscreenenter"",""0"",""1705""
","
",null,<p></p>,null,,,,,,,,,,,,,,,,,,,,,,,
,do_trial,222,895352,0.0-119.0-0.0,"""event"",""trial"",""time""
""fullscreenenter"",""0"",""1705""
","
","
","""event"",""trial"",""time""
""fullscreenenter"",""0"",""1705""
","
",603.6,,,,,,,,50,"0,1,0",1,highway,57,probe-172,0.2365236,0.755683107,0.472861164,1,,,,,,,,
,html-keyboard-response,223,896359,0.0-119.0-1.0,"""event"",""trial"",""time""
""fullscreenenter"",""0"",""1705""
","
","
","""event"",""trial"",""time""
""fullscreenenter"",""0"",""1705""
","
",null,<p></p>,null,,,,,,,,,,,,,,,,,,,,,,,
,do_trial,224,901515,0.0-120.0-0.0,"""event"",""trial"",""time""
""fullscreenenter"",""0"",""1705""
","
","
","""event"",""trial"",""time""
""fullscreenenter"",""0"",""1705""
","
",605.8,,,,,,,,49,"0,0,1",1,highway,58,probe-08,0.219494295,0.744135522,0.449628557,0,,,,,,,,
,html-keyboard-response,225,902522,0.0-120.0-1.0,"""event"",""trial"",""time""
""fullscreenenter"",""0"",""1705""
","
","
","""event"",""trial"",""time""
""fullscreenenter"",""0"",""1705""
","
",null,<p></p>,null,,,,,,,,,,,,,,,,,,,,,,,
,do_trial,226,907403,0.0-121.0-0.0,"""event"",""trial"",""time""
""fullscreenenter"",""0"",""1705""
","
","
","""event"",""trial"",""time""
""fullscreenenter"",""0"",""1705""
","
",327.1,,,,,,,,50,"1,1,0",1,highway,59,probe-120,0.112347298,0.589742113,0.32797313,1,,,,,,,,
,html-keyboard-response,227,908408,0.0-121.0-1.0,"""event"",""trial"",""time""
""fullscreenenter"",""0"",""1705""
","
","
","""event"",""trial"",""time""
""fullscreenenter"",""0"",""1705""
","
",null,<p></p>,null,,,,,,,,,,,,,,,,,,,,,,,
,do_trial,228,913452,0.0-122.0-0.0,"""event"",""trial"",""time""
""fullscreenenter"",""0"",""1705""
","
","
","""event"",""trial"",""time""
""fullscreenenter"",""0"",""1705""
","
",489.2,,,,,,,,49,"1,1,0",1,highway,60,probe-184,0.079712738,0.623227394,0.273213396,1,,,,,,,,
,html-keyboard-response,229,914459,0.0-122.0-1.0,"""event"",""trial"",""time""
""fullscreenenter"",""0"",""1705""
","
","
","""event"",""trial"",""time""
""fullscreenenter"",""0"",""1705""
","
",null,<p></p>,null,,,,,,,,,,,,,,,,,,,,,,,
,do_trial,230,919599,0.0-123.0-0.0,"""event"",""trial"",""time""
""fullscreenenter"",""0"",""1705""
","
","
","""event"",""trial"",""time""
""fullscreenenter"",""0"",""1705""
","
",590.8,,,,,,,,51,"0,1,0",1,highway,61,probe-157,0.115416314,0.683733205,0.2204711,0,,,,,,,,
,html-keyboard-response,231,920604,0.0-123.0-1.0,"""event"",""trial"",""time""
""fullscreenenter"",""0"",""1705""
","
","
","""event"",""trial"",""time""
""fullscreenenter"",""0"",""1705""
","
",null,<p></p>,null,,,,,,,,,,,,,,,,,,,,,,,
,do_trial,232,925837,0.0-124.0-0.0,"""event"",""trial"",""time""
""fullscreenenter"",""0"",""1705""
","
","
","""event"",""trial"",""time""
""fullscreenenter"",""0"",""1705""
","
",683.9,,,,,,,,49,"0,0,0",1,highway,62,probe-185,0.088066444,0.418099942,0.296624792,0,,,,,,,,
,html-keyboard-response,233,926841,0.0-124.0-1.0,"""event"",""trial"",""time""
""fullscreenenter"",""0"",""1705""
","
","
","""event"",""trial"",""time""
""fullscreenenter"",""0"",""1705""
","
",null,<p></p>,null,,,,,,,,,,,,,,,,,,,,,,,
,do_trial,234,931790,0.0-125.0-0.0,"""event"",""trial"",""time""
""fullscreenenter"",""0"",""1705""
","
","
","""event"",""trial"",""time""
""fullscreenenter"",""0"",""1705""
","
",395.7,,,,,,,,51,"0,0,1",1,highway,63,probe-142,0.21209437,0.490500358,0.397827183,1,,,,,,,,
,html-keyboard-response,235,932794,0.0-125.0-1.0,"""event"",""trial"",""time""
""fullscreenenter"",""0"",""1705""
","
","
","""event"",""trial"",""time""
""fullscreenenter"",""0"",""1705""
","
",null,<p></p>,null,,,,,,,,,,,,,,,,,,,,,,,
,do_trial,236,937874,0.0-126.0-0.0,"""event"",""trial"",""time""
""fullscreenenter"",""0"",""1705""
","
","
","""event"",""trial"",""time""
""fullscreenenter"",""0"",""1705""
","
",524.7,,,,,,,,50,"0,0,0",1,highway,64,probe-123,0.11665913,0.419198319,0.298297472,0,,,,,,,,
,html-keyboard-response,237,938879,0.0-126.0-1.0,"""event"",""trial"",""time""
""fullscreenenter"",""0"",""1705""
","
","
","""event"",""trial"",""time""
""fullscreenenter"",""0"",""1705""
","
",null,<p></p>,null,,,,,,,,,,,,,,,,,,,,,,,
,do_trial,238,943714,0.0-127.0-0.0,"""event"",""trial"",""time""
""fullscreenenter"",""0"",""1705""
","
","
","""event"",""trial"",""time""
""fullscreenenter"",""0"",""1705""
","
",283,,,,,,,,49,"0,1,0",1,highway,65,probe-02,0.120455127,0.449136497,0.270325938,0,,,,,,,,
,html-keyboard-response,239,944719,0.0-127.0-1.0,"""event"",""trial"",""time""
""fullscreenenter"",""0"",""1705""
","
","
","""event"",""trial"",""time""
""fullscreenenter"",""0"",""1705""
","
",null,<p></p>,null,,,,,,,,,,,,,,,,,,,,,,,
,do_trial,240,949595,0.0-128.0-0.0,"""event"",""trial"",""time""
""fullscreenenter"",""0"",""1705""
","
","
","""event"",""trial"",""time""
""fullscreenenter"",""0"",""1705""
","
",318.2,,,,,,,,51,"1,1,1",1,highway,66,probe-88,0.074590971,0.487035766,0.233300952,1,,,,,,,,
,html-keyboard-response,241,950603,0.0-128.0-1.0,"""event"",""trial"",""time""
""fullscreenenter"",""0"",""1705""
","
","
","""event"",""trial"",""time""
""fullscreenenter"",""0"",""1705""
","
",null,<p></p>,null,,,,,,,,,,,,,,,,,,,,,,,
,do_trial,242,955850,0.0-129.0-0.0,"""event"",""trial"",""time""
""fullscreenenter"",""0"",""1705""
","
","
","""event"",""trial"",""time""
""fullscreenenter"",""0"",""1705""
","
",690.8,,,,,,,,49,"0,0,0",1,highway,67,probe-215,0.061761234,0.527320317,0.381967668,0,,,,,,,,
,html-keyboard-response,243,956857,0.0-129.0-1.0,"""event"",""trial"",""time""
""fullscreenenter"",""0"",""1705""
","
","
","""event"",""trial"",""time""
""fullscreenenter"",""0"",""1705""
","
",null,<p></p>,null,,,,,,,,,,,,,,,,,,,,,,,
,do_trial,244,962030,0.0-130.0-0.0,"""event"",""trial"",""time""
""fullscreenenter"",""0"",""1705""
","
","
","""event"",""trial"",""time""
""fullscreenenter"",""0"",""1705""
","
",621.1,,,,,,,,49,"0,1,0",1,highway,68,probe-115,0.062649435,0.608701743,0.41359054,0,,,,,,,,
,html-keyboard-response,245,963036,0.0-130.0-1.0,"""event"",""trial"",""time""
""fullscreenenter"",""0"",""1705""
","
","
","""event"",""trial"",""time""
""fullscreenenter"",""0"",""1705""
","
",null,<p></p>,null,,,,,,,,,,,,,,,,,,,,,,,
,do_trial,246,968230,0.0-131.0-0.0,"""event"",""trial"",""time""
""fullscreenenter"",""0"",""1705""
","
","
","""event"",""trial"",""time""
""fullscreenenter"",""0"",""1705""
","
",639.1,,,,,,,,51,"0,1,0",1,highway,69,probe-197,0.116836364,0.600680329,0.342849044,0,,,,,,,,
,html-keyboard-response,247,969238,0.0-131.0-1.0,"""event"",""trial"",""time""
""fullscreenenter"",""0"",""1705""
","
","
","""event"",""trial"",""time""
""fullscreenenter"",""0"",""1705""
","
",null,<p></p>,null,,,,,,,,,,,,,,,,,,,,,,,
,do_bye,248,970746,0.0-132.0-0.0,"""event"",""trial"",""time""
""fullscreenenter"",""0"",""1705""
","
","
","""event"",""trial"",""time""
""fullscreenenter"",""0"",""1705""
","
",null,,,,,,,,null,,,,,,,,,,,,,,,,,
,break,249,1043284,0.0-132.0-1.0,"""event"",""trial"",""time""
""fullscreenenter"",""0"",""1705""
","
","
","""event"",""trial"",""time""
""fullscreenenter"",""0"",""1705""
","
",72538,"<div class='center'><p>Time to take a quick break! You have 2 minutes to rest, but you can move on sooner if you'd like.</p><p> Press the <b>space bar</b> to continue.</p></div>",32,,,,,,,,,,,,,,,,,,,,,,,
,do_travel,250,1052290,0.0-133.0-0.0,"""event"",""trial"",""time""
""fullscreenenter"",""0"",""1705""
","
","
","""event"",""trial"",""time""
""fullscreenenter"",""0"",""1705""
","
",null,,,,,,,,null,,,,,,,,,,,,,,,,,
,do_welcome,251,1056300,0.0-133.0-1.0,"""event"",""trial"",""time""
""fullscreenenter"",""0"",""1705""
","
","
","""event"",""trial"",""time""
""fullscreenenter"",""0"",""1705""
","
",null,,,,,,,,null,,,,,,,,,,,,,,,,,
,do_trial,252,1062067,0.0-134.0-0.0,"""event"",""trial"",""time""
""fullscreenenter"",""0"",""1705""
","
","
","""event"",""trial"",""time""
""fullscreenenter"",""0"",""1705""
","
",1224.6,,,,,,,,49,"0,1,1",2,forest,70,probe-76,0.205047213,1,0.332456315,0,,,,,,,,
,html-keyboard-response,253,1063072,0.0-134.0-1.0,"""event"",""trial"",""time""
""fullscreenenter"",""0"",""1705""
","
","
","""event"",""trial"",""time""
""fullscreenenter"",""0"",""1705""
","
",null,<p></p>,null,,,,,,,,,,,,,,,,,,,,,,,
,do_trial,254,1067902,0.0-135.0-0.0,"""event"",""trial"",""time""
""fullscreenenter"",""0"",""1705""
","
","
","""event"",""trial"",""time""
""fullscreenenter"",""0"",""1705""
","
",278.3,,,,,,,,51,"0,1,0",2,forest,71,probe-41,0.16711576,1,0.317242422,0,,,,,,,,
,html-keyboard-response,255,1068909,0.0-135.0-1.0,"""event"",""trial"",""time""
""fullscreenenter"",""0"",""1705""
","
","
","""event"",""trial"",""time""
""fullscreenenter"",""0"",""1705""
","
",null,<p></p>,null,,,,,,,,,,,,,,,,,,,,,,,
,do_trial,256,1073692,0.0-136.0-0.0,"""event"",""trial"",""time""
""fullscreenenter"",""0"",""1705""
","
","
","""event"",""trial"",""time""
""fullscreenenter"",""0"",""1705""
","
",230.9,,,,,,,,50,"0,0,0",2,forest,72,probe-211,0.129125088,0.904044752,0.47210272,0,,,,,,,,
,html-keyboard-response,257,1074697,0.0-136.0-1.0,"""event"",""trial"",""time""
""fullscreenenter"",""0"",""1705""
","
","
","""event"",""trial"",""time""
""fullscreenenter"",""0"",""1705""
","
",null,<p></p>,null,,,,,,,,,,,,,,,,,,,,,,,
,do_trial,258,1079569,0.0-137.0-0.0,"""event"",""trial"",""time""
""fullscreenenter"",""0"",""1705""
","
","
","""event"",""trial"",""time""
""fullscreenenter"",""0"",""1705""
","
",314.5,,,,,,,,51,"0,1,1",2,forest,73,probe-56,0.099926385,0.763602857,0.38063246,1,,,,,,,,
,html-keyboard-response,259,1080573,0.0-137.0-1.0,"""event"",""trial"",""time""
""fullscreenenter"",""0"",""1705""
","
","
","""event"",""trial"",""time""
""fullscreenenter"",""0"",""1705""
","
",null,<p></p>,null,,,,,,,,,,,,,,,,,,,,,,,
,do_trial,260,1085754,0.0-138.0-0.0,"""event"",""trial"",""time""
""fullscreenenter"",""0"",""1705""
","
","
","""event"",""trial"",""time""
""fullscreenenter"",""0"",""1705""
","
",626.1,,,,,,,,49,"1,1,0",2,forest,74,probe-181,0.107315086,0.719878977,0.313480241,1,,,,,,,,
,html-keyboard-response,261,1086761,0.0-138.0-1.0,"""event"",""trial"",""time""
""fullscreenenter"",""0"",""1705""
","
","
","""event"",""trial"",""time""
""fullscreenenter"",""0"",""1705""
","
",null,<p></p>,null,,,,,,,,,,,,,,,,,,,,,,,
,do_trial,262,1092095,0.0-139.0-0.0,"""event"",""trial"",""time""
""fullscreenenter"",""0"",""1705""
","
","
","""event"",""trial"",""time""
""fullscreenenter"",""0"",""1705""
","
",779.5,,,,,,,,50,"1,1,0",2,forest,75,probe-100,0.179834646,0.664509927,0.288396816,1,,,,,,,,
,html-keyboard-response,263,1093099,0.0-139.0-1.0,"""event"",""trial"",""time""
""fullscreenenter"",""0"",""1705""
","
","
","""event"",""trial"",""time""
""fullscreenenter"",""0"",""1705""
","
",null,<p></p>,null,,,,,,,,,,,,,,,,,,,,,,,
,do_trial,264,1098131,0.0-140.0-0.0,"""event"",""trial"",""time""
""fullscreenenter"",""0"",""1705""
","
","
","""event"",""trial"",""time""
""fullscreenenter"",""0"",""1705""
","
",482.4,,,,,,,,51,"0,0,0",2,forest,76,probe-122,0.053982474,0.580555852,0.212155575,0,,,,,,,,
,html-keyboard-response,265,1099136,0.0-140.0-1.0,"""event"",""trial"",""time""
""fullscreenenter"",""0"",""1705""
","
","
","""event"",""trial"",""time""
""fullscreenenter"",""0"",""1705""
","
",null,<p></p>,null,,,,,,,,,,,,,,,,,,,,,,,
,do_trial,266,1103953,0.0-141.0-0.0,"""event"",""trial"",""time""
""fullscreenenter"",""0"",""1705""
","
","
","""event"",""trial"",""time""
""fullscreenenter"",""0"",""1705""
","
",266,,,,,,,,49,"0,0,0",2,forest,77,probe-79,0.10612364,0.522983535,0.211619505,0,,,,,,,,
,html-keyboard-response,267,1104957,0.0-141.0-1.0,"""event"",""trial"",""time""
""fullscreenenter"",""0"",""1705""
","
","
","""event"",""trial"",""time""
""fullscreenenter"",""0"",""1705""
","
",null,<p></p>,null,,,,,,,,,,,,,,,,,,,,,,,
,do_trial,268,1109936,0.0-142.0-0.0,"""event"",""trial"",""time""
""fullscreenenter"",""0"",""1705""
","
","
","""event"",""trial"",""time""
""fullscreenenter"",""0"",""1705""
","
",427.5,,,,,,,,50,"0,0,0",2,forest,78,probe-201,0.123460599,0.5606349,0.159671079,0,,,,,,,,
,html-keyboard-response,269,1110943,0.0-142.0-1.0,"""event"",""trial"",""time""
""fullscreenenter"",""0"",""1705""
","
","
","""event"",""trial"",""time""
""fullscreenenter"",""0"",""1705""
","
",null,<p></p>,null,,,,,,,,,,,,,,,,,,,,,,,
,do_trial,270,1116145,0.0-143.0-0.0,"""event"",""trial"",""time""
""fullscreenenter"",""0"",""1705""
","
","
","""event"",""trial"",""time""
""fullscreenenter"",""0"",""1705""
","
",647.6,,,,,,,,51,"0,0,0",2,forest,79,probe-104,0.067863549,0.613838675,0.218284597,0,,,,,,,,
,html-keyboard-response,271,1117150,0.0-143.0-1.0,"""event"",""trial"",""time""
""fullscreenenter"",""0"",""1705""
","
","
","""event"",""trial"",""time""
""fullscreenenter"",""0"",""1705""
","
",null,<p></p>,null,,,,,,,,,,,,,,,,,,,,,,,
,do_trial,272,1122373,0.0-144.0-0.0,"""event"",""trial"",""time""
""fullscreenenter"",""0"",""1705""
","
","
","""event"",""trial"",""time""
""fullscreenenter"",""0"",""1705""
","
",667.4,,,,,,,,49,"0,1,0",2,forest,80,probe-103,0.082965864,0.510103259,0.196939024,0,,,,,,,,
,html-keyboard-response,273,1123379,0.0-144.0-1.0,"""event"",""trial"",""time""
""fullscreenenter"",""0"",""1705""
","
","
","""event"",""trial"",""time""
""fullscreenenter"",""0"",""1705""
","
",null,<p></p>,null,,,,,,,,,,,,,,,,,,,,,,,
,do_trial,274,1127931,0.0-145.0-0.0,"""event"",""trial"",""time""
""fullscreenenter"",""0"",""1705""
","
","
","""event"",""trial"",""time""
""fullscreenenter"",""0"",""1705""
","
",1.699999988,,,,,,,,50,"0,1,0",2,forest,81,probe-44,0.195893826,0.474527451,0.295094041,1,,,,,,,,
,html-keyboard-response,275,1128935,0.0-145.0-1.0,"""event"",""trial"",""time""
""fullscreenenter"",""0"",""1705""
","
","
","""event"",""trial"",""time""
""fullscreenenter"",""0"",""1705""
","
",null,<p></p>,null,,,,,,,,,,,,,,,,,,,,,,,
,do_trial,276,1133868,0.0-146.0-0.0,"""event"",""trial"",""time""
""fullscreenenter"",""0"",""1705""
","
","
","""event"",""trial"",""time""
""fullscreenenter"",""0"",""1705""
","
",379.3,,,,,,,,50,"1,0,0",2,forest,82,probe-11,0.289484594,0.362143739,0.070750072,0,,,,,,,,
,html-keyboard-response,277,1134874,0.0-146.0-1.0,"""event"",""trial"",""time""
""fullscreenenter"",""0"",""1705""
","
","
","""event"",""trial"",""time""
""fullscreenenter"",""0"",""1705""
","
",null,<p></p>,null,,,,,,,,,,,,,,,,,,,,,,,
,do_trial,278,1139713,0.0-147.0-0.0,"""event"",""trial"",""time""
""fullscreenenter"",""0"",""1705""
","
","
","""event"",""trial"",""time""
""fullscreenenter"",""0"",""1705""
","
",286.9,,,,,,,,50,"1,0,0",2,forest,83,probe-135,0.392405981,0.422602472,0.192815127,0,,,,,,,,
,html-keyboard-response,279,1140717,0.0-147.0-1.0,"""event"",""trial"",""time""
""fullscreenenter"",""0"",""1705""
","
","
","""event"",""trial"",""time""
""fullscreenenter"",""0"",""1705""
","
",null,<p></p>,null,,,,,,,,,,,,,,,,,,,,,,,
,do_trial,280,1145706,0.0-148.0-0.0,"""event"",""trial"",""time""
""fullscreenenter"",""0"",""1705""
","
","
","""event"",""trial"",""time""
""fullscreenenter"",""0"",""1705""
","
",431.7,,,,,,,,49,"1,0,0",2,forest,84,probe-175,0.440886189,0.3612239,0.053024651,1,,,,,,,,
,html-keyboard-response,281,1146712,0.0-148.0-1.0,"""event"",""trial"",""time""
""fullscreenenter"",""0"",""1705""
","
","
","""event"",""trial"",""time""
""fullscreenenter"",""0"",""1705""
","
",null,<p></p>,null,,,,,,,,,,,,,,,,,,,,,,,
,do_trial,282,1152872,0.0-149.0-0.0,"""event"",""trial"",""time""
""fullscreenenter"",""0"",""1705""
","
","
","""event"",""trial"",""time""
""fullscreenenter"",""0"",""1705""
","
",1608.3,,,,,,,,51,"1,0,0",2,forest,85,probe-47,0.513630344,0.205946001,0.113018715,0,,,,,,,,
,html-keyboard-response,283,1153879,0.0-149.0-1.0,"""event"",""trial"",""time""
""fullscreenenter"",""0"",""1705""
","
","
","""event"",""trial"",""time""
""fullscreenenter"",""0"",""1705""
","
",null,<p></p>,null,,,,,,,,,,,,,,,,,,,,,,,
,do_trial,284,1158753,0.0-150.0-0.0,"""event"",""trial"",""time""
""fullscreenenter"",""0"",""1705""
","
","
","""event"",""trial"",""time""
""fullscreenenter"",""0"",""1705""
","
",319.5,,,,,,,,50,"1,1,0",2,forest,86,probe-166,0.585486117,0.236534921,0.06752824,1,,,,,,,,
,html-keyboard-response,285,1159758,0.0-150.0-1.0,"""event"",""trial"",""time""
""fullscreenenter"",""0"",""1705""
","
","
","""event"",""trial"",""time""
""fullscreenenter"",""0"",""1705""
","
",null,<p></p>,null,,,,,,,,,,,,,,,,,,,,,,,
,do_trial,286,1165666,0.0-151.0-0.0,"""event"",""trial"",""time""
""fullscreenenter"",""0"",""1705""
","
","
","""event"",""trial"",""time""
""fullscreenenter"",""0"",""1705""
","
",1350.7,,,,,,,,49,"0,0,0",2,forest,87,probe-45,0.532331752,0.209905278,0.092291589,0,,,,,,,,
,html-keyboard-response,287,1166671,0.0-151.0-1.0,"""event"",""trial"",""time""
""fullscreenenter"",""0"",""1705""
","
","
","""event"",""trial"",""time""
""fullscreenenter"",""0"",""1705""
","
",null,<p></p>,null,,,,,,,,,,,,,,,,,,,,,,,
,do_trial,288,1171598,0.0-152.0-0.0,"""event"",""trial"",""time""
""fullscreenenter"",""0"",""1705""
","
","
","""event"",""trial"",""time""
""fullscreenenter"",""0"",""1705""
","
",373.1,,,,,,,,50,"1,0,0",2,forest,88,probe-17,0.732221155,0.119191731,0.100731307,0,,,,,,,,
,html-keyboard-response,289,1172601,0.0-152.0-1.0,"""event"",""trial"",""time""
""fullscreenenter"",""0"",""1705""
","
","
","""event"",""trial"",""time""
""fullscreenenter"",""0"",""1705""
","
",null,<p></p>,null,,,,,,,,,,,,,,,,,,,,,,,
,do_trial,290,1177700,0.0-153.0-0.0,"""event"",""trial"",""time""
""fullscreenenter"",""0"",""1705""
","
","
","""event"",""trial"",""time""
""fullscreenenter"",""0"",""1705""
","
",544,,,,,,,,49,"1,0,0",2,forest,89,probe-192,0.732458569,0.098402737,0.147166396,1,,,,,,,,
,html-keyboard-response,291,1178705,0.0-153.0-1.0,"""event"",""trial"",""time""
""fullscreenenter"",""0"",""1705""
","
","
","""event"",""trial"",""time""
""fullscreenenter"",""0"",""1705""
","
",null,<p></p>,null,,,,,,,,,,,,,,,,,,,,,,,
,do_trial,292,1185782,0.0-154.0-0.0,"""event"",""trial"",""time""
""fullscreenenter"",""0"",""1705""
","
","
","""event"",""trial"",""time""
""fullscreenenter"",""0"",""1705""
","
",2524.9,,,,,,,,50,"1,0,0",2,forest,90,probe-43,0.64971845,0.220266284,0.062332522,0,,,,,,,,
,html-keyboard-response,293,1186786,0.0-154.0-1.0,"""event"",""trial"",""time""
""fullscreenenter"",""0"",""1705""
","
","
","""event"",""trial"",""time""
""fullscreenenter"",""0"",""1705""
","
",null,<p></p>,null,,,,,,,,,,,,,,,,,,,,,,,
,do_trial,294,1191630,0.0-155.0-0.0,"""event"",""trial"",""time""
""fullscreenenter"",""0"",""1705""
","
","
","""event"",""trial"",""time""
""fullscreenenter"",""0"",""1705""
","
",290.1,,,,,,,,49,"0,0,0",2,forest,91,probe-200,0.695418353,0.193575457,0.050870962,0,,,,,,,,
,html-keyboard-response,295,1192633,0.0-155.0-1.0,"""event"",""trial"",""time""
""fullscreenenter"",""0"",""1705""
","
","
","""event"",""trial"",""time""
""fullscreenenter"",""0"",""1705""
","
",null,<p></p>,null,,,,,,,,,,,,,,,,,,,,,,,
,do_trial,296,1197685,0.0-156.0-0.0,"""event"",""trial"",""time""
""fullscreenenter"",""0"",""1705""
","
","
","""event"",""trial"",""time""
""fullscreenenter"",""0"",""1705""
","
",499.3,,,,,,,,51,"0,1,0",2,forest,92,probe-130,0.578368849,0.257713484,0.108018558,0,,,,,,,,
,html-keyboard-response,297,1198691,0.0-156.0-1.0,"""event"",""trial"",""time""
""fullscreenenter"",""0"",""1705""
","
","
","""event"",""trial"",""time""
""fullscreenenter"",""0"",""1705""
","
",null,<p></p>,null,,,,,,,,,,,,,,,,,,,,,,,
,do_trial,298,1203762,0.0-157.0-0.0,"""event"",""trial"",""time""
""fullscreenenter"",""0"",""1705""
","
","
","""event"",""trial"",""time""
""fullscreenenter"",""0"",""1705""
","
",514.4,,,,,,,,49,"0,1,0",2,forest,93,probe-09,0.660990547,0.416183763,0.277548134,0,,,,,,,,
,html-keyboard-response,299,1204765,0.0-157.0-1.0,"""event"",""trial"",""time""
""fullscreenenter"",""0"",""1705""
","
","
","""event"",""trial"",""time""
""fullscreenenter"",""0"",""1705""
","
",null,<p></p>,null,,,,,,,,,,,,,,,,,,,,,,,
,do_trial,300,1209679,0.0-158.0-0.0,"""event"",""trial"",""time""
""fullscreenenter"",""0"",""1705""
","
","
","""event"",""trial"",""time""
""fullscreenenter"",""0"",""1705""
","
",357.2,,,,,,,,50,"1,0,0",2,forest,94,probe-97,0.528722552,0.438867046,0.240624938,0,,,,,,,,
,html-keyboard-response,301,1210685,0.0-158.0-1.0,"""event"",""trial"",""time""
""fullscreenenter"",""0"",""1705""
","
","
","""event"",""trial"",""time""
""fullscreenenter"",""0"",""1705""
","
",null,<p></p>,null,,,,,,,,,,,,,,,,,,,,,,,
,do_trial,302,1215575,0.0-159.0-0.0,"""event"",""trial"",""time""
""fullscreenenter"",""0"",""1705""
","
","
","""event"",""trial"",""time""
""fullscreenenter"",""0"",""1705""
","
",334.8,,,,,,,,49,"0,1,1",2,forest,95,probe-210,0.483281051,0.302032969,0.161607761,0,,,,,,,,
,html-keyboard-response,303,1216583,0.0-159.0-1.0,"""event"",""trial"",""time""
""fullscreenenter"",""0"",""1705""
","
","
","""event"",""trial"",""time""
""fullscreenenter"",""0"",""1705""
","
",null,<p></p>,null,,,,,,,,,,,,,,,,,,,,,,,
,do_trial,304,1221518,0.0-160.0-0.0,"""event"",""trial"",""time""
""fullscreenenter"",""0"",""1705""
","
","
","""event"",""trial"",""time""
""fullscreenenter"",""0"",""1705""
","
",386.4,,,,,,,,51,"1,0,0",2,forest,96,probe-226,0.513760327,0.238421783,0.213794393,0,,,,,,,,
,html-keyboard-response,305,1222522,0.0-160.0-1.0,"""event"",""trial"",""time""
""fullscreenenter"",""0"",""1705""
","
","
","""event"",""trial"",""time""
""fullscreenenter"",""0"",""1705""
","
",null,<p></p>,null,,,,,,,,,,,,,,,,,,,,,,,
,do_trial,306,1227370,0.0-161.0-0.0,"""event"",""trial"",""time""
""fullscreenenter"",""0"",""1705""
","
","
","""event"",""trial"",""time""
""fullscreenenter"",""0"",""1705""
","
",294.4,,,,,,,,49,"1,1,0",2,forest,97,probe-111,0.574451012,0.240332826,0.2478093,1,,,,,,,,
,html-keyboard-response,307,1228372,0.0-161.0-1.0,"""event"",""trial"",""time""
""fullscreenenter"",""0"",""1705""
","
","
","""event"",""trial"",""time""
""fullscreenenter"",""0"",""1705""
","
",null,<p></p>,null,,,,,,,,,,,,,,,,,,,,,,,
,do_trial,308,1233142,0.0-162.0-0.0,"""event"",""trial"",""time""
""fullscreenenter"",""0"",""1705""
","
","
","""event"",""trial"",""time""
""fullscreenenter"",""0"",""1705""
","
",213.9,,,,,,,,50,"0,0,0",2,forest,98,probe-51,0.499199638,0.333090173,0.192666284,0,,,,,,,,
,html-keyboard-response,309,1234147,0.0-162.0-1.0,"""event"",""trial"",""time""
""fullscreenenter"",""0"",""1705""
","
","
","""event"",""trial"",""time""
""fullscreenenter"",""0"",""1705""
","
",null,<p></p>,null,,,,,,,,,,,,,,,,,,,,,,,
,do_trial,310,1239239,0.0-163.0-0.0,"""event"",""trial"",""time""
""fullscreenenter"",""0"",""1705""
","
","
","""event"",""trial"",""time""
""fullscreenenter"",""0"",""1705""
","
",535.9,,,,,,,,50,"1,0,1",2,forest,99,probe-28,0.598107081,0.345205928,0.098064526,0,,,,,,,,
,html-keyboard-response,311,1240247,0.0-163.0-1.0,"""event"",""trial"",""time""
""fullscreenenter"",""0"",""1705""
","
","
","""event"",""trial"",""time""
""fullscreenenter"",""0"",""1705""
","
",null,<p></p>,null,,,,,,,,,,,,,,,,,,,,,,,
,do_trial,312,1245261,0.0-164.0-0.0,"""event"",""trial"",""time""
""fullscreenenter"",""0"",""1705""
","
","
","""event"",""trial"",""time""
""fullscreenenter"",""0"",""1705""
","
",465,,,,,,,,51,"1,0,0",2,forest,100,probe-46,0.527626654,0.327509776,0.263120279,0,,,,,,,,
,html-keyboard-response,313,1246269,0.0-164.0-1.0,"""event"",""trial"",""time""
""fullscreenenter"",""0"",""1705""
","
","
","""event"",""trial"",""time""
""fullscreenenter"",""0"",""1705""
","
",null,<p></p>,null,,,,,,,,,,,,,,,,,,,,,,,
,do_trial,314,1251142,0.0-165.0-0.0,"""event"",""trial"",""time""
""fullscreenenter"",""0"",""1705""
","
","
","""event"",""trial"",""time""
""fullscreenenter"",""0"",""1705""
","
",320.7,,,,,,,,50,"0,0,0",2,forest,101,probe-63,0.56869568,0.241303553,0.11093032,0,,,,,,,,
,html-keyboard-response,315,1252146,0.0-165.0-1.0,"""event"",""trial"",""time""
""fullscreenenter"",""0"",""1705""
","
","
","""event"",""trial"",""time""
""fullscreenenter"",""0"",""1705""
","
",null,<p></p>,null,,,,,,,,,,,,,,,,,,,,,,,
,do_trial,316,1256987,0.0-166.0-0.0,"""event"",""trial"",""time""
""fullscreenenter"",""0"",""1705""
","
","
","""event"",""trial"",""time""
""fullscreenenter"",""0"",""1705""
","
",288.9,,,,,,,,49,"0,1,0",2,forest,102,probe-83,0.490792353,0.13066158,0.054833852,0,,,,,,,,
,html-keyboard-response,317,1257994,0.0-166.0-1.0,"""event"",""trial"",""time""
""fullscreenenter"",""0"",""1705""
","
","
","""event"",""trial"",""time""
""fullscreenenter"",""0"",""1705""
","
",null,<p></p>,null,,,,,,,,,,,,,,,,,,,,,,,
,do_trial,318,1262959,0.0-167.0-0.0,"""event"",""trial"",""time""
""fullscreenenter"",""0"",""1705""
","
","
","""event"",""trial"",""time""
""fullscreenenter"",""0"",""1705""
","
",410.5,,,,,,,,50,"1,0,0",2,forest,103,probe-95,0.654869738,0.1759136,0.081609686,0,,,,,,,,
,html-keyboard-response,319,1263965,0.0-167.0-1.0,"""event"",""trial"",""time""
""fullscreenenter"",""0"",""1705""
","
","
","""event"",""trial"",""time""
""fullscreenenter"",""0"",""1705""
","
",null,<p></p>,null,,,,,,,,,,,,,,,,,,,,,,,
,do_trial,320,1268965,0.0-168.0-0.0,"""event"",""trial"",""time""
""fullscreenenter"",""0"",""1705""
","
","
","""event"",""trial"",""time""
""fullscreenenter"",""0"",""1705""
","
",442.1,,,,,,,,49,"1,0,0",2,forest,104,probe-121,0.586101474,0.147469674,0.177790115,1,,,,,,,,
,html-keyboard-response,321,1269968,0.0-168.0-1.0,"""event"",""trial"",""time""
""fullscreenenter"",""0"",""1705""
","
","
","""event"",""trial"",""time""
""fullscreenenter"",""0"",""1705""
","
",null,<p></p>,null,,,,,,,,,,,,,,,,,,,,,,,
,do_trial,322,1275518,0.0-169.0-0.0,"""event"",""trial"",""time""
""fullscreenenter"",""0"",""1705""
","
","
","""event"",""trial"",""time""
""fullscreenenter"",""0"",""1705""
","
",994.2,,,,,,,,50,"0,1,0",2,forest,105,probe-161,0.622876522,0.332951154,0.150024399,1,,,,,,,,
,html-keyboard-response,323,1276524,0.0-169.0-1.0,"""event"",""trial"",""time""
""fullscreenenter"",""0"",""1705""
","
","
","""event"",""trial"",""time""
""fullscreenenter"",""0"",""1705""
","
",null,<p></p>,null,,,,,,,,,,,,,,,,,,,,,,,
,do_trial,324,1281649,0.0-170.0-0.0,"""event"",""trial"",""time""
""fullscreenenter"",""0"",""1705""
","
","
","""event"",""trial"",""time""
""fullscreenenter"",""0"",""1705""
","
",572.2,,,,,,,,49,"1,1,0",2,forest,106,probe-21,0.676249747,0.247401811,0.194883144,1,,,,,,,,
,html-keyboard-response,325,1282652,0.0-170.0-1.0,"""event"",""trial"",""time""
""fullscreenenter"",""0"",""1705""
","
","
","""event"",""trial"",""time""
""fullscreenenter"",""0"",""1705""
","
",null,<p></p>,null,,,,,,,,,,,,,,,,,,,,,,,
,do_trial,326,1287617,0.0-171.0-0.0,"""event"",""trial"",""time""
""fullscreenenter"",""0"",""1705""
","
","
","""event"",""trial"",""time""
""fullscreenenter"",""0"",""1705""
","
",406.6,,,,,,,,49,"0,0,0",2,forest,107,probe-150,0.48812307,0.163053135,0.105692533,0,,,,,,,,
,html-keyboard-response,327,1288619,0.0-171.0-1.0,"""event"",""trial"",""time""
""fullscreenenter"",""0"",""1705""
","
","
","""event"",""trial"",""time""
""fullscreenenter"",""0"",""1705""
","
",null,<p></p>,null,,,,,,,,,,,,,,,,,,,,,,,
,do_trial,328,1294677,0.0-172.0-0.0,"""event"",""trial"",""time""
""fullscreenenter"",""0"",""1705""
","
","
","""event"",""trial"",""time""
""fullscreenenter"",""0"",""1705""
","
",null,,,,,,,,null,"1,0,0",2,forest,108,probe-113,0.534480692,0.246772754,0.095812382,,,,,,,,,
,html-keyboard-response,329,1295685,0.0-172.0-1.0,"""event"",""trial"",""time""
""fullscreenenter"",""0"",""1705""
","
","
","""event"",""trial"",""time""
""fullscreenenter"",""0"",""1705""
","
",null,<p></p>,null,,,,,,,,,,,,,,,,,,,,,,,
,do_trial,330,1302577,0.0-173.0-0.0,"""event"",""trial"",""time""
""fullscreenenter"",""0"",""1705""
","
","
","""event"",""trial"",""time""
""fullscreenenter"",""0"",""1705""
","
",2340.8,,,,,,,,50,"1,0,0",2,forest,109,probe-87,0.517565529,0.290923622,0.212933953,0,,,,,,,,
,html-keyboard-response,331,1303585,0.0-173.0-1.0,"""event"",""trial"",""time""
""fullscreenenter"",""0"",""1705""
","
","
