"success","trial_type","trial_index","time_elapsed","internal_node_id","rt","stimulus","key_press","subject_id","participant_id","age","gender","prompt","response","choice_outcomes","context_n","context_img_id","trial_n","probe_img_id","pR_red","pR_white","pR_black","outcome","contextArray_ind","validImageProbes","invalidImageProbes","pRew_Red","pRew_White","pRew_Black","availableForMemProbe","choice_blocks"
"true","fullscreen","0","7091","0.0-0.0","","","","","","","","","","","","","","","","","","","","","","","","","",""
"","pavlovia","1","7099","0.0-1.0","","","","","","","","","","","","","","","","","","","","","","","","","",""
"","instruc1","2","63302","0.0-2.0","null","run_exp/static/audio/clip_1_welcome.m4a","null","54","46","8","Male","<div class='center'><p>Welcome! This is the first part of the experiment. It will last ~30 minutes. In this experiment, you are the head captain of a pirate ship traveling around the world to different islands. You will play a few different games during this experiment. Here is an overview of these games:</p><br><p>Part 1 (today)</p><p>1. Instructions, practice game, and quiz</p><p>2. Pick a pirate game on 6 different islands</p><br><p>Part 2 (1 day later)</p><p>3. Pick a pirate game and memory game</p><p>4. Where did I see this ship? game</p><p>5. Which pirate was the best? game</p><br><p>Part 3 (1 week later)</p><p>6. Alien space mining game</p><p>7. Memory game</p></div>","","","","","","","","","","","","","","","","","",""
"","html-keyboard-response","3","65448","0.0-3.0","2143.800000011921","<div class='center'><p>Welcome! This is the first part of the experiment. It will last ~30 minutes. In this experiment, you are the head captain of a pirate ship traveling around the world to different islands. You will play a few different games during this experiment. Here is an overview of these games:</p><br><p>Part 1 (today)</p><p>1. Instructions, practice game, and quiz</p><p>2. Pick a pirate game on 6 different islands</p><br><p>Part 2 (1 day later)</p><p>3. Pick a pirate game and memory game</p><p>4. Where did I see this ship? game</p><p>5. Which pirate was the best? game</p><br><p>Part 3 (1 week later)</p><p>6. Alien space mining game</p><p>7. Memory game</p><p><b>[Press the space bar to continue]</b></p></div>","32","","","","","","","","","","","","","","","","","","","","","","",""
"","instruc2","4","73518","0.0-4.0","null","run_exp/static/audio/clip_2_different_places.m4a","null","","","","","<div class='center'><p>Today, you’ll visit these 6 islands on your journey. You'll be able to see these islands from your ship.</p><p><img src='run_exp/static/images/contexts/all_contexts.png' height='500'></p></div>","","","","","","","","","","","","","","","","","",""
"","html-keyboard-response","5","75929","0.0-5.0","2408.199999988079","<div class='center'><p>Today, you’ll visit these 6 islands on your journey. You'll be able to see these islands from your ship.</p><p><img src='run_exp/static/images/contexts/all_contexts.png' height='500'></p><p><b>[Press the space bar to continue]</b></p></div>","32","","","","","","","","","","","","","","","","","","","","","","",""
"","instruc3","6","88589","0.0-6.0","null","run_exp/static/audio/clip_3_goal_of_game_1.m4a","null","","","","","<div class='center'><p> The pirates on your ship will rob other ships as they leave the island</p> These ships have just sold their things to people on the island, so they will be filled with lots and lots of gold.</p><p><img src='run_exp/static/images/tutorial/ship_center.png' height='400'></p></div>","","","","","","","","","","","","","","","","","",""
"","html-keyboard-response","7","90000","0.0-7.0","1407.6000000238419","<div class='center'><p> The pirates on your ship will rob other ships as they leave the island</p> These ships have just sold their things to people on the island, so they will be filled with lots and lots of gold.</p><p><img src='run_exp/static/images/tutorial/ship_center.png' height='400'></p><p><b>[Press the space bar to continue]</b></p></div>","32","","","","","","","","","","","","","","","","","","","","","","",""
"","instruc4","8","123301","0.0-8.0","null","run_exp/static/audio/clip_4_goal_of_game_2.m4a","null","","","","","<div class='center'><p>As the head captain, you do not have to rob any ships yourself.</p><p>Another pirate will be doing the robbing for you. </p><p>First, you will  choose a pirate to rob the next ship.</p><p><img src='run_exp/static/images/tutorial/pirates_all_crop.png' height='200'></p><p>Then, you'll see if the pirate successfully robbed the ship of their gold. If they were successful, then you'll  get a stack of gold coins like this:</p><p><img src='run_exp/static/images/tutorial/reward.png' height='150'></p><p> If they were <b>not</b> successful, then you'll get no gold coins, and you'll see a big red x like this: </p><p><img src='run_exp/static/images/tutorial/reward_no.png' height='150'></p><p> How much bonus money you make is based on how many gold coins you collect.</p><div>","","","","","","","","","","","","","","","","","",""
"","html-keyboard-response","9","124283","0.0-9.0","979.4000000059605","<div class='center'><p>As the head captain, you do not have to rob any ships yourself.</p><p>Another pirate will be doing the robbing for you. </p><p>First, you will  choose a pirate to rob the next ship.</p><p><img src='run_exp/static/images/tutorial/pirates_all_crop.png' height='200'></p><p>Then, you'll see if the pirate successfully robbed the ship of their gold. If they were successful, then you'll  get a stack of gold coins like this:</p><p><img src='run_exp/static/images/tutorial/reward.png' height='150'></p><p> If they were <b>not</b> successful, then you'll get no gold coins, and you'll see a big red x like this: </p><p><img src='run_exp/static/images/tutorial/reward_no.png' height='150'></p><p> How much bonus money you make is based on how many gold coins you collect.</p<p><b>[Press the space bar to continue]</b></p></div>","32","","","","","","","","","","","","","","","","","","","","","","",""
"","instruc5","10","158904","0.0-10.0","34620.70000001788","run_exp/static/audio/clip_5_probabilistic.m4a","49","","","","","<div class='center'><p>Even the most skilled pirate can not rob EVERY ship.</p><p> Some ships will have very strong protections against pirate attacks.</p><p> Blue beard, here, is very, very good at robbing ships, but he won't be successful every time he tries to rob one.</p><p> You can press the <b>‘1’</b> key on the keyboard to choose him.</p><p> Try choosing him 10 times to see how often he succeeds at robbing a ship. </p><p><img src='run_exp/static/images/tutorial/blue.png' height='500'></p></div>","","","","","","","","","","","","","","","","","",""
"","html-keyboard-response","11","160407","0.0-11.0","null","<div class='center'><p><img src='run_exp/static/images/tutorial/blue_win.png' height='500'></p></div>","null","","","","","","","","","","","","","","","","","","","","","","",""
"","html-keyboard-response","12","165030","0.0-12.0","4621.399999976158","<div class='center'><img src='run_exp/static/images/tutorial/blue.png' height='500'></p></div>","49","","","","","","","","","","","","","","","","","","","","","","",""
"","html-keyboard-response","13","166536","0.0-13.0","null","<div class='center'><p><img src='run_exp/static/images/tutorial/blue_win.png' height='500'></p></div>","null","","","","","","","","","","","","","","","","","","","","","","",""
"","html-keyboard-response","14","167002","0.0-14.0","465.59999999403954","<div class='center'><img src='run_exp/static/images/tutorial/blue.png' height='500'></p></div>","49","","","","","","","","","","","","","","","","","","","","","","",""
"","html-keyboard-response","15","168510","0.0-15.0","null","<div class='center'><p><img src='run_exp/static/images/tutorial/blue_win.png' height='500'></p></div>","null","","","","","","","","","","","","","","","","","","","","","","",""
"","html-keyboard-response","16","169714","0.0-16.0","1202.300000011921","<div class='center'><img src='run_exp/static/images/tutorial/blue.png' height='500'></p></div>","49","","","","","","","","","","","","","","","","","","","","","","",""
"","html-keyboard-response","17","171221","0.0-17.0","null","<div class='center'><p><img src='run_exp/static/images/tutorial/blue_no_win.png' height='500'></p></div>","null","","","","","","","","","","","","","","","","","","","","","","",""
"","html-keyboard-response","18","173391","0.0-18.0","2168.4000000059605","<div class='center'><img src='run_exp/static/images/tutorial/blue.png' height='500'></p></div>","49","","","","","","","","","","","","","","","","","","","","","","",""
"","html-keyboard-response","19","174897","0.0-19.0","null","<div class='center'><p><img src='run_exp/static/images/tutorial/blue_win.png' height='500'></p></div>","null","","","","","","","","","","","","","","","","","","","","","","",""
"","html-keyboard-response","20","175520","0.0-20.0","621.5","<div class='center'><img src='run_exp/static/images/tutorial/blue.png' height='500'></p></div>","49","","","","","","","","","","","","","","","","","","","","","","",""
"","html-keyboard-response","21","177029","0.0-21.0","null","<div class='center'><p><img src='run_exp/static/images/tutorial/blue_win.png' height='500'></p></div>","null","","","","","","","","","","","","","","","","","","","","","","",""
"","html-keyboard-response","22","177516","0.0-22.0","485.90000000596046","<div class='center'><img src='run_exp/static/images/tutorial/blue.png' height='500'></p></div>","49","","","","","","","","","","","","","","","","","","","","","","",""
"","html-keyboard-response","23","179025","0.0-23.0","null","<div class='center'><p><img src='run_exp/static/images/tutorial/blue_win.png' height='500'></p></div>","null","","","","","","","","","","","","","","","","","","","","","","",""
"","html-keyboard-response","24","180567","0.0-24.0","1540.699999988079","<div class='center'><img src='run_exp/static/images/tutorial/blue.png' height='500'></p></div>","49","","","","","","","","","","","","","","","","","","","","","","",""
"","html-keyboard-response","25","182069","0.0-25.0","null","<div class='center'><p><img src='run_exp/static/images/tutorial/blue_no_win.png' height='500'></p></div>","null","","","","","","","","","","","","","","","","","","","","","","",""
"","html-keyboard-response","26","182536","0.0-26.0","465.09999999403954","<div class='center'><img src='run_exp/static/images/tutorial/blue.png' height='500'></p></div>","49","","","","","","","","","","","","","","","","","","","","","","",""
"","html-keyboard-response","27","184041","0.0-27.0","null","<div class='center'><p><img src='run_exp/static/images/tutorial/blue_win.png' height='500'></p></div>","null","","","","","","","","","","","","","","","","","","","","","","",""
"","html-keyboard-response","28","184575","0.0-28.0","533.0999999940395","<div class='center'><img src='run_exp/static/images/tutorial/blue.png' height='500'></p></div>","49","","","","","","","","","","","","","","","","","","","","","","",""
"","html-keyboard-response","29","186080","0.0-29.0","null","<div class='center'><p><img src='run_exp/static/images/tutorial/blue_win.png' height='500'></p></div>","null","","","","","","","","","","","","","","","","","","","","","","",""
"","instruc6","30","192814","0.0-30.0","null","run_exp/static/audio/clip_6_blue_beard_outcome.m4a","null","","","","","<div class='center'><p> See, he succeeded in robbing the ships most of the time but not every time. </p></div>","","","","","","","","","","","","","","","","","",""
"","html-keyboard-response","31","194703","0.0-31.0","1887.2999999821186","<div class='center'><p> See, he succeeded in robbing the ships most of the time but not every time. </p><p><b>[Press the space bar to continue]</b></p></div>","32","","","","","","","","","","","","","","","","","","","","","","",""
"","audio-keyboard-response","32","232084","0.0-32.0","37381.5","run_exp/static/audio/clip_7_pick_pirate.m4a","49","","","","","","","","","","","","","","","","","","","","","","",""
"","audio-keyboard-response","33","238021","0.0-33.0-0.0","5934.299999982119","run_exp/static/audio/clip_8_chosen_pirate_win.m4a","32","","","","","","","","","","","","","","","","","","","","","","",""
"","audio-keyboard-response","34","241668","0.0-33.0-1.0","3645.899999976158","run_exp/static/audio/clip_9_pick_a_pirate_again.m4a","50","","","","","","","","","","","","","","","","","","","","","","",""
"","audio-keyboard-response","35","248720","0.0-34.0-0.0","7049","run_exp/static/audio/clip_10_chosen_pirate_loss.m4a","32","","","","","","","","","","","","","","","","","","","","","","",""
"","instruc9","36","255948","0.0-35.0-0.0","null","run_exp/static/audio/clip_11_time_out.m4a","null","","","","","<div class='center'><p>If you don’t make your choice fast enough, you’ll have to wait a few seconds before you can make another one. </p><p><img src='run_exp/static/images/miscellaneous/hurry_up.png' height='500'></p></div>","","","","","","","","","","","","","","","","","",""
"","html-keyboard-response","37","257275","0.0-35.0-1.0","1325.6000000238419","<div class='center'><p>If you don’t make your choice fast enough, you’ll have to wait a few seconds before you can make another one. </p><p><img src='run_exp/static/images/miscellaneous/hurry_up.png' height='500'></p><p><b>[Press the space bar to continue]</b></p></div>","32","","","","","","","","","","","","","","","","","","","","","","",""
"","instruc10","38","305960","0.0-35.0-2.0","null","run_exp/static/audio/clip_12_probe.m4a","null","","","","","<div class='center'><p>Once you've choose a pirate, you’ll be shown the ship they are robbing.</p><p>You will never rob the same ship twice. After all, ships that have already been robbed won’t have gold on them. </p><p>Ships can be told apart from one another by the image on them. See, this one has a travel mug on it. </p><p> You’ll have to remember which island you saw each ship on.You will win more bonus money if you remember correctly! To help you remember, you can imagine a story. For example, here, you could imagine a mug full of water in the desert. Or, as another example, if on the forest island, your pirate robbed a ship with an apple on it, you could imagine an apple falling from a tree in the forest. </p><p><img src='run_exp/static/images/tutorial/example_probe.png' height='500'></p></div>","","","","","","","","","","","","","","","","","",""
"","html-keyboard-response","39","307035","0.0-35.0-3.0","1073.0999999940395","<div class='center'><p>Once you've choose a pirate, you’ll be shown the ship they are robbing.</p><p>You will never rob the same ship twice. After all, ships that have already been robbed won’t have gold on them. </p><p>Ships can be told apart from one another by the image on them. See, this one has a travel mug on it. </p><p> You’ll have to remember which island you saw each ship on.You will win more bonus money if you remember correctly! To help you remember, you can imagine a story. For example, here, you could imagine a mug full of water in the desert. Or, as another example, if on the forest island, your pirate robbed a ship with an apple on it, you could imagine an apple falling from a tree in the forest. </p><p><img src='run_exp/static/images/tutorial/example_probe.png' height='500'></p><p><b>[Press the space bar to continue]</b></p></div>","32","","","","","","","","","","","","","","","","","","","","","","",""
"","instruc11","40","327995","0.0-35.0-4.0","null","run_exp/static/audio/clip_13_changepoint.m4a","null","","","","","<div class='center'><p>How successful a pirate is at robbing ships will depend on the island you’re on.</p><p> A pirate may have visited this island many times before and gained a lot of practice robbing ships there.</p><p>So, they’re more likely to be successful than a pirate who has never visited the island before.</p></div>","","","","","","","","","","","","","","","","","",""
"","html-keyboard-response","41","329046","0.0-35.0-5.0","1049.0999999940395","<div class='center'><p>How successful a pirate is at robbing ships will depend on the island you’re on.</p><p> A pirate may have visited this island many times before and gained a lot of practice robbing ships there.</p><p>So, they’re more likely to be successful than a pirate who has never visited the island before.</p><p><b>[Press the space bar to continue]</b></p></div>","32","","","","","","","","","","","","","","","","","","","","","","",""
"","instruc12","42","357134","0.0-35.0-6.0","null","run_exp/static/audio/clip_14_drift.m4a","null","","","","","<div class='center'><p>How successful a pirate is at robbing ships can also change over the time spent on the island. </p><p> Ships may hear from islanders about the pirates coming and will improve their protections against the attack. This may make it harder to rob them.</p><p> Ships may also become lazy and weaken the strength of their protections. This may make it easier to rob them.</p><br><p>Things are always changing on the high seas! So, try your best to pay attention!</p><p><img src='run_exp/static/images/tutorial/contingency.png' height='500'></p></div>","","","","","","","","","","","","","","","","","",""
"","html-keyboard-response","43","357531","0.0-35.0-7.0","394","<div class='center'><p>How successful a pirate is at robbing ships can also change over the time spent on the island. </p><p> Ships may hear from islanders about the pirates coming and will improve their protections against the attack. This may make it harder to rob them.</p><p> Ships may also become lazy and weaken the strength of their protections. This may make it easier to rob them.</p><br><p>Things are always changing on the high seas! So, try your best to pay attention!</p><p><img src='run_exp/static/images/tutorial/contingency.png' height='500'></p><p><b>[Press the space bar to continue]</b></p></div>","32","","","","","","","","","","","","","","","","","","","","","","",""
"","instruc13","44","402246","0.0-35.0-8.0","null","run_exp/static/audio/clip_15_summary.m4a","null","","","","","<div class='center'><p>Let's go over the instructions quickly again. You have two important things to do: </p><b><p> 1. Pick the pirate who is the best at robbing ships on the current island. This way you'll collect more gold coins!</p></b><b><p> 2. Remember on which island a ship was robbed.</p> </b><p>The amount of bonus money you can win depends on both.</p><p><br><p>Let’s try a practice game. The game will start by showing you the pirates. First, pick a pirate using the <b> 1, 2, 3 </b> keys on your keyboard. When you are shown a ship, try to remember which island you’re on by making up a story.</p><p>This is just a practice game, so you’re not playing for money. </p><p> Good luck!</p></div>","","","","","","","","","","","","","","","","","",""
"","html-keyboard-response","45","402434","0.0-35.0-9.0","187","<div class='center'><p>Let's go over the instructions quickly again. You have two important things to do: </p><b><p> 1. Pick the pirate who is the best at robbing ships on the current island. This way you'll collect more gold coins!</p></b><b><p> 2. Remember on which island a ship was robbed.</p> </b><p>The amount of bonus money you can win depends on both.</p><p><br><p>Let’s try a practice game. The game will start by showing you the pirates. First, pick a pirate using the <b> 1, 2, 3 </b> keys on your keyboard. When you are shown a ship, try to remember which island you’re on by making up a story.</p><p>This is just a practice game, so you’re not playing for money. </p><p> Good luck!</p><p><b>[Press the space bar to continue]</b></p></div>","32","","","","","","","","","","","","","","","","","","","","","","",""
"","do_welcome","46","403944","0.0-35.0-10.0","null","","","","","","","","null","","","","","","","","","","","","","","","","",""
"","do_trial","47","411421","0.0-35.0-11.0","2965.5","","","","","","","","51","1,0,0","","","","","","","","","","","","","","","",""
"","html-keyboard-response","48","412427","0.0-36.0-0.0","null","<p></p>","null","","","","","","","","","","","","","","","","","","","","","","",""
"","do_trial","49","418444","0.0-36.0-1.0","null","","","","","","","","null","1,1,0","","","","","","","","","","","","","","","",""
"","html-keyboard-response","50","419449","0.0-37.0-0.0","null","<p></p>","null","","","","","","","","","","","","","","","","","","","","","","",""
"","do_trial","51","424730","0.0-37.0-1.0","763.9000000059605","","","","","","","","49","1,1,0","","","","","","","","","","","","","","","",""
"","html-keyboard-response","52","425739","0.0-38.0-0.0","null","<p></p>","null","","","","","","","","","","","","","","","","","","","","","","",""
"","do_trial","53","430952","0.0-38.0-1.0","696","","","","","","","","50","1,0,1","","","","","","","","","","","","","","","",""
"","html-keyboard-response","54","431960","0.0-39.0-0.0","null","<p></p>","null","","","","","","","","","","","","","","","","","","","","","","",""
"","do_trial","55","438458","0.0-39.0-1.0","1979.6000000238419","","","","","","","","49","0,1,0","","","","","","","","","","","","","","","",""
"","html-keyboard-response","56","439466","0.0-40.0-0.0","null","<p></p>","null","","","","","","","","","","","","","","","","","","","","","","",""
"","do_trial","57","444502","0.0-40.0-1.0","518.9000000059605","","","","","","","","51","1,0,0","","","","","","","","","","","","","","","",""
"","do_bye","58","446018","0.0-41.0-0.0","null","","","","","","","","null","","","","","","","","","","","","","","","","",""
"","do_travel","59","452028","0.0-41.0-1.0","null","","","","","","","","null","","","","","","","","","","","","","","","","",""
"","do_welcome","60","453542","0.0-41.0-2.0","null","","","","","","","","null","","","","","","","","","","","","","","","","",""
"","do_trial","61","459556","0.0-41.0-3.0","null","","","","","","","","null","1,0,0","","","","","","","","","","","","","","","",""
"","do_bye","62","461066","0.0-42.0-0.0","null","","","","","","","","null","","","","","","","","","","","","","","","","",""
"","do_travel","63","467072","0.0-42.0-1.0","null","","","","","","","","null","","","","","","","","","","","","","","","","",""
"","do_welcome","64","468584","0.0-42.0-2.0","null","","","","","","","","null","","","","","","","","","","","","","","","","",""
"","do_trial","65","473119","0.0-42.0-3.0","18.5","","","","","","","","50","1,0,0","","","","","","","","","","","","","","","",""
"","html-keyboard-response","66","474127","0.0-43.0-0.0","null","<p></p>","null","","","","","","","","","","","","","","","","","","","","","","",""
"","do_trial","67","479189","0.0-43.0-1.0","550.6999999880791","","","","","","","","49","1,0,1","","","","","","","","","","","","","","","",""
"","html-keyboard-response","68","480198","0.0-44.0-0.0","null","<p></p>","null","","","","","","","","","","","","","","","","","","","","","","",""
"","do_trial","69","486606","0.0-44.0-1.0","1896.0999999940395","","","","","","","","49","1,1,0","","","","","","","","","","","","","","","",""
"","html-keyboard-response","70","487614","0.0-45.0-0.0","null","<p></p>","null","","","","","","","","","","","","","","","","","","","","","","",""
"","do_trial","71","493124","0.0-45.0-1.0","997.5","","","","","","","","49","0,0,1","","","","","","","","","","","","","","","",""
"","html-keyboard-response","72","494132","0.0-46.0-0.0","null","<p></p>","null","","","","","","","","","","","","","","","","","","","","","","",""
"","do_trial","73","499194","0.0-46.0-1.0","546","","","","","","","","49","1,0,1","","","","","","","","","","","","","","","",""
"","html-keyboard-response","74","503081","0.0-47.0-0.0","3884","<div class='center'><p><img src='run_exp/static/images/tutorial/prac_best_pirate.png'  height='500'></p></div>","49","","","","","","","","","","","","","","","","","","","","","","",""
"","html-keyboard-response","75","506932","0.0-48.0-0.0","3850.0999999940395","<div class='center'><p>That's correct! Red beard was the best.</p><p><b>[Press the space bar to continue]</b></p></div>","32","","","","","","","","","","","","","","","","","","","","","","",""
"","html-keyboard-response","76","515437","0.0-48.0-1.0","8503.799999982119","<div class='center'><p><img src='run_exp/static/images/tutorial/prac_source.png'  height='500'></p></div>","50","","","","","","","","","","","","","","","","","","","","","","",""
"","html-keyboard-response","77","521751","0.0-49.0-0.0","6312.9000000059605","<div class='center'><p>That's correct! You saw this ship on the cavern island.</p><p><b>[Press the space bar to continue]</b></p></div>","32","","","","","","","","","","","","","","","","","","","","","","",""
"","quiz_beginning","78","535270","0.0-49.0-1.0","null","run_exp/static/audio/clip_16_quiz_intro.m4a","null","","","","","<div class='center'><p>Good job on the practice game! Now, you will be asked some true or false questions to make sure you really understand the rules of the game.</p><p> Press <b>'1'</b> on the keyboard for true and press <b>'2'</b> for false.</p></div>","","","","","","","","","","","","","","","","","",""
"","audio-keyboard-response","79","544843","0.0-49.0-2.0","9571.300000011921","run_exp/static/audio/clip_17_q1.m4a","49","","","","","","","","","","","","","","","","","","","","","","",""
"","q1_err","80","552521","0.0-50.0-0.0","null","run_exp/static/audio/clip_19_wrong_q1.m4a","null","","","","","<div class='center'><p>That’s incorrect! You win bonus money by collecting as many gold coins as possible!</p></div>","","","","","","","","","","","","","","","","","",""
"","html-keyboard-response","81","554619","0.0-50.0-1.0","2096","<div class='center'><p>That’s incorrect! You win bonus money by collecting as many gold coins as possible!</p><p><b>[Press the space bar to continue]</b></p></div>","32","","","","","","","","","","","","","","","","","","","","","","",""
"","audio-keyboard-response","82","561839","0.0-50.0-2.0","7220.100000023842","run_exp/static/audio/clip_20_q2.m4a","50","","","","","","","","","","","","","","","","","","","","","","",""
"","correct","83","564849","0.0-51.0-0.0","null","run_exp/static/audio/clip_18_correct.m4a","null","","","","","<div class='center'><p>That's correct!</p></div>","","","","","","","","","","","","","","","","","",""
"","html-keyboard-response","84","567511","0.0-51.0-1.0","2661.100000023842","<div class='center'><p>That's correct!</p><p><b>[Press the space bar to continue]</b></p></div>","32","","","","","","","","","","","","","","","","","","","","","","",""
"","audio-keyboard-response","85","575745","0.0-51.0-2.0","8233.5","run_exp/static/audio/clip_22_q3.m4a","50","","","","","","","","","","","","","","","","","","","","","","",""
"","correct","86","578757","0.0-52.0-0.0","null","run_exp/static/audio/clip_18_correct.m4a","null","","","","","<div class='center'><p>That's correct!</p></div>","","","","","","","","","","","","","","","","","",""
"","html-keyboard-response","87","580062","0.0-52.0-1.0","1304.1000000238419","<div class='center'><p>That's correct!</p><p><b>[Press the space bar to continue]</b></p></div>","32","","","","","","","","","","","","","","","","","","","","","","",""
"","audio-keyboard-response","88","586407","0.0-52.0-2.0","6344.300000011921","run_exp/static/audio/clip_24_q4.m4a","49","","","","","","","","","","","","","","","","","","","","","","",""
"","correct","89","589394","0.0-53.0-0.0","null","run_exp/static/audio/clip_18_correct.m4a","null","","","","","<div class='center'><p>That's correct!</p></div>","","","","","","","","","","","","","","","","","",""
"","html-keyboard-response","90","590972","0.0-53.0-1.0","1577.2000000178814","<div class='center'><p>That's correct!</p><p><b>[Press the space bar to continue]</b></p></div>","32","","","","","","","","","","","","","","","","","","","","","","",""
"","q_all_err","91","598562","0.0-54.0-0.0","null","run_exp/static/audio/clip_26_quiz_redo.m4a","null","","","","","<div class='center'><p>Oops, you missed some questions. Now that you’ve heard the correct answers. Try the quiz again! </p></div>","","","","","","","","","","","","","","","","","",""
"","html-keyboard-response","92","600871","0.0-54.0-1.0","2308.300000011921","<div class='center'><p>Oops, you missed some questions. Now that you’ve heard the correct answers. Try the quiz again! </p><p><b>[Press the space bar to continue]</b></p></div>","32","","","","","","","","","","","","","","","","","","","","","","",""
"","audio-keyboard-response","93","605975","0.0-54.0-2.0","5103.699999988079","run_exp/static/audio/clip_17_q1.m4a","50","","","","","","","","","","","","","","","","","","","","","","",""
"","correct","94","608988","0.0-55.0-0.0","null","run_exp/static/audio/clip_18_correct.m4a","null","","","","","<div class='center'><p>That's correct!</p></div>","","","","","","","","","","","","","","","","","",""
"","html-keyboard-response","95","610353","0.0-55.0-1.0","1363.5999999940395","<div class='center'><p>That's correct!</p><p><b>[Press the space bar to continue]</b></p></div>","32","","","","","","","","","","","","","","","","","","","","","","",""
"","audio-keyboard-response","96","618309","0.0-55.0-2.0","7955.299999982119","run_exp/static/audio/clip_20_q2.m4a","50","","","","","","","","","","","","","","","","","","","","","","",""
"","correct","97","621296","0.0-56.0-0.0","null","run_exp/static/audio/clip_18_correct.m4a","null","","","","","<div class='center'><p>That's correct!</p></div>","","","","","","","","","","","","","","","","","",""
"","html-keyboard-response","98","622603","0.0-56.0-1.0","1305.7999999821186","<div class='center'><p>That's correct!</p><p><b>[Press the space bar to continue]</b></p></div>","32","","","","","","","","","","","","","","","","","","","","","","",""
"","audio-keyboard-response","99","631220","0.0-56.0-2.0","8616.59999999404","run_exp/static/audio/clip_22_q3.m4a","50","","","","","","","","","","","","","","","","","","","","","","",""
"","correct","100","634226","0.0-57.0-0.0","null","run_exp/static/audio/clip_18_correct.m4a","null","","","","","<div class='center'><p>That's correct!</p></div>","","","","","","","","","","","","","","","","","",""
"","html-keyboard-response","101","635907","0.0-57.0-1.0","1679.6000000238419","<div class='center'><p>That's correct!</p><p><b>[Press the space bar to continue]</b></p></div>","32","","","","","","","","","","","","","","","","","","","","","","",""
"","audio-keyboard-response","102","641938","0.0-57.0-2.0","6030.799999982119","run_exp/static/audio/clip_24_q4.m4a","49","","","","","","","","","","","","","","","","","","","","","","",""
"","correct","103","645024","0.0-58.0-0.0","null","run_exp/static/audio/clip_18_correct.m4a","null","","","","","<div class='center'><p>That's correct!</p></div>","","","","","","","","","","","","","","","","","",""
"","html-keyboard-response","104","646691","0.0-58.0-1.0","1666.7999999821186","<div class='center'><p>That's correct!</p><p><b>[Press the space bar to continue]</b></p></div>","32","","","","","","","","","","","","","","","","","","","","","","",""
"","q_all_corr","105","653732","0.0-59.0-0.0","null","run_exp/static/audio/clip_27_quiz_all_correct.m4a","null","","","","","<div class='center'><p>Good job! You’re now ready to move on to the real game!</p></div>","","","","","","","","","","","","","","","","","",""
"","html-keyboard-response","106","656521","0.0-59.0-1.0","2787.199999988079","<div class='center'><p>Good job! You’re now ready to move on to the real game!</p><p><b>[Press the space bar to continue]</b></p></div>","32","","","","","","","","","","","","","","","","","","","","","","",""
"","do_welcome","107","658029","0.0-60.0-0.0","null","","","","","","","","null","","","","","","","","","","","","","","","","",""
"","do_trial","108","664793","0.0-61.0-0.0","2202","","","","","","","","49","1,1,0","0","coast","0","probe-121","0.6","0.3","0.1","1","","","","","","","",""
"","html-keyboard-response","109","665799","0.0-61.0-1.0","null","<p></p>","null","","","","","","","","","","","","","","","","","","","","","","",""
"","do_trial","110","671721","0.0-62.0-0.0","1347.199999988079","","","","","","","","51","1,0,0","0","coast","1","probe-62","0.6611548809775631","0.3644113044216716","0.09310121187734823","0","","","","","","","",""
"","html-keyboard-response","111","672729","0.0-62.0-1.0","null","<p></p>","null","","","","","","","","","","","","","","","","","","","","","","",""
"","do_trial","112","677948","0.0-63.0-0.0","563.5999999940395","","","","","","","","50","0,0,0","0","coast","2","probe-128","0.514813961464305","0.28452423964093565","0.05787064387339617","0","","","","","","","",""
"","html-keyboard-response","113","678957","0.0-63.0-1.0","null","<p></p>","null","","","","","","","","","","","","","","","","","","","","","","",""
"","do_trial","114","684191","0.0-64.0-0.0","654.9000000059605","","","","","","","","49","1,0,0","0","coast","3","probe-201","0.39851721604630896","0.158218620934327","0.1075252755629783","1","","","","","","","",""
"","html-keyboard-response","115","685198","0.0-64.0-1.0","null","<p></p>","null","","","","","","","","","","","","","","","","","","","","","","",""
"","do_trial","116","690363","0.0-65.0-0.0","602.0999999940395","","","","","","","","49","1,0,0","0","coast","4","probe-166","0.36933739115645836","0.2714664561119116","0.051648341203488116","1","","","","","","","",""
"","html-keyboard-response","117","691365","0.0-65.0-1.0","null","<p></p>","null","","","","","","","","","","","","","","","","","","","","","","",""
"","do_trial","118","697152","0.0-66.0-0.0","1220.1000000238419","","","","","","","","49","1,0,0","0","coast","5","probe-189","0.3857569392989339","0.287984805304739","0.08088362329372012","1","","","","","","","",""
"","html-keyboard-response","119","698160","0.0-66.0-1.0","null","<p></p>","null","","","","","","","","","","","","","","","","","","","","","","",""
"","do_trial","120","703956","0.0-67.0-0.0","1228.5","","","","","","","","49","1,1,0","0","coast","6","probe-88","0.41281388731653634","0.3100930440235964","0.11161271566196518","1","","","","","","","",""
"","html-keyboard-response","121","704961","0.0-67.0-1.0","null","<p></p>","null","","","","","","","","","","","","","","","","","","","","","","",""
"","do_trial","122","710111","0.0-68.0-0.0","582.2999999821186","","","","","","","","49","1,0,0","0","coast","7","probe-130","0.5246591725775357","0.1906067131188094","0.16594422035080453","1","","","","","","","",""
"","html-keyboard-response","123","711117","0.0-68.0-1.0","null","<p></p>","null","","","","","","","","","","","","","","","","","","","","","","",""
"","do_trial","124","716410","0.0-69.0-0.0","710.6999999880791","","","","","","","","49","0,1,0","0","coast","8","probe-155","0.6700302728333347","0.2526586531428087","0.2224375625511589","0","","","","","","","",""
"","html-keyboard-response","125","717418","0.0-69.0-1.0","null","<p></p>","null","","","","","","","","","","","","","","","","","","","","","","",""
"","do_trial","126","722838","0.0-70.0-0.0","853.4000000059605","","","","","","","","49","1,0,0","0","coast","9","probe-91","0.6393010022948792","0.18953998277754122","0.058005718270397945","1","","","","","","","",""
"","html-keyboard-response","127","723846","0.0-70.0-1.0","null","<p></p>","null","","","","","","","","","","","","","","","","","","","","","","",""
"","do_trial","128","729287","0.0-71.0-0.0","862.3000000119209","","","","","","","","49","1,1,0","0","coast","10","probe-52","0.6266382272228791","0.19990025820814647","0.22771879379109244","1","","","","","","","",""
"","html-keyboard-response","129","730295","0.0-71.0-1.0","null","<p></p>","null","","","","","","","","","","","","","","","","","","","","","","",""
"","do_trial","130","736025","0.0-72.0-0.0","1153.7999999821186","","","","","","","","49","0,1,0","0","coast","11","probe-126","0.6283470532490879","0.21617960569127057","0.16756053432758516","0","","","","","","","",""
"","html-keyboard-response","131","737033","0.0-72.0-1.0","null","<p></p>","null","","","","","","","","","","","","","","","","","","","","","","",""
"","do_trial","132","744382","0.0-73.0-0.0","2781.800000011921","","","","","","","","49","1,0,0","0","coast","12","probe-168","0.5361547449066423","0.41697099031085044","0.16786276733182884","1","","","","","","","",""
"","html-keyboard-response","133","745390","0.0-73.0-1.0","null","<p></p>","null","","","","","","","","","","","","","","","","","","","","","","",""
"","do_trial","134","750620","0.0-74.0-0.0","663.7999999821186","","","","","","","","49","0,1,0","0","coast","13","probe-163","0.5792219797345395","0.3896198133569982","0.05200721673905937","0","","","","","","","",""
"","html-keyboard-response","135","751624","0.0-74.0-1.0","null","<p></p>","null","","","","","","","","","","","","","","","","","","","","","","",""
"","do_trial","136","758207","0.0-75.0-0.0","2000.4000000059605","","","","","","","","49","0,0,0","0","coast","14","probe-158","0.543088979142465","0.3985572543500278","0.07062158974465808","0","","","","","","","",""
"","html-keyboard-response","137","759215","0.0-75.0-1.0","null","<p></p>","null","","","","","","","","","","","","","","","","","","","","","","",""
"","do_trial","138","765106","0.0-76.0-0.0","1309.9000000059605","","","","","","","","51","1,1,1","0","coast","15","probe-22","0.3996737616351987","0.34122254234420274","0.07076031266561833","1","","","","","","","",""
"","html-keyboard-response","139","766112","0.0-76.0-1.0","null","<p></p>","null","","","","","","","","","","","","","","","","","","","","","","",""
"","do_trial","140","771318","0.0-77.0-0.0","641.9000000059605","","","","","","","","49","1,1,0","0","coast","16","probe-185","0.6444785757274818","0.5074672496848828","0.09283222052995119","1","","","","","","","",""
"","html-keyboard-response","141","772323","0.0-77.0-1.0","null","<p></p>","null","","","","","","","","","","","","","","","","","","","","","","",""
"","do_trial","142","777734","0.0-78.0-0.0","849.0999999940395","","","","","","","","49","0,1,0","0","coast","17","probe-03","0.47936244311263293","0.43436592307305044","0.12118263064333022","0","","","","","","","",""
"","html-keyboard-response","143","778742","0.0-78.0-1.0","null","<p></p>","null","","","","","","","","","","","","","","","","","","","","","","",""
"","do_trial","144","783908","0.0-79.0-0.0","606","","","","","","","","51","1,1,0","0","coast","18","probe-55","0.6193427587086617","0.44529930259306855","0.13879413365290247","0","","","","","","","",""
"","html-keyboard-response","145","784912","0.0-79.0-1.0","null","<p></p>","null","","","","","","","","","","","","","","","","","","","","","","",""
"","do_trial","146","790743","0.0-80.0-0.0","1256.2999999821186","","","","","","","","49","0,0,0","0","coast","19","probe-111","0.6520139323385773","0.5235176636533763","0.14690095855346452","0","","","","","","","",""
"","html-keyboard-response","147","791751","0.0-80.0-1.0","null","<p></p>","null","","","","","","","","","","","","","","","","","","","","","","",""
"","do_trial","148","796724","0.0-81.0-0.0","406.5","","","","","","","","50","0,0,0","0","coast","20","probe-100","0.695032681487761","0.4171511574454732","0.15162103550775116","0","","","","","","","",""
"","html-keyboard-response","149","797730","0.0-81.0-1.0","null","<p></p>","null","","","","","","","","","","","","","","","","","","","","","","",""
"","do_trial","150","803395","0.0-82.0-0.0","1098.0999999940395","","","","","","","","51","1,1,0","0","coast","21","probe-94","0.6440279621262411","0.2688733759622302","0.08653453645200386","0","","","","","","","",""
"","html-keyboard-response","151","804401","0.0-82.0-1.0","null","<p></p>","null","","","","","","","","","","","","","","","","","","","","","","",""
"","do_trial","152","809472","0.0-83.0-0.0","506.39999997615814","","","","","","","","49","0,0,0","0","coast","22","probe-81","0.6027934056061608","0.14537240821833491","0.08212759887987155","0","","","","","","","",""
"","html-keyboard-response","153","810474","0.0-83.0-1.0","null","<p></p>","null","","","","","","","","","","","","","","","","","","","","","","",""
"","do_trial","154","816557","0.0-84.0-0.0","null","","","","","","","","null","1,1,0","0","coast","23","probe-194","0.5175302321235831","0.15496292181459112","0.15099925788052265","","","","","","","","",""
"","html-keyboard-response","155","817563","0.0-84.0-1.0","null","<p></p>","null","","","","","","","","","","","","","","","","","","","","","","",""
"","do_trial","156","822971","0.0-85.0-0.0","841.1999999880791","","","","","","","","51","1,0,0","0","coast","24","probe-69","0.5883488942974044","0.12434991403907782","0.11320161688395942","0","","","","","","","",""
"","html-keyboard-response","157","823979","0.0-85.0-1.0","null","<p></p>","null","","","","","","","","","","","","","","","","","","","","","","",""
"","do_trial","158","829112","0.0-86.0-0.0","570.1000000238419","","","","","","","","49","1,1,0","0","coast","25","probe-04","0.4632617363091637","0.3388400749631042","0.20217212433324325","1","","","","","","","",""
"","html-keyboard-response","159","830115","0.0-86.0-1.0","null","<p></p>","null","","","","","","","","","","","","","","","","","","","","","","",""
"","do_trial","160","835128","0.0-87.0-0.0","446.10000002384186","","","","","","","","49","0,1,0","0","coast","26","probe-192","0.38178634802756406","0.4217963910325935","0.14429865228551","0","","","","","","","",""
"","html-keyboard-response","161","836136","0.0-87.0-1.0","null","<p></p>","null","","","","","","","","","","","","","","","","","","","","","","",""
"","do_trial","162","841155","0.0-88.0-0.0","436.89999997615814","","","","","","","","50","1,0,0","0","coast","27","probe-116","0.5221679326976996","0.42176440445211055","0.05517056385116199","0","","","","","","","",""
"","html-keyboard-response","163","842157","0.0-88.0-1.0","null","<p></p>","null","","","","","","","","","","","","","","","","","","","","","","",""
"","do_trial","164","847932","0.0-89.0-0.0","1207.800000011921","","","","","","","","51","0,1,0","0","coast","28","probe-14","0.580584583701189","0.5026846993680125","0.10252092008160418","0","","","","","","","",""
"","html-keyboard-response","165","848935","0.0-89.0-1.0","null","<p></p>","null","","","","","","","","","","","","","","","","","","","","","","",""
"","do_trial","166","853651","0.0-90.0-0.0","155.19999998807907","","","","","","","","49","1,0,0","0","coast","29","probe-138","0.6680651089093453","0.4182342641373235","0.06585161139496754","1","","","","","","","",""
"","html-keyboard-response","167","854654","0.0-90.0-1.0","null","<p></p>","null","","","","","","","","","","","","","","","","","","","","","","",""
"","do_bye","168","856168","0.0-91.0-0.0","null","","","","","","","","null","","","","","","","","","","","","","","","","",""
"","do_travel","169","862176","0.0-92.0-0.0","null","","","","","","","","null","","","","","","","","","","","","","","","","",""
"","do_welcome","170","863690","0.0-92.0-1.0","null","","","","","","","","null","","","","","","","","","","","","","","","","",""
"","do_trial","171","870359","0.0-93.0-0.0","2087.4000000059605","","","","","","","","49","1,0,0","1","city","30","probe-179","1","0.25877557638003956","0.12295728099717641","1","","","","","","","",""
"","html-keyboard-response","172","871367","0.0-93.0-1.0","null","<p></p>","null","","","","","","","","","","","","","","","","","","","","","","",""
"","do_trial","173","876776","0.0-94.0-0.0","848","","","","","","","","49","1,0,1","1","city","31","probe-95","1","0.2941165040940479","0.1419296288990286","1","","","","","","","",""
"","html-keyboard-response","174","877784","0.0-94.0-1.0","null","<p></p>","null","","","","","","","","","","","","","","","","","","","","","","",""
"","do_trial","175","883944","0.0-95.0-0.0","1592.699999988079","","","","","","","","49","1,0,0","1","city","32","probe-59","1","0.26918761652833034","0.31510182006747434","1","","","","","","","",""
"","html-keyboard-response","176","884952","0.0-95.0-1.0","null","<p></p>","null","","","","","","","","","","","","","","","","","","","","","","",""
"","do_trial","177","891020","0.0-96.0-0.0","null","","","","","","","","null","1,1,0","1","city","33","probe-139","0.8368237747271586","0.3015681289272322","0.1594425548790682","","","","","","","","",""
"","html-keyboard-response","178","892029","0.0-96.0-1.0","null","<p></p>","null","","","","","","","","","","","","","","","","","","","","","","",""
"","do_trial","179","897334","0.0-97.0-0.0","737.9000000059605","","","","","","","","49","1,0,0","1","city","34","probe-204","0.794253060921003","0.31166440899993647","0.12445613587978362","1","","","","","","","",""
"","html-keyboard-response","180","898339","0.0-97.0-1.0","null","<p></p>","null","","","","","","","","","","","","","","","","","","","","","","",""
"","do_trial","181","903407","0.0-98.0-0.0","506.30000001192093","","","","","","","","49","1,0,0","1","city","35","probe-205","0.8147433275247324","0.2627666804505326","0.09742275824416849","1","","","","","","","",""
"","html-keyboard-response","182","904415","0.0-98.0-1.0","null","<p></p>","null","","","","","","","","","","","","","","","","","","","","","","",""
"","do_trial","183","909433","0.0-99.0-0.0","439.2999999821186","","","","","","","","49","0,0,0","1","city","36","probe-224","0.6976495447348304","0.3065297601202133","0.10562145003207107","0","","","","","","","",""
"","html-keyboard-response","184","910439","0.0-99.0-1.0","null","<p></p>","null","","","","","","","","","","","","","","","","","","","","","","",""
"","do_trial","185","917492","0.0-100.0-0.0","2493.2000000178814","","","","","","","","49","1,0,0","1","city","37","probe-97","0.8153963147559449","0.25102809851533603","0.12010965173557508","1","","","","","","","",""
"","html-keyboard-response","186","918497","0.0-100.0-1.0","null","<p></p>","null","","","","","","","","","","","","","","","","","","","","","","",""
"","do_trial","187","923737","0.0-101.0-0.0","674.3000000119209","","","","","","","","49","0,1,0","1","city","38","probe-27","0.7626630952362078","0.3254698977577784","0.07268048669615036","0","","","","","","","",""
"","html-keyboard-response","188","924746","0.0-101.0-1.0","null","<p></p>","null","","","","","","","","","","","","","","","","","","","","","","",""
"","do_trial","189","930187","0.0-102.0-0.0","878.6999999880791","","","","","","","","49","1,1,0","1","city","39","probe-206","0.7126540610570835","0.2958055087524725","0.20612657187401326","1","","","","","","","",""
"","html-keyboard-response","190","931195","0.0-102.0-1.0","null","<p></p>","null","","","","","","","","","","","","","","","","","","","","","","",""
"","do_trial","191","936503","0.0-103.0-0.0","741.5","","","","","","","","49","1,0,0","1","city","40","probe-79","0.6617361306963939","0.2853310052602767","0.25748492678718793","1","","","","","","","",""
"","html-keyboard-response","192","937510","0.0-103.0-1.0","null","<p></p>","null","","","","","","","","","","","","","","","","","","","","","","",""
"","do_trial","193","943205","0.0-104.0-0.0","1129.699999988079","","","","","","","","49","0,1,0","1","city","41","probe-212","0.5741065652924833","0.4577617030183923","0.20047139866974317","0","","","","","","","",""
"","html-keyboard-response","194","944213","0.0-104.0-1.0","null","<p></p>","null","","","","","","","","","","","","","","","","","","","","","","",""
"","do_trial","195","950074","0.0-105.0-0.0","1293.4000000059605","","","","","","","","49","0,0,1","1","city","42","probe-135","0.49529373551924194","0.36927018697506553","0.4276636354478229","0","","","","","","","",""
"","html-keyboard-response","196","951080","0.0-105.0-1.0","null","<p></p>","null","","","","","","","","","","","","","","","","","","","","","","",""
"","do_trial","197","956594","0.0-106.0-0.0","944.0999999940395","","","","","","","","49","1,1,1","1","city","43","probe-223","0.37540637745568545","0.25799237934099517","0.44117841545625064","1","","","","","","","",""
"","html-keyboard-response","198","957603","0.0-106.0-1.0","null","<p></p>","null","","","","","","","","","","","","","","","","","","","","","","",""
"","do_trial","199","964110","0.0-107.0-0.0","1947.4000000059605","","","","","","","","49","0,0,1","1","city","44","probe-195","0.2021997306979293","0.14047245192896957","0.566960293701147","0","","","","","","","",""
"","html-keyboard-response","200","965118","0.0-107.0-1.0","null","<p></p>","null","","","","","","","","","","","","","","","","","","","","","","",""
"","do_trial","201","970406","0.0-108.0-0.0","721.5999999940395","","","","","","","","49","0,0,1","1","city","45","probe-225","0.31579019782441475","0.060190451792460346","0.5137839896900119","0","","","","","","","",""
"","html-keyboard-response","202","971412","0.0-108.0-1.0","null","<p></p>","null","","","","","","","","","","","","","","","","","","","","","","",""
"","do_trial","203","977014","0.0-109.0-0.0","1034.7000000178814","","","","","","","","49","0,0,0","1","city","46","probe-171","0.3565664642740893","0.0957515527306479","0.42568997904613354","0","","","","","","","",""
"","html-keyboard-response","204","978023","0.0-109.0-1.0","null","<p></p>","null","","","","","","","","","","","","","","","","","","","","","","",""
"","do_trial","205","983266","0.0-110.0-0.0","677","","","","","","","","49","1,0,1","1","city","47","probe-159","0.43335590799599416","0.14078641857486196","0.5137189785100709","1","","","","","","","",""
"","html-keyboard-response","206","984273","0.0-110.0-1.0","null","<p></p>","null","","","","","","","","","","","","","","","","","","","","","","",""
"","do_trial","207","989307","0.0-111.0-0.0","467.90000000596046","","","","","","","","49","1,0,0","1","city","48","probe-127","0.36646036951806105","0.07002736042109776","0.566519417165848","1","","","","","","","",""
"","html-keyboard-response","208","990316","0.0-111.0-1.0","null","<p></p>","null","","","","","","","","","","","","","","","","","","","","","","",""
"","do_trial","209","995494","0.0-112.0-0.0","610.7999999821186","","","","","","","","49","0,0,1","1","city","49","probe-53","0.31643014016249454","0.06202693709115331","0.5058320196429787","0","","","","","","","",""
"","html-keyboard-response","210","996502","0.0-112.0-1.0","null","<p></p>","null","","","","","","","","","","","","","","","","","","","","","","",""
"","do_trial","211","1001426","0.0-113.0-0.0","356.2000000178814","","","","","","","","49","1,0,1","1","city","50","probe-219","0.4186100135849114","0.06596438591335681","0.5513709316531812","1","","","","","","","",""
"","html-keyboard-response","212","1002432","0.0-113.0-1.0","null","<p></p>","null","","","","","","","","","","","","","","","","","","","","","","",""
"","do_trial","213","1007892","0.0-114.0-0.0","895","","","","","","","","49","1,0,1","1","city","51","probe-134","0.33394500556008133","0.15376090137857557","0.6166606390342109","1","","","","","","","",""
"","html-keyboard-response","214","1008898","0.0-114.0-1.0","null","<p></p>","null","","","","","","","","","","","","","","","","","","","","","","",""
"","do_trial","215","1014006","0.0-115.0-0.0","541.5999999940395","","","","","","","","51","1,0,1","1","city","52","probe-103","0.47173026851676697","0.05457201510790942","0.6567119088365045","1","","","","","","","",""
"","html-keyboard-response","216","1015014","0.0-115.0-1.0","null","<p></p>","null","","","","","","","","","","","","","","","","","","","","","","",""
"","do_trial","217","1020185","0.0-116.0-0.0","610.3000000119209","","","","","","","","50","0,0,1","1","city","53","probe-228","0.32706138242125266","0.13303065842733386","0.7211976715076811","0","","","","","","","",""
"","html-keyboard-response","218","1021193","0.0-116.0-1.0","null","<p></p>","null","","","","","","","","","","","","","","","","","","","","","","",""
"","do_trial","219","1026630","0.0-117.0-0.0","869.7999999821186","","","","","","","","49","1,0,1","1","city","54","probe-198","0.35091920687931244","0.1472159342397694","0.6620563251076186","1","","","","","","","",""
"","html-keyboard-response","220","1027633","0.0-117.0-1.0","null","<p></p>","null","","","","","","","","","","","","","","","","","","","","","","",""
"","do_trial","221","1034663","0.0-118.0-0.0","2468.4000000059605","","","","","","","","51","0,1,0","1","city","55","probe-51","0.3843962123967775","0.1378541728373265","0.5663967032296559","0","","","","","","","",""
"","html-keyboard-response","222","1035668","0.0-118.0-1.0","null","<p></p>","null","","","","","","","","","","","","","","","","","","","","","","",""
"","do_trial","223","1040678","0.0-119.0-0.0","443.69999998807907","","","","","","","","49","1,0,1","1","city","56","probe-119","0.2637832455523321","0.09855810239671396","0.6352986493601577","1","","","","","","","",""
"","html-keyboard-response","224","1041686","0.0-119.0-1.0","null","<p></p>","null","","","","","","","","","","","","","","","","","","","","","","",""
"","do_trial","225","1046945","0.0-120.0-0.0","692.6999999880791","","","","","","","","49","0,1,1","1","city","57","probe-30","0.1578527804621919","0.07033106688492184","0.5927623828127162","0","","","","","","","",""
"","html-keyboard-response","226","1047953","0.0-120.0-1.0","null","<p></p>","null","","","","","","","","","","","","","","","","","","","","","","",""
"","do_trial","227","1053356","0.0-121.0-0.0","822.6999999880791","","","","","","","","49","1,0,0","1","city","58","probe-07","0.1936209115863661","0.059090790988794474","0.4493971749204955","1","","","","","","","",""
"","html-keyboard-response","228","1054364","0.0-121.0-1.0","null","<p></p>","null","","","","","","","","","","","","","","","","","","","","","","",""
"","do_trial","229","1059961","0.0-122.0-0.0","1014.3000000119209","","","","","","","","49","0,0,1","1","city","59","probe-150","0.20627130014372377","0.09009710500104126","0.4471744411752412","0","","","","","","","",""
"","html-keyboard-response","230","1060969","0.0-122.0-1.0","null","<p></p>","null","","","","","","","","","","","","","","","","","","","","","","",""
"","do_trial","231","1065959","0.0-123.0-0.0","428.7999999821186","","","","","","","","49","0,0,0","1","city","60","probe-203","0.1627768788077227","0.0882742663370739","0.5314059892956544","0","","","","","","","",""
"","html-keyboard-response","232","1066965","0.0-123.0-1.0","null","<p></p>","null","","","","","","","","","","","","","","","","","","","","","","",""
"","do_trial","233","1073510","0.0-124.0-0.0","1977.7000000178814","","","","","","","","51","0,0,1","1","city","61","probe-162","0.18975161965133744","0.19229223449254348","0.5927806971978756","1","","","","","","","",""
"","html-keyboard-response","234","1074520","0.0-124.0-1.0","null","<p></p>","null","","","","","","","","","","","","","","","","","","","","","","",""
"","do_trial","235","1079654","0.0-125.0-0.0","551.5999999940395","","","","","","","","51","1,1,1","1","city","62","probe-226","0.3060600859269365","0.1683254957411207","0.6361283329403787","1","","","","","","","",""
"","html-keyboard-response","236","1080662","0.0-125.0-1.0","null","<p></p>","null","","","","","","","","","","","","","","","","","","","","","","",""
"","do_trial","237","1086131","0.0-126.0-0.0","908.2999999821186","","","","","","","","51","0,0,1","1","city","63","probe-161","0.4644098482420711","0.15855376024571016","0.7913683728929541","1","","","","","","","",""
"","html-keyboard-response","238","1087139","0.0-126.0-1.0","null","<p></p>","null","","","","","","","","","","","","","","","","","","","","","","",""
"","do_trial","239","1092220","0.0-127.0-0.0","516.8000000119209","","","","","","","","51","0,0,0","1","city","64","probe-178","0.32612214343035256","0.050552643668405006","0.5554606388832677","0","","","","","","","",""
"","html-keyboard-response","240","1093228","0.0-127.0-1.0","null","<p></p>","null","","","","","","","","","","","","","","","","","","","","","","",""
"","do_trial","241","1098149","0.0-128.0-0.0","354","","","","","","","","49","0,0,1","1","city","65","probe-222","0.38829812099253685","0.06398290011596745","0.6024872803755664","0","","","","","","","",""
"","html-keyboard-response","242","1099153","0.0-128.0-1.0","null","<p></p>","null","","","","","","","","","","","","","","","","","","","","","","",""
"","do_trial","243","1104663","0.0-129.0-0.0","948.4000000059605","","","","","","","","50","1,0,0","1","city","66","probe-169","0.37193318716885465","0.075081743658722","0.5349851554971523","0","","","","","","","",""
"","html-keyboard-response","244","1105671","0.0-129.0-1.0","null","<p></p>","null","","","","","","","","","","","","","","","","","","","","","","",""
"","do_trial","245","1111156","0.0-130.0-0.0","918","","","","","","","","51","0,0,0","1","city","67","probe-78","0.25248101367434567","0.09792632002532724","0.5572932036472658","0","","","","","","","",""
"","html-keyboard-response","246","1112162","0.0-130.0-1.0","null","<p></p>","null","","","","","","","","","","","","","","","","","","","","","","",""
"","do_trial","247","1117692","0.0-131.0-0.0","954.8999999761581","","","","","","","","49","0,1,1","1","city","68","probe-28","0.2587945582336942","0.10674752568229089","0.5702659484719214","0","","","","","","","",""
"","html-keyboard-response","248","1118696","0.0-131.0-1.0","null","<p></p>","null","","","","","","","","","","","","","","","","","","","","","","",""
"","do_trial","249","1123887","0.0-132.0-0.0","612.2999999821186","","","","","","","","50","0,0,0","1","city","69","probe-20","0.3195212441305909","0.12556597719601162","0.5650289610146711","0","","","","","","","",""
"","html-keyboard-response","250","1124893","0.0-132.0-1.0","null","<p></p>","null","","","","","","","","","","","","","","","","","","","","","","",""
"","do_bye","251","1126403","0.0-133.0-0.0","null","","","","","","","","null","","","","","","","","","","","","","","","","",""
"","do_travel","252","1132411","0.0-134.0-0.0","null","","","","","","","","null","","","","","","","","","","","","","","","","",""
"","do_welcome","253","1133926","0.0-134.0-1.0","null","","","","","","","","null","","","","","","","","","","","","","","","","",""
"","do_trial","254","1140054","0.0-135.0-0.0","1543.0999999940395","","","","","","","","49","0,0,1","2","highway","70","probe-54","0.2755446540538546","0.06706586186578632","1","0","","","","","","","",""
"","html-keyboard-response","255","1141060","0.0-135.0-1.0","null","<p></p>","null","","","","","","","","","","","","","","","","","","","","","","",""
"","do_trial","256","1146119","0.0-136.0-0.0","476.60000002384186","","","","","","","","51","0,0,1","2","highway","71","probe-75","0.3117928429467662","0.09059793042393974","1","1","","","","","","","",""
"","html-keyboard-response","257","1147125","0.0-136.0-1.0","null","<p></p>","null","","","","","","","","","","","","","","","","","","","","","","",""
"","do_trial","258","1152126","0.0-137.0-0.0","437.40000000596046","","","","","","","","50","1,0,1","2","highway","72","probe-147","0.2782860148877658","0.07184914127732721","0.7397869864598302","0","","","","","","","",""
"","html-keyboard-response","259","1153132","0.0-137.0-1.0","null","<p></p>","null","","","","","","","","","","","","","","","","","","","","","","",""
"","do_trial","260","1158613","0.0-138.0-0.0","899.6000000238419","","","","","","","","51","0,1,1","2","highway","73","probe-207","0.3467707503674962","0.06918458435221406","0.6956241149299599","1","","","","","","","",""
"","html-keyboard-response","261","1159620","0.0-138.0-1.0","null","<p></p>","null","","","","","","","","","","","","","","","","","","","","","","",""
"","do_trial","262","1165310","0.0-139.0-0.0","1112.199999988079","","","","","","","","49","0,1,0","2","highway","74","probe-153","0.31716851211045083","0.14675255981910101","0.7329714527365967","0","","","","","","","",""
"","html-keyboard-response","263","1166318","0.0-139.0-1.0","null","<p></p>","null","","","","","","","","","","","","","","","","","","","","","","",""
"","do_trial","264","1171278","0.0-140.0-0.0","378.39999997615814","","","","","","","","51","0,1,1","2","highway","75","probe-180","0.23231468843297692","0.08847154936723176","0.6295110291466273","1","","","","","","","",""
"","html-keyboard-response","265","1172286","0.0-140.0-1.0","null","<p></p>","null","","","","","","","","","","","","","","","","","","","","","","",""
"","do_trial","266","1177588","0.0-141.0-0.0","735.5","","","","","","","","51","0,0,1","2","highway","76","probe-06","0.26662610407516546","0.11574461777645308","0.6334309315300584","1","","","","","","","",""
"","html-keyboard-response","267","1178596","0.0-141.0-1.0","null","<p></p>","null","","","","","","","","","","","","","","","","","","","","","","",""
"","do_trial","268","1183871","0.0-142.0-0.0","693.1000000238419","","","","","","","","51","0,0,0","2","highway","77","probe-63","0.30908982379496747","0.2556318284610573","0.605329606799168","0","","","","","","","",""
"","html-keyboard-response","269","1184879","0.0-142.0-1.0","null","<p></p>","null","","","","","","","","","","","","","","","","","","","","","","",""
"","do_trial","270","1189902","0.0-143.0-0.0","462.39999997615814","","","","","","","","49","0,0,0","2","highway","78","probe-60","0.23531265593570375","0.09016996050650239","0.5392341823092123","0","","","","","","","",""
"","html-keyboard-response","271","1190908","0.0-143.0-1.0","null","<p></p>","null","","","","","","","","","","","","","","","","","","","","","","",""
"","do_trial","272","1196359","0.0-144.0-0.0","883.0999999940395","","","","","","","","51","0,0,1","2","highway","79","probe-131","0.35105437530723776","0.15525268428826525","0.465272447067763","1","","","","","","","",""
"","html-keyboard-response","273","1197367","0.0-144.0-1.0","null","<p></p>","null","","","","","","","","","","","","","","","","","","","","","","",""
"","do_trial","274","1202512","0.0-145.0-0.0","577.7999999821186","","","","","","","","51","0,0,0","2","highway","80","probe-177","0.3149023562130147","0.13431291640080442","0.3862470759589573","0","","","","","","","",""
"","html-keyboard-response","275","1203518","0.0-145.0-1.0","null","<p></p>","null","","","","","","","","","","","","","","","","","","","","","","",""
"","do_trial","276","1208494","0.0-146.0-0.0","395","","","","","","","","50","0,1,0","2","highway","81","probe-108","0.3514112337928716","0.26442011632431384","0.29659982298989085","1","","","","","","","",""
"","html-keyboard-response","277","1209502","0.0-146.0-1.0","null","<p></p>","null","","","","","","","","","","","","","","","","","","","","","","",""
"","do_trial","278","1214569","0.0-147.0-0.0","500.69999998807907","","","","","","","","50","0,0,0","2","highway","82","probe-37","0.43672505106632153","0.07988718175564337","0.27884129478697833","0","","","","","","","",""
"","html-keyboard-response","279","1215577","0.0-147.0-1.0","null","<p></p>","null","","","","","","","","","","","","","","","","","","","","","","",""
"","do_trial","280","1220835","0.0-148.0-0.0","691.3000000119209","","","","","","","","49","1,0,1","2","highway","83","probe-230","0.45416602779930104","0.12446925596923229","0.3292426579954854","1","","","","","","","",""
"","html-keyboard-response","281","1221841","0.0-148.0-1.0","null","<p></p>","null","","","","","","","","","","","","","","","","","","","","","","",""
"","do_trial","282","1227752","0.0-149.0-0.0","1344.2999999821186","","","","","","","","49","0,0,0","2","highway","84","probe-115","0.5357980411629041","0.1697864753908474","0.35262241573398684","0","","","","","","","",""
"","html-keyboard-response","283","1228760","0.0-149.0-1.0","null","<p></p>","null","","","","","","","","","","","","","","","","","","","","","","",""
"","do_trial","284","1233862","0.0-150.0-0.0","519.0999999940395","","","","","","","","51","1,0,0","2","highway","85","probe-124","0.4901789675501171","0.11183499019841325","0.42841730275980405","0","","","","","","","",""
"","html-keyboard-response","285","1234869","0.0-150.0-1.0","null","<p></p>","null","","","","","","","","","","","","","","","","","","","","","","",""
"","do_trial","286","1240558","0.0-151.0-0.0","1112","","","","","","","","51","0,0,0","2","highway","86","probe-190","0.5724668950763264","0.09842999547892546","0.42595235220002386","0","","","","","","","",""
"","html-keyboard-response","287","1241564","0.0-151.0-1.0","null","<p></p>","null","","","","","","","","","","","","","","","","","","","","","","",""
"","do_trial","288","1246707","0.0-152.0-0.0","575.9000000059605","","","","","","","","49","0,1,0","2","highway","87","probe-218","0.47986229301342237","0.21801663061236337","0.48338763600380563","0","","","","","","","",""
"","html-keyboard-response","289","1247715","0.0-152.0-1.0","null","<p></p>","null","","","","","","","","","","","","","","","","","","","","","","",""
"","do_trial","290","1252714","0.0-153.0-0.0","434.10000002384186","","","","","","","","50","1,0,1","2","highway","88","probe-107","0.5012349502153792","0.17402243721247407","0.37017893704502086","0","","","","","","","",""
"","html-keyboard-response","291","1253722","0.0-153.0-1.0","null","<p></p>","null","","","","","","","","","","","","","","","","","","","","","","",""
"","do_trial","292","1258728","0.0-154.0-0.0","440.5","","","","","","","","51","0,0,1","2","highway","89","probe-15","0.33944044414807567","0.12420887752222998","0.3738963101013967","1","","","","","","","",""
"","html-keyboard-response","293","1259737","0.0-154.0-1.0","null","<p></p>","null","","","","","","","","","","","","","","","","","","","","","","",""
"","do_trial","294","1265702","0.0-155.0-0.0","1398.199999988079","","","","","","","","51","1,0,0","2","highway","90","probe-50","0.4212934326520307","0.11151196933567013","0.2559571410021285","0","","","","","","","",""
"","html-keyboard-response","295","1266710","0.0-155.0-1.0","null","<p></p>","null","","","","","","","","","","","","","","","","","","","","","","",""
"","do_trial","296","1271895","0.0-156.0-0.0","602.7999999821186","","","","","","","","51","1,0,1","2","highway","91","probe-181","0.6331111775403223","0.05816976448661114","0.3799585673132343","1","","","","","","","",""
"","html-keyboard-response","297","1272898","0.0-156.0-1.0","null","<p></p>","null","","","","","","","","","","","","","","","","","","","","","","",""
"","do_trial","298","1278247","0.0-157.0-0.0","774.0999999940395","","","","","","","","51","1,0,0","2","highway","92","probe-143","0.6878914502369573","0.11051121305324312","0.34402182712046453","0","","","","","","","",""
"","html-keyboard-response","299","1279256","0.0-157.0-1.0","null","<p></p>","null","","","","","","","","","","","","","","","","","","","","","","",""
"","do_trial","300","1284432","0.0-158.0-0.0","609.9000000059605","","","","","","","","51","1,0,0","2","highway","93","probe-16","0.8912498413173584","0.070661666737224","0.39979833573702805","0","","","","","","","",""
"","html-keyboard-response","301","1285434","0.0-158.0-1.0","null","<p></p>","null","","","","","","","","","","","","","","","","","","","","","","",""
"","do_trial","302","1290418","0.0-159.0-0.0","402","","","","","","","","51","1,0,0","2","highway","94","probe-142","0.7851178130720651","0.1411231145383167","0.4542320416322667","0","","","","","","","",""
"","html-keyboard-response","303","1291422","0.0-159.0-1.0","null","<p></p>","null","","","","","","","","","","","","","","","","","","","","","","",""
"","do_trial","304","1296636","0.0-160.0-0.0","650.1999999880791","","","","","","","","51","1,0,1","2","highway","95","probe-175","0.7227819200935339","0.16490612211098848","0.4500498953486041","1","","","","","","","",""
"","html-keyboard-response","305","1297644","0.0-160.0-1.0","null","<p></p>","null","","","","","","","","","","","","","","","","","","","","","","",""
"","do_trial","306","1302792","0.0-161.0-0.0","581.2999999821186","","","","","","","","51","1,0,1","2","highway","96","probe-160","0.5325410195676895","0.0633060472547457","0.40027820502126693","1","","","","","","","",""
"","html-keyboard-response","307","1303798","0.0-161.0-1.0","null","<p></p>","null","","","","","","","","","","","","","","","","","","","","","","",""
"","do_trial","308","1308848","0.0-162.0-0.0","483.40000000596046","","","","","","","","51","1,0,1","2","highway","97","probe-11","0.5185574008347661","0.14026549176415326","0.3931692293916768","1","","","","","","","",""
"","html-keyboard-response","309","1309857","0.0-162.0-1.0","null","<p></p>","null","","","","","","","","","","","","","","","","","","","","","","",""
"","do_trial","310","1315428","0.0-163.0-0.0","1005.1999999880791","","","","","","","","51","0,0,0","2","highway","98","probe-66","0.37381734638712927","0.07162170944243576","0.4279250835599862","0","","","","","","","",""
"","html-keyboard-response","311","1316433","0.0-163.0-1.0","null","<p></p>","null","","","","","","","","","","","","","","","","","","","","","","",""
"","do_trial","312","1321924","0.0-164.0-0.0","926.7000000178814","","","","","","","","51","1,0,0","2","highway","99","probe-31","0.5749810198352702","0.05629274958666118","0.49489425577555196","0","","","","","","","",""
"","html-keyboard-response","313","1322932","0.0-164.0-1.0","null","<p></p>","null","","","","","","","","","","","","","","","","","","","","","","",""
"","do_trial","314","1328603","0.0-165.0-0.0","1094.0999999940395","","","","","","","","49","1,0,0","2","highway","100","probe-174","0.6870564601641295","0.19889686961200262","0.3827204547379048","1","","","","","","","",""
"","html-keyboard-response","315","1329611","0.0-165.0-1.0","null","<p></p>","null","","","","","","","","","","","","","","","","","","","","","","",""
"","do_trial","316","1334754","0.0-166.0-0.0","576.6999999880791","","","","","","","","49","1,0,1","2","highway","101","probe-65","0.5794788470220328","0.19856617561871764","0.4258830285865662","1","","","","","","","",""
"","html-keyboard-response","317","1335762","0.0-166.0-1.0","null","<p></p>","null","","","","","","","","","","","","","","","","","","","","","","",""
"","do_trial","318","1341647","0.0-167.0-0.0","1322.5","","","","","","","","50","1,1,0","2","highway","102","probe-148","0.7711367207821357","0.17955217301414844","0.48987457288225744","1","","","","","","","",""
"","html-keyboard-response","319","1342653","0.0-167.0-1.0","null","<p></p>","null","","","","","","","","","","","","","","","","","","","","","","",""
"","do_trial","320","1347772","0.0-168.0-0.0","557.5","","","","","","","","49","1,1,1","2","highway","103","probe-125","0.7184837536629773","0.20774597688939353","0.41502548876277956","1","","","","","","","",""
"","html-keyboard-response","321","1348774","0.0-168.0-1.0","null","<p></p>","null","","","","","","","","","","","","","","","","","","","","","","",""
"","do_trial","322","1356829","0.0-169.0-0.0","null","","","","","","","","null","1,0,0","2","highway","104","probe-200","0.6248166350141372","0.20902429412989448","0.3251374063066467","","","","","","","","",""
"","html-keyboard-response","323","1357834","0.0-169.0-1.0","null","<p></p>","null","","","","","","","","","","","","","","","","","","","","","","",""
"","do_trial","324","1363874","0.0-170.0-0.0","null","","","","","","","","null","1,0,0","2","highway","105","probe-92","0.6252723209311356","0.10903120549567391","0.4484391838671721","","","","","","","","",""
"","html-keyboard-response","325","1364876","0.0-170.0-1.0","null","<p></p>","null","","","","","","","","","","","","","","","","","","","","","","",""
"","do_trial","326","1370912","0.0-171.0-0.0","null","","","","","","","","null","1,0,1","2","highway","106","probe-112","0.6760027546094802","0.08670958355935321","0.4212585014759641","","","","","","","","",""
"","html-keyboard-response","327","1371915","0.0-171.0-1.0","null","<p></p>","null","","","","","","","","","","","","","","","","","","","","","","",""
"","do_trial","328","1377275","0.0-172.0-0.0","828.5","","","","","","","","49","1,0,1","2","highway","107","probe-165","0.737768803946233","0.13104571322450598","0.40303830582883043","1","","","","","","","",""
"","html-keyboard-response","329","1378276","0.0-172.0-1.0","null","<p></p>","null","","","","","","","","","","","","","","","","","","","","","","",""
"","do_trial","330","1383277","0.0-173.0-0.0","467.40000000596046","","","","","","","","51","1,0,1","2","highway","108","probe-47","0.5888395963710608","0.12202284287148978","0.31171126255344006","1","","","","","","","",""
"","html-keyboard-response","331","1384279","0.0-173.0-1.0","null","<p></p>","null","","","","","","","","","","","","","","","","","","","","","","",""
"","do_trial","332","1389854","0.0-174.0-0.0","1044.5","","","","","","","","49","0,1,1","2","highway","109","probe-23","0.6157694386107232","0.13731312770199605","0.2788893744299288","0","","","","","","","",""
"","html-keyboard-response","333","1390857","0.0-174.0-1.0","null","<p></p>","null","","","","","","","","","","","","","","","","","","","","","","",""
"","do_bye","334","1392359","0.0-175.0-0.0","null","","","","","","","","null","","","","","","","","","","","","","","","","",""
"","do_travel","335","1398364","0.0-176.0-0.0","null","","","","","","","","null","","","","","","","","","","","","","","","","",""
"","do_welcome","336","1399866","0.0-176.0-1.0","null","","","","","","","","null","","","","","","","","","","","","","","","","",""
"","do_trial","337","1406895","0.0-177.0-0.0","2497","","","","","","","","50","1,0,0","3","forest","110","probe-33","1","0.0914580629094227","0.33282652467545004","0","","","","","","","",""
"","html-keyboard-response","338","1407897","0.0-177.0-1.0","null","<p></p>","null","","","","","","","","","","","","","","","","","","","","","","",""
"","do_trial","339","1413088","0.0-178.0-0.0","657.3999999761581","","","","","","","","51","1,0,0","3","forest","111","probe-149","1","0.09269941968700282","0.3127757191324565","0","","","","","","","",""
"","html-keyboard-response","340","1414091","0.0-178.0-1.0","null","<p></p>","null","","","","","","","","","","","","","","","","","","","","","","",""
"","do_trial","341","1419106","0.0-179.0-0.0","484.5","","","","","","","","49","1,0,0","3","forest","112","probe-42","0.7487155667083005","0.19498267505662326","0.2342601955445174","1","","","","","","","",""
"","html-keyboard-response","342","1420109","0.0-179.0-1.0","null","<p></p>","null","","","","","","","","","","","","","","","","","","","","","","",""
"","do_trial","343","1425375","0.0-180.0-0.0","732.6999999880791","","","","","","","","49","1,0,0","3","forest","113","probe-196","0.6248616417056816","0.1404521725559696","0.312162894889866","1","","","","","","","",""
"","html-keyboard-response","344","1426377","0.0-180.0-1.0","null","<p></p>","null","","","","","","","","","","","","","","","","","","","","","","",""
"","do_trial","345","1432220","0.0-181.0-0.0","1307.9000000059605","","","","","","","","49","1,0,1","3","forest","114","probe-191","0.5195243604440892","0.15034902020161103","0.2418928316784614","1","","","","","","","",""
"","html-keyboard-response","346","1433223","0.0-181.0-1.0","null","<p></p>","null","","","","","","","","","","","","","","","","","","","","","","",""
"","do_trial","347","1438694","0.0-182.0-0.0","940.4000000059605","","","","","","","","51","0,1,1","3","forest","115","probe-120","0.5154112464323621","0.09562145770619467","0.35949499242364497","1","","","","","","","",""
"","html-keyboard-response","348","1439695","0.0-182.0-1.0","null","<p></p>","null","","","","","","","","","","","","","","","","","","","","","","",""
"","do_trial","349","1445003","0.0-183.0-0.0","777.5","","","","","","","","49","1,1,0","3","forest","116","probe-40","0.4607299936893392","0.11638004315659792","0.16455484609485385","1","","","","","","","",""
"","html-keyboard-response","350","1446004","0.0-183.0-1.0","null","<p></p>","null","","","","","","","","","","","","","","","","","","","","","","",""
"","do_trial","351","1451227","0.0-184.0-0.0","687.3000000119209","","","","","","","","49","0,0,0","3","forest","117","probe-90","0.5010197986345072","0.18518865196327697","0.1824792214440753","0","","","","","","","",""
"","html-keyboard-response","352","1452229","0.0-184.0-1.0","null","<p></p>","null","","","","","","","","","","","","","","","","","","","","","","",""
"","do_trial","353","1457340","0.0-185.0-0.0","579.1999999880791","","","","","","","","51","1,0,1","3","forest","118","probe-182","0.3785401215599551","0.05668977043080405","0.258437783527398","1","","","","","","","",""
"","html-keyboard-response","354","1458342","0.0-185.0-1.0","null","<p></p>","null","","","","","","","","","","","","","","","","","","","","","","",""
"","do_trial","355","1463410","0.0-186.0-0.0","531.5999999940395","","","","","","","","50","0,0,1","3","forest","119","probe-89","0.610540699265401","0.07697585753785285","0.38830574214997227","0","","","","","","","",""
"","html-keyboard-response","356","1464412","0.0-186.0-1.0","null","<p></p>","null","","","","","","","","","","","","","","","","","","","","","","",""
"","do_trial","357","1469425","0.0-187.0-0.0","481.09999999403954","","","","","","","","49","1,0,0","3","forest","120","probe-80","0.6675556336214628","0.07935337297830945","0.33500329817600133","1","","","","","","","",""
"","html-keyboard-response","358","1470428","0.0-187.0-1.0","null","<p></p>","null","","","","","","","","","","","","","","","","","","","","","","",""
"","do_trial","359","1475456","0.0-188.0-0.0","496.80000001192093","","","","","","","","51","1,0,1","3","forest","121","probe-197","0.6648115288536206","0.13332352447126988","0.45392650617155317","1","","","","","","","",""
"","html-keyboard-response","360","1476458","0.0-188.0-1.0","null","<p></p>","null","","","","","","","","","","","","","","","","","","","","","","",""
"","do_trial","361","1482490","0.0-189.0-0.0","1500.4000000059605","","","","","","","","51","1,0,1","3","forest","122","probe-217","0.4731128127688987","0.3142146063302115","0.26840736630840495","1","","","","","","","",""
"","html-keyboard-response","362","1483495","0.0-189.0-1.0","null","<p></p>","null","","","","","","","","","","","","","","","","","","","","","","",""
"","do_trial","363","1488541","0.0-190.0-0.0","514.6999999880791","","","","","","","","49","0,0,1","3","forest","123","probe-208","0.24294558428996382","0.46603659853455015","0.1724745997127727","0","","","","","","","",""
"","html-keyboard-response","364","1489544","0.0-190.0-1.0","null","<p></p>","null","","","","","","","","","","","","","","","","","","","","","","",""
"","do_trial","365","1494614","0.0-191.0-0.0","539.1999999880791","","","","","","","","51","0,0,0","3","forest","124","probe-188","0.2482286728563496","0.39593110298876","0.16233213085419135","0","","","","","","","",""
"","html-keyboard-response","366","1495617","0.0-191.0-1.0","null","<p></p>","null","","","","","","","","","","","","","","","","","","","","","","",""
"","do_trial","367","1500517","0.0-192.0-0.0","368.19999998807907","","","","","","","","49","0,1,1","3","forest","125","probe-01","0.30560528615743765","0.41038961697330256","0.11090660923227934","0","","","","","","","",""
"","html-keyboard-response","368","1501519","0.0-192.0-1.0","null","<p></p>","null","","","","","","","","","","","","","","","","","","","","","","",""
"","do_trial","369","1506802","0.0-193.0-0.0","750.0999999940395","","","","","","","","51","0,0,0","3","forest","126","probe-85","0.3948425688160033","0.5094796859827644","0.09828422734580235","0","","","","","","","",""
"","html-keyboard-response","370","1507805","0.0-193.0-1.0","null","<p></p>","null","","","","","","","","","","","","","","","","","","","","","","",""
"","do_trial","371","1513181","0.0-194.0-0.0","842.5999999940395","","","","","","","","49","0,1,1","3","forest","127","probe-106","0.28153721162422224","0.5643224587202853","0.22612031836466615","0","","","","","","","",""
"","html-keyboard-response","372","1514183","0.0-194.0-1.0","null","<p></p>","null","","","","","","","","","","","","","","","","","","","","","","",""
"","do_trial","373","1519052","0.0-195.0-0.0","337","","","","","","","","50","1,1,0","3","forest","128","probe-114","0.3070995108648255","0.6130491036410853","0.14173411523682058","1","","","","","","","",""
"","html-keyboard-response","374","1520054","0.0-195.0-1.0","null","<p></p>","null","","","","","","","","","","","","","","","","","","","","","","",""
"","do_trial","375","1524975","0.0-196.0-0.0","389.60000002384186","","","","","","","","50","0,1,0","3","forest","129","probe-101","0.32552874778778085","0.6124606867782039","0.08381472871991774","1","","","","","","","",""
"","html-keyboard-response","376","1525977","0.0-196.0-1.0","null","<p></p>","null","","","","","","","","","","","","","","","","","","","","","","",""
"","do_trial","377","1531544","0.0-197.0-0.0","1036.199999988079","","","","","","","","50","1,0,0","3","forest","130","probe-36","0.35043704873034975","0.6172105379465878","0.15905092661195677","0","","","","","","","",""
"","html-keyboard-response","378","1532547","0.0-197.0-1.0","null","<p></p>","null","","","","","","","","","","","","","","","","","","","","","","",""
"","do_trial","379","1537643","0.0-198.0-0.0","556.5999999940395","","","","","","","","51","0,1,1","3","forest","131","probe-34","0.2702908986162189","0.548570862831621","0.29226916366290584","1","","","","","","","",""
"","html-keyboard-response","380","1538651","0.0-198.0-1.0","null","<p></p>","null","","","","","","","","","","","","","","","","","","","","","","",""
"","do_trial","381","1544510","0.0-199.0-0.0","1277.1000000238419","","","","","","","","49","0,0,0","3","forest","132","probe-136","0.1410648075767966","0.5639707158109011","0.12729200146397018","0","","","","","","","",""
"","html-keyboard-response","382","1545512","0.0-199.0-1.0","null","<p></p>","null","","","","","","","","","","","","","","","","","","","","","","",""
"","do_trial","383","1550191","0.0-200.0-0.0","111.69999998807907","","","","","","","","50","0,0,0","3","forest","133","probe-133","0.3095123951512319","0.5469282690238079","0.11942674319550464","0","","","","","","","",""
"","html-keyboard-response","384","1551199","0.0-200.0-1.0","null","<p></p>","null","","","","","","","","","","","","","","","","","","","","","","",""
"","do_trial","385","1556435","0.0-201.0-0.0","656.5999999940395","","","","","","","","51","0,1,0","3","forest","134","probe-157","0.2480887717599464","0.612748409824844","0.07162136037168113","0","","","","","","","",""
"","html-keyboard-response","386","1557443","0.0-201.0-1.0","null","<p></p>","null","","","","","","","","","","","","","","","","","","","","","","",""
"","do_trial","387","1562859","0.0-202.0-0.0","849","","","","","","","","50","0,0,1","3","forest","135","probe-44","0.21816715937634987","0.5650439333144359","0.13607547836971867","0","","","","","","","",""
"","html-keyboard-response","388","1563865","0.0-202.0-1.0","null","<p></p>","null","","","","","","","","","","","","","","","","","","","","","","",""
"","do_trial","389","1568853","0.0-203.0-0.0","422","","","","","","","","49","1,1,0","3","forest","136","probe-18","0.3455062162484201","0.5034872665520302","0.0997938166001241","1","","","","","","","",""
"","html-keyboard-response","390","1569861","0.0-203.0-1.0","null","<p></p>","null","","","","","","","","","","","","","","","","","","","","","","",""
"","do_trial","391","1575354","0.0-204.0-0.0","919.3000000119209","","","","","","","","49","0,1,0","3","forest","137","probe-29","0.3912671623717588","0.5147592126808472","0.09099829252797444","0","","","","","","","",""
"","html-keyboard-response","392","1576358","0.0-204.0-1.0","null","<p></p>","null","","","","","","","","","","","","","","","","","","","","","","",""
"","do_trial","393","1581762","0.0-205.0-0.0","837.8000000119209","","","","","","","","51","0,0,0","3","forest","138","probe-25","0.3098110474318933","0.5338815469481968","0.13679358311466752","0","","","","","","","",""
"","html-keyboard-response","394","1582770","0.0-205.0-1.0","null","<p></p>","null","","","","","","","","","","","","","","","","","","","","","","",""
"","do_trial","395","1587487","0.0-206.0-0.0","151.7000000178814","","","","","","","","50","1,1,0","3","forest","139","probe-123","0.25911565814277","0.505850419490822","0.07839026998056974","1","","","","","","","",""
"","html-keyboard-response","396","1588495","0.0-206.0-1.0","null","<p></p>","null","","","","","","","","","","","","","","","","","","","","","","",""
"","do_trial","397","1593584","0.0-207.0-0.0","522.0999999940395","","","","","","","","50","1,0,0","3","forest","140","probe-213","0.3894636151989287","0.5650846760395694","0.1663155118964615","0","","","","","","","",""
"","html-keyboard-response","398","1594590","0.0-207.0-1.0","null","<p></p>","null","","","","","","","","","","","","","","","","","","","","","","",""
"","do_trial","399","1601091","0.0-208.0-0.0","1939.0999999940395","","","","","","","","51","1,0,1","3","forest","141","probe-170","0.39174012433809136","0.5884311467068483","0.26941622442422214","1","","","","","","","",""
"","html-keyboard-response","400","1602096","0.0-208.0-1.0","null","<p></p>","null","","","","","","","","","","","","","","","","","","","","","","",""
"","do_trial","401","1607131","0.0-209.0-0.0","486.09999999403954","","","","","","","","49","0,0,0","3","forest","142","probe-13","0.3554608217080572","0.5118848925679117","0.23869362229044058","0","","","","","","","",""
"","html-keyboard-response","402","1608137","0.0-209.0-1.0","null","<p></p>","null","","","","","","","","","","","","","","","","","","","","","","",""
"","do_trial","403","1613195","0.0-210.0-0.0","477.40000000596046","","","","","","","","51","0,0,0","3","forest","143","probe-102","0.38667037863356096","0.58327471253359","0.23144965857341387","0","","","","","","","",""
"","html-keyboard-response","404","1614203","0.0-210.0-1.0","null","<p></p>","null","","","","","","","","","","","","","","","","","","","","","","",""
"","do_trial","405","1619470","0.0-211.0-0.0","687.0999999940395","","","","","","","","50","1,0,0","3","forest","144","probe-156","0.4170571098073149","0.535852358731908","0.24059913274673367","0","","","","","","","",""
"","html-keyboard-response","406","1620479","0.0-211.0-1.0","null","<p></p>","null","","","","","","","","","","","","","","","","","","","","","","",""
"","do_trial","407","1625547","0.0-212.0-0.0","502.39999997615814","","","","","","","","49","0,1,1","3","forest","145","probe-137","0.5089071293767892","0.562429868055518","0.16466921016859284","0","","","","","","","",""
"","html-keyboard-response","408","1626553","0.0-212.0-1.0","null","<p></p>","null","","","","","","","","","","","","","","","","","","","","","","",""
"","do_trial","409","1631915","0.0-213.0-0.0","793.7999999821186","","","","","","","","51","0,0,0","3","forest","146","probe-211","0.46822515176785295","0.6233900968417464","0.06614474509268871","0","","","","","","","",""
"","html-keyboard-response","410","1632924","0.0-213.0-1.0","null","<p></p>","null","","","","","","","","","","","","","","","","","","","","","","",""
"","do_trial","411","1638830","0.0-214.0-0.0","1340.8999999761581","","","","","","","","50","1,0,0","3","forest","147","probe-83","0.5239154221977931","0.5997911641743519","0.1184554329938674","0","","","","","","","",""
"","html-keyboard-response","412","1639836","0.0-214.0-1.0","null","<p></p>","null","","","","","","","","","","","","","","","","","","","","","","",""
"","do_trial","413","1646355","0.0-215.0-0.0","1943","","","","","","","","51","1,0,0","3","forest","148","probe-76","0.40338830247034274","0.5942570626330594","0.10614501803906516","0","","","","","","","",""
"","html-keyboard-response","414","1647361","0.0-215.0-1.0","null","<p></p>","null","","","","","","","","","","","","","","","","","","","","","","",""
"","do_trial","415","1652901","0.0-216.0-0.0","972.9000000059605","","","","","","","","49","0,0,0","3","forest","149","probe-98","0.2855709547429984","0.6691445254816242","0.07413585672201094","0","","","","","","","",""
"","html-keyboard-response","416","1653909","0.0-216.0-1.0","null","<p></p>","null","","","","","","","","","","","","","","","","","","","","","","",""
"","do_bye","417","1655418","0.0-217.0-0.0","null","","","","","","","","null","","","","","","","","","","","","","","","","",""
"","do_travel","418","1661428","0.0-218.0-0.0","null","","","","","","","","null","","","","","","","","","","","","","","","","",""
"","do_welcome","419","1662938","0.0-218.0-1.0","null","","","","","","","","null","","","","","","","","","","","","","","","","",""
"","do_trial","420","1669901","0.0-219.0-0.0","2399","","","","","","","","49","1,1,0","4","countryside","150","probe-02","0.18821497981970928","1","0.21819731655371283","1","","","","","","","",""
"","html-keyboard-response","421","1670909","0.0-219.0-1.0","null","<p></p>","null","","","","","","","","","","","","","","","","","","","","","","",""
"","do_trial","422","1676146","0.0-220.0-0.0","663","","","","","","","","50","0,1,0","4","countryside","151","probe-172","0.283160288953018","1","0.16998675485920298","1","","","","","","","",""
"","html-keyboard-response","423","1677154","0.0-220.0-1.0","null","<p></p>","null","","","","","","","","","","","","","","","","","","","","","","",""
"","do_trial","424","1682180","0.0-221.0-0.0","459.80000001192093","","","","","","","","51","0,1,0","4","countryside","152","probe-64","0.2475564720232824","0.9238366866269674","0.07005311543302552","0","","","","","","","",""
"","html-keyboard-response","425","1683189","0.0-221.0-1.0","null","<p></p>","null","","","","","","","","","","","","","","","","","","","","","","",""
"","do_trial","426","1688984","0.0-222.0-0.0","1228","","","","","","","","49","1,1,0","4","countryside","153","probe-12","0.4003412455155808","0.7600484552280412","0.09466138915673554","1","","","","","","","",""
"","html-keyboard-response","427","1689992","0.0-222.0-1.0","null","<p></p>","null","","","","","","","","","","","","","","","","","","","","","","",""
"","do_trial","428","1695197","0.0-223.0-0.0","638.6999999880791","","","","","","","","50","0,0,0","4","countryside","154","probe-129","0.27497540822340594","0.7090537219043371","0.16076819293612649","0","","","","","","","",""
"","html-keyboard-response","429","1696203","0.0-223.0-1.0","null","<p></p>","null","","","","","","","","","","","","","","","","","","","","","","",""
"","do_trial","430","1701186","0.0-224.0-0.0","420.09999999403954","","","","","","","","49","0,1,0","4","countryside","155","probe-05","0.3952883842701234","0.647019338188815","0.1268947163493984","0","","","","","","","",""
"","html-keyboard-response","431","1702194","0.0-224.0-1.0","null","<p></p>","null","","","","","","","","","","","","","","","","","","","","","","",""
"","do_trial","432","1707373","0.0-225.0-0.0","614.2999999821186","","","","","","","","51","0,1,0","4","countryside","156","probe-105","0.29340223042848584","0.730012968257601","0.2943398816148443","0","","","","","","","",""
"","html-keyboard-response","433","1708382","0.0-225.0-1.0","null","<p></p>","null","","","","","","","","","","","","","","","","","","","","","","",""
"","do_trial","434","1713862","0.0-226.0-0.0","910","","","","","","","","50","0,0,0","4","countryside","157","probe-117","0.2902950846302125","0.5658555272044903","0.2410153217840942","0","","","","","","","",""
"","html-keyboard-response","435","1714867","0.0-226.0-1.0","null","<p></p>","null","","","","","","","","","","","","","","","","","","","","","","",""
"","do_trial","436","1720006","0.0-227.0-0.0","573","","","","","","","","49","0,1,0","4","countryside","158","probe-140","0.3816901020530671","0.7012174747563086","0.23670559059709567","0","","","","","","","",""
"","html-keyboard-response","437","1721014","0.0-227.0-1.0","null","<p></p>","null","","","","","","","","","","","","","","","","","","","","","","",""
"","do_trial","438","1726051","0.0-228.0-0.0","471.19999998807907","","","","","","","","49","0,1,0","4","countryside","159","probe-17","0.34845900133058005","0.536116804805487","0.13092967483255355","0","","","","","","","",""
"","html-keyboard-response","439","1727058","0.0-228.0-1.0","null","<p></p>","null","","","","","","","","","","","","","","","","","","","","","","",""
"","do_trial","440","1733126","0.0-229.0-0.0","null","","","","","","","","null","0,0,1","4","countryside","160","probe-227","0.4223767596196204","0.5267316620062775","0.15199233828395","","","","","","","","",""
"","html-keyboard-response","441","1734134","0.0-229.0-1.0","null","<p></p>","null","","","","","","","","","","","","","","","","","","","","","","",""
"","do_trial","442","1739332","0.0-230.0-0.0","621.0999999940395","","","","","","","","49","1,0,1","4","countryside","161","probe-84","0.5106786542650322","0.383935772853335","0.10108479553012739","1","","","","","","","",""
"","html-keyboard-response","443","1740341","0.0-230.0-1.0","null","<p></p>","null","","","","","","","","","","","","","","","","","","","","","","",""
"","do_trial","444","1745484","0.0-231.0-0.0","575.5","","","","","","","","49","0,1,0","4","countryside","162","probe-118","0.5964065609831767","0.34935653318209997","0.2716533373719824","0","","","","","","","",""
"","html-keyboard-response","445","1746490","0.0-231.0-1.0","null","<p></p>","null","","","","","","","","","","","","","","","","","","","","","","",""
"","do_trial","446","1751516","0.0-232.0-0.0","460.19999998807907","","","","","","","","50","0,0,1","4","countryside","163","probe-99","0.695975866054925","0.24701897714707954","0.21969761752048186","0","","","","","","","",""
"","html-keyboard-response","447","1752522","0.0-232.0-1.0","null","<p></p>","null","","","","","","","","","","","","","","","","","","","","","","",""
"","do_trial","448","1757798","0.0-233.0-0.0","709.5999999940395","","","","","","","","51","0,0,0","4","countryside","164","probe-39","0.44112147378150535","0.2719130785803439","0.29751723484431297","0","","","","","","","",""
"","html-keyboard-response","449","1758806","0.0-233.0-1.0","null","<p></p>","null","","","","","","","","","","","","","","","","","","","","","","",""
"","do_trial","450","1764541","0.0-234.0-0.0","1152.5","","","","","","","","50","1,1,0","4","countryside","165","probe-209","0.5141304777934416","0.20983955036598417","0.27703240968725185","1","","","","","","","",""
"","html-keyboard-response","451","1765550","0.0-234.0-1.0","null","<p></p>","null","","","","","","","","","","","","","","","","","","","","","","",""
"","do_trial","452","1771055","0.0-235.0-0.0","923.5999999940395","","","","","","","","49","0,0,0","4","countryside","166","probe-43","0.4131905471895342","0.23932364452554494","0.3657769286275312","0","","","","","","","",""
"","html-keyboard-response","453","1772063","0.0-235.0-1.0","null","<p></p>","null","","","","","","","","","","","","","","","","","","","","","","",""
"","do_trial","454","1777032","0.0-236.0-0.0","401.80000001192093","","","","","","","","50","0,0,0","4","countryside","167","probe-24","0.48886753911049546","0.1569601159894873","0.30675794380882915","0","","","","","","","",""
"","html-keyboard-response","455","1778040","0.0-236.0-1.0","null","<p></p>","null","","","","","","","","","","","","","","","","","","","","","","",""
"","do_trial","456","1783047","0.0-237.0-0.0","431.5","","","","","","","","49","1,0,0","4","countryside","168","probe-132","0.5552097753476475","0.1575271924825596","0.3779838092818297","1","","","","","","","",""
"","html-keyboard-response","457","1784055","0.0-237.0-1.0","null","<p></p>","null","","","","","","","","","","","","","","","","","","","","","","",""
"","do_trial","458","1789843","0.0-238.0-0.0","1222","","","","","","","","50","0,1,1","4","countryside","169","probe-58","0.5326826953116874","0.1653360707245579","0.4358208422353977","1","","","","","","","",""
"","html-keyboard-response","459","1790852","0.0-238.0-1.0","null","<p></p>","null","","","","","","","","","","","","","","","","","","","","","","",""
"","do_trial","460","1796087","0.0-239.0-0.0","667.1999999880791","","","","","","","","51","0,1,1","4","countryside","170","probe-173","0.5287098960087306","0.18396783297082447","0.433675817758662","1","","","","","","","",""
"","html-keyboard-response","461","1797093","0.0-239.0-1.0","null","<p></p>","null","","","","","","","","","","","","","","","","","","","","","","",""
"","do_trial","462","1802432","0.0-240.0-0.0","775.0999999940395","","","","","","","","49","0,1,1","4","countryside","171","probe-70","0.45365729573523156","0.19954508196200035","0.4359675704113567","0","","","","","","","",""
"","html-keyboard-response","463","1803438","0.0-240.0-1.0","null","<p></p>","null","","","","","","","","","","","","","","","","","","","","","","",""
"","do_trial","464","1809154","0.0-241.0-0.0","1150.5999999940395","","","","","","","","50","0,0,0","4","countryside","172","probe-151","0.40147541972070394","0.08135373479797188","0.4165076635430473","0","","","","","","","",""
"","html-keyboard-response","465","1810161","0.0-241.0-1.0","null","<p></p>","null","","","","","","","","","","","","","","","","","","","","","","",""
"","do_trial","466","1815278","0.0-242.0-0.0","553.5","","","","","","","","51","1,0,0","4","countryside","173","probe-214","0.32648322865041496","0.10164611376255328","0.40311150142810753","0","","","","","","","",""
"","html-keyboard-response","467","1816284","0.0-242.0-1.0","null","<p></p>","null","","","","","","","","","","","","","","","","","","","","","","",""
"","do_trial","468","1821771","0.0-243.0-0.0","923.1999999880791","","","","","","","","50","0,0,1","4","countryside","174","probe-229","0.5756676101582988","0.12424027747160381","0.34628983690679","0","","","","","","","",""
"","html-keyboard-response","469","1822779","0.0-243.0-1.0","null","<p></p>","null","","","","","","","","","","","","","","","","","","","","","","",""
"","do_trial","470","1828202","0.0-244.0-0.0","855.3000000119209","","","","","","","","49","1,0,0","4","countryside","175","probe-109","0.5903739755772817","0.08323271641661487","0.26940495019489535","1","","","","","","","",""
"","html-keyboard-response","471","1829211","0.0-244.0-1.0","null","<p></p>","null","","","","","","","","","","","","","","","","","","","","","","",""
"","do_trial","472","1834691","0.0-245.0-0.0","912.8999999761581","","","","","","","","50","1,0,0","4","countryside","176","probe-61","0.7345555157695464","0.07681674246564704","0.3819767461986407","0","","","","","","","",""
"","html-keyboard-response","473","1835698","0.0-245.0-1.0","null","<p></p>","null","","","","","","","","","","","","","","","","","","","","","","",""
"","do_trial","474","1840892","0.0-246.0-0.0","617","","","","","","","","51","1,0,0","4","countryside","177","probe-57","0.8458822776599483","0.0829875790102274","0.3890653506862718","0","","","","","","","",""
"","html-keyboard-response","475","1841901","0.0-246.0-1.0","null","<p></p>","null","","","","","","","","","","","","","","","","","","","","","","",""
