"success","trial_type","trial_index","time_elapsed","internal_node_id","rt","stimulus","key_press","subject_id","response","choice_outcomes","context_n","context_img_id","trial_n","probe_img_id","pR_red","pR_white","pR_black","outcome","contextArray_ind","validImageProbes","invalidImageProbes","pRew_Red","pRew_White","pRew_Black","availableForMemProbe","choice_blocks"
"true","fullscreen","0","2989","0.0-0.0","","","","","","","","","","","","","","","","","","","","","",""
"","pavlovia","1","2998","0.0-1.0","","","","","","","","","","","","","","","","","","","","","",""
"","html-keyboard-response","2","7509","0.0-2.0","4507.700000047684","<div class='center'><p>Welcome! This is the first day of the experiment which will last ~30 minutes. In this experiment, you are the head captain of a pirate ship traveling around the world to different places. You will complete several different tasks during this experiment. Here is an overview of these tasks:</p><br><p>Day 1</p><p>1. Tutorial and quiz</p><p>2. Pick a pirate game in 6 different places</p><br><p>Day 2</p><p>3. Pick a pirate game and memory game</p><p>4. Final questions and payment</p><br><p>If you complete the entire experiment, you will receive $15 and a possible bonus payment.</p><p><b>[Press the space bar to begin the tutorial]</b></p></div>","32","60fde45e0ba6fd9b21d30c71","","","","","","","","","","","","","","","","","",""
"","html-keyboard-response","3","11227","0.0-3.0","3715.9000000953674","<div class='center'><p>You’ll stop at these 6 islands on your journey. You'll be able to see them in the distance from your ship.</p><p><img src='run_exp/static/images/contexts/all_contexts.png' height='500'></p><p><b>[Press the space bar to continue]</b></p></div>","32","","","","","","","","","","","","","","","","","","",""
"","html-keyboard-response","4","22018","0.0-4.0","10790.799999952316","<div class='center'><p> The pirates on your ship will rob other ships as they leave island</p> These ships have just sold their things to the people living on the island, so they will have lots and lots of gold on them.</p><p><img src='run_exp/static/images/tutorial/ship_center.png' height='400'></p><p><b>[Press the space bar to continue]</b></p></div>","32","","","","","","","","","","","","","","","","","","",""
"","html-keyboard-response","5","32626","0.0-5.0","10605.200000047684","<div class='center'><p>As the head captain, you do not have to rob any ships yourself.</p><p>Another pirate will be doing the robbing for you. </p><p><img src='run_exp/static/images/tutorial/pirates_all_crop.png' height='200'></p><p>If they could rob the ship, then you will get a stack of gold coins like this:</p><p><img src='run_exp/static/images/tutorial/reward.png' height='150'></p><p> If they couldn't rob the ship, then you will get no gold coins and you'll see a big red x like this: </p><p><img src='run_exp/static/images/tutorial/reward_no.png' height='150'></p><p> How much bonus money you make is based on how many gold coins you collect.</p><p><b>[Press the space bar to continue]</b></p><div>","32","","","","","","","","","","","","","","","","","","",""
"","html-keyboard-response","6","43940","0.0-6.0","11312.200000047684","<div class='center'><p>Even the most skilled pirate can not rob EVERY ship.</p><p> Some ships will have very strong defenses against pirate attacks.</p><p> For example, blue beard, here, is very, very good at robbing ships.</p><p> You can press the <b>‘1’</b> button on the keyboard to choose him.</p><p> Try choosing him 10 times to see how often he can rob a ship. </p><p><img src='run_exp/static/images/tutorial/blue.png' height='500'></p></div>","49","","","","","","","","","","","","","","","","","","",""
"","html-keyboard-response","7","45443","0.0-7.0","null","<div class='center'><p><img src='run_exp/static/images/tutorial/blue_win.png' height='500'></p></div>","null","","","","","","","","","","","","","","","","","","",""
"","html-keyboard-response","8","46309","0.0-8.0","864.5","<div class='center'><img src='run_exp/static/images/tutorial/blue.png' height='500'></p></div>","49","","","","","","","","","","","","","","","","","","",""
"","html-keyboard-response","9","47811","0.0-9.0","null","<div class='center'><p><img src='run_exp/static/images/tutorial/blue_win.png' height='500'></p></div>","null","","","","","","","","","","","","","","","","","","",""
"","html-keyboard-response","10","48311","0.0-10.0","498.7999999523163","<div class='center'><img src='run_exp/static/images/tutorial/blue.png' height='500'></p></div>","49","","","","","","","","","","","","","","","","","","",""
"","html-keyboard-response","11","49814","0.0-11.0","null","<div class='center'><p><img src='run_exp/static/images/tutorial/blue_win.png' height='500'></p></div>","null","","","","","","","","","","","","","","","","","","",""
"","html-keyboard-response","12","50277","0.0-12.0","461.39999985694885","<div class='center'><img src='run_exp/static/images/tutorial/blue.png' height='500'></p></div>","49","","","","","","","","","","","","","","","","","","",""
"","html-keyboard-response","13","51779","0.0-13.0","null","<div class='center'><p><img src='run_exp/static/images/tutorial/blue_no_win.png' height='500'></p></div>","null","","","","","","","","","","","","","","","","","","",""
"","html-keyboard-response","14","52266","0.0-14.0","485.2000000476837","<div class='center'><img src='run_exp/static/images/tutorial/blue.png' height='500'></p></div>","49","","","","","","","","","","","","","","","","","","",""
"","html-keyboard-response","15","53768","0.0-15.0","null","<div class='center'><p><img src='run_exp/static/images/tutorial/blue_win.png' height='500'></p></div>","null","","","","","","","","","","","","","","","","","","",""
"","html-keyboard-response","16","54567","0.0-16.0","797.2999999523163","<div class='center'><img src='run_exp/static/images/tutorial/blue.png' height='500'></p></div>","49","","","","","","","","","","","","","","","","","","",""
"","html-keyboard-response","17","56068","0.0-17.0","null","<div class='center'><p><img src='run_exp/static/images/tutorial/blue_win.png' height='500'></p></div>","null","","","","","","","","","","","","","","","","","","",""
"","html-keyboard-response","18","56548","0.0-18.0","478","<div class='center'><img src='run_exp/static/images/tutorial/blue.png' height='500'></p></div>","49","","","","","","","","","","","","","","","","","","",""
"","html-keyboard-response","19","58050","0.0-19.0","null","<div class='center'><p><img src='run_exp/static/images/tutorial/blue_win.png' height='500'></p></div>","null","","","","","","","","","","","","","","","","","","",""
"","html-keyboard-response","20","58420","0.0-20.0","368","<div class='center'><img src='run_exp/static/images/tutorial/blue.png' height='500'></p></div>","49","","","","","","","","","","","","","","","","","","",""
"","html-keyboard-response","21","59923","0.0-21.0","null","<div class='center'><p><img src='run_exp/static/images/tutorial/blue_no_win.png' height='500'></p></div>","null","","","","","","","","","","","","","","","","","","",""
"","html-keyboard-response","22","60703","0.0-22.0","778.8999998569489","<div class='center'><img src='run_exp/static/images/tutorial/blue.png' height='500'></p></div>","49","","","","","","","","","","","","","","","","","","",""
"","html-keyboard-response","23","62205","0.0-23.0","null","<div class='center'><p><img src='run_exp/static/images/tutorial/blue_win.png' height='500'></p></div>","null","","","","","","","","","","","","","","","","","","",""
"","html-keyboard-response","24","62639","0.0-24.0","432.39999985694885","<div class='center'><img src='run_exp/static/images/tutorial/blue.png' height='500'></p></div>","49","","","","","","","","","","","","","","","","","","",""
"","html-keyboard-response","25","64141","0.0-25.0","null","<div class='center'><p><img src='run_exp/static/images/tutorial/blue_win.png' height='500'></p></div>","null","","","","","","","","","","","","","","","","","","",""
"","html-keyboard-response","26","66113","0.0-26.0","1970.5","<div class='center'><p> See, he could rob the ships most of the time but not every time. </p><p><b>[Press the space bar to continue]</b></p></div>","32","","","","","","","","","","","","","","","","","","",""
"","html-keyboard-response","27","72847","0.0-27.0","6730.900000095367","<div class='center'><p>You will get to choose which of three pirates you want to rob the next ship. <p>Press the <b>‘1’</b> button on your keyboard to pick the pirate with the red beard.</p><p> Press <b>‘2’</b> to pick the pirate with the white beard.</p><p> Press <b>‘3’</b> to pick the pirate with the black beard.</p><p>Try picking a pirate now!</p><p><img src='run_exp/static/images/tutorial/all_pirates.png' height='500'></p></div>","51","","","","","","","","","","","","","","","","","","",""
"","html-keyboard-response","28","77075","0.0-28.0-0.0","4223.099999904633","<div class='center'><p>This pirate could rob the ship!</p><p><img src='run_exp/static/images/tutorial/black_win.png' height='500'></p><p><b>[Press the space bar to continue]</b></p></div>","32","","","","","","","","","","","","","","","","","","",""
"","html-keyboard-response","29","77591","0.0-28.0-1.0","514.0999999046326","<div class='center'><p>Now try choosing another</p><p><img src='run_exp/static/images/tutorial/all_pirates.png' height='500'></p></div>","49","","","","","","","","","","","","","","","","","","",""
"","html-keyboard-response","30","78572","0.0-29.0-0.0","978.7999999523163","<div class='center'><p>This pirate could not rob the ship.</p><p><img src='run_exp/static/images/tutorial/red_no_win.png' height='500'></p><p><b>[Press the space bar to continue]</b></p></div>","32","","","","","","","","","","","","","","","","","","",""
"","html-keyboard-response","31","83551","0.0-30.0-0.0","4977.200000047684","<div class='center'><p>If you don’t make your choice fast enough, you’ll have to wait a few seconds before you can make another one. </p><p>You can’t collect more gold coins. You just have to sit and wait.</p><p><img src='run_exp/static/images/miscellaneous/hurry_up.png' height='500'></p><p><b>[Press the space bar to continue]</b></p></div>","32","","","","","","","","","","","","","","","","","","",""
"","html-keyboard-response","32","146225","0.0-30.0-1.0","62672.40000009537","<div class='center'><p>Once you choose a pirate, you’ll be shown the ship they are robbing.</p><p>You will never rob the same ship twice.</p><p>Ships can be told apart from one another by the image on them.</p><p> Every time you see a ship, you will have to remember on which island you saw it.</p><p> Remembering correctly will help you win more bonus money!</p><p>A helpful strategy is to try to come up with a story of the object on the ship interacting with the current island scene.</p><p> For example, here, you could imagine a mug full of water in the desert. </p><p>For a ship with an apple on it on the forest island, you could imagine an apple falling from a tree in the forest.</p><p><img src='run_exp/static/images/tutorial/example_probe.png' height='500'></p><p><b>[Press the space bar to continue]</b></p></div>","32","","","","","","","","","","","","","","","","","","",""
"","html-keyboard-response","33","154119","0.0-30.0-2.0","7893.299999952316","<div class='center'><p>How good a pirate is at robbing ships will depend on the current island.</p><p> A pirate may have visited the island many times before and gained a lot of practice robbing ships there.</p><p>So, they're more likely to bring back gold coins than a pirate who has never visited this island before. </p><p><b>[Press the space bar to continue]</b></p></div>","32","","","","","","","","","","","","","","","","","","",""
"","html-keyboard-response","34","166411","0.0-30.0-3.0","12289.400000095367","<div class='center'><p>How good a pirate is at robbing ships can also change over the time spent on the island<p> Ships may hear from islanders about the pirates coming and will improve their protection against the attack. This may make it harder to rob them.</p><p> Ships may also become lazy and lower their protection. This may make it easier to rob them.</p><br><p>Things are always changing on the high seas! So, try your best to pay attention!</p><p><img src='run_exp/static/images/tutorial/contingency.png' height='500'></p><p><b>[Press the space bar to continue]</b></p></div>","32","","","","","","","","","","","","","","","","","","",""
"","html-keyboard-response","35","173262","0.0-30.0-4.0","6849.700000047684","<div class='center'><p>Let's go over the instructions quickly again.You have two important things to do: </p><b><p> 1. Pick the pirate who is the best at robbing ships on the current island.</p></b><b><p> 2. Remember on which island a ship was robbed.</p> </b><p>How much bonus money you make is based on both. </p><br><p>Let’s try a practice game. The game will start by showing you the pirates. First pick a pirate using the <b> 1, 2, 3 </b> buttons on your keyboard. When you are shown a ship, try to remember the island you’re on by making up a story.</p><p> You only have 3 seconds to pick a pirate, so please make a choice quickly! If you are too slow, you’ll have to wait a bit during the time out.</p><p> Don’t feel rushed, but please do try to make a choice every time.</p><p>This is just a practice game, so you’re not playing for money. </p><p> Good luck, remember press <b>'1'</b> to choose red beard, <b>'2'</b> to choose white beard, and <b>'3'</b> to choose black beard</p><p><b>[Press the space bar to begin the practice game]</b></p></div>","32","","","","","","","","","","","","","","","","","","",""
"","do_welcome","36","174774","0.0-30.0-5.0","null","","","","null","","","","","","","","","","","","","","","","",""
"","do_trial","37","180918","0.0-30.0-6.0","1623.2000000476837","","","","49","1,0,0","","","","","","","","","","","","","","","",""
"","html-keyboard-response","38","181920","0.0-31.0-0.0","null","<p></p>","null","","","","","","","","","","","","","","","","","","",""
"","do_trial","39","188827","0.0-31.0-1.0","2393.2999999523163","","","","49","1,1,0","","","","","","","","","","","","","","","",""
"","html-keyboard-response","40","189830","0.0-32.0-0.0","null","<p></p>","null","","","","","","","","","","","","","","","","","","",""
"","do_trial","41","196592","0.0-32.0-1.0","2248.2000000476837","","","","49","1,0,1","","","","","","","","","","","","","","","",""
"","html-keyboard-response","42","197594","0.0-33.0-0.0","null","<p></p>","null","","","","","","","","","","","","","","","","","","",""
"","do_trial","43","203554","0.0-33.0-1.0","1445.0999999046326","","","","49","0,1,0","","","","","","","","","","","","","","","",""
"","html-keyboard-response","44","204557","0.0-34.0-0.0","null","<p></p>","null","","","","","","","","","","","","","","","","","","",""
"","do_trial","45","210558","0.0-34.0-1.0","1486.6999998092651","","","","49","1,0,0","","","","","","","","","","","","","","","",""
"","do_bye","46","212068","0.0-35.0-0.0","null","","","","null","","","","","","","","","","","","","","","","",""
"","do_travel","47","218072","0.0-35.0-1.0","null","","","","null","","","","","","","","","","","","","","","","",""
"","do_welcome","48","219582","0.0-35.0-2.0","null","","","","null","","","","","","","","","","","","","","","","",""
"","do_trial","49","225405","0.0-35.0-3.0","1308","","","","50","1,0,0","","","","","","","","","","","","","","","",""
"","html-keyboard-response","50","226407","0.0-36.0-0.0","null","<p></p>","null","","","","","","","","","","","","","","","","","","",""
"","do_trial","51","231528","0.0-36.0-1.0","603","","","","51","1,0,1","","","","","","","","","","","","","","","",""
"","html-keyboard-response","52","232532","0.0-37.0-0.0","null","<p></p>","null","","","","","","","","","","","","","","","","","","",""
"","do_trial","53","237696","0.0-37.0-1.0","648.8999998569489","","","","51","1,1,0","","","","","","","","","","","","","","","",""
"","html-keyboard-response","54","238699","0.0-38.0-0.0","null","<p></p>","null","","","","","","","","","","","","","","","","","","",""
"","do_trial","55","244313","0.0-38.0-1.0","1100.3000001907349","","","","51","0,0,1","","","","","","","","","","","","","","","",""
"","html-keyboard-response","56","245315","0.0-39.0-0.0","null","<p></p>","null","","","","","","","","","","","","","","","","","","",""
"","do_trial","57","250540","0.0-39.0-1.0","708.6000001430511","","","","51","1,0,1","","","","","","","","","","","","","","","",""
"","html-keyboard-response","58","253479","0.0-40.0-0.0","2936.4000000953674","<div class='center'><p><img src='run_exp/static/images/tutorial/prac_best_pirate.png'  height='500'></p></div>","49","","","","","","","","","","","","","","","","","","",""
"","html-keyboard-response","59","254371","0.0-41.0-0.0","888.2999999523163","<div class='center'><p>That's correct! Red beard was the best.</p><p><b>[Press the space bar to continue]</b></p></div>","32","","","","","","","","","","","","","","","","","","",""
"","html-keyboard-response","60","258129","0.0-41.0-1.0","3755.699999809265","<div class='center'><p><img src='run_exp/static/images/tutorial/prac_source.png'  height='500'></p></div>","50","","","","","","","","","","","","","","","","","","",""
"","html-keyboard-response","61","259155","0.0-42.0-0.0","1024.2999999523163","<div class='center'><p>That's correct! You saw this ship on the cavern island.</p><p><b>[Press the space bar to continue]</b></p></div>","32","","","","","","","","","","","","","","","","","","",""
"","html-keyboard-response","62","266704","0.0-42.0-1.0","7548.399999856949","<div class='center'><p>Good job on the practice game! Now, you will be asked you some true or false questions to make sure you really understand the rules of the game.</p><p> Press <b>'1'</b> on the keyboard for true and press <b>'2'</b> for false.</p><p><b>[Press the space bar to begin the quiz]</b></p></div>","32","","","","","","","","","","","","","","","","","","",""
"","html-keyboard-response","63","273765","0.0-42.0-2.0","7059.599999904633","<div class='center'><p>You win bonus money by making choices as fast as possible.</p><p>Press 1 for true and press  2 for false.</p></div>","50","","","","","","","","","","","","","","","","","","",""
"","html-keyboard-response","64","274696","0.0-43.0-0.0","928.4000000953674","<div class='center'><p>That's correct!</p> <p><b>[press the space bar to continue with the quiz]</b></p></div>","32","","","","","","","","","","","","","","","","","","",""
"","html-keyboard-response","65","281197","0.0-43.0-1.0","6499.099999904633","<div class='center'><p>You press the <b>‘3’</b> button on the keyboard to choose the red bearded pirate. </p><p>Press 1 for true and press  2 for false.</p></div>","50","","","","","","","","","","","","","","","","","","",""
"","html-keyboard-response","66","281933","0.0-44.0-0.0","733.6000001430511","<div class='center'><p>That's correct!</p> <p><b>[press the space bar to continue with the quiz]</b></p></div>","32","","","","","","","","","","","","","","","","","","",""
"","html-keyboard-response","67","286039","0.0-44.0-1.0","4104.600000143051","<div class='center'><p>The pirate who is the best at robbing ships on the first island will be the best on every other island.</p><p>Press 1 for true and press  2 for false.</p></div>","50","","","","","","","","","","","","","","","","","","",""
"","html-keyboard-response","68","286541","0.0-45.0-0.0","500.2999999523163","<div class='center'><p>That's correct!</p> <p><b>[press the space bar to continue with the quiz]</b></p></div>","32","","","","","","","","","","","","","","","","","","",""
"","html-keyboard-response","69","290385","0.0-45.0-1.0","3843.100000143051","<div class='center'><p>You should remember the island where a pirate robbed a ship.</p><p>Press 1 for true and press  2 for false.</p></div>","49","","","","","","","","","","","","","","","","","","",""
"","html-keyboard-response","70","290907","0.0-46.0-0.0","495.7000000476837","<div class='center'><p>That's correct!</p> <p><b>[press the space bar to continue with the quiz]</b></p></div>","32","","","","","","","","","","","","","","","","","","",""
"","html-keyboard-response","71","292152","0.0-47.0-0.0","1243.5","<div class='center'><p>Good job! You’re now ready to move on to the real game!</p> <p><br>[press the space bar to begin!]</br></p></div>","32","","","","","","","","","","","","","","","","","","",""
"","do_welcome","72","293663","0.0-48.0-0.0","null","","","","null","","","","","","","","","","","","","","","","",""
"","do_trial","73","299751","0.0-49.0-0.0","1446.4000000953674","","","","50","1,0,0","0","mountain","0","probe-193","0.6","0.3","0.1","0","","","","","","","",""
"","html-keyboard-response","74","300755","0.0-49.0-1.0","null","<p></p>","null","","","","","","","","","","","","","","","","","","",""
"","do_trial","75","305912","0.0-50.0-0.0","524","","","","51","1,1,0","0","mountain","1","probe-08","0.5425269122915156","0.2977446557218209","0.11411236542872277","0","","","","","","","",""
"","html-keyboard-response","76","306914","0.0-50.0-1.0","null","<p></p>","null","","","","","","","","","","","","","","","","","","",""
"","do_trial","77","311832","0.0-51.0-0.0","301.90000009536743","","","","50","0,0,0","0","mountain","2","probe-54","0.5982625357191111","0.23923435772415602","0.06742307703217101","0","","","","","","","",""
"","html-keyboard-response","78","312836","0.0-51.0-1.0","null","<p></p>","null","","","","","","","","","","","","","","","","","","",""
"","do_trial","79","317768","0.0-52.0-0.0","292.10000014305115","","","","49","0,0,1","0","mountain","3","probe-220","0.671971166384582","0.18387784081932662","0.09312444493874342","0","","","","","","","",""
"","html-keyboard-response","80","318771","0.0-52.0-1.0","null","<p></p>","null","","","","","","","","","","","","","","","","","","",""
"","do_trial","81","323664","0.0-53.0-0.0","253.70000004768372","","","","50","0,0,0","0","mountain","4","probe-18","0.651658333872994","0.251185962498053","0.11472802736592726","0","","","","","","","",""
"","html-keyboard-response","82","324666","0.0-53.0-1.0","null","<p></p>","null","","","","","","","","","","","","","","","","","","",""
"","do_trial","83","329858","0.0-54.0-0.0","576.7999999523163","","","","51","1,0,0","0","mountain","5","probe-76","0.6881649167718449","0.14130400676038896","0.12811793944949884","0","","","","","","","",""
"","html-keyboard-response","84","330863","0.0-54.0-1.0","null","<p></p>","null","","","","","","","","","","","","","","","","","","",""
"","do_trial","85","335874","0.0-55.0-0.0","396.09999990463257","","","","51","1,0,0","0","mountain","6","probe-125","0.6552606074757864","0.2690247210127161","0.1016568181099533","0","","","","","","","",""
"","html-keyboard-response","86","336877","0.0-55.0-1.0","null","<p></p>","null","","","","","","","","","","","","","","","","","","",""
"","do_trial","87","341876","0.0-56.0-0.0","358.2000000476837","","","","49","1,0,0","0","mountain","7","probe-13","0.7149374624214022","0.29412610376672044","0.09066108883386648","1","","","","","","","",""
"","html-keyboard-response","88","342879","0.0-56.0-1.0","null","<p></p>","null","","","","","","","","","","","","","","","","","","",""
"","do_trial","89","348319","0.0-57.0-0.0","801.8999998569489","","","","49","0,0,0","0","mountain","8","probe-71","0.6721099920806687","0.26970052430584895","0.05277089386490737","0","","","","","","","",""
"","html-keyboard-response","90","349322","0.0-57.0-1.0","null","<p></p>","null","","","","","","","","","","","","","","","","","","",""
"","do_trial","91","355122","0.0-58.0-0.0","1158.5","","","","49","0,0,0","0","mountain","9","probe-107","0.5428834930969704","0.22731206386008446","0.059923411776211015","0","","","","","","","",""
"","html-keyboard-response","92","356125","0.0-58.0-1.0","null","<p></p>","null","","","","","","","","","","","","","","","","","","",""
"","do_trial","93","362197","0.0-59.0-0.0","1445","","","","51","1,0,0","0","mountain","10","probe-15","0.5517390775631561","0.3488727646424898","0.12905686190640692","0","","","","","","","",""
"","html-keyboard-response","94","363199","0.0-59.0-1.0","null","<p></p>","null","","","","","","","","","","","","","","","","","","",""
"","do_trial","95","368172","0.0-60.0-0.0","308.7000000476837","","","","49","0,1,0","0","mountain","11","probe-212","0.5348318806177904","0.2546453985730055","0.08799020871320153","0","","","","","","","",""
"","html-keyboard-response","96","369176","0.0-60.0-1.0","null","<p></p>","null","","","","","","","","","","","","","","","","","","",""
"","do_trial","97","374150","0.0-61.0-0.0","329.2000000476837","","","","50","1,0,0","0","mountain","12","probe-102","0.491575157163269","0.3103532729629646","0.18774980251241075","0","","","","","","","",""
"","html-keyboard-response","98","375152","0.0-61.0-1.0","null","<p></p>","null","","","","","","","","","","","","","","","","","","",""
"","do_trial","99","380126","0.0-62.0-0.0","356","","","","49","1,0,0","0","mountain","13","probe-171","0.6155639454622379","0.2777990389095268","0.17003173309756353","1","","","","","","","",""
"","html-keyboard-response","100","381128","0.0-62.0-1.0","null","<p></p>","null","","","","","","","","","","","","","","","","","","",""
"","do_trial","101","386025","0.0-63.0-0.0","260.60000014305115","","","","49","0,0,0","0","mountain","14","probe-210","0.5427213922513204","0.2169638647990734","0.088724457834371","0","","","","","","","",""
"","html-keyboard-response","102","387028","0.0-63.0-1.0","null","<p></p>","null","","","","","","","","","","","","","","","","","","",""
"","do_trial","103","392195","0.0-64.0-0.0","541.2999999523163","","","","49","0,0,0","0","mountain","15","probe-199","0.5960089910238043","0.21822084635474764","0.08056472343897461","0","","","","","","","",""
"","html-keyboard-response","104","393198","0.0-64.0-1.0","null","<p></p>","null","","","","","","","","","","","","","","","","","","",""
"","do_trial","105","399444","0.0-65.0-0.0","1631.5","","","","49","1,0,0","0","mountain","16","probe-127","0.3914595698948065","0.38750264215555624","0.10324302397164217","1","","","","","","","",""
"","html-keyboard-response","106","400447","0.0-65.0-1.0","null","<p></p>","null","","","","","","","","","","","","","","","","","","",""
"","do_trial","107","405700","0.0-66.0-0.0","619.2000000476837","","","","49","0,0,0","0","mountain","17","probe-229","0.5213292968123783","0.3802108891419222","0.14463785273551627","0","","","","","","","",""
"","html-keyboard-response","108","406702","0.0-66.0-1.0","null","<p></p>","null","","","","","","","","","","","","","","","","","","",""
"","do_trial","109","412823","0.0-67.0-0.0","null","","","","null","1,1,0","0","mountain","18","probe-64","0.573053780484149","0.24584752338449378","0.12068428446192556","","","","","","","","",""
"","html-keyboard-response","110","413825","0.0-67.0-1.0","null","<p></p>","null","","","","","","","","","","","","","","","","","","",""
"","do_trial","111","418844","0.0-68.0-0.0","382.2999999523163","","","","49","1,0,0","0","mountain","19","probe-53","0.469288808305902","0.34055871850668107","0.16136688781986952","1","","","","","","","",""
"","html-keyboard-response","112","419847","0.0-68.0-1.0","null","<p></p>","null","","","","","","","","","","","","","","","","","","",""
"","do_trial","113","424762","0.0-69.0-0.0","260.2999999523163","","","","49","0,1,0","0","mountain","20","probe-142","0.5454036077988753","0.29691064288589364","0.2617558143119076","0","","","","","","","",""
"","html-keyboard-response","114","425765","0.0-69.0-1.0","null","<p></p>","null","","","","","","","","","","","","","","","","","","",""
"","do_trial","115","430892","0.0-70.0-0.0","487.60000014305115","","","","49","0,1,0","0","mountain","21","probe-184","0.5748787503663602","0.3393730908447814","0.17850730620009342","0","","","","","","","",""
"","html-keyboard-response","116","431895","0.0-70.0-1.0","null","<p></p>","null","","","","","","","","","","","","","","","","","","",""
"","do_trial","117","437130","0.0-71.0-0.0","601.2000000476837","","","","49","1,1,0","0","mountain","22","probe-131","0.5193300485899037","0.3714275297673658","0.21674009564690672","1","","","","","","","",""
"","html-keyboard-response","118","438133","0.0-71.0-1.0","null","<p></p>","null","","","","","","","","","","","","","","","","","","",""
"","do_trial","119","443299","0.0-72.0-0.0","533.6000001430511","","","","49","1,0,0","0","mountain","23","probe-77","0.44629935573482327","0.4128765837223433","0.34937456249332516","1","","","","","","","",""
"","html-keyboard-response","120","444302","0.0-72.0-1.0","null","<p></p>","null","","","","","","","","","","","","","","","","","","",""
"","do_trial","121","449942","0.0-73.0-0.0","1023","","","","49","1,0,0","0","mountain","24","probe-145","0.39120356901798514","0.4554444249059175","0.1592795143279457","1","","","","","","","",""
"","html-keyboard-response","122","450944","0.0-73.0-1.0","null","<p></p>","null","","","","","","","","","","","","","","","","","","",""
"","do_trial","123","455852","0.0-74.0-0.0","271.09999990463257","","","","49","1,1,0","0","mountain","25","probe-196","0.6080097063942855","0.40061969935532815","0.18658580078154863","1","","","","","","","",""
"","html-keyboard-response","124","456855","0.0-74.0-1.0","null","<p></p>","null","","","","","","","","","","","","","","","","","","",""
"","do_trial","125","461782","0.0-75.0-0.0","297.59999990463257","","","","49","0,0,0","0","mountain","26","probe-120","0.5700616673185573","0.37299538685408684","0.1877057184588988","0","","","","","","","",""
"","html-keyboard-response","126","462784","0.0-75.0-1.0","null","<p></p>","null","","","","","","","","","","","","","","","","","","",""
"","do_trial","127","468594","0.0-76.0-0.0","1186.3999998569489","","","","49","0,0,0","0","mountain","27","probe-88","0.5079881363384952","0.31301119374988284","0.136714785410078","0","","","","","","","",""
"","html-keyboard-response","128","469597","0.0-76.0-1.0","null","<p></p>","null","","","","","","","","","","","","","","","","","","",""
"","do_trial","129","474817","0.0-77.0-0.0","602.2000000476837","","","","49","1,0,0","0","mountain","28","probe-89","0.6670463476306462","0.19896453324140395","0.050138795417944686","1","","","","","","","",""
"","html-keyboard-response","130","475820","0.0-77.0-1.0","null","<p></p>","null","","","","","","","","","","","","","","","","","","",""
"","do_trial","131","481011","0.0-78.0-0.0","611.2000000476837","","","","49","1,0,0","0","mountain","29","probe-59","0.6537868609684732","0.23400196369819487","0.2249895387848718","1","","","","","","","",""
"","html-keyboard-response","132","482013","0.0-78.0-1.0","null","<p></p>","null","","","","","","","","","","","","","","","","","","",""
"","do_bye","133","483524","0.0-79.0-0.0","null","","","","null","","","","","","","","","","","","","","","","",""
"","do_travel","134","489528","0.0-80.0-0.0","null","","","","null","","","","","","","","","","","","","","","","",""
"","do_welcome","135","491039","0.0-80.0-1.0","null","","","","null","","","","","","","","","","","","","","","","",""
"","do_trial","136","496258","0.0-81.0-0.0","579.2000000476837","","","","51","1,1,0","1","highway","30","probe-20","1","0.3117361120525971","0.1030819795411119","0","","","","","","","",""
"","html-keyboard-response","137","497261","0.0-81.0-1.0","null","<p></p>","null","","","","","","","","","","","","","","","","","","",""
"","do_trial","138","502222","0.0-82.0-0.0","317.90000009536743","","","","50","1,1,0","1","highway","31","probe-81","1","0.27509355061766066","0.07820621307728934","1","","","","","","","",""
"","html-keyboard-response","139","503226","0.0-82.0-1.0","null","<p></p>","null","","","","","","","","","","","","","","","","","","",""
"","do_trial","140","508151","0.0-83.0-0.0","310.5","","","","50","1,1,1","1","highway","32","probe-75","1","0.40113965625673914","0.11429118094120438","1","","","","","","","",""
"","html-keyboard-response","141","509154","0.0-83.0-1.0","null","<p></p>","null","","","","","","","","","","","","","","","","","","",""
"","do_trial","142","514440","0.0-84.0-0.0","652.2999999523163","","","","50","1,0,0","1","highway","33","probe-203","0.846996721702674","0.3729076969624589","0.059408163735818975","0","","","","","","","",""
"","html-keyboard-response","143","515443","0.0-84.0-1.0","null","<p></p>","null","","","","","","","","","","","","","","","","","","",""
"","do_trial","144","520343","0.0-85.0-0.0","254.70000004768372","","","","50","0,0,0","1","highway","34","probe-87","0.8175781814069762","0.3199209168802917","0.06577420894008784","0","","","","","","","",""
"","html-keyboard-response","145","521346","0.0-85.0-1.0","null","<p></p>","null","","","","","","","","","","","","","","","","","","",""
"","do_trial","146","526417","0.0-86.0-0.0","433.2999999523163","","","","50","0,0,0","1","highway","35","probe-07","0.6232003404237275","0.3484683739881338","0.09439318509595164","0","","","","","","","",""
"","html-keyboard-response","147","527420","0.0-86.0-1.0","null","<p></p>","null","","","","","","","","","","","","","","","","","","",""
"","do_trial","148","532337","0.0-87.0-0.0","287.7000000476837","","","","50","1,1,0","1","highway","36","probe-173","0.5993558480623841","0.2923378782360689","0.19572367714333908","1","","","","","","","",""
"","html-keyboard-response","149","533340","0.0-87.0-1.0","null","<p></p>","null","","","","","","","","","","","","","","","","","","",""
"","do_trial","150","538572","0.0-88.0-0.0","598.2000000476837","","","","50","1,1,0","1","highway","37","probe-178","0.512560919642908","0.31350122162568816","0.255852201119082","1","","","","","","","",""
"","html-keyboard-response","151","539575","0.0-88.0-1.0","null","<p></p>","null","","","","","","","","","","","","","","","","","","",""
"","do_trial","152","544826","0.0-89.0-0.0","634","","","","50","1,0,0","1","highway","38","probe-119","0.5333550323154285","0.14127722216183927","0.08868201687690927","0","","","","","","","",""
"","html-keyboard-response","153","545829","0.0-89.0-1.0","null","<p></p>","null","","","","","","","","","","","","","","","","","","",""
"","do_trial","154","551010","0.0-90.0-0.0","540.5999999046326","","","","50","0,0,1","1","highway","39","probe-113","0.4617738757140438","0.25151544028839135","0.13680879814467595","0","","","","","","","",""
"","html-keyboard-response","155","552013","0.0-90.0-1.0","null","<p></p>","null","","","","","","","","","","","","","","","","","","",""
"","do_trial","156","556929","0.0-91.0-0.0","278.39999985694885","","","","50","0,1,0","1","highway","40","probe-79","0.41165817154084217","0.39406236793484156","0.1815567523470677","1","","","","","","","",""
"","html-keyboard-response","157","557932","0.0-91.0-1.0","null","<p></p>","null","","","","","","","","","","","","","","","","","","",""
"","do_trial","158","562791","0.0-92.0-0.0","233.70000004768372","","","","50","1,0,0","1","highway","41","probe-94","0.526669446181532","0.427621935714019","0.12339363890253484","0","","","","","","","",""
"","html-keyboard-response","159","563793","0.0-92.0-1.0","null","<p></p>","null","","","","","","","","","","","","","","","","","","",""
"","do_trial","160","568767","0.0-93.0-0.0","334.10000014305115","","","","50","1,0,0","1","highway","42","probe-165","0.39472548889656367","0.6363464433327278","0.14647184386277634","0","","","","","","","",""
"","html-keyboard-response","161","569771","0.0-93.0-1.0","null","<p></p>","null","","","","","","","","","","","","","","","","","","",""
"","do_trial","162","574591","0.0-94.0-0.0","205.5","","","","50","0,1,0","1","highway","43","probe-128","0.2412579809235465","0.765798350723524","0.0835592413651044","1","","","","","","","",""
"","html-keyboard-response","163","575594","0.0-94.0-1.0","null","<p></p>","null","","","","","","","","","","","","","","","","","","",""
"","do_trial","164","580898","0.0-95.0-0.0","688.7999999523163","","","","50","0,1,0","1","highway","44","probe-202","0.2339600577872411","0.7152117182216164","0.1593375317779636","1","","","","","","","",""
"","html-keyboard-response","165","581902","0.0-95.0-1.0","null","<p></p>","null","","","","","","","","","","","","","","","","","","",""
"","do_trial","166","587317","0.0-96.0-0.0","799.6000001430511","","","","50","1,1,0","1","highway","45","probe-109","0.2133580674176622","0.6516631580356149","0.05635340421642767","1","","","","","","","",""
"","html-keyboard-response","167","588319","0.0-96.0-1.0","null","<p></p>","null","","","","","","","","","","","","","","","","","","",""
"","do_trial","168","593483","0.0-97.0-0.0","546.7999999523163","","","","50","0,1,0","1","highway","46","probe-219","0.1760967770641998","0.723317264138672","0.09763178283634188","1","","","","","","","",""
"","html-keyboard-response","169","594486","0.0-97.0-1.0","null","<p></p>","null","","","","","","","","","","","","","","","","","","",""
"","do_trial","170","599910","0.0-98.0-0.0","801.9000000953674","","","","50","0,1,0","1","highway","47","probe-122","0.1778868423497174","0.7960197738809563","0.19730692719631793","1","","","","","","","",""
"","html-keyboard-response","171","600912","0.0-98.0-1.0","null","<p></p>","null","","","","","","","","","","","","","","","","","","",""
"","do_trial","172","606552","0.0-99.0-0.0","1026.7000000476837","","","","50","0,1,0","1","highway","48","probe-158","0.1803398658583176","0.7932268476198415","0.11498905815825762","1","","","","","","","",""
"","html-keyboard-response","173","607555","0.0-99.0-1.0","null","<p></p>","null","","","","","","","","","","","","","","","","","","",""
"","do_trial","174","613016","0.0-100.0-0.0","834.5999999046326","","","","50","1,1,0","1","highway","49","probe-01","0.09550712868202624","0.6864547343162896","0.11280508569390105","1","","","","","","","",""
"","html-keyboard-response","175","614018","0.0-100.0-1.0","null","<p></p>","null","","","","","","","","","","","","","","","","","","",""
"","do_trial","176","619210","0.0-101.0-0.0","555","","","","50","0,0,0","1","highway","50","probe-62","0.05287453285932264","0.6704120317060733","0.13579789653876728","0","","","","","","","",""
"","html-keyboard-response","177","620212","0.0-101.0-1.0","null","<p></p>","null","","","","","","","","","","","","","","","","","","",""
"","do_trial","178","625065","0.0-102.0-0.0","223.79999995231628","","","","50","0,1,0","1","highway","51","probe-197","0.14730805193029478","0.5929912319155657","0.10929068843310179","1","","","","","","","",""
"","html-keyboard-response","179","626068","0.0-102.0-1.0","null","<p></p>","null","","","","","","","","","","","","","","","","","","",""
"","do_trial","180","631414","0.0-103.0-0.0","717","","","","50","0,1,0","1","highway","52","probe-12","0.16077712016919363","0.42774101645824675","0.0989245337374214","1","","","","","","","",""
"","html-keyboard-response","181","632417","0.0-103.0-1.0","null","<p></p>","null","","","","","","","","","","","","","","","","","","",""
"","do_trial","182","637289","0.0-104.0-0.0","244.5","","","","50","1,1,0","1","highway","53","probe-177","0.23131950612813243","0.4683306914092389","0.16233954961640618","1","","","","","","","",""
"","html-keyboard-response","183","638291","0.0-104.0-1.0","null","<p></p>","null","","","","","","","","","","","","","","","","","","",""
"","do_trial","184","643577","0.0-105.0-0.0","664.4000000953674","","","","50","0,0,1","1","highway","54","probe-130","0.3435318616599373","0.5242145681976479","0.11924533386093826","0","","","","","","","",""
"","html-keyboard-response","185","644579","0.0-105.0-1.0","null","<p></p>","null","","","","","","","","","","","","","","","","","","",""
"","do_trial","186","650122","0.0-106.0-0.0","926.8000001907349","","","","50","0,0,0","1","highway","55","probe-180","0.2770571873567814","0.35359380612092123","0.08454788869826477","0","","","","","","","",""
"","html-keyboard-response","187","651125","0.0-106.0-1.0","null","<p></p>","null","","","","","","","","","","","","","","","","","","",""
"","do_trial","188","656149","0.0-107.0-0.0","405.2000000476837","","","","50","0,0,1","1","highway","56","probe-151","0.3063550672525497","0.5105835440321697","0.19111509467398452","0","","","","","","","",""
"","html-keyboard-response","189","657152","0.0-107.0-1.0","null","<p></p>","null","","","","","","","","","","","","","","","","","","",""
"","do_trial","190","662100","0.0-108.0-0.0","340.59999990463257","","","","50","0,1,0","1","highway","57","probe-112","0.3535573232661328","0.6131905541828901","0.20496695572170967","1","","","","","","","",""
"","html-keyboard-response","191","663105","0.0-108.0-1.0","null","<p></p>","null","","","","","","","","","","","","","","","","","","",""
"","do_trial","192","668205","0.0-109.0-0.0","483.5","","","","50","1,1,0","1","highway","58","probe-161","0.44387235812761333","0.5114448833333293","0.27854134402803593","1","","","","","","","",""
"","html-keyboard-response","193","669208","0.0-109.0-1.0","null","<p></p>","null","","","","","","","","","","","","","","","","","","",""
"","do_trial","194","674339","0.0-110.0-0.0","506","","","","50","0,0,0","1","highway","59","probe-03","0.353333415262711","0.38671959338178424","0.20052378106628305","0","","","","","","","",""
"","html-keyboard-response","195","675341","0.0-110.0-1.0","null","<p></p>","null","","","","","","","","","","","","","","","","","","",""
"","do_trial","196","680313","0.0-111.0-0.0","336.5","","","","50","1,1,0","1","highway","60","probe-47","0.4390017076854615","0.5070055058604984","0.1324546423711231","1","","","","","","","",""
"","html-keyboard-response","197","681316","0.0-111.0-1.0","null","<p></p>","null","","","","","","","","","","","","","","","","","","",""
"","do_trial","198","686630","0.0-112.0-0.0","695.8999998569489","","","","50","0,1,0","1","highway","61","probe-55","0.34852490149389204","0.6109710766103043","0.1408446627411122","1","","","","","","","",""
"","html-keyboard-response","199","687632","0.0-112.0-1.0","null","<p></p>","null","","","","","","","","","","","","","","","","","","",""
"","do_trial","200","692711","0.0-113.0-0.0","460.7999999523163","","","","50","0,1,0","1","highway","62","probe-207","0.15879216626678222","0.6836014300451808","0.13583661764880858","1","","","","","","","",""
"","html-keyboard-response","201","693713","0.0-113.0-1.0","null","<p></p>","null","","","","","","","","","","","","","","","","","","",""
"","do_trial","202","698651","0.0-114.0-0.0","314.7999999523163","","","","50","0,1,1","1","highway","63","probe-111","0.33185256873085484","0.5981640375524646","0.14696562564776985","1","","","","","","","",""
"","html-keyboard-response","203","699655","0.0-114.0-1.0","null","<p></p>","null","","","","","","","","","","","","","","","","","","",""
"","do_trial","204","704739","0.0-115.0-0.0","460.7999999523163","","","","50","0,0,0","1","highway","64","probe-26","0.3552835506960695","0.5871386446244048","0.14680689966875035","0","","","","","","","",""
"","html-keyboard-response","205","705742","0.0-115.0-1.0","null","<p></p>","null","","","","","","","","","","","","","","","","","","",""
"","do_trial","206","710646","0.0-116.0-0.0","272.90000009536743","","","","50","0,1,0","1","highway","65","probe-30","0.1339680618793876","0.5912797061169794","0.14747841996056693","1","","","","","","","",""
"","html-keyboard-response","207","711649","0.0-116.0-1.0","null","<p></p>","null","","","","","","","","","","","","","","","","","","",""
"","do_trial","208","716690","0.0-117.0-0.0","420.7999999523163","","","","50","0,0,0","1","highway","66","probe-48","0.14510883489549528","0.5742523216590911","0.12404268559161624","0","","","","","","","",""
"","html-keyboard-response","209","717693","0.0-117.0-1.0","null","<p></p>","null","","","","","","","","","","","","","","","","","","",""
"","do_trial","210","722983","0.0-118.0-0.0","666.6999998092651","","","","50","0,1,0","1","highway","67","probe-141","0.17179011187704632","0.6213763351181738","0.12148444465279175","1","","","","","","","",""
"","html-keyboard-response","211","723987","0.0-118.0-1.0","null","<p></p>","null","","","","","","","","","","","","","","","","","","",""
"","do_trial","212","731552","0.0-119.0-0.0","2927.300000190735","","","","50","0,0,0","1","highway","68","probe-198","0.13530729994345556","0.4517670614769239","0.08211110891208727","0","","","","","","","",""
"","html-keyboard-response","213","732554","0.0-119.0-1.0","null","<p></p>","null","","","","","","","","","","","","","","","","","","",""
"","do_trial","214","737831","0.0-120.0-0.0","662.5999999046326","","","","50","0,0,0","1","highway","69","probe-230","0.21246810870360325","0.4350752504400137","0.11973560081120242","0","","","","","","","",""
"","html-keyboard-response","215","738834","0.0-120.0-1.0","null","<p></p>","null","","","","","","","","","","","","","","","","","","",""
"","do_bye","216","740344","0.0-121.0-0.0","null","","","","null","","","","","","","","","","","","","","","","",""
"","do_travel","217","746348","0.0-122.0-0.0","null","","","","null","","","","","","","","","","","","","","","","",""
"","do_welcome","218","747858","0.0-122.0-1.0","null","","","","null","","","","","","","","","","","","","","","","",""
"","do_trial","219","754551","0.0-123.0-0.0","2080.4000000953674","","","","51","1,1,0","2","city","70","probe-124","0.3949074417131657","1","0.1252414553605405","0","","","","","","","",""
"","html-keyboard-response","220","755554","0.0-123.0-1.0","null","<p></p>","null","","","","","","","","","","","","","","","","","","",""
"","do_trial","221","760469","0.0-124.0-0.0","278.2999999523163","","","","51","0,1,0","2","city","71","probe-72","0.24071071752794915","1","0.09246667684329601","0","","","","","","","",""
"","html-keyboard-response","222","761472","0.0-124.0-1.0","null","<p></p>","null","","","","","","","","","","","","","","","","","","",""
"","do_trial","223","766406","0.0-125.0-0.0","296.39999985694885","","","","49","0,1,0","2","city","72","probe-99","0.21962866887212384","0.7925461255709368","0.12799553576452194","0","","","","","","","",""
"","html-keyboard-response","224","767408","0.0-125.0-1.0","null","<p></p>","null","","","","","","","","","","","","","","","","","","",""
"","do_trial","225","772407","0.0-126.0-0.0","391.39999985694885","","","","49","1,0,1","2","city","73","probe-200","0.22507673850250726","0.5739454082944059","0.14687709535646495","1","","","","","","","",""
"","html-keyboard-response","226","773411","0.0-126.0-1.0","null","<p></p>","null","","","","","","","","","","","","","","","","","","",""
"","do_trial","227","778462","0.0-127.0-0.0","433.10000014305115","","","","49","1,0,0","2","city","74","probe-36","0.36891918890503705","0.5560442817205693","0.18275560919221803","1","","","","","","","",""
"","html-keyboard-response","228","779464","0.0-127.0-1.0","null","<p></p>","null","","","","","","","","","","","","","","","","","","",""
"","do_trial","229","784700","0.0-128.0-0.0","611.0999999046326","","","","49","1,1,0","2","city","75","probe-211","0.3278820082508104","0.5929804859223237","0.20224364827384078","1","","","","","","","",""
"","html-keyboard-response","230","785703","0.0-128.0-1.0","null","<p></p>","null","","","","","","","","","","","","","","","","","","",""
"","do_trial","231","791830","0.0-129.0-0.0","null","","","","null","0,1,0","2","city","76","probe-05","0.35107021041040426","0.7209178399992632","0.13788311615366053","","","","","","","","",""
"","html-keyboard-response","232","792833","0.0-129.0-1.0","null","<p></p>","null","","","","","","","","","","","","","","","","","","",""
"","do_trial","233","797748","0.0-130.0-0.0","282.7000000476837","","","","49","0,1,0","2","city","77","probe-227","0.30393221951267196","0.7080015414733526","0.05002868102635205","0","","","","","","","",""
"","html-keyboard-response","234","798751","0.0-130.0-1.0","null","<p></p>","null","","","","","","","","","","","","","","","","","","",""
"","do_trial","235","803944","0.0-131.0-0.0","548.3999998569489","","","","49","0,0,0","2","city","78","probe-28","0.3788648235674017","0.8275709063343392","0.14433939213617084","0","","","","","","","",""
"","html-keyboard-response","236","804946","0.0-131.0-1.0","null","<p></p>","null","","","","","","","","","","","","","","","","","","",""
"","do_trial","237","810116","0.0-132.0-0.0","534.8000001907349","","","","49","0,1,0","2","city","79","probe-167","0.35272012296164057","0.8127421151833462","0.12850221430270092","0","","","","","","","",""
"","html-keyboard-response","238","811118","0.0-132.0-1.0","null","<p></p>","null","","","","","","","","","","","","","","","","","","",""
"","do_trial","239","816228","0.0-133.0-0.0","453","","","","49","0,1,0","2","city","80","probe-205","0.260156926774497","0.746354914467365","0.17265299291920952","0","","","","","","","",""
"","html-keyboard-response","240","817231","0.0-133.0-1.0","null","<p></p>","null","","","","","","","","","","","","","","","","","","",""
"","do_trial","241","822212","0.0-134.0-0.0","323","","","","49","0,1,0","2","city","81","probe-181","0.15945360628006375","0.7783966947224973","0.1250570647358131","0","","","","","","","",""
"","html-keyboard-response","242","823217","0.0-134.0-1.0","null","<p></p>","null","","","","","","","","","","","","","","","","","","",""
"","do_trial","243","828828","0.0-135.0-0.0","928.5999999046326","","","","49","0,0,1","2","city","82","probe-139","0.2023674959870838","0.6436801472183099","0.3173091501492275","0","","","","","","","",""
"","html-keyboard-response","244","829845","0.0-135.0-1.0","null","<p></p>","null","","","","","","","","","","","","","","","","","","",""
"","do_trial","245","835436","0.0-136.0-0.0","1022.9000000953674","","","","49","0,0,1","2","city","83","probe-85","0.2737401959369472","0.40930395727038266","0.4177904738686308","0","","","","","","","",""
"","html-keyboard-response","246","836440","0.0-136.0-1.0","null","<p></p>","null","","","","","","","","","","","","","","","","","","",""
"","do_trial","247","841408","0.0-137.0-0.0","389.90000009536743","","","","49","0,0,1","2","city","84","probe-14","0.31955141074249394","0.2150322177386573","0.5428075638384036","0","","","","","","","",""
"","html-keyboard-response","248","842421","0.0-137.0-1.0","null","<p></p>","null","","","","","","","","","","","","","","","","","","",""
"","do_trial","249","847552","0.0-138.0-0.0","563","","","","49","1,0,1","2","city","85","probe-73","0.3064278126448698","0.14395302974984953","0.45746082135777794","1","","","","","","","",""
"","html-keyboard-response","250","848558","0.0-138.0-1.0","null","<p></p>","null","","","","","","","","","","","","","","","","","","",""
"","do_trial","251","853774","0.0-139.0-0.0","597","","","","49","1,0,0","2","city","86","probe-217","0.3172372865458034","0.06722426942812369","0.482137848979818","1","","","","","","","",""
"","html-keyboard-response","252","854787","0.0-139.0-1.0","null","<p></p>","null","","","","","","","","","","","","","","","","","","",""
"","do_trial","253","860615","0.0-140.0-0.0","1263","","","","49","0,0,0","2","city","87","probe-96","0.3531885159787413","0.15761180572947214","0.4999900155594628","0","","","","","","","",""
"","html-keyboard-response","254","861617","0.0-140.0-1.0","null","<p></p>","null","","","","","","","","","","","","","","","","","","",""
"","do_trial","255","867060","0.0-141.0-0.0","830.2000000476837","","","","49","0,0,1","2","city","88","probe-39","0.19833074674357576","0.08824607406542512","0.4661110746375154","0","","","","","","","",""
"","html-keyboard-response","256","868074","0.0-141.0-1.0","null","<p></p>","null","","","","","","","","","","","","","","","","","","",""
"","do_trial","257","873085","0.0-142.0-0.0","389.2999999523163","","","","49","0,0,1","2","city","89","probe-63","0.27838509830411","0.13449382064016763","0.42601496588406745","0","","","","","","","",""
"","html-keyboard-response","258","874100","0.0-142.0-1.0","null","<p></p>","null","","","","","","","","","","","","","","","","","","",""
"","do_trial","259","879197","0.0-143.0-0.0","482.5","","","","49","1,1,0","2","city","90","probe-213","0.2156886074928796","0.17377003032235863","0.4715719075715773","1","","","","","","","",""
"","html-keyboard-response","260","880208","0.0-143.0-1.0","null","<p></p>","null","","","","","","","","","","","","","","","","","","",""
"","do_trial","261","885348","0.0-144.0-0.0","572.7000000476837","","","","49","0,0,1","2","city","91","probe-98","0.1890927070032987","0.05480335099745757","0.4972816468088258","0","","","","","","","",""
"","html-keyboard-response","262","886363","0.0-144.0-1.0","null","<p></p>","null","","","","","","","","","","","","","","","","","","",""
"","do_trial","263","891305","0.0-145.0-0.0","329.5","","","","49","1,0,0","2","city","92","probe-44","0.26407155636885793","0.06681800097643566","0.5781972514612778","1","","","","","","","",""
"","html-keyboard-response","264","892322","0.0-145.0-1.0","null","<p></p>","null","","","","","","","","","","","","","","","","","","",""
"","do_trial","265","898889","0.0-146.0-0.0","1952.8999998569489","","","","49","1,0,0","2","city","93","probe-40","0.35637851811314575","0.09209351215881306","0.36133492387721844","1","","","","","","","",""
"","html-keyboard-response","266","899899","0.0-146.0-1.0","null","<p></p>","null","","","","","","","","","","","","","","","","","","",""
"","do_trial","267","905322","0.0-147.0-0.0","810.7999999523163","","","","49","0,0,0","2","city","94","probe-188","0.3687229039293584","0.21610272121233529","0.22888763924943004","0","","","","","","","",""
"","html-keyboard-response","268","906332","0.0-147.0-1.0","null","<p></p>","null","","","","","","","","","","","","","","","","","","",""
"","do_trial","269","911479","0.0-148.0-0.0","560.9000000953674","","","","49","1,0,0","2","city","95","probe-22","0.31561230870907847","0.12662810045867073","0.42669919159665726","1","","","","","","","",""
"","html-keyboard-response","270","912492","0.0-148.0-1.0","null","<p></p>","null","","","","","","","","","","","","","","","","","","",""
"","do_trial","271","917807","0.0-149.0-0.0","688.6000001430511","","","","49","1,0,1","2","city","96","probe-25","0.311630467302908","0.10305330163263011","0.577696063746323","1","","","","","","","",""
"","html-keyboard-response","272","918815","0.0-149.0-1.0","null","<p></p>","null","","","","","","","","","","","","","","","","","","",""
"","do_trial","273","923821","0.0-150.0-0.0","380.2000000476837","","","","49","0,0,1","2","city","97","probe-152","0.40777141610794315","0.27589662081377747","0.6295560451856418","0","","","","","","","",""
"","html-keyboard-response","274","924834","0.0-150.0-1.0","null","<p></p>","null","","","","","","","","","","","","","","","","","","",""
"","do_trial","275","929666","0.0-151.0-0.0","278.5","","","","49","0,0,0","2","city","98","probe-56","0.24334782551735917","0.2311728443334157","0.537011411996715","0","","","","","","","",""
"","html-keyboard-response","276","930679","0.0-151.0-1.0","null","<p></p>","null","","","","","","","","","","","","","","","","","","",""
"","do_trial","277","935623","0.0-152.0-0.0","357.5","","","","49","0,0,0","2","city","99","probe-38","0.11891120494026458","0.05200992468729261","0.4370428277933984","0","","","","","","","",""
"","html-keyboard-response","278","936632","0.0-152.0-1.0","null","<p></p>","null","","","","","","","","","","","","","","","","","","",""
"","do_trial","279","941554","0.0-153.0-0.0","303.7000000476837","","","","49","0,0,1","2","city","100","probe-69","0.264368449831424","0.09926442874543032","0.38987003702343975","0","","","","","","","",""
"","html-keyboard-response","280","942561","0.0-153.0-1.0","null","<p></p>","null","","","","","","","","","","","","","","","","","","",""
"","do_trial","281","947475","0.0-154.0-0.0","304.10000014305115","","","","49","0,0,0","2","city","101","probe-175","0.12342808502383058","0.05412271051291026","0.5463639516548294","0","","","","","","","",""
"","html-keyboard-response","282","948488","0.0-154.0-1.0","null","<p></p>","null","","","","","","","","","","","","","","","","","","",""
"","do_trial","283","953625","0.0-155.0-0.0","523.0999999046326","","","","49","0,0,0","2","city","102","probe-187","0.16559219581806428","0.0717524920399535","0.5087190192461412","0","","","","","","","",""
"","html-keyboard-response","284","954635","0.0-155.0-1.0","null","<p></p>","null","","","","","","","","","","","","","","","","","","",""
"","do_trial","285","959561","0.0-156.0-0.0","312.10000014305115","","","","49","0,0,1","2","city","103","probe-101","0.23824508611059322","0.07230477699135672","0.5290672760887015","0","","","","","","","",""
"","html-keyboard-response","286","960575","0.0-156.0-1.0","null","<p></p>","null","","","","","","","","","","","","","","","","","","",""
"","do_trial","287","965767","0.0-157.0-0.0","580.1000001430511","","","","49","0,0,1","2","city","104","probe-135","0.32347120459850326","0.09898675368129362","0.6096282834363456","0","","","","","","","",""
"","html-keyboard-response","288","966775","0.0-157.0-1.0","null","<p></p>","null","","","","","","","","","","","","","","","","","","",""
"","do_trial","289","971928","0.0-158.0-0.0","595.2999999523163","","","","49","0,0,1","2","city","105","probe-201","0.3463594841828743","0.1649812836504809","0.6622944645771169","0","","","","","","","",""
"","html-keyboard-response","290","972936","0.0-158.0-1.0","null","<p></p>","null","","","","","","","","","","","","","","","","","","",""
"","do_trial","291","978688","0.0-159.0-0.0","1147","","","","49","0,0,1","2","city","106","probe-195","0.21042700754809626","0.0801636355541565","0.6285185433466302","0","","","","","","","",""
"","html-keyboard-response","292","979704","0.0-159.0-1.0","null","<p></p>","null","","","","","","","","","","","","","","","","","","",""
"","do_trial","293","984978","0.0-160.0-0.0","649.5","","","","49","0,0,1","2","city","107","probe-166","0.19086400735793554","0.061661197973039476","0.48904300502797377","0","","","","","","","",""
"","html-keyboard-response","294","985988","0.0-160.0-1.0","null","<p></p>","null","","","","","","","","","","","","","","","","","","",""
"","do_trial","295","991432","0.0-161.0-0.0","878.4000000953674","","","","49","0,0,1","2","city","108","probe-154","0.18568223381588703","0.0776804294133638","0.5273312001496541","0","","","","","","","",""
"","html-keyboard-response","296","992443","0.0-161.0-1.0","null","<p></p>","null","","","","","","","","","","","","","","","","","","",""
"","do_trial","297","997360","0.0-162.0-0.0","297.19999980926514","","","","49","0,0,0","2","city","109","probe-143","0.3409750904128205","0.21831367546390415","0.5529820046686009","0","","","","","","","",""
"","html-keyboard-response","298","998371","0.0-162.0-1.0","null","<p></p>","null","","","","","","","","","","","","","","","","","","",""
"","do_bye","299","999888","0.0-163.0-0.0","null","","","","null","","","","","","","","","","","","","","","","",""
"","do_travel","300","1005902","0.0-164.0-0.0","null","","","","null","","","","","","","","","","","","","","","","",""
"","do_welcome","301","1007427","0.0-164.0-1.0","null","","","","null","","","","","","","","","","","","","","","","",""
"","do_trial","302","1012954","0.0-165.0-0.0","909.7999999523163","","","","51","1,0,1","3","coast","110","probe-148","0.18593487987885493","0.2951288211206171","1","1","","","","","","","",""
"","html-keyboard-response","303","1013965","0.0-165.0-1.0","null","<p></p>","null","","","","","","","","","","","","","","","","","","",""
"","do_trial","304","1018737","0.0-166.0-0.0","159.5","","","","51","0,0,1","3","coast","111","probe-123","0.24303359079983852","0.2134455951408686","1","1","","","","","","","",""
"","html-keyboard-response","305","1019754","0.0-166.0-1.0","null","<p></p>","null","","","","","","","","","","","","","","","","","","",""
"","do_trial","306","1024631","0.0-167.0-0.0","265.09999990463257","","","","51","0,0,1","3","coast","112","probe-216","0.2547693454132583","0.19793347288232974","0.8937598205032099","1","","","","","","","",""
"","html-keyboard-response","307","1025637","0.0-167.0-1.0","null","<p></p>","null","","","","","","","","","","","","","","","","","","",""
"","do_trial","308","1030941","0.0-168.0-0.0","715.1000001430511","","","","51","0,0,1","3","coast","113","probe-160","0.2540465682113239","0.22176050757279342","0.8805141388365278","1","","","","","","","",""
"","html-keyboard-response","309","1031950","0.0-168.0-1.0","null","<p></p>","null","","","","","","","","","","","","","","","","","","",""
"","do_trial","310","1036765","0.0-169.0-0.0","248","","","","51","0,0,1","3","coast","114","probe-09","0.26696231959662864","0.1869003533802551","0.8710409429722702","1","","","","","","","",""
"","html-keyboard-response","311","1037775","0.0-169.0-1.0","null","<p></p>","null","","","","","","","","","","","","","","","","","","",""
"","do_trial","312","1042678","0.0-170.0-0.0","335.39999985694885","","","","51","1,0,1","3","coast","115","probe-37","0.28749042923407403","0.12302016883375766","0.889139910377871","1","","","","","","","",""
"","html-keyboard-response","313","1043692","0.0-170.0-1.0","null","<p></p>","null","","","","","","","","","","","","","","","","","","",""
"","do_trial","314","1048693","0.0-171.0-0.0","385.10000014305115","","","","51","0,0,1","3","coast","116","probe-194","0.27344384567776797","0.09921485747681079","0.9059234953666331","1","","","","","","","",""
"","html-keyboard-response","315","1049704","0.0-171.0-1.0","null","<p></p>","null","","","","","","","","","","","","","","","","","","",""
"","do_trial","316","1054714","0.0-172.0-0.0","393.09999990463257","","","","51","0,1,1","3","coast","117","probe-61","0.19631673356678625","0.19238776098755472","0.7994921744286522","1","","","","","","","",""
"","html-keyboard-response","317","1055726","0.0-172.0-1.0","null","<p></p>","null","","","","","","","","","","","","","","","","","","",""
"","do_trial","318","1060775","0.0-173.0-0.0","419.09999990463257","","","","51","0,0,1","3","coast","118","probe-34","0.2798265011431811","0.15770657671330546","0.7803126332427118","1","","","","","","","",""
"","html-keyboard-response","319","1061788","0.0-173.0-1.0","null","<p></p>","null","","","","","","","","","","","","","","","","","","",""
"","do_trial","320","1067573","0.0-174.0-0.0","1158.6000001430511","","","","51","0,0,1","3","coast","119","probe-86","0.43501198051416123","0.05923293293462539","0.7938434554622869","1","","","","","","","",""
"","html-keyboard-response","321","1068582","0.0-174.0-1.0","null","<p></p>","null","","","","","","","","","","","","","","","","","","",""
"","do_trial","322","1073631","0.0-175.0-0.0","432","","","","51","1,0,0","3","coast","120","probe-179","0.4125887064301941","0.05631754611370731","0.7938960876504862","0","","","","","","","",""
"","html-keyboard-response","323","1074634","0.0-175.0-1.0","null","<p></p>","null","","","","","","","","","","","","","","","","","","",""
"","do_trial","324","1079601","0.0-176.0-0.0","350.19999980926514","","","","51","1,0,1","3","coast","121","probe-186","0.5281335781143296","0.165729118177333","0.7886178466086602","1","","","","","","","",""
"","html-keyboard-response","325","1080615","0.0-176.0-1.0","null","<p></p>","null","","","","","","","","","","","","","","","","","","",""
"","do_trial","326","1085517","0.0-177.0-0.0","265","","","","51","0,1,0","3","coast","122","probe-100","0.46017445986232636","0.2706407700388203","0.5586669717858069","0","","","","","","","",""
"","html-keyboard-response","327","1086525","0.0-177.0-1.0","null","<p></p>","null","","","","","","","","","","","","","","","","","","",""
"","do_trial","328","1091871","0.0-178.0-0.0","713","","","","51","1,0,0","3","coast","123","probe-132","0.6579802755039948","0.2406867376028715","0.6197262302525782","0","","","","","","","",""
"","html-keyboard-response","329","1092878","0.0-178.0-1.0","null","<p></p>","null","","","","","","","","","","","","","","","","","","",""
"","do_trial","330","1098951","0.0-179.0-0.0","null","","","","null","0,0,1","3","coast","124","probe-43","0.47064125293650266","0.12041702718837316","0.47795382438376766","","","","","","","","",""
"","html-keyboard-response","331","1099960","0.0-179.0-1.0","null","<p></p>","null","","","","","","","","","","","","","","","","","","",""
"","do_trial","332","1104923","0.0-180.0-0.0","353.10000014305115","","","","51","0,0,1","3","coast","125","probe-163","0.624195010846967","0.08074692583671973","0.5171014586105847","1","","","","","","","",""
"","html-keyboard-response","333","1105934","0.0-180.0-1.0","null","<p></p>","null","","","","","","","","","","","","","","","","","","",""
"","do_trial","334","1110921","0.0-181.0-0.0","405.7999999523163","","","","51","1,0,1","3","coast","126","probe-23","0.49292143567058033","0.25076802623200867","0.5624501674707646","1","","","","","","","",""
"","html-keyboard-response","335","1111938","0.0-181.0-1.0","null","<p></p>","null","","","","","","","","","","","","","","","","","","",""
"","do_trial","336","1116544","0.0-182.0-0.0","0.09999990463256836","","","","51","1,0,0","3","coast","127","probe-209","0.399766565775638","0.1591738697418192","0.4661491514115643","0","","","","","","","",""
"","html-keyboard-response","337","1117554","0.0-182.0-1.0","null","<p></p>","null","","","","","","","","","","","","","","","","","","",""
"","do_trial","338","1122170","0.0-183.0-0.0","0.09999990463256836","","","","51","0,1,0","3","coast","128","probe-176","0.30030079592405595","0.11941162547408894","0.44158952813062324","0","","","","","","","",""
"","html-keyboard-response","339","1123174","0.0-183.0-1.0","null","<p></p>","null","","","","","","","","","","","","","","","","","","",""
"","do_trial","340","1128194","0.0-184.0-0.0","465.5","","","","51","1,0,0","3","coast","129","probe-32","0.36607988364646155","0.1992430497429525","0.2504971004925106","0","","","","","","","",""
"","html-keyboard-response","341","1129200","0.0-184.0-1.0","null","<p></p>","null","","","","","","","","","","","","","","","","","","",""
"","do_trial","342","1134345","0.0-185.0-0.0","523.9000000953674","","","","51","0,0,1","3","coast","130","probe-10","0.43984185028605105","0.17889664403242203","0.28996324802784046","1","","","","","","","",""
"","html-keyboard-response","343","1135355","0.0-185.0-1.0","null","<p></p>","null","","","","","","","","","","","","","","","","","","",""
"","do_trial","344","1140234","0.0-186.0-0.0","254.59999990463257","","","","51","1,0,0","3","coast","131","probe-157","0.4976016362455279","0.06006125789926196","0.3508556029403006","0","","","","","","","",""
"","html-keyboard-response","345","1141250","0.0-186.0-1.0","null","<p></p>","null","","","","","","","","","","","","","","","","","","",""
"","do_trial","346","1146248","0.0-187.0-0.0","388","","","","51","1,0,1","3","coast","132","probe-191","0.5019293517250584","0.06127970282218792","0.2796559618877247","1","","","","","","","",""
"","html-keyboard-response","347","1147262","0.0-187.0-1.0","null","<p></p>","null","","","","","","","","","","","","","","","","","","",""
"","do_trial","348","1152188","0.0-188.0-0.0","303.89999985694885","","","","51","1,0,0","3","coast","133","probe-150","0.6164276568931638","0.061009299945203044","0.27329196800444083","0","","","","","","","",""
"","html-keyboard-response","349","1153205","0.0-188.0-1.0","null","<p></p>","null","","","","","","","","","","","","","","","","","","",""
"","do_trial","350","1158415","0.0-189.0-0.0","600","","","","51","0,0,0","3","coast","134","probe-168","0.6862728832383798","0.051385370090095764","0.11128757363210394","0","","","","","","","",""
"","html-keyboard-response","351","1159422","0.0-189.0-1.0","null","<p></p>","null","","","","","","","","","","","","","","","","","","",""
"","do_trial","352","1164645","0.0-190.0-0.0","618.3999998569489","","","","51","0,0,0","3","coast","135","probe-189","0.7717331599197594","0.08356180350621296","0.22310714817689895","0","","","","","","","",""
"","html-keyboard-response","353","1165648","0.0-190.0-1.0","null","<p></p>","null","","","","","","","","","","","","","","","","","","",""
"","do_trial","354","1170567","0.0-191.0-0.0","354","","","","51","0,0,1","3","coast","136","probe-222","0.6328489137731321","0.08619946699762238","0.11426433126592205","1","","","","","","","",""
"","html-keyboard-response","355","1171577","0.0-191.0-1.0","null","<p></p>","null","","","","","","","","","","","","","","","","","","",""
"","do_trial","356","1176821","0.0-192.0-0.0","631.1000001430511","","","","51","1,0,0","3","coast","137","probe-153","0.8239236013685085","0.14528738839585414","0.06477730105119588","0","","","","","","","",""
"","html-keyboard-response","357","1177825","0.0-192.0-1.0","null","<p></p>","null","","","","","","","","","","","","","","","","","","",""
"","do_trial","358","1182750","0.0-193.0-0.0","368.7000000476837","","","","51","1,0,1","3","coast","138","probe-214","0.8128818274549269","0.16545750075222487","0.2828093116322972","1","","","","","","","",""
"","html-keyboard-response","359","1183754","0.0-193.0-1.0","null","<p></p>","null","","","","","","","","","","","","","","","","","","",""
"","do_trial","360","1188787","0.0-194.0-0.0","427.2000000476837","","","","51","1,0,0","3","coast","139","probe-93","0.8148587806798138","0.19748663204594913","0.3666604887003166","0","","","","","","","",""
"","html-keyboard-response","361","1189798","0.0-194.0-1.0","null","<p></p>","null","","","","","","","","","","","","","","","","","","",""
"","do_trial","362","1194905","0.0-195.0-0.0","476.5","","","","51","0,1,1","3","coast","140","probe-70","0.7518118974976337","0.19025747267849383","0.44745993148593605","1","","","","","","","",""
"","html-keyboard-response","363","1195915","0.0-195.0-1.0","null","<p></p>","null","","","","","","","","","","","","","","","","","","",""
"","do_trial","364","1201354","0.0-196.0-0.0","820.7999999523163","","","","51","0,1,0","3","coast","141","probe-35","0.6643822810453095","0.11377652285934808","0.4672104289063347","0","","","","","","","",""
"","html-keyboard-response","365","1202363","0.0-196.0-1.0","null","<p></p>","null","","","","","","","","","","","","","","","","","","",""
"","do_trial","366","1207337","0.0-197.0-0.0","359.7999999523163","","","","51","0,0,0","3","coast","142","probe-84","0.4586356823337649","0.21877439931921483","0.43742880887211677","0","","","","","","","",""
"","html-keyboard-response","367","1208354","0.0-197.0-1.0","null","<p></p>","null","","","","","","","","","","","","","","","","","","",""
"","do_trial","368","1213191","0.0-198.0-0.0","271.40000009536743","","","","51","0,0,1","3","coast","143","probe-192","0.5624295398139236","0.09450004278569303","0.3388974799762265","1","","","","","","","",""
"","html-keyboard-response","369","1214197","0.0-198.0-1.0","null","<p></p>","null","","","","","","","","","","","","","","","","","","",""
"","do_trial","370","1219147","0.0-199.0-0.0","398.10000014305115","","","","51","1,0,1","3","coast","144","probe-134","0.508974437656475","0.0806497092114402","0.2714434516567947","1","","","","","","","",""
"","html-keyboard-response","371","1220164","0.0-199.0-1.0","null","<p></p>","null","","","","","","","","","","","","","","","","","","",""
"","do_trial","372","1224969","0.0-200.0-0.0","249.90000009536743","","","","51","0,0,1","3","coast","145","probe-221","0.4175659965490498","0.1726784219819324","0.3358642392989424","1","","","","","","","",""
"","html-keyboard-response","373","1225975","0.0-200.0-1.0","null","<p></p>","null","","","","","","","","","","","","","","","","","","",""
"","do_trial","374","1230904","0.0-201.0-0.0","303.09999990463257","","","","51","0,0,1","3","coast","146","probe-83","0.6573342115735932","0.21078412719340797","0.19914955888304137","1","","","","","","","",""
"","html-keyboard-response","375","1231917","0.0-201.0-1.0","null","<p></p>","null","","","","","","","","","","","","","","","","","","",""
"","do_trial","376","1236777","0.0-202.0-0.0","237.79999995231628","","","","51","1,0,0","3","coast","147","probe-126","0.6272078216531708","0.207201805511514","0.3266935220900781","0","","","","","","","",""
"","html-keyboard-response","377","1237788","0.0-202.0-1.0","null","<p></p>","null","","","","","","","","","","","","","","","","","","",""
"","do_trial","378","1242823","0.0-203.0-0.0","417.5","","","","51","1,0,0","3","coast","148","probe-159","0.5854930324796286","0.23257742752541524","0.45414094958547757","0","","","","","","","",""
"","html-keyboard-response","379","1243826","0.0-203.0-1.0","null","<p></p>","null","","","","","","","","","","","","","","","","","","",""
"","do_trial","380","1248837","0.0-204.0-0.0","451.30000019073486","","","","51","0,0,1","3","coast","149","probe-118","0.7548748180780279","0.17755116211579647","0.4664546155710114","1","","","","","","","",""
"","html-keyboard-response","381","1249850","0.0-204.0-1.0","null","<p></p>","null","","","","","","","","","","","","","","","","","","",""
"","do_bye","382","1251364","0.0-205.0-0.0","null","","","","null","","","","","","","","","","","","","","","","",""
"","do_travel","383","1257370","0.0-206.0-0.0","null","","","","null","","","","","","","","","","","","","","","","",""
"","do_welcome","384","1258881","0.0-206.0-1.0","null","","","","null","","","","","","","","","","","","","","","","",""
"","do_trial","385","1264971","0.0-207.0-0.0","1533.7999999523163","","","","50","1,0,0","4","forest","150","probe-208","1","0.18900065546844785","0.42500258899385784","0","","","","","","","",""
"","html-keyboard-response","386","1265984","0.0-207.0-1.0","null","<p></p>","null","","","","","","","","","","","","","","","","","","",""
"","do_trial","387","1270611","0.0-208.0-0.0","0.20000004768371582","","","","50","1,0,1","4","forest","151","probe-182","1","0.2229535131438209","0.401848793855894","0","","","","","","","",""
"","html-keyboard-response","388","1271620","0.0-208.0-1.0","null","<p></p>","null","","","","","","","","","","","","","","","","","","",""
"","do_trial","389","1276708","0.0-209.0-0.0","526.3000001907349","","","","49","1,0,1","4","forest","152","probe-225","0.897318563665571","0.16404844763186496","0.32617532776529934","1","","","","","","","",""
"","html-keyboard-response","390","1277717","0.0-209.0-1.0","null","<p></p>","null","","","","","","","","","","","","","","","","","","",""
"","do_trial","391","1282378","0.0-210.0-0.0","104.5","","","","49","1,1,0","4","forest","153","probe-129","0.790309278055088","0.29528135925681015","0.2698082912573328","1","","","","","","","",""
"","html-keyboard-response","392","1283384","0.0-210.0-1.0","null","<p></p>","null","","","","","","","","","","","","","","","","","","",""
"","do_trial","393","1288035","0.0-211.0-0.0","36.799999952316284","","","","49","1,0,1","4","forest","154","probe-172","0.6696035955744973","0.2661435985708566","0.31970614441278955","1","","","","","","","",""
"","html-keyboard-response","394","1289039","0.0-211.0-1.0","null","<p></p>","null","","","","","","","","","","","","","","","","","","",""
"","do_trial","395","1293895","0.0-212.0-0.0","230.20000004768372","","","","49","0,0,0","4","forest","155","probe-21","0.6588273657139291","0.23021017055923787","0.2548420518160115","0","","","","","","","",""
"","html-keyboard-response","396","1294902","0.0-212.0-1.0","null","<p></p>","null","","","","","","","","","","","","","","","","","","",""
"","do_trial","397","1300207","0.0-213.0-0.0","735.2000000476837","","","","49","0,0,0","4","forest","156","probe-58","0.6565264240855092","0.2065214373348733","0.3478593617661698","0","","","","","","","",""
"","html-keyboard-response","398","1301218","0.0-213.0-1.0","null","<p></p>","null","","","","","","","","","","","","","","","","","","",""
"","do_trial","399","1306443","0.0-214.0-0.0","664.2999999523163","","","","49","0,0,0","4","forest","157","probe-67","0.5464185812610746","0.2404423253165844","0.35334112922099686","0","","","","","","","",""
"","html-keyboard-response","400","1307445","0.0-214.0-1.0","null","<p></p>","null","","","","","","","","","","","","","","","","","","",""
"","do_trial","401","1312699","0.0-215.0-0.0","681.3999998569489","","","","49","1,0,1","4","forest","158","probe-149","0.4374642358369026","0.15958285361898572","0.2590434619861044","1","","","","","","","",""
"","html-keyboard-response","402","1313715","0.0-215.0-1.0","null","<p></p>","null","","","","","","","","","","","","","","","","","","",""
"","do_trial","403","1318587","0.0-216.0-0.0","250.10000014305115","","","","49","0,0,1","4","forest","159","probe-90","0.3546239188960509","0.11779556238233642","0.16557199734567898","0","","","","","","","",""
"","html-keyboard-response","404","1319595","0.0-216.0-1.0","null","<p></p>","null","","","","","","","","","","","","","","","","","","",""
"","do_trial","405","1324829","0.0-217.0-0.0","613.2000000476837","","","","49","0,1,0","4","forest","160","probe-137","0.38918145060563936","0.13832693153389886","0.27044638792389014","0","","","","","","","",""
"","html-keyboard-response","406","1325841","0.0-217.0-1.0","null","<p></p>","null","","","","","","","","","","","","","","","","","","",""
"","do_trial","407","1331066","0.0-218.0-0.0","608.9000000953674","","","","49","1,0,0","4","forest","161","probe-74","0.3738431705674253","0.23566812528715772","0.30424369219608594","1","","","","","","","",""
"","html-keyboard-response","408","1332075","0.0-218.0-1.0","null","<p></p>","null","","","","","","","","","","","","","","","","","","",""
"","do_trial","409","1336957","0.0-219.0-0.0","273.2999999523163","","","","49","0,0,0","4","forest","162","probe-92","0.30415601549346555","0.40038365059004705","0.30642324343634675","0","","","","","","","",""
"","html-keyboard-response","410","1337975","0.0-219.0-1.0","null","<p></p>","null","","","","","","","","","","","","","","","","","","",""
"","do_trial","411","1343636","0.0-220.0-0.0","1027.7000000476837","","","","49","0,1,0","4","forest","163","probe-52","0.3609088116205775","0.3207682847286665","0.17348476070393162","0","","","","","","","",""
"","html-keyboard-response","412","1344652","0.0-220.0-1.0","null","<p></p>","null","","","","","","","","","","","","","","","","","","",""
"","do_trial","413","1349449","0.0-221.0-0.0","192.09999990463257","","","","49","0,1,0","4","forest","164","probe-66","0.25789850761776145","0.5224476943051042","0.26460497745920664","0","","","","","","","",""
"","html-keyboard-response","414","1350452","0.0-221.0-1.0","null","<p></p>","null","","","","","","","","","","","","","","","","","","",""
"","do_trial","415","1356128","0.0-222.0-0.0","1051.2999999523163","","","","49","0,1,0","4","forest","165","probe-02","0.3067972300484892","0.4567407641766584","0.314049706535945","0","","","","","","","",""
"","html-keyboard-response","416","1357141","0.0-222.0-1.0","null","<p></p>","null","","","","","","","","","","","","","","","","","","",""
"","do_trial","417","1362109","0.0-223.0-0.0","407.5","","","","49","1,1,0","4","forest","166","probe-146","0.36947006677068694","0.4672122186393265","0.28001805645275174","1","","","","","","","",""
"","html-keyboard-response","418","1363116","0.0-223.0-1.0","null","<p></p>","null","","","","","","","","","","","","","","","","","","",""
"","do_trial","419","1368235","0.0-224.0-0.0","501.10000014305115","","","","49","0,1,0","4","forest","167","probe-147","0.35580464901663156","0.5853867590964696","0.3578897341537622","0","","","","","","","",""
"","html-keyboard-response","420","1369238","0.0-224.0-1.0","null","<p></p>","null","","","","","","","","","","","","","","","","","","",""
"","do_trial","421","1374278","0.0-225.0-0.0","426.7000000476837","","","","49","0,0,0","4","forest","168","probe-91","0.11566030497073544","0.6504104139836215","0.3295963118880643","0","","","","","","","",""
"","html-keyboard-response","422","1375280","0.0-225.0-1.0","null","<p></p>","null","","","","","","","","","","","","","","","","","","",""
"","do_trial","423","1380461","0.0-226.0-0.0","571.3999998569489","","","","49","0,1,1","4","forest","169","probe-133","0.1425210847559414","0.7008649981102159","0.2510033163817639","0","","","","","","","",""
"","html-keyboard-response","424","1381471","0.0-226.0-1.0","null","<p></p>","null","","","","","","","","","","","","","","","","","","",""
"","do_trial","425","1386576","0.0-227.0-0.0","532.6999998092651","","","","49","0,1,0","4","forest","170","probe-121","0.09653585097689192","0.6820318058303448","0.30028736947902257","0","","","","","","","",""
"","html-keyboard-response","426","1387585","0.0-227.0-1.0","null","<p></p>","null","","","","","","","","","","","","","","","","","","",""
"","do_trial","427","1392791","0.0-228.0-0.0","640.7999999523163","","","","49","0,1,1","4","forest","171","probe-136","0.11300400923545909","0.7140514303567845","0.25603702391396577","0","","","","","","","",""
"","html-keyboard-response","428","1393805","0.0-228.0-1.0","null","<p></p>","null","","","","","","","","","","","","","","","","","","",""
"","do_trial","429","1398880","0.0-229.0-0.0","514.5999999046326","","","","49","0,1,0","4","forest","172","probe-115","0.15720479519765007","0.6165001996726484","0.3025296299658299","0","","","","","","","",""
"","html-keyboard-response","430","1399895","0.0-229.0-1.0","null","<p></p>","null","","","","","","","","","","","","","","","","","","",""
"","do_trial","431","1404888","0.0-230.0-0.0","425.2999999523163","","","","49","0,1,0","4","forest","173","probe-60","0.22856678354003684","0.6730566816571748","0.39754222860272337","0","","","","","","","",""
"","html-keyboard-response","432","1405905","0.0-230.0-1.0","null","<p></p>","null","","","","","","","","","","","","","","","","","","",""
"","do_trial","433","1410526","0.0-231.0-0.0","64.29999995231628","","","","49","0,1,1","4","forest","174","probe-27","0.17144189728629278","0.656536359432432","0.3126806415528121","0","","","","","","","",""
"","html-keyboard-response","434","1411528","0.0-231.0-1.0","null","<p></p>","null","","","","","","","","","","","","","","","","","","",""
"","do_trial","435","1416435","0.0-232.0-0.0","270.7999999523163","","","","51","0,0,0","4","forest","175","probe-51","0.1142963684504299","0.6441829163544879","0.26831319650199875","0","","","","","","","",""
"","html-keyboard-response","436","1417442","0.0-232.0-1.0","null","<p></p>","null","","","","","","","","","","","","","","","","","","",""
"","do_trial","437","1422236","0.0-233.0-0.0","226","","","","51","0,1,1","4","forest","176","probe-144","0.14824259886335056","0.3844403328419803","0.342894652728924","1","","","","","","","",""
"","html-keyboard-response","438","1423245","0.0-233.0-1.0","null","<p></p>","null","","","","","","","","","","","","","","","","","","",""
"","do_trial","439","1428004","0.0-234.0-0.0","200.79999995231628","","","","51","0,0,1","4","forest","177","probe-185","0.10171713482764272","0.4321454090529263","0.2770399533561025","1","","","","","","","",""
"","html-keyboard-response","440","1429015","0.0-234.0-1.0","null","<p></p>","null","","","","","","","","","","","","","","","","","","",""
"","do_trial","441","1433871","0.0-235.0-0.0","241.09999990463257","","","","51","0,1,1","4","forest","178","probe-04","0.11550575698973123","0.4424342863507031","0.4221512767148166","1","","","","","","","",""
"","html-keyboard-response","442","1434881","0.0-235.0-1.0","null","<p></p>","null","","","","","","","","","","","","","","","","","","",""
"","do_trial","443","1439730","0.0-236.0-0.0","240.10000014305115","","","","51","0,1,1","4","forest","179","probe-78","0.12368587118577358","0.4861870891951849","0.33062038161944435","1","","","","","","","",""
"","html-keyboard-response","444","1440737","0.0-236.0-1.0","null","<p></p>","null","","","","","","","","","","","","","","","","","","",""
"","do_trial","445","1445742","0.0-237.0-0.0","419.80000019073486","","","","51","0,1,1","4","forest","180","probe-110","0.16848788264683795","0.6724066909466371","0.25120921117849904","1","","","","","","","",""
"","html-keyboard-response","446","1446755","0.0-237.0-1.0","null","<p></p>","null","","","","","","","","","","","","","","","","","","",""
"","do_trial","447","1451580","0.0-238.0-0.0","200.90000009536743","","","","51","0,1,0","4","forest","181","probe-31","0.12158158671377396","0.560862253340427","0.11672270803684909","0","","","","","","","",""
"","html-keyboard-response","448","1452590","0.0-238.0-1.0","null","<p></p>","null","","","","","","","","","","","","","","","","","","",""
"","do_trial","449","1458212","0.0-239.0-0.0","1056.5","","","","51","0,1,0","4","forest","182","probe-17","0.08427571654213371","0.7056104670100306","0.12617480689825164","0","","","","","","","",""
"","html-keyboard-response","450","1459218","0.0-239.0-1.0","null","<p></p>","null","","","","","","","","","","","","","","","","","","",""
"","do_trial","451","1464087","0.0-240.0-0.0","240.5","","","","51","0,1,1","4","forest","183","probe-49","0.12599563577374903","0.6692210939887234","0.13837954280322673","1","","","","","","","",""
"","html-keyboard-response","452","1465100","0.0-240.0-1.0","null","<p></p>","null","","","","","","","","","","","","","","","","","","",""
"","do_trial","453","1470000","0.0-241.0-0.0","280.90000009536743","","","","51","0,1,0","4","forest","184","probe-155","0.10291374188309887","0.7509881442980932","0.13531743638919444","0","","","","","","","",""
"","html-keyboard-response","454","1471010","0.0-241.0-1.0","null","<p></p>","null","","","","","","","","","","","","","","","","","","",""
"","do_trial","455","1475674","0.0-242.0-0.0","105","","","","51","1,0,0","4","forest","185","probe-140","0.0765378386525522","0.6377093173797679","0.24180758463963473","0","","","","","","","",""
"","html-keyboard-response","456","1476677","0.0-242.0-1.0","null","<p></p>","null","","","","","","","","","","","","","","","","","","",""
"","do_trial","457","1481655","0.0-243.0-0.0","387.59999990463257","","","","51","0,0,0","4","forest","186","probe-164","0.05877960687081081","0.48558080543176363","0.1990711468603729","0","","","","","","","",""
"","html-keyboard-response","458","1482671","0.0-243.0-1.0","null","<p></p>","null","","","","","","","","","","","","","","","","","","",""
"","do_trial","459","1487367","0.0-244.0-0.0","78.59999990463257","","","","49","0,1,0","4","forest","187","probe-170","0.11816777957644528","0.6278816934665504","0.19031829322994384","0","","","","","","","",""
"","html-keyboard-response","460","1488376","0.0-244.0-1.0","null","<p></p>","null","","","","","","","","","","","","","","","","","","",""
"","do_trial","461","1493331","0.0-245.0-0.0","330.5","","","","49","0,0,0","4","forest","188","probe-204","0.17605710815065886","0.5092151260226985","0.2737356534429157","0","","","","","","","",""
"","html-keyboard-response","462","1494339","0.0-245.0-1.0","null","<p></p>","null","","","","","","","","","","","","","","","","","","",""
"","do_trial","463","1499001","0.0-246.0-0.0","55.09999990463257","","","","51","0,0,0","4","forest","189","probe-108","0.1416748633067904","0.524332600677023","0.34169226409751086","0","","","","","","","",""
"","html-keyboard-response","464","1500007","0.0-246.0-1.0","null","<p></p>","null","","","","","","","","","","","","","","","","","","",""
"","do_bye","465","1501525","0.0-247.0-0.0","null","","","","null","","","","","","","","","","","","","","","","",""
"","do_travel","466","1507540","0.0-248.0-0.0","null","","","","null","","","","","","","","","","","","","","","","",""
"","do_welcome","467","1509050","0.0-248.0-1.0","null","","","","null","","","","","","","","","","","","","","","","",""
"","do_trial","468","1515137","0.0-249.0-0.0","null","","","","null","0,1,0","5","countryside","190","probe-82","0.07575890389493573","1","0.27923667776354477","","","","","","","","",""
"","html-keyboard-response","469","1516148","0.0-249.0-1.0","null","<p></p>","null","","","","","","","","","","","","","","","","","","",""
"","do_trial","470","1520793","0.0-250.0-0.0","84.80000019073486","","","","49","1,1,0","5","countryside","191","probe-169","0.11878832459702719","1","0.3443499924287104","1","","","","","","","",""
"","html-keyboard-response","471","1521799","0.0-250.0-1.0","null","<p></p>","null","","","","","","","","","","","","","","","","","","",""
"","do_trial","472","1526385","0.0-251.0-0.0","0.09999990463256836","","","","49","0,1,0","5","countryside","192","probe-138","0.13827171668263383","0.7004399718063432","0.38423029006286713","0","","","","","","","",""
"","html-keyboard-response","473","1527391","0.0-251.0-1.0","null","<p></p>","null","","","","","","","","","","","","","","","","","","",""
"","do_trial","474","1532885","0.0-252.0-0.0","934.5","","","","49","0,0,1","5","countryside","193","probe-11","0.05986960743333733","0.6067349056820424","0.3482614471978159","0","","","","","","","",""
"","html-keyboard-response","475","1533901","0.0-252.0-1.0","null","<p></p>","null","","","","","","","","","","","","","","","","","","",""
"","do_trial","476","1538755","0.0-253.0-0.0","235.20000004768372","","","","49","0,1,1","5","countryside","194","probe-218","0.1424999721041443","0.6357390829823026","0.3559257537869611","0","","","","","","","",""
"","html-keyboard-response","477","1539764","0.0-253.0-1.0","null","<p></p>","null","","","","","","","","","","","","","","","","","","",""
"","do_trial","478","1544580","0.0-254.0-0.0","241.89999985694885","","","","50","0,1,0","5","countryside","195","probe-42","0.10536185259537227","0.7410319526700399","0.39074799120537346","1","","","","","","","",""
"","html-keyboard-response","479","1545595","0.0-254.0-1.0","null","<p></p>","null","","","","","","","","","","","","","","","","","","",""
"","do_trial","480","1550468","0.0-255.0-0.0","249","","","","50","0,1,1","5","countryside","196","probe-68","0.1606433524254237","0.6462619577755697","0.2825847107631394","1","","","","","","","",""
"","html-keyboard-response","481","1551472","0.0-255.0-1.0","null","<p></p>","null","","","","","","","","","","","","","","","","","","",""
"","do_trial","482","1556353","0.0-256.0-0.0","260.60000014305115","","","","50","0,1,0","5","countryside","197","probe-33","0.0860157216987814","0.7002220403809466","0.2052237074239469","1","","","","","","","",""
"","html-keyboard-response","483","1557364","0.0-256.0-1.0","null","<p></p>","null","","","","","","","","","","","","","","","","","","",""
"","do_trial","484","1562187","0.0-257.0-0.0","265.2000000476837","","","","50","1,1,1","5","countryside","198","probe-41","0.15399306847866442","0.5971654498090115","0.2762767662942957","1","","","","","","","",""
"","html-keyboard-response","485","1563195","0.0-257.0-1.0","null","<p></p>","null","","","","","","","","","","","","","","","","","","",""
"","do_trial","486","1567886","0.0-258.0-0.0","88.09999990463257","","","","50","0,1,1","5","countryside","199","probe-57","0.1606500469797419","0.6081705852011206","0.10135819549029079","1","","","","","","","",""
"","html-keyboard-response","487","1568903","0.0-258.0-1.0","null","<p></p>","null","","","","","","","","","","","","","","","","","","",""
"","do_trial","488","1573827","0.0-259.0-0.0","301.7999999523163","","","","50","0,0,0","5","countryside","200","probe-106","0.18593605849222272","0.6284736811422904","0.10687279585154055","0","","","","","","","",""
"","html-keyboard-response","489","1574830","0.0-259.0-1.0","null","<p></p>","null","","","","","","","","","","","","","","","","","","",""
"","do_trial","490","1579978","0.0-260.0-0.0","578.8999998569489","","","","50","0,1,0","5","countryside","201","probe-46","0.2774274548150676","0.6570863574770963","0.1457654344323262","1","","","","","","","",""
"","html-keyboard-response","491","1580991","0.0-260.0-1.0","null","<p></p>","null","","","","","","","","","","","","","","","","","","",""
"","do_trial","492","1586085","0.0-261.0-0.0","520.4000000953674","","","","50","0,0,1","5","countryside","202","probe-06","0.31245341836001367","0.3754949087357721","0.42208916250382367","0","","","","","","","",""
"","html-keyboard-response","493","1587091","0.0-261.0-1.0","null","<p></p>","null","","","","","","","","","","","","","","","","","","",""
"","do_trial","494","1591965","0.0-262.0-0.0","317.80000019073486","","","","50","0,1,1","5","countryside","203","probe-114","0.29760630211463984","0.23787358616153648","0.3760695756966894","1","","","","","","","",""
"","html-keyboard-response","495","1592976","0.0-262.0-1.0","null","<p></p>","null","","","","","","","","","","","","","","","","","","",""
"","do_trial","496","1597912","0.0-263.0-0.0","329.60000014305115","","","","50","1,0,1","5","countryside","204","probe-190","0.3389137752362708","0.14282741477713695","0.3250789287066162","0","","","","","","","",""
"","html-keyboard-response","497","1598921","0.0-263.0-1.0","null","<p></p>","null","","","","","","","","","","","","","","","","","","",""
"","do_trial","498","1603771","0.0-264.0-0.0","225.09999990463257","","","","50","0,0,1","5","countryside","205","probe-103","0.2942844348395379","0.09150428101082371","0.4275041142104881","0","","","","","","","",""
"","html-keyboard-response","499","1604783","0.0-264.0-1.0","null","<p></p>","null","","","","","","","","","","","","","","","","","","",""
"","do_trial","500","1609921","0.0-265.0-0.0","514.5","","","","50","1,0,1","5","countryside","206","probe-24","0.4430187025876615","0.09869861292802262","0.42221535030614493","0","","","","","","","",""
"","html-keyboard-response","501","1610928","0.0-265.0-1.0","null","<p></p>","null","","","","","","","","","","","","","","","","","","",""
"","do_trial","502","1615771","0.0-266.0-0.0","216.40000009536743","","","","50","0,0,0","5","countryside","207","probe-80","0.5571458260247429","0.06771266534934277","0.42706166290011816","0","","","","","","","",""
"","html-keyboard-response","503","1616775","0.0-266.0-1.0","null","<p></p>","null","","","","","","","","","","","","","","","","","","",""
"","do_trial","504","1621798","0.0-267.0-0.0","448.10000014305115","","","","50","0,0,1","5","countryside","208","probe-156","0.29608983662660665","0.1267356170841338","0.5665638636801036","0","","","","","","","",""
"","html-keyboard-response","505","1622815","0.0-267.0-1.0","null","<p></p>","null","","","","","","","","","","","","","","","","","","",""
"","do_trial","506","1627748","0.0-268.0-0.0","366.7999999523163","","","","50","1,0,1","5","countryside","209","probe-223","0.40257209131576405","0.18451635229583727","0.6192649500962008","0","","","","","","","",""
"","html-keyboard-response","507","1628762","0.0-268.0-1.0","null","<p></p>","null","","","","","","","","","","","","","","","","","","",""
"","do_trial","508","1633542","0.0-269.0-0.0","206.20000004768372","","","","50","1,1,1","5","countryside","210","probe-224","0.3327338898716257","0.06297108021963949","0.5315671371642949","1","","","","","","","",""
"","html-keyboard-response","509","1634550","0.0-269.0-1.0","null","<p></p>","null","","","","","","","","","","","","","","","","","","",""
"","do_trial","510","1639518","0.0-270.0-0.0","348.90000009536743","","","","50","0,0,0","5","countryside","211","probe-228","0.40447527006713657","0.10601014719610972","0.44727172876504173","0","","","","","","","",""
"","html-keyboard-response","511","1640530","0.0-270.0-1.0","null","<p></p>","null","","","","","","","","","","","","","","","","","","",""
"","do_trial","512","1645149","0.0-271.0-0.0","64.70000004768372","","","","50","1,0,1","5","countryside","212","probe-16","0.4402924372671448","0.15450311436122086","0.5813952114562289","0","","","","","","","",""
"","html-keyboard-response","513","1646161","0.0-271.0-1.0","null","<p></p>","null","","","","","","","","","","","","","","","","","","",""
"","do_trial","514","1650775","0.0-272.0-0.0","0.20000004768371582","","","","50","0,0,1","5","countryside","213","probe-29","0.300439627482536","0.10552082252999911","0.640907150378886","0","","","","","","","",""
"","html-keyboard-response","515","1651778","0.0-272.0-1.0","null","<p></p>","null","","","","","","","","","","","","","","","","","","",""
"","do_trial","516","1656794","0.0-273.0-0.0","449.69999980926514","","","","51","1,0,1","5","countryside","214","probe-105","0.22094019327681452","0.06694724158475798","0.6503754857299278","1","","","","","","","",""
"","html-keyboard-response","517","1657805","0.0-273.0-1.0","null","<p></p>","null","","","","","","","","","","","","","","","","","","",""
"","do_trial","518","1662805","0.0-274.0-0.0","434.40000009536743","","","","51","0,0,0","5","countryside","215","probe-95","0.09999587625889557","0.06825649393398901","0.6092356897907542","0","","","","","","","",""
"","html-keyboard-response","519","1663809","0.0-274.0-1.0","null","<p></p>","null","","","","","","","","","","","","","","","","","","",""
"","do_trial","520","1668945","0.0-275.0-0.0","574.7000000476837","","","","51","0,0,1","5","countryside","216","probe-45","0.13512071897741756","0.12805282144809263","0.6136831080275755","1","","","","","","","",""
"","html-keyboard-response","521","1669951","0.0-275.0-1.0","null","<p></p>","null","","","","","","","","","","","","","","","","","","",""
"","do_trial","522","1674727","0.0-276.0-0.0","216.70000004768372","","","","51","0,0,1","5","countryside","217","probe-19","0.22263528945108127","0.15177839854045208","0.5542306980787601","1","","","","","","","",""
"","html-keyboard-response","523","1675731","0.0-276.0-1.0","null","<p></p>","null","","","","","","","","","","","","","","","","","","",""
"","do_trial","524","1680445","0.0-277.0-0.0","92","","","","51","0,0,1","5","countryside","218","probe-116","0.3357130187892686","0.08319657565678723","0.5871919314628119","1","","","","","","","",""
"","html-keyboard-response","525","1681447","0.0-277.0-1.0","null","<p></p>","null","","","","","","","","","","","","","","","","","","",""
"","do_trial","526","1686198","0.0-278.0-0.0","132","","","","51","0,0,1","5","countryside","219","probe-174","0.2943648440871018","0.07309016697836786","0.6080949651869179","1","","","","","","","",""
"","html-keyboard-response","527","1687201","0.0-278.0-1.0","null","<p></p>","null","","","","","","","","","","","","","","","","","","",""
"","do_trial","528","1691802","0.0-279.0-0.0","0.20000004768371582","","","","51","0,0,1","5","countryside","220","probe-183","0.2582855762371808","0.10259173957845188","0.7553973514962253","1","","","","","","","",""
"","html-keyboard-response","529","1692818","0.0-279.0-1.0","null","<p></p>","null","","","","","","","","","","","","","","","","","","",""
"","do_trial","530","1697984","0.0-280.0-0.0","603.2999999523163","","","","51","0,1,0","5","countryside","221","probe-65","0.3964700821861713","0.1965231968560498","0.5385032121425621","0","","","","","","","",""
"","html-keyboard-response","531","1698995","0.0-280.0-1.0","null","<p></p>","null","","","","","","","","","","","","","","","","","","",""
