"success","trial_type","trial_index","time_elapsed","internal_node_id","rt","stimulus","key_press","subject_id","response","choice_outcomes","context_n","context_img_id","trial_n","probe_img_id","pR_red","pR_white","pR_black","outcome","contextArray_ind","validImageProbes","invalidImageProbes","pRew_Red","pRew_White","pRew_Black","availableForMemProbe","choice_blocks"
"true","fullscreen","0","4209","0.0-0.0","","","","","","","","","","","","","","","","","","","","","",""
"","pavlovia","1","4214","0.0-1.0","","","","","","","","","","","","","","","","","","","","","",""
"","html-keyboard-response","2","29892","0.0-2.0","25677.19999998808","<div class='center'><p>Welcome! This is the first day of the experiment which will last ~30 minutes. In this experiment, you are the head captain of a pirate ship traveling around the world to different places. You will complete several different tasks during this experiment. Here is an overview of these tasks:</p><br><p>Day 1</p><p>1. Tutorial and quiz</p><p>2. Pick a pirate game in 6 different places</p><br><p>Day 2</p><p>3. Pick a pirate game and memory game</p><p>4. Final questions and payment</p><br><p>If you complete the entire experiment, you will receive $15 and a possible bonus payment.</p><p><b>[Press the space bar to begin the tutorial]</b></p></div>","32","61748826c72e5c62b101a8cd","","","","","","","","","","","","","","","","","",""
"","html-keyboard-response","3","40322","0.0-3.0","10428.699999988079","<div class='center'><p>You’ll stop at these 6 islands on your journey. You'll be able to see them in the distance from your ship.</p><p><img src='run_exp/static/images/contexts/all_contexts.png' height='500'></p><p><b>[Press the space bar to continue]</b></p></div>","32","","","","","","","","","","","","","","","","","","",""
"","html-keyboard-response","4","55682","0.0-4.0","15359.200000047684","<div class='center'><p> The pirates on your ship will rob other ships as they leave island</p> These ships have just sold their things to the people living on the island, so they will have lots and lots of gold on them.</p><p><img src='run_exp/static/images/tutorial/ship_center.png' height='400'></p><p><b>[Press the space bar to continue]</b></p></div>","32","","","","","","","","","","","","","","","","","","",""
"","html-keyboard-response","5","74410","0.0-5.0","18725.899999976158","<div class='center'><p>As the head captain, you do not have to rob any ships yourself.</p><p>Another pirate will be doing the robbing for you. </p><p><img src='run_exp/static/images/tutorial/pirates_all_crop.png' height='200'></p><p>If they could rob the ship, then you will get a stack of gold coins like this:</p><p><img src='run_exp/static/images/tutorial/reward.png' height='150'></p><p> If they couldn't rob the ship, then you will get no gold coins and you'll see a big red x like this: </p><p><img src='run_exp/static/images/tutorial/reward_no.png' height='150'></p><p> How much bonus money you make is based on how many gold coins you collect.</p><p><b>[Press the space bar to continue]</b></p><div>","32","","","","","","","","","","","","","","","","","","",""
"","html-keyboard-response","6","164595","0.0-6.0","90182.30000001192","<div class='center'><p>Even the most skilled pirate can not rob EVERY ship.</p><p> Some ships will have very strong defenses against pirate attacks.</p><p> For example, blue beard, here, is very, very good at robbing ships.</p><p> You can press the <b>‘1’</b> button on the keyboard to choose him.</p><p> Try choosing him 10 times to see how often he can rob a ship. </p><p><img src='run_exp/static/images/tutorial/blue.png' height='500'></p></div>","49","","","","","","","","","","","","","","","","","","",""
"","html-keyboard-response","7","166097","0.0-7.0","null","<div class='center'><p><img src='run_exp/static/images/tutorial/blue_win.png' height='500'></p></div>","null","","","","","","","","","","","","","","","","","","",""
"","html-keyboard-response","8","169634","0.0-8.0","3535.100000023842","<div class='center'><img src='run_exp/static/images/tutorial/blue.png' height='500'></p></div>","49","","","","","","","","","","","","","","","","","","",""
"","html-keyboard-response","9","171137","0.0-9.0","null","<div class='center'><p><img src='run_exp/static/images/tutorial/blue_win.png' height='500'></p></div>","null","","","","","","","","","","","","","","","","","","",""
"","html-keyboard-response","10","172346","0.0-10.0","1207.3999999761581","<div class='center'><img src='run_exp/static/images/tutorial/blue.png' height='500'></p></div>","49","","","","","","","","","","","","","","","","","","",""
"","html-keyboard-response","11","173848","0.0-11.0","null","<div class='center'><p><img src='run_exp/static/images/tutorial/blue_win.png' height='500'></p></div>","null","","","","","","","","","","","","","","","","","","",""
"","html-keyboard-response","12","174995","0.0-12.0","1145.699999988079","<div class='center'><img src='run_exp/static/images/tutorial/blue.png' height='500'></p></div>","49","","","","","","","","","","","","","","","","","","",""
"","html-keyboard-response","13","176496","0.0-13.0","null","<div class='center'><p><img src='run_exp/static/images/tutorial/blue_no_win.png' height='500'></p></div>","null","","","","","","","","","","","","","","","","","","",""
"","html-keyboard-response","14","178361","0.0-14.0","1863.8999999761581","<div class='center'><img src='run_exp/static/images/tutorial/blue.png' height='500'></p></div>","49","","","","","","","","","","","","","","","","","","",""
"","html-keyboard-response","15","179863","0.0-15.0","null","<div class='center'><p><img src='run_exp/static/images/tutorial/blue_win.png' height='500'></p></div>","null","","","","","","","","","","","","","","","","","","",""
"","html-keyboard-response","16","180648","0.0-16.0","784.8000000119209","<div class='center'><img src='run_exp/static/images/tutorial/blue.png' height='500'></p></div>","49","","","","","","","","","","","","","","","","","","",""
"","html-keyboard-response","17","182150","0.0-17.0","null","<div class='center'><p><img src='run_exp/static/images/tutorial/blue_win.png' height='500'></p></div>","null","","","","","","","","","","","","","","","","","","",""
"","html-keyboard-response","18","182930","0.0-18.0","778.8999999761581","<div class='center'><img src='run_exp/static/images/tutorial/blue.png' height='500'></p></div>","49","","","","","","","","","","","","","","","","","","",""
"","html-keyboard-response","19","184431","0.0-19.0","null","<div class='center'><p><img src='run_exp/static/images/tutorial/blue_win.png' height='500'></p></div>","null","","","","","","","","","","","","","","","","","","",""
"","html-keyboard-response","20","185138","0.0-20.0","707.1000000238419","<div class='center'><img src='run_exp/static/images/tutorial/blue.png' height='500'></p></div>","49","","","","","","","","","","","","","","","","","","",""
"","html-keyboard-response","21","186640","0.0-21.0","null","<div class='center'><p><img src='run_exp/static/images/tutorial/blue_no_win.png' height='500'></p></div>","null","","","","","","","","","","","","","","","","","","",""
"","html-keyboard-response","22","187282","0.0-22.0","641.5","<div class='center'><img src='run_exp/static/images/tutorial/blue.png' height='500'></p></div>","49","","","","","","","","","","","","","","","","","","",""
"","html-keyboard-response","23","188783","0.0-23.0","null","<div class='center'><p><img src='run_exp/static/images/tutorial/blue_win.png' height='500'></p></div>","null","","","","","","","","","","","","","","","","","","",""
"","html-keyboard-response","24","189354","0.0-24.0","569.3000000119209","<div class='center'><img src='run_exp/static/images/tutorial/blue.png' height='500'></p></div>","49","","","","","","","","","","","","","","","","","","",""
"","html-keyboard-response","25","190855","0.0-25.0","null","<div class='center'><p><img src='run_exp/static/images/tutorial/blue_win.png' height='500'></p></div>","null","","","","","","","","","","","","","","","","","","",""
"","html-keyboard-response","26","211801","0.0-26.0","20945.5","<div class='center'><p> See, he could rob the ships most of the time but not every time. </p><p><b>[Press the space bar to continue]</b></p></div>","32","","","","","","","","","","","","","","","","","","",""
"","html-keyboard-response","27","230450","0.0-27.0","18648.099999964237","<div class='center'><p>You will get to choose which of three pirates you want to rob the next ship. <p>Press the <b>‘1’</b> button on your keyboard to pick the pirate with the red beard.</p><p> Press <b>‘2’</b> to pick the pirate with the white beard.</p><p> Press <b>‘3’</b> to pick the pirate with the black beard.</p><p>Try picking a pirate now!</p><p><img src='run_exp/static/images/tutorial/all_pirates.png' height='500'></p></div>","49","","","","","","","","","","","","","","","","","","",""
"","html-keyboard-response","28","241960","0.0-28.0-0.0","11507.599999964237","<div class='center'><p>This pirate could rob the ship!</p><p><img src='run_exp/static/images/tutorial/red_win.png' height='500'></p><p><b>[Press the space bar to continue]</b></p></div>","32","","","","","","","","","","","","","","","","","","",""
"","html-keyboard-response","29","247762","0.0-28.0-1.0","5800.5","<div class='center'><p>Now try choosing another</p><p><img src='run_exp/static/images/tutorial/all_pirates.png' height='500'></p></div>","50","","","","","","","","","","","","","","","","","","",""
"","html-keyboard-response","30","251681","0.0-29.0-0.0","3917.5","<div class='center'><p>This pirate could not rob the ship!</p><p><img src='run_exp/static/images/tutorial/white_no_win.png' height='500'></p><p><b>[Press the space bar to continue]</b></p></div>","32","","","","","","","","","","","","","","","","","","",""
"","html-keyboard-response","31","251793","0.0-30.0-0.0","110.5","<div class='center'><p>If you don’t make your choice fast enough, you’ll have to wait a few seconds before you can make another one. </p><p>You can’t collect more gold coins. You just have to sit and wait.</p><p><img src='run_exp/static/images/miscellaneous/hurry_up.png' height='500'></p><p><b>[Press the space bar to continue]</b></p></div>","32","","","","","","","","","","","","","","","","","","",""
"","html-keyboard-response","32","343954","0.0-30.0-1.0","92160.80000001192","<div class='center'><p>Once you choose a pirate, you’ll be shown the ship they are robbing.</p><p>You will never rob the same ship twice.</p><p>Ships can be told apart from one another by the image on them.</p><p> Every time you see a ship, you will have to remember on which island you saw it.</p><p> Remembering correctly will help you win more bonus money!</p><p>A helpful strategy is to try to come up with a story of the object on the ship interacting with the current island scene.</p><p> For example, here, you could imagine a mug full of water in the desert. </p><p>For a ship with an apple on it on the forest island, you could imagine an apple falling from a tree in the forest.</p><p><img src='run_exp/static/images/tutorial/example_probe.png' height='500'></p><p><b>[Press the space bar to continue]</b></p></div>","32","","","","","","","","","","","","","","","","","","",""
"","html-keyboard-response","33","414849","0.0-30.0-2.0","70894","<div class='center'><p>How good a pirate is at robbing ships will depend on the current island.</p><p> A pirate may have visited the island many times before and gained a lot of practice robbing ships there.</p><p>So, they're more likely to bring back gold coins than a pirate who has never visited this island before. </p><p><b>[Press the space bar to continue]</b></p></div>","32","","","","","","","","","","","","","","","","","","",""
"","html-keyboard-response","34","450729","0.0-30.0-3.0","35879","<div class='center'><p>How good a pirate is at robbing ships can also change over the time spent on the island<p> Ships may hear from islanders about the pirates coming and will improve their protection against the attack. This may make it harder to rob them.</p><p> Ships may also become lazy and lower their protection. This may make it easier to rob them.</p><br><p>Things are always changing on the high seas! So, try your best to pay attention!</p><p><img src='run_exp/static/images/tutorial/contingency.png' height='500'></p><p><b>[Press the space bar to continue]</b></p></div>","32","","","","","","","","","","","","","","","","","","",""
"","html-keyboard-response","35","502402","0.0-30.0-4.0","51671.299999952316","<div class='center'><p>Let's go over the instructions quickly again.You have two important things to do: </p><b><p> 1. Pick the pirate who is the best at robbing ships on the current island.</p></b><b><p> 2. Remember on which island a ship was robbed.</p> </b><p>How much bonus money you make is based on both. </p><br><p>Let’s try a practice game. The game will start by showing you the pirates. First pick a pirate using the <b> 1, 2, 3 </b> buttons on your keyboard. When you are shown a ship, try to remember the island you’re on by making up a story.</p><p> You only have 3 seconds to pick a pirate, so please make a choice quickly! If you are too slow, you’ll have to wait a bit during the time out.</p><p> Don’t feel rushed, but please do try to make a choice every time.</p><p>This is just a practice game, so you’re not playing for money. </p><p> Good luck, remember press <b>'1'</b> to choose red beard, <b>'2'</b> to choose white beard, and <b>'3'</b> to choose black beard</p><p><b>[Press the space bar to begin the practice game]</b></p></div>","32","","","","","","","","","","","","","","","","","","",""
"","do_welcome","36","503910","0.0-30.0-5.0","null","","","","null","","","","","","","","","","","","","","","","",""
"","do_trial","37","509920","0.0-30.0-6.0","null","","","","null","1,0,0","","","","","","","","","","","","","","","",""
"","html-keyboard-response","38","510922","0.0-31.0-0.0","null","<p></p>","null","","","","","","","","","","","","","","","","","","",""
"","do_trial","39","516857","0.0-31.0-1.0","1424.4000000357628","","","","50","1,0,0","","","","","","","","","","","","","","","",""
"","html-keyboard-response","40","517858","0.0-32.0-0.0","null","<p></p>","null","","","","","","","","","","","","","","","","","","",""
"","do_trial","41","524494","0.0-32.0-1.0","2129.2999999523163","","","","49","1,1,0","","","","","","","","","","","","","","","",""
"","html-keyboard-response","42","525495","0.0-33.0-0.0","null","<p></p>","null","","","","","","","","","","","","","","","","","","",""
"","do_trial","43","532574","0.0-33.0-1.0","2575.400000035763","","","","51","1,0,1","","","","","","","","","","","","","","","",""
"","html-keyboard-response","44","533576","0.0-34.0-0.0","null","<p></p>","null","","","","","","","","","","","","","","","","","","",""
"","do_trial","45","539582","0.0-34.0-1.0","null","","","","null","0,1,0","","","","","","","","","","","","","","","",""
"","html-keyboard-response","46","540584","0.0-35.0-0.0","null","<p></p>","null","","","","","","","","","","","","","","","","","","",""
"","do_trial","47","546206","0.0-35.0-1.0","1118.2999999523163","","","","51","0,1,0","","","","","","","","","","","","","","","",""
"","html-keyboard-response","48","547208","0.0-36.0-0.0","null","<p></p>","null","","","","","","","","","","","","","","","","","","",""
"","do_trial","49","553319","0.0-36.0-1.0","1599.699999988079","","","","50","1,0,0","","","","","","","","","","","","","","","",""
"","do_bye","50","554826","0.0-37.0-0.0","null","","","","null","","","","","","","","","","","","","","","","",""
"","do_travel","51","560829","0.0-37.0-1.0","null","","","","null","","","","","","","","","","","","","","","","",""
"","do_welcome","52","562337","0.0-37.0-2.0","null","","","","null","","","","","","","","","","","","","","","","",""
"","do_trial","53","568774","0.0-37.0-3.0","1929.800000011921","","","","50","1,0,0","","","","","","","","","","","","","","","",""
"","html-keyboard-response","54","569776","0.0-38.0-0.0","null","<p></p>","null","","","","","","","","","","","","","","","","","","",""
"","do_trial","55","575471","0.0-38.0-1.0","1186.800000011921","","","","49","1,0,1","","","","","","","","","","","","","","","",""
"","html-keyboard-response","56","576474","0.0-39.0-0.0","null","<p></p>","null","","","","","","","","","","","","","","","","","","",""
"","do_trial","57","582191","0.0-39.0-1.0","1206.0999999642372","","","","49","1,1,0","","","","","","","","","","","","","","","",""
"","html-keyboard-response","58","583193","0.0-40.0-0.0","null","<p></p>","null","","","","","","","","","","","","","","","","","","",""
"","do_trial","59","588958","0.0-40.0-1.0","1256.800000011921","","","","49","0,0,1","","","","","","","","","","","","","","","",""
"","html-keyboard-response","60","589961","0.0-41.0-0.0","null","<p></p>","null","","","","","","","","","","","","","","","","","","",""
"","do_trial","61","596398","0.0-41.0-1.0","1930","","","","51","1,0,1","","","","","","","","","","","","","","","",""
"","html-keyboard-response","62","601562","0.0-42.0-0.0","5161.699999988079","<div class='center'><p><img src='run_exp/static/images/tutorial/prac_best_pirate.png'  height='500'></p></div>","49","","","","","","","","","","","","","","","","","","",""
"","html-keyboard-response","63","603673","0.0-43.0-0.0","2109.300000011921","<div class='center'><p>That's correct! Red beard was the best.</p><p><b>[Press the space bar to continue]</b></p></div>","32","","","","","","","","","","","","","","","","","","",""
"","html-keyboard-response","64","610649","0.0-43.0-1.0","6974.699999988079","<div class='center'><p><img src='run_exp/static/images/tutorial/prac_source.png'  height='500'></p></div>","50","","","","","","","","","","","","","","","","","","",""
"","html-keyboard-response","65","612803","0.0-44.0-0.0","2153","<div class='center'><p>That's correct! You saw this ship on the cavern island.</p><p><b>[Press the space bar to continue]</b></p></div>","32","","","","","","","","","","","","","","","","","","",""
"","html-keyboard-response","66","623898","0.0-44.0-1.0","11094.799999952316","<div class='center'><p>Good job on the practice game! Now, you will be asked you some true or false questions to make sure you really understand the rules of the game.</p><p> Press <b>'1'</b> on the keyboard for true and press <b>'2'</b> for false.</p><p><b>[Press the space bar to begin the quiz]</b></p></div>","32","","","","","","","","","","","","","","","","","","",""
"","html-keyboard-response","67","627610","0.0-44.0-2.0","3710.099999964237","<div class='center'><p>You win bonus money by making choices as fast as possible.</p><p>Press 1 for true and press  2 for false.</p></div>","50","","","","","","","","","","","","","","","","","","",""
"","html-keyboard-response","68","630296","0.0-45.0-0.0","2685.399999976158","<div class='center'><p>That's correct!</p> <p><b>[press the space bar to continue with the quiz]</b></p></div>","32","","","","","","","","","","","","","","","","","","",""
"","html-keyboard-response","69","635537","0.0-45.0-1.0","5239.899999976158","<div class='center'><p>You press the <b>‘3’</b> button on the keyboard to choose the red bearded pirate. </p><p>Press 1 for true and press  2 for false.</p></div>","50","","","","","","","","","","","","","","","","","","",""
"","html-keyboard-response","70","636785","0.0-46.0-0.0","1246.800000011921","<div class='center'><p>That's correct!</p> <p><b>[press the space bar to continue with the quiz]</b></p></div>","32","","","","","","","","","","","","","","","","","","",""
"","html-keyboard-response","71","643338","0.0-46.0-1.0","6552.5","<div class='center'><p>The pirate who is the best at robbing ships on the first island will be the best on every other island.</p><p>Press 1 for true and press  2 for false.</p></div>","50","","","","","","","","","","","","","","","","","","",""
"","html-keyboard-response","72","646066","0.0-47.0-0.0","2727.100000023842","<div class='center'><p>That's correct!</p> <p><b>[press the space bar to continue with the quiz]</b></p></div>","32","","","","","","","","","","","","","","","","","","",""
"","html-keyboard-response","73","651506","0.0-47.0-1.0","5438.299999952316","<div class='center'><p>You should remember the island where a pirate robbed a ship.</p><p>Press 1 for true and press  2 for false.</p></div>","49","","","","","","","","","","","","","","","","","","",""
"","html-keyboard-response","74","653970","0.0-48.0-0.0","2455.399999976158","<div class='center'><p>That's correct!</p> <p><b>[press the space bar to continue with the quiz]</b></p></div>","32","","","","","","","","","","","","","","","","","","",""
"","html-keyboard-response","75","656275","0.0-49.0-0.0","2303.7999999523163","<div class='center'><p>Good job! You’re now ready to move on to the real game!</p> <p><br>[press the space bar to begin!]</br></p></div>","32","","","","","","","","","","","","","","","","","","",""
"","do_welcome","76","657782","0.0-50.0-0.0","null","","","","null","","","","","","","","","","","","","","","","",""
"","do_trial","77","664614","0.0-51.0-0.0","2294.5","","","","49","1,0,0","0","coast","0","probe-180","0.6","0.3","0.1","1","","","","","","","",""
"","html-keyboard-response","78","665617","0.0-51.0-1.0","null","<p></p>","null","","","","","","","","","","","","","","","","","","",""
"","do_trial","79","671184","0.0-52.0-0.0","1027.199999988079","","","","49","1,0,0","0","coast","1","probe-45","0.5901483923311264","0.340309165377327","0.12125831120644957","1","","","","","","","",""
"","html-keyboard-response","80","672187","0.0-52.0-1.0","null","<p></p>","null","","","","","","","","","","","","","","","","","","",""
"","do_trial","81","677927","0.0-53.0-0.0","1200.8999999761581","","","","49","1,1,1","0","coast","2","probe-199","0.6816671905363476","0.31996117034605387","0.12492241979198206","1","","","","","","","",""
"","html-keyboard-response","82","678929","0.0-53.0-1.0","null","<p></p>","null","","","","","","","","","","","","","","","","","","",""
"","do_trial","83","684479","0.0-54.0-0.0","1010.8000000119209","","","","49","0,0,0","0","coast","3","probe-216","0.5699758514650882","0.24407033776226233","0.17025966110789845","0","","","","","","","",""
"","html-keyboard-response","84","685481","0.0-54.0-1.0","null","<p></p>","null","","","","","","","","","","","","","","","","","","",""
"","do_trial","85","691518","0.0-55.0-0.0","1497.7999999523163","","","","50","1,0,0","0","coast","4","probe-131","0.731945135481229","0.18521141849999942","0.18627540208162188","0","","","","","","","",""
"","html-keyboard-response","86","692520","0.0-55.0-1.0","null","<p></p>","null","","","","","","","","","","","","","","","","","","",""
"","do_trial","87","698487","0.0-56.0-0.0","1423.5","","","","51","1,1,0","0","coast","5","probe-139","0.7610709823108903","0.43766554959726295","0.20603983492628464","0","","","","","","","",""
"","html-keyboard-response","88","699490","0.0-56.0-1.0","null","<p></p>","null","","","","","","","","","","","","","","","","","","",""
"","do_trial","89","705110","0.0-57.0-0.0","1080.6000000238419","","","","49","0,1,0","0","coast","6","probe-167","0.7259263656048179","0.2477290187232763","0.067626738431994","0","","","","","","","",""
"","html-keyboard-response","90","706112","0.0-57.0-1.0","null","<p></p>","null","","","","","","","","","","","","","","","","","","",""
"","do_trial","91","711735","0.0-58.0-0.0","1085","","","","49","0,0,0","0","coast","7","probe-52","0.6828219815176257","0.39199054482040907","0.06800809087240753","0","","","","","","","",""
"","html-keyboard-response","92","712737","0.0-58.0-1.0","null","<p></p>","null","","","","","","","","","","","","","","","","","","",""
"","do_trial","93","718559","0.0-59.0-0.0","1282.9000000357628","","","","50","0,0,1","0","coast","8","probe-71","0.7001716087133784","0.29493286689226206","0.05393097227405177","0","","","","","","","",""
"","html-keyboard-response","94","719562","0.0-59.0-1.0","null","<p></p>","null","","","","","","","","","","","","","","","","","","",""
"","do_trial","95","725151","0.0-60.0-0.0","1031.5","","","","51","1,0,1","0","coast","9","probe-13","0.6648883694199358","0.3255587833353748","0.05831830325050593","1","","","","","","","",""
"","html-keyboard-response","96","726153","0.0-60.0-1.0","null","<p></p>","null","","","","","","","","","","","","","","","","","","",""
"","do_trial","97","731887","0.0-61.0-0.0","1195.7999999523163","","","","51","0,0,0","0","coast","10","probe-58","0.6272593240681578","0.22567219957991932","0.06664001661580538","0","","","","","","","",""
"","html-keyboard-response","98","732889","0.0-61.0-1.0","null","<p></p>","null","","","","","","","","","","","","","","","","","","",""
"","do_trial","99","738552","0.0-62.0-0.0","1122.8999999761581","","","","49","0,1,0","0","coast","11","probe-150","0.6065386248208691","0.29041693542694474","0.0966306168542203","0","","","","","","","",""
"","html-keyboard-response","100","739554","0.0-62.0-1.0","null","<p></p>","null","","","","","","","","","","","","","","","","","","",""
"","do_trial","101","745381","0.0-63.0-0.0","1287.9000000357628","","","","51","0,0,0","0","coast","12","probe-202","0.6261027681880221","0.21277524155403235","0.05048479426152715","0","","","","","","","",""
"","html-keyboard-response","102","746383","0.0-63.0-1.0","null","<p></p>","null","","","","","","","","","","","","","","","","","","",""
"","do_trial","103","752071","0.0-64.0-0.0","1149.6000000238419","","","","50","0,0,0","0","coast","13","probe-87","0.5964836299062515","0.2924000177368562","0.11588593617471174","0","","","","","","","",""
"","html-keyboard-response","104","753073","0.0-64.0-1.0","null","<p></p>","null","","","","","","","","","","","","","","","","","","",""
"","do_trial","105","758742","0.0-65.0-0.0","1130.5","","","","49","0,1,1","0","coast","14","probe-206","0.6729435030633033","0.3987481942605978","0.12749512068658564","0","","","","","","","",""
"","html-keyboard-response","106","759744","0.0-65.0-1.0","null","<p></p>","null","","","","","","","","","","","","","","","","","","",""
"","do_trial","107","765295","0.0-66.0-0.0","1012.1999999880791","","","","49","1,0,0","0","coast","15","probe-173","0.5790820550324692","0.3532984803886137","0.16249947739699808","1","","","","","","","",""
"","html-keyboard-response","108","766297","0.0-66.0-1.0","null","<p></p>","null","","","","","","","","","","","","","","","","","","",""
"","do_trial","109","771790","0.0-67.0-0.0","954.6000000238419","","","","49","0,0,1","0","coast","16","probe-57","0.5064686794176108","0.45456693010040566","0.21828408788231102","0","","","","","","","",""
"","html-keyboard-response","110","772793","0.0-67.0-1.0","null","<p></p>","null","","","","","","","","","","","","","","","","","","",""
"","do_trial","111","778208","0.0-68.0-0.0","876","","","","49","0,0,0","0","coast","17","probe-99","0.6252724693215493","0.31269601458460555","0.21210473488707213","0","","","","","","","",""
"","html-keyboard-response","112","779209","0.0-68.0-1.0","null","<p></p>","null","","","","","","","","","","","","","","","","","","",""
"","do_trial","113","785150","0.0-69.0-0.0","1403.199999988079","","","","51","1,0,0","0","coast","18","probe-170","0.5877387766308918","0.22583779947169114","0.22273835270754433","0","","","","","","","",""
"","html-keyboard-response","114","786151","0.0-69.0-1.0","null","<p></p>","null","","","","","","","","","","","","","","","","","","",""
"","do_trial","115","791439","0.0-70.0-0.0","749.6999999880791","","","","50","1,0,0","0","coast","19","probe-37","0.6295045014962904","0.2666288259977739","0.10851985001490519","0","","","","","","","",""
"","html-keyboard-response","116","792440","0.0-70.0-1.0","null","<p></p>","null","","","","","","","","","","","","","","","","","","",""
"","do_trial","117","798111","0.0-71.0-0.0","1131.800000011921","","","","49","1,0,0","0","coast","20","probe-76","0.6930256151189833","0.3022991168801287","0.08101082333392125","1","","","","","","","",""
"","html-keyboard-response","118","799113","0.0-71.0-1.0","null","<p></p>","null","","","","","","","","","","","","","","","","","","",""
"","do_trial","119","806078","0.0-72.0-0.0","2428","","","","49","1,0,0","0","coast","21","probe-54","0.7651256600262863","0.2338197033653838","0.13658540186277424","1","","","","","","","",""
"","html-keyboard-response","120","807080","0.0-72.0-1.0","null","<p></p>","null","","","","","","","","","","","","","","","","","","",""
"","do_trial","121","813743","0.0-73.0-0.0","2124","","","","49","0,0,0","0","coast","22","probe-09","0.7423922529271999","0.13706013886605056","0.24058447050735488","0","","","","","","","",""
"","html-keyboard-response","122","814745","0.0-73.0-1.0","null","<p></p>","null","","","","","","","","","","","","","","","","","","",""
"","do_trial","123","820647","0.0-74.0-0.0","1363.300000011921","","","","50","0,1,0","0","coast","23","probe-204","0.669028440396204","0.19305240763040743","0.17169438695627626","1","","","","","","","",""
"","html-keyboard-response","124","821649","0.0-74.0-1.0","null","<p></p>","null","","","","","","","","","","","","","","","","","","",""
"","do_trial","125","827351","0.0-75.0-0.0","1162.699999988079","","","","50","0,0,0","0","coast","24","probe-123","0.7053404640499064","0.17174248618114887","0.23261219779873726","0","","","","","","","",""
"","html-keyboard-response","126","828353","0.0-75.0-1.0","null","<p></p>","null","","","","","","","","","","","","","","","","","","",""
"","do_trial","127","834208","0.0-76.0-0.0","1315.1000000238419","","","","50","1,0,0","0","coast","25","probe-143","0.7268354646023848","0.12395903955738609","0.2040044289032879","0","","","","","","","",""
"","html-keyboard-response","128","835210","0.0-76.0-1.0","null","<p></p>","null","","","","","","","","","","","","","","","","","","",""
"","do_trial","129","840695","0.0-77.0-0.0","944.6000000238419","","","","49","0,0,0","0","coast","26","probe-95","0.5822777010503666","0.28633158270132236","0.0745379871016848","0","","","","","","","",""
"","html-keyboard-response","130","841697","0.0-77.0-1.0","null","<p></p>","null","","","","","","","","","","","","","","","","","","",""
"","do_trial","131","847431","0.0-78.0-0.0","1195.300000011921","","","","51","1,0,0","0","coast","27","probe-194","0.6611818272740169","0.44227866093430834","0.12611911336406056","0","","","","","","","",""
"","html-keyboard-response","132","848433","0.0-78.0-1.0","null","<p></p>","null","","","","","","","","","","","","","","","","","","",""
"","do_trial","133","854167","0.0-79.0-0.0","1194.1000000238419","","","","51","1,0,0","0","coast","28","probe-226","0.5702134185168649","0.38303769952681344","0.10233842810617105","0","","","","","","","",""
"","html-keyboard-response","134","855168","0.0-79.0-1.0","null","<p></p>","null","","","","","","","","","","","","","","","","","","",""
"","do_trial","135","860727","0.0-80.0-0.0","1023.6000000238419","","","","49","1,0,0","0","coast","29","probe-179","0.5349401511681325","0.4497404655471498","0.13846002007707367","1","","","","","","","",""
"","html-keyboard-response","136","861729","0.0-80.0-1.0","null","<p></p>","null","","","","","","","","","","","","","","","","","","",""
"","do_bye","137","863233","0.0-81.0-0.0","null","","","","null","","","","","","","","","","","","","","","","",""
"","do_travel","138","869235","0.0-82.0-0.0","null","","","","null","","","","","","","","","","","","","","","","",""
"","do_welcome","139","870740","0.0-82.0-1.0","null","","","","null","","","","","","","","","","","","","","","","",""
"","do_trial","140","876966","0.0-83.0-0.0","1688","","","","49","1,0,0","1","city","30","probe-21","1","0.41699266516471184","0.062160891146554355","1","","","","","","","",""
"","html-keyboard-response","141","877968","0.0-83.0-1.0","null","<p></p>","null","","","","","","","","","","","","","","","","","","",""
"","do_trial","142","883623","0.0-84.0-0.0","1117.3999999761581","","","","49","1,0,0","1","city","31","probe-227","1","0.2962404291925754","0.2284710552707921","1","","","","","","","",""
"","html-keyboard-response","143","884625","0.0-84.0-1.0","null","<p></p>","null","","","","","","","","","","","","","","","","","","",""
"","do_trial","144","890471","0.0-85.0-0.0","1307.1000000238419","","","","49","1,0,0","1","city","32","probe-61","1","0.23069491611877227","0.10760063652499692","1","","","","","","","",""
"","html-keyboard-response","145","891473","0.0-85.0-1.0","null","<p></p>","null","","","","","","","","","","","","","","","","","","",""
"","do_trial","146","896870","0.0-86.0-0.0","859.6999999880791","","","","49","1,1,0","1","city","33","probe-214","0.866388684125542","0.4711559979976116","0.19373511708591729","1","","","","","","","",""
"","html-keyboard-response","147","897872","0.0-86.0-1.0","null","<p></p>","null","","","","","","","","","","","","","","","","","","",""
"","do_trial","148","903015","0.0-87.0-0.0","584.8999999761581","","","","49","0,1,0","1","city","34","probe-07","0.6181409335520432","0.38892990142376477","0.1527843270286523","0","","","","","","","",""
"","html-keyboard-response","149","904018","0.0-87.0-1.0","null","<p></p>","null","","","","","","","","","","","","","","","","","","",""
"","do_trial","150","910056","0.0-88.0-0.0","1495.699999988079","","","","50","1,1,0","1","city","35","probe-60","0.5486343291449477","0.3634584016802382","0.07137129121302976","1","","","","","","","",""
"","html-keyboard-response","151","911057","0.0-88.0-1.0","null","<p></p>","null","","","","","","","","","","","","","","","","","","",""
"","do_trial","152","916487","0.0-89.0-0.0","891.6999999880791","","","","50","1,1,0","1","city","36","probe-172","0.6725089345418885","0.45292390359378637","0.1145079755017053","1","","","","","","","",""
"","html-keyboard-response","153","917490","0.0-89.0-1.0","null","<p></p>","null","","","","","","","","","","","","","","","","","","",""
"","do_trial","154","923038","0.0-90.0-0.0","1009.8999999761581","","","","50","1,1,0","1","city","37","probe-191","0.7467509088048434","0.4727284507921796","0.144295362746268","1","","","","","","","",""
"","html-keyboard-response","155","924040","0.0-90.0-1.0","null","<p></p>","null","","","","","","","","","","","","","","","","","","",""
"","do_trial","156","929687","0.0-91.0-0.0","1108.7000000476837","","","","50","0,0,0","1","city","38","probe-176","0.7402155599437821","0.22699104784191002","0.11515092667707284","0","","","","","","","",""
"","html-keyboard-response","157","930688","0.0-91.0-1.0","null","<p></p>","null","","","","","","","","","","","","","","","","","","",""
"","do_trial","158","935958","0.0-92.0-0.0","733.8999999761581","","","","50","1,1,0","1","city","39","probe-118","0.6733059479889457","0.41151903267917067","0.13949448114454938","1","","","","","","","",""
"","html-keyboard-response","159","936959","0.0-92.0-1.0","null","<p></p>","null","","","","","","","","","","","","","","","","","","",""
"","do_trial","160","942183","0.0-93.0-0.0","685.5","","","","50","0,1,0","1","city","40","probe-32","0.4527536794993497","0.3431326707092184","0.10815962308663846","1","","","","","","","",""
"","html-keyboard-response","161","943184","0.0-93.0-1.0","null","<p></p>","null","","","","","","","","","","","","","","","","","","",""
"","do_trial","162","948319","0.0-94.0-0.0","595.0999999642372","","","","50","1,0,0","1","city","41","probe-210","0.4269971992644747","0.4315641891907994","0.16881935970956075","0","","","","","","","",""
"","html-keyboard-response","163","949321","0.0-94.0-1.0","null","<p></p>","null","","","","","","","","","","","","","","","","","","",""
"","do_trial","164","954453","0.0-95.0-0.0","594","","","","50","0,1,1","1","city","42","probe-04","0.2336329285672799","0.5329602950635024","0.37695520128067606","1","","","","","","","",""
"","html-keyboard-response","165","955456","0.0-95.0-1.0","null","<p></p>","null","","","","","","","","","","","","","","","","","","",""
"","do_trial","166","960518","0.0-96.0-0.0","523.1000000238419","","","","50","0,1,0","1","city","43","probe-198","0.1603668307284907","0.3099618232903548","0.5219535655574279","1","","","","","","","",""
"","html-keyboard-response","167","961521","0.0-96.0-1.0","null","<p></p>","null","","","","","","","","","","","","","","","","","","",""
"","do_trial","168","966829","0.0-97.0-0.0","771.1000000238419","","","","50","0,0,1","1","city","44","probe-221","0.11016335543354226","0.2737624449060067","0.4789115245345089","0","","","","","","","",""
"","html-keyboard-response","169","967831","0.0-97.0-1.0","null","<p></p>","null","","","","","","","","","","","","","","","","","","",""
"","do_trial","170","972999","0.0-98.0-0.0","628.3000000119209","","","","50","0,0,1","1","city","45","probe-207","0.16259846580785936","0.22892631308874564","0.5236234776461953","0","","","","","","","",""
"","html-keyboard-response","171","974001","0.0-98.0-1.0","null","<p></p>","null","","","","","","","","","","","","","","","","","","",""
"","do_trial","172","979023","0.0-99.0-0.0","484","","","","50","1,1,1","1","city","46","probe-169","0.08837475345841014","0.2310689691017983","0.4673424950405126","1","","","","","","","",""
"","html-keyboard-response","173","980026","0.0-99.0-1.0","null","<p></p>","null","","","","","","","","","","","","","","","","","","",""
"","do_trial","174","985181","0.0-100.0-0.0","615.1999999880791","","","","50","0,0,0","1","city","47","probe-229","0.05052178590541715","0.22714697471700035","0.5465767189937535","0","","","","","","","",""
"","html-keyboard-response","175","986183","0.0-100.0-1.0","null","<p></p>","null","","","","","","","","","","","","","","","","","","",""
"","do_trial","176","991399","0.0-101.0-0.0","676.8999999761581","","","","50","0,1,0","1","city","48","probe-184","0.15502599864301675","0.2916916089443495","0.5353844843814106","1","","","","","","","",""
"","html-keyboard-response","177","992400","0.0-101.0-1.0","null","<p></p>","null","","","","","","","","","","","","","","","","","","",""
"","do_trial","178","997791","0.0-102.0-0.0","843.8999999761581","","","","50","0,0,0","1","city","49","probe-146","0.11132355699506562","0.3579494676969721","0.5024836045602303","0","","","","","","","",""
"","html-keyboard-response","179","998793","0.0-102.0-1.0","null","<p></p>","null","","","","","","","","","","","","","","","","","","",""
"","do_trial","180","1003688","0.0-103.0-0.0","344","","","","50","0,0,1","1","city","50","probe-186","0.06324437251626197","0.3953970464313704","0.5862572788597372","0","","","","","","","",""
"","html-keyboard-response","181","1004690","0.0-103.0-1.0","null","<p></p>","null","","","","","","","","","","","","","","","","","","",""
"","do_trial","182","1009638","0.0-104.0-0.0","409.10000002384186","","","","50","0,0,1","1","city","51","probe-190","0.12680415724857919","0.3397701404827994","0.6055514503887319","0","","","","","","","",""
"","html-keyboard-response","183","1010640","0.0-104.0-1.0","null","<p></p>","null","","","","","","","","","","","","","","","","","","",""
"","do_trial","184","1015743","0.0-105.0-0.0","563.1999999880791","","","","49","0,1,1","1","city","52","probe-203","0.1806113721461813","0.4442144959758222","0.6599500037075516","0","","","","","","","",""
"","html-keyboard-response","185","1016745","0.0-105.0-1.0","null","<p></p>","null","","","","","","","","","","","","","","","","","","",""
"","do_trial","186","1021774","0.0-106.0-0.0","490.69999998807907","","","","49","0,0,1","1","city","53","probe-181","0.25008998161535706","0.421378592330049","0.678439409872943","0","","","","","","","",""
"","html-keyboard-response","187","1022776","0.0-106.0-1.0","null","<p></p>","null","","","","","","","","","","","","","","","","","","",""
"","do_trial","188","1027975","0.0-107.0-0.0","663.7999999523163","","","","51","0,0,0","1","city","54","probe-177","0.23005921996451087","0.32785795716767735","0.5901466616651536","0","","","","","","","",""
"","html-keyboard-response","189","1028977","0.0-107.0-1.0","null","<p></p>","null","","","","","","","","","","","","","","","","","","",""
"","do_trial","190","1034086","0.0-108.0-0.0","571.1000000238419","","","","51","0,0,1","1","city","55","probe-138","0.30279514978045835","0.19518587384897237","0.5515874690151312","1","","","","","","","",""
"","html-keyboard-response","191","1035087","0.0-108.0-1.0","null","<p></p>","null","","","","","","","","","","","","","","","","","","",""
"","do_trial","192","1040255","0.0-109.0-0.0","628.5999999642372","","","","51","0,1,1","1","city","56","probe-121","0.29994410885739825","0.26336944890885217","0.5734151405432156","1","","","","","","","",""
"","html-keyboard-response","193","1041257","0.0-109.0-1.0","null","<p></p>","null","","","","","","","","","","","","","","","","","","",""
"","do_trial","194","1046535","0.0-110.0-0.0","738.5","","","","51","0,0,0","1","city","57","probe-193","0.2560625877296666","0.2784427371711566","0.49631346276252225","0","","","","","","","",""
"","html-keyboard-response","195","1047537","0.0-110.0-1.0","null","<p></p>","null","","","","","","","","","","","","","","","","","","",""
"","do_trial","196","1053056","0.0-111.0-0.0","944.1999999880791","","","","51","0,1,0","1","city","58","probe-84","0.20133098086726303","0.21833063066841119","0.5030133118552975","0","","","","","","","",""
"","html-keyboard-response","197","1054057","0.0-111.0-1.0","null","<p></p>","null","","","","","","","","","","","","","","","","","","",""
"","do_trial","198","1059815","0.0-112.0-0.0","1220","","","","50","0,0,0","1","city","59","probe-195","0.13437082288980284","0.2954387985530769","0.6340730874719067","0","","","","","","","",""
"","html-keyboard-response","199","1060816","0.0-112.0-1.0","null","<p></p>","null","","","","","","","","","","","","","","","","","","",""
"","do_trial","200","1065464","0.0-113.0-0.0","106.80000001192093","","","","50","0,1,1","1","city","60","probe-125","0.09873999132444089","0.4782726802933306","0.6857701535116548","1","","","","","","","",""
"","html-keyboard-response","201","1066465","0.0-113.0-1.0","null","<p></p>","null","","","","","","","","","","","","","","","","","","",""
"","do_trial","202","1071606","0.0-114.0-0.0","600.5","","","","50","0,0,1","1","city","61","probe-96","0.07839859422616213","0.3457864442985983","0.736738794982627","0","","","","","","","",""
"","html-keyboard-response","203","1072609","0.0-114.0-1.0","null","<p></p>","null","","","","","","","","","","","","","","","","","","",""
"","do_trial","204","1077527","0.0-115.0-0.0","380.89999997615814","","","","50","0,0,0","1","city","62","probe-27","0.12857686312757466","0.32601791771186395","0.5391349317243622","0","","","","","","","",""
"","html-keyboard-response","205","1078529","0.0-115.0-1.0","null","<p></p>","null","","","","","","","","","","","","","","","","","","",""
"","do_trial","206","1084190","0.0-116.0-0.0","1118.6000000238419","","","","49","0,0,1","1","city","63","probe-134","0.0873445476937207","0.39571991671816015","0.7748680354377754","0","","","","","","","",""
"","html-keyboard-response","207","1085192","0.0-116.0-1.0","null","<p></p>","null","","","","","","","","","","","","","","","","","","",""
"","do_trial","208","1090464","0.0-117.0-0.0","732.8999999761581","","","","51","1,1,1","1","city","64","probe-93","0.35389284265173876","0.4773912071517099","0.838564687788123","1","","","","","","","",""
"","html-keyboard-response","209","1091467","0.0-117.0-1.0","null","<p></p>","null","","","","","","","","","","","","","","","","","","",""
"","do_trial","210","1097303","0.0-118.0-0.0","1296.3999999761581","","","","51","0,1,1","1","city","65","probe-77","0.3210452746913371","0.48529189614659557","0.6794351561749224","1","","","","","","","",""
"","html-keyboard-response","211","1098305","0.0-118.0-1.0","null","<p></p>","null","","","","","","","","","","","","","","","","","","",""
"","do_trial","212","1104263","0.0-119.0-0.0","1418.800000011921","","","","51","1,1,0","1","city","66","probe-215","0.21724595527142893","0.4240261066386362","0.5830996244851536","0","","","","","","","",""
"","html-keyboard-response","213","1105265","0.0-119.0-1.0","null","<p></p>","null","","","","","","","","","","","","","","","","","","",""
"","do_trial","214","1111399","0.0-120.0-0.0","1595.3999999761581","","","","50","0,1,1","1","city","67","probe-165","0.1766846995221873","0.3665230425383036","0.7005948506662166","1","","","","","","","",""
"","html-keyboard-response","215","1112401","0.0-120.0-1.0","null","<p></p>","null","","","","","","","","","","","","","","","","","","",""
"","do_trial","216","1117567","0.0-121.0-0.0","609.0999999642372","","","","50","0,1,0","1","city","68","probe-08","0.0931075385108501","0.37388436599187574","0.593278312266568","1","","","","","","","",""
"","html-keyboard-response","217","1118569","0.0-121.0-1.0","null","<p></p>","null","","","","","","","","","","","","","","","","","","",""
"","do_trial","218","1124278","0.0-122.0-0.0","1169.699999988079","","","","50","0,1,0","1","city","69","probe-219","0.14754009679336366","0.32786352497801685","0.5184517380203844","1","","","","","","","",""
"","html-keyboard-response","219","1125280","0.0-122.0-1.0","null","<p></p>","null","","","","","","","","","","","","","","","","","","",""
"","do_bye","220","1126787","0.0-123.0-0.0","null","","","","null","","","","","","","","","","","","","","","","",""
"","do_travel","221","1132791","0.0-124.0-0.0","null","","","","null","","","","","","","","","","","","","","","","",""
"","do_welcome","222","1134298","0.0-124.0-1.0","null","","","","null","","","","","","","","","","","","","","","","",""
"","do_trial","223","1140669","0.0-125.0-0.0","1835.8999999761581","","","","51","0,0,1","2","mountain","70","probe-83","0.14285420806481544","0.26365180867233645","1","1","","","","","","","",""
"","html-keyboard-response","224","1141671","0.0-125.0-1.0","null","<p></p>","null","","","","","","","","","","","","","","","","","","",""
"","do_trial","225","1146934","0.0-126.0-0.0","725","","","","51","0,1,1","2","mountain","71","probe-39","0.07995642441639672","0.2746917010381386","1","1","","","","","","","",""
"","html-keyboard-response","226","1147936","0.0-126.0-1.0","null","<p></p>","null","","","","","","","","","","","","","","","","","","",""
"","do_trial","227","1153469","0.0-127.0-0.0","992.8000000119209","","","","51","0,1,1","2","mountain","72","probe-159","0.18544458198036154","0.19817023812133613","0.861541663100187","1","","","","","","","",""
"","html-keyboard-response","228","1154471","0.0-127.0-1.0","null","<p></p>","null","","","","","","","","","","","","","","","","","","",""
"","do_trial","229","1159775","0.0-128.0-0.0","765.6999999880791","","","","51","1,0,1","2","mountain","73","probe-197","0.21859219479245862","0.19199387456746186","0.7524767701657651","1","","","","","","","",""
"","html-keyboard-response","230","1160777","0.0-128.0-1.0","null","<p></p>","null","","","","","","","","","","","","","","","","","","",""
"","do_trial","231","1166471","0.0-129.0-0.0","1158.800000011921","","","","51","0,1,0","2","mountain","74","probe-201","0.12860197704157614","0.2373921904275752","0.6810179025367106","0","","","","","","","",""
"","html-keyboard-response","232","1167474","0.0-129.0-1.0","null","<p></p>","null","","","","","","","","","","","","","","","","","","",""
"","do_trial","233","1172743","0.0-130.0-0.0","703.8000000119209","","","","51","0,0,1","2","mountain","75","probe-86","0.15716144417453554","0.1709245737657114","0.6674606129096963","1","","","","","","","",""
"","html-keyboard-response","234","1173745","0.0-130.0-1.0","null","<p></p>","null","","","","","","","","","","","","","","","","","","",""
"","do_trial","235","1178783","0.0-131.0-0.0","499.30000001192093","","","","51","1,1,0","2","mountain","76","probe-187","0.1983479380790036","0.2618641227277902","0.5605436930114148","0","","","","","","","",""
"","html-keyboard-response","236","1179785","0.0-131.0-1.0","null","<p></p>","null","","","","","","","","","","","","","","","","","","",""
"","do_trial","237","1184887","0.0-132.0-0.0","560.8999999761581","","","","51","0,1,1","2","mountain","77","probe-124","0.09588034863268367","0.3107091873283818","0.6565481469170525","1","","","","","","","",""
"","html-keyboard-response","238","1185889","0.0-132.0-1.0","null","<p></p>","null","","","","","","","","","","","","","","","","","","",""
"","do_trial","239","1191240","0.0-133.0-0.0","812.3000000119209","","","","51","0,1,0","2","mountain","78","probe-62","0.24590587797690547","0.1603649016587667","0.6337605820548587","0","","","","","","","",""
"","html-keyboard-response","240","1192242","0.0-133.0-1.0","null","<p></p>","null","","","","","","","","","","","","","","","","","","",""
"","do_trial","241","1197559","0.0-134.0-0.0","777.8999999761581","","","","51","0,0,1","2","mountain","79","probe-59","0.24219532550658168","0.22099646632367556","0.6024579083660134","1","","","","","","","",""
"","html-keyboard-response","242","1198561","0.0-134.0-1.0","null","<p></p>","null","","","","","","","","","","","","","","","","","","",""
"","do_trial","243","1203895","0.0-135.0-0.0","796.1999999880791","","","","51","1,1,0","2","mountain","80","probe-20","0.3071316218025723","0.09384977015153383","0.5276871943521726","0","","","","","","","",""
"","html-keyboard-response","244","1204897","0.0-135.0-1.0","null","<p></p>","null","","","","","","","","","","","","","","","","","","",""
"","do_trial","245","1209910","0.0-136.0-0.0","475.5999999642372","","","","51","1,1,1","2","mountain","81","probe-217","0.36402033891649327","0.16551787804844817","0.6361438673273877","1","","","","","","","",""
"","html-keyboard-response","246","1210912","0.0-136.0-1.0","null","<p></p>","null","","","","","","","","","","","","","","","","","","",""
"","do_trial","247","1215848","0.0-137.0-0.0","392.0999999642372","","","","51","1,0,1","2","mountain","82","probe-205","0.5402308561922641","0.19548439900769254","0.5455499511240393","1","","","","","","","",""
"","html-keyboard-response","248","1216850","0.0-137.0-1.0","null","<p></p>","null","","","","","","","","","","","","","","","","","","",""
"","do_trial","249","1221870","0.0-138.0-0.0","480.5999999642372","","","","51","0,0,0","2","mountain","83","probe-70","0.49936135045350016","0.08610200920472502","0.4479859901103406","0","","","","","","","",""
"","html-keyboard-response","250","1222872","0.0-138.0-1.0","null","<p></p>","null","","","","","","","","","","","","","","","","","","",""
"","do_trial","251","1227904","0.0-139.0-0.0","491.80000001192093","","","","51","1,0,1","2","mountain","84","probe-114","0.552237315372193","0.0936744009201948","0.3553592618309198","1","","","","","","","",""
"","html-keyboard-response","252","1228906","0.0-139.0-1.0","null","<p></p>","null","","","","","","","","","","","","","","","","","","",""
"","do_trial","253","1234478","0.0-140.0-0.0","1032.3999999761581","","","","51","0,0,0","2","mountain","85","probe-69","0.4873800399832329","0.16386794087209944","0.39196065627640175","0","","","","","","","",""
"","html-keyboard-response","254","1235480","0.0-140.0-1.0","null","<p></p>","null","","","","","","","","","","","","","","","","","","",""
"","do_trial","255","1240575","0.0-141.0-0.0","555.3999999761581","","","","51","1,0,0","2","mountain","86","probe-192","0.6715877097957663","0.1620106769136806","0.3566417225064645","0","","","","","","","",""
"","html-keyboard-response","256","1241577","0.0-141.0-1.0","null","<p></p>","null","","","","","","","","","","","","","","","","","","",""
"","do_trial","257","1246743","0.0-142.0-0.0","627.8999999761581","","","","51","0,0,1","2","mountain","87","probe-98","0.5351163247297431","0.0951933763924108","0.41982502952084394","1","","","","","","","",""
"","html-keyboard-response","258","1247745","0.0-142.0-1.0","null","<p></p>","null","","","","","","","","","","","","","","","","","","",""
"","do_trial","259","1253216","0.0-143.0-0.0","932.1999999880791","","","","51","1,0,0","2","mountain","88","probe-104","0.7184585264961051","0.17975672761427114","0.3651974308394473","0","","","","","","","",""
"","html-keyboard-response","260","1254218","0.0-143.0-1.0","null","<p></p>","null","","","","","","","","","","","","","","","","","","",""
"","do_trial","261","1259415","0.0-144.0-0.0","660.6999999880791","","","","51","1,0,0","2","mountain","89","probe-25","0.7322911714377852","0.0834001346684074","0.29331523115862174","0","","","","","","","",""
"","html-keyboard-response","262","1260417","0.0-144.0-1.0","null","<p></p>","null","","","","","","","","","","","","","","","","","","",""
"","do_trial","263","1265487","0.0-145.0-0.0","532.3999999761581","","","","51","1,0,0","2","mountain","90","probe-53","0.6764432573626491","0.06291089349704962","0.1956340542116566","0","","","","","","","",""
"","html-keyboard-response","264","1266489","0.0-145.0-1.0","null","<p></p>","null","","","","","","","","","","","","","","","","","","",""
"","do_trial","265","1271623","0.0-146.0-0.0","594.4000000357628","","","","50","0,0,0","2","mountain","91","probe-116","0.6158948599817456","0.05168723020577717","0.18560783622155186","0","","","","","","","",""
"","html-keyboard-response","266","1272625","0.0-146.0-1.0","null","<p></p>","null","","","","","","","","","","","","","","","","","","",""
"","do_trial","267","1277799","0.0-147.0-0.0","635","","","","50","1,0,0","2","mountain","92","probe-15","0.6344491311659443","0.07568550427415285","0.2499779317641602","0","","","","","","","",""
"","html-keyboard-response","268","1278802","0.0-147.0-1.0","null","<p></p>","null","","","","","","","","","","","","","","","","","","",""
"","do_trial","269","1284584","0.0-148.0-0.0","1242","","","","49","1,0,0","2","mountain","93","probe-119","0.5985524807880201","0.22779804553396127","0.4296579447804364","1","","","","","","","",""
"","html-keyboard-response","270","1285585","0.0-148.0-1.0","null","<p></p>","null","","","","","","","","","","","","","","","","","","",""
"","do_trial","271","1290847","0.0-149.0-0.0","722","","","","49","0,0,0","2","mountain","94","probe-43","0.5610089030186253","0.22442219161215207","0.3686231943162844","0","","","","","","","",""
"","html-keyboard-response","272","1291848","0.0-149.0-1.0","null","<p></p>","null","","","","","","","","","","","","","","","","","","",""
"","do_trial","273","1297062","0.0-150.0-0.0","674.8000000119209","","","","49","0,1,1","2","mountain","95","probe-33","0.5205395954684141","0.2261991597487614","0.3105194271366688","0","","","","","","","",""
"","html-keyboard-response","274","1298064","0.0-150.0-1.0","null","<p></p>","null","","","","","","","","","","","","","","","","","","",""
"","do_trial","275","1303295","0.0-151.0-0.0","685.3000000119209","","","","49","0,0,0","2","mountain","96","probe-147","0.4998083535762673","0.21807286662093706","0.24364496961631624","0","","","","","","","",""
"","html-keyboard-response","276","1304297","0.0-151.0-1.0","null","<p></p>","null","","","","","","","","","","","","","","","","","","",""
"","do_trial","277","1309638","0.0-152.0-0.0","805.3999999761581","","","","51","1,1,0","2","mountain","97","probe-163","0.5058661726670803","0.22828652522659887","0.23197143559848069","0","","","","","","","",""
"","html-keyboard-response","278","1310640","0.0-152.0-1.0","null","<p></p>","null","","","","","","","","","","","","","","","","","","",""
"","do_trial","279","1315663","0.0-153.0-0.0","484.0999999642372","","","","51","1,0,1","2","mountain","98","probe-113","0.560473788371452","0.2803413997983521","0.3902078556551234","1","","","","","","","",""
"","html-keyboard-response","280","1316665","0.0-153.0-1.0","null","<p></p>","null","","","","","","","","","","","","","","","","","","",""
"","do_trial","281","1322382","0.0-154.0-0.0","1178.4000000357628","","","","51","0,0,0","2","mountain","99","probe-79","0.5803973263747955","0.22342955842873852","0.3736982160335802","0","","","","","","","",""
"","html-keyboard-response","282","1323383","0.0-154.0-1.0","null","<p></p>","null","","","","","","","","","","","","","","","","","","",""
"","do_trial","283","1328448","0.0-155.0-0.0","528.1999999880791","","","","51","1,0,1","2","mountain","100","probe-16","0.623264583546062","0.24172501289298912","0.3053215530404876","1","","","","","","","",""
"","html-keyboard-response","284","1329449","0.0-155.0-1.0","null","<p></p>","null","","","","","","","","","","","","","","","","","","",""
"","do_trial","285","1334502","0.0-156.0-0.0","514","","","","51","0,0,0","2","mountain","101","probe-55","0.649942221738337","0.23349214013378336","0.2571499187435816","0","","","","","","","",""
"","html-keyboard-response","286","1335504","0.0-156.0-1.0","null","<p></p>","null","","","","","","","","","","","","","","","","","","",""
"","do_trial","287","1340552","0.0-157.0-0.0","509.89999997615814","","","","51","1,1,0","2","mountain","102","probe-230","0.5547956304763801","0.061762370926711246","0.18492271035829996","0","","","","","","","",""
"","html-keyboard-response","288","1341554","0.0-157.0-1.0","null","<p></p>","null","","","","","","","","","","","","","","","","","","",""
"","do_trial","289","1346598","0.0-158.0-0.0","507.5","","","","51","1,0,0","2","mountain","103","probe-108","0.553342384068337","0.18459033811601885","0.30815831562607965","0","","","","","","","",""
"","html-keyboard-response","290","1347600","0.0-158.0-1.0","null","<p></p>","null","","","","","","","","","","","","","","","","","","",""
"","do_trial","291","1353153","0.0-159.0-0.0","1000.3000000119209","","","","50","1,0,1","2","mountain","104","probe-06","0.5290869965370701","0.17822442333978644","0.38374161330189516","0","","","","","","","",""
"","html-keyboard-response","292","1354156","0.0-159.0-1.0","null","<p></p>","null","","","","","","","","","","","","","","","","","","",""
"","do_trial","293","1359495","0.0-160.0-0.0","800.3999999761581","","","","49","1,0,0","2","mountain","105","probe-171","0.5538839675139634","0.08488031816468887","0.21539660463858526","1","","","","","","","",""
"","html-keyboard-response","294","1360498","0.0-160.0-1.0","null","<p></p>","null","","","","","","","","","","","","","","","","","","",""
"","do_trial","295","1365711","0.0-161.0-0.0","675.1999999880791","","","","49","0,0,0","2","mountain","106","probe-157","0.45972375889241435","0.22946216609694475","0.27160256098621605","0","","","","","","","",""
"","html-keyboard-response","296","1366713","0.0-161.0-1.0","null","<p></p>","null","","","","","","","","","","","","","","","","","","",""
"","do_trial","297","1372623","0.0-162.0-0.0","1372.0999999642372","","","","51","0,0,1","2","mountain","107","probe-89","0.5938053301678159","0.13088484062086586","0.38469360969439265","1","","","","","","","",""
"","html-keyboard-response","298","1373626","0.0-162.0-1.0","null","<p></p>","null","","","","","","","","","","","","","","","","","","",""
"","do_trial","299","1379760","0.0-163.0-0.0","1595.199999988079","","","","51","1,1,0","2","mountain","108","probe-65","0.6245942986186112","0.2166942528845508","0.43136728142637226","0","","","","","","","",""
"","html-keyboard-response","300","1380762","0.0-163.0-1.0","null","<p></p>","null","","","","","","","","","","","","","","","","","","",""
"","do_trial","301","1386590","0.0-164.0-0.0","1287.4000000357628","","","","49","1,0,1","2","mountain","109","probe-166","0.6269686475163936","0.1336874219292272","0.3302095420857802","1","","","","","","","",""
"","html-keyboard-response","302","1387592","0.0-164.0-1.0","null","<p></p>","null","","","","","","","","","","","","","","","","","","",""
"","do_bye","303","1389099","0.0-165.0-0.0","null","","","","null","","","","","","","","","","","","","","","","",""
"","do_travel","304","1395102","0.0-166.0-0.0","null","","","","null","","","","","","","","","","","","","","","","",""
"","do_welcome","305","1396609","0.0-166.0-1.0","null","","","","null","","","","","","","","","","","","","","","","",""
"","do_trial","306","1403624","0.0-167.0-0.0","2476.300000011921","","","","50","1,0,0","3","highway","110","probe-111","1","0.17918370322182958","0.31777275573495556","0","","","","","","","",""
"","html-keyboard-response","307","1404626","0.0-167.0-1.0","null","<p></p>","null","","","","","","","","","","","","","","","","","","",""
"","do_trial","308","1409941","0.0-168.0-0.0","776.0999999642372","","","","50","1,0,0","3","highway","111","probe-154","1","0.19107725486998278","0.22976009711041","0","","","","","","","",""
"","html-keyboard-response","309","1410943","0.0-168.0-1.0","null","<p></p>","null","","","","","","","","","","","","","","","","","","",""
"","do_trial","310","1416007","0.0-169.0-0.0","525","","","","49","1,0,1","3","highway","112","probe-88","0.9056234119334491","0.2194904201448717","0.3667212414966322","1","","","","","","","",""
"","html-keyboard-response","311","1417009","0.0-169.0-1.0","null","<p></p>","null","","","","","","","","","","","","","","","","","","",""
"","do_trial","312","1422544","0.0-170.0-0.0","983.2999999523163","","","","49","1,0,1","3","highway","113","probe-03","0.7493929151152218","0.28338697136191665","0.31500975121739894","1","","","","","","","",""
"","html-keyboard-response","313","1423546","0.0-170.0-1.0","null","<p></p>","null","","","","","","","","","","","","","","","","","","",""
"","do_trial","314","1428799","0.0-171.0-0.0","714.6999999880791","","","","49","1,0,0","3","highway","114","probe-135","0.6996629094762413","0.2953585208292655","0.1705291039866316","1","","","","","","","",""
"","html-keyboard-response","315","1429802","0.0-171.0-1.0","null","<p></p>","null","","","","","","","","","","","","","","","","","","",""
"","do_trial","316","1435103","0.0-172.0-0.0","761.8000000119209","","","","49","1,1,0","3","highway","115","probe-80","0.6519374235059486","0.23133866592869684","0.21775379763854652","1","","","","","","","",""
"","html-keyboard-response","317","1436105","0.0-172.0-1.0","null","<p></p>","null","","","","","","","","","","","","","","","","","","",""
"","do_trial","318","1441168","0.0-173.0-0.0","523.8999999761581","","","","49","1,0,1","3","highway","116","probe-117","0.5749039440797341","0.2233203582438364","0.46550735677899713","1","","","","","","","",""
"","html-keyboard-response","319","1442169","0.0-173.0-1.0","null","<p></p>","null","","","","","","","","","","","","","","","","","","",""
"","do_trial","320","1447247","0.0-174.0-0.0","543","","","","49","0,1,0","3","highway","117","probe-208","0.6135572857614384","0.13808556260786975","0.465996386558302","0","","","","","","","",""
"","html-keyboard-response","321","1448248","0.0-174.0-1.0","null","<p></p>","null","","","","","","","","","","","","","","","","","","",""
"","do_trial","322","1453376","0.0-175.0-0.0","588.8000000119209","","","","49","1,0,0","3","highway","118","probe-109","0.5665515557717863","0.10095414336325118","0.3872116885005159","1","","","","","","","",""
"","html-keyboard-response","323","1454378","0.0-175.0-1.0","null","<p></p>","null","","","","","","","","","","","","","","","","","","",""
"","do_trial","324","1459438","0.0-176.0-0.0","515.4000000357628","","","","49","1,0,1","3","highway","119","probe-188","0.5858444138763268","0.13207718687183678","0.3853950364818179","1","","","","","","","",""
"","html-keyboard-response","325","1460441","0.0-176.0-1.0","null","<p></p>","null","","","","","","","","","","","","","","","","","","",""
"","do_trial","326","1465607","0.0-177.0-0.0","630.5","","","","49","0,0,0","3","highway","120","probe-141","0.7233044335556214","0.1831431745639869","0.36533585436514066","0","","","","","","","",""
"","html-keyboard-response","327","1466609","0.0-177.0-1.0","null","<p></p>","null","","","","","","","","","","","","","","","","","","",""
"","do_trial","328","1471805","0.0-178.0-0.0","658.1999999880791","","","","49","0,0,1","3","highway","121","probe-75","0.7779393808684926","0.2812496031958747","0.3453018387211841","0","","","","","","","",""
"","html-keyboard-response","329","1472807","0.0-178.0-1.0","null","<p></p>","null","","","","","","","","","","","","","","","","","","",""
"","do_trial","330","1478063","0.0-179.0-0.0","717.6999999880791","","","","50","0,0,0","3","highway","122","probe-82","0.46781749028360414","0.23542084942336888","0.25159805060586016","0","","","","","","","",""
"","html-keyboard-response","331","1479065","0.0-179.0-1.0","null","<p></p>","null","","","","","","","","","","","","","","","","","","",""
"","do_trial","332","1484135","0.0-180.0-0.0","531","","","","51","0,0,0","3","highway","123","probe-158","0.2597501867725929","0.3373543682323629","0.3423932069977934","0","","","","","","","",""
"","html-keyboard-response","333","1485137","0.0-180.0-1.0","null","<p></p>","null","","","","","","","","","","","","","","","","","","",""
"","do_trial","334","1490080","0.0-181.0-0.0","407.2000000476837","","","","49","0,1,0","3","highway","124","probe-67","0.07479870108361458","0.5727693193158325","0.11648324410822695","0","","","","","","","",""
"","html-keyboard-response","335","1491081","0.0-181.0-1.0","null","<p></p>","null","","","","","","","","","","","","","","","","","","",""
"","do_trial","336","1496390","0.0-182.0-0.0","770.8999999761581","","","","49","0,1,0","3","highway","125","probe-22","0.10750749609057231","0.7029662865554992","0.16362937214980824","0","","","","","","","",""
"","html-keyboard-response","337","1497392","0.0-182.0-1.0","null","<p></p>","null","","","","","","","","","","","","","","","","","","",""
"","do_trial","338","1502375","0.0-183.0-0.0","448.19999998807907","","","","49","0,1,1","3","highway","126","probe-133","0.19446089848007478","0.6973590293367812","0.11752996151861599","0","","","","","","","",""
"","html-keyboard-response","339","1503377","0.0-183.0-1.0","null","<p></p>","null","","","","","","","","","","","","","","","","","","",""
"","do_trial","340","1509222","0.0-184.0-0.0","1307.0999999642372","","","","49","0,1,0","3","highway","127","probe-164","0.17473457446044788","0.6939565206158773","0.2323881269583383","0","","","","","","","",""
"","html-keyboard-response","341","1510224","0.0-184.0-1.0","null","<p></p>","null","","","","","","","","","","","","","","","","","","",""
"","do_trial","342","1515248","0.0-185.0-0.0","484.69999998807907","","","","50","0,1,0","3","highway","128","probe-85","0.19237633221908879","0.5896701315962145","0.24596437203531565","1","","","","","","","",""
"","html-keyboard-response","343","1516250","0.0-185.0-1.0","null","<p></p>","null","","","","","","","","","","","","","","","","","","",""
"","do_trial","344","1521280","0.0-186.0-0.0","491.10000002384186","","","","50","0,0,0","3","highway","129","probe-23","0.20141058544540869","0.7103691041345692","0.3463141284547463","0","","","","","","","",""
"","html-keyboard-response","345","1522282","0.0-186.0-1.0","null","<p></p>","null","","","","","","","","","","","","","","","","","","",""
"","do_trial","346","1527247","0.0-187.0-0.0","426.2000000476837","","","","50","1,1,0","3","highway","130","probe-126","0.17188966181525572","0.6095539388775769","0.39959219106146926","1","","","","","","","",""
"","html-keyboard-response","347","1528250","0.0-187.0-1.0","null","<p></p>","null","","","","","","","","","","","","","","","","","","",""
"","do_trial","348","1533335","0.0-188.0-0.0","546.4000000357628","","","","50","0,1,0","3","highway","131","probe-66","0.13910906900379622","0.4845552843024086","0.31924133603232696","1","","","","","","","",""
"","html-keyboard-response","349","1534336","0.0-188.0-1.0","null","<p></p>","null","","","","","","","","","","","","","","","","","","",""
"","do_trial","350","1539647","0.0-189.0-0.0","771.5","","","","50","1,1,0","3","highway","132","probe-94","0.24377683669804945","0.5418650221359134","0.2493069922174904","1","","","","","","","",""
"","html-keyboard-response","351","1540649","0.0-189.0-1.0","null","<p></p>","null","","","","","","","","","","","","","","","","","","",""
"","do_trial","352","1545750","0.0-190.0-0.0","562.1999999880791","","","","50","0,0,0","3","highway","133","probe-38","0.31816590778096493","0.3830230954827168","0.19476263265977062","0","","","","","","","",""
"","html-keyboard-response","353","1546752","0.0-190.0-1.0","null","<p></p>","null","","","","","","","","","","","","","","","","","","",""
"","do_trial","354","1552008","0.0-191.0-0.0","716.8999999761581","","","","50","0,0,1","3","highway","134","probe-41","0.19769249942265787","0.38674352609233525","0.2699436948782272","0","","","","","","","",""
"","html-keyboard-response","355","1553010","0.0-191.0-1.0","null","<p></p>","null","","","","","","","","","","","","","","","","","","",""
"","do_trial","356","1558343","0.0-192.0-0.0","793.8999999761581","","","","50","0,1,0","3","highway","135","probe-142","0.1286337092907032","0.36616261197763045","0.2845190062693644","1","","","","","","","",""
"","html-keyboard-response","357","1559345","0.0-192.0-1.0","null","<p></p>","null","","","","","","","","","","","","","","","","","","",""
"","do_trial","358","1564519","0.0-193.0-0.0","638.3999999761581","","","","50","0,0,1","3","highway","136","probe-35","0.1417810016045266","0.3976025058775581","0.30309110037479203","0","","","","","","","",""
"","html-keyboard-response","359","1565522","0.0-193.0-1.0","null","<p></p>","null","","","","","","","","","","","","","","","","","","",""
"","do_trial","360","1570823","0.0-194.0-0.0","763.6999999880791","","","","50","0,0,0","3","highway","137","probe-155","0.06317207527360955","0.5385457256324473","0.26779728466317904","0","","","","","","","",""
"","html-keyboard-response","361","1571825","0.0-194.0-1.0","null","<p></p>","null","","","","","","","","","","","","","","","","","","",""
"","do_trial","362","1576863","0.0-195.0-0.0","499.80000001192093","","","","49","0,0,0","3","highway","138","probe-68","0.19605712655554064","0.5732564204852821","0.22460479607003458","0","","","","","","","",""
"","html-keyboard-response","363","1577865","0.0-195.0-1.0","null","<p></p>","null","","","","","","","","","","","","","","","","","","",""
"","do_trial","364","1582791","0.0-196.0-0.0","386.89999997615814","","","","49","0,0,0","3","highway","139","probe-100","0.16915370485471942","0.6240386276654782","0.20037786815686665","0","","","","","","","",""
"","html-keyboard-response","365","1583793","0.0-196.0-1.0","null","<p></p>","null","","","","","","","","","","","","","","","","","","",""
"","do_trial","366","1589207","0.0-197.0-0.0","857.1999999880791","","","","49","0,0,1","3","highway","140","probe-128","0.10732191504003691","0.5827561777201633","0.2875550259364384","0","","","","","","","",""
"","html-keyboard-response","367","1590209","0.0-197.0-1.0","null","<p></p>","null","","","","","","","","","","","","","","","","","","",""
"","do_trial","368","1595694","0.0-198.0-0.0","947.3999999761581","","","","51","0,0,0","3","highway","141","probe-51","0.12783890838512568","0.5772765506178061","0.3004605899313653","0","","","","","","","",""
"","html-keyboard-response","369","1596696","0.0-198.0-1.0","null","<p></p>","null","","","","","","","","","","","","","","","","","","",""
"","do_trial","370","1602736","0.0-199.0-0.0","null","","","","null","1,0,0","3","highway","142","probe-12","0.14208711304082558","0.4855541771241508","0.337810288498549","","","","","","","","",""
"","html-keyboard-response","371","1603739","0.0-199.0-1.0","null","<p></p>","null","","","","","","","","","","","","","","","","","","",""
"","do_trial","372","1609790","0.0-200.0-0.0","1169.2000000476837","","","","49","0,1,0","3","highway","143","probe-102","0.09152833361182693","0.49203144559890355","0.2936390283510952","0","","","","","","","",""
"","html-keyboard-response","373","1610792","0.0-200.0-1.0","null","<p></p>","null","","","","","","","","","","","","","","","","","","",""
"","do_trial","374","1617298","0.0-201.0-0.0","1259.5999999642372","","","","50","0,0,1","3","highway","144","probe-153","0.10361786719196864","0.5785457367565701","0.26449130774538077","0","","","","","","","",""
"","html-keyboard-response","375","1619297","0.0-201.0-1.0","null","<p></p>","null","","","","","","","","","","","","","","","","","","",""
"","do_trial","376","1625339","0.0-202.0-0.0","null","","","","null","0,0,0","3","highway","145","probe-91","0.0803887784803407","0.4088070497805309","0.1964972264176185","","","","","","","","",""
"","html-keyboard-response","377","1626340","0.0-202.0-1.0","null","<p></p>","null","","","","","","","","","","","","","","","","","","",""
"","do_trial","378","1631408","0.0-203.0-0.0","493.69999998807907","","","","51","0,0,0","3","highway","146","probe-97","0.10310061331122196","0.4989514991825859","0.07774461294327473","0","","","","","","","",""
"","html-keyboard-response","379","1632410","0.0-203.0-1.0","null","<p></p>","null","","","","","","","","","","","","","","","","","","",""
"","do_trial","380","1638309","0.0-204.0-0.0","1061.5999999642372","","","","50","0,0,0","3","highway","147","probe-105","0.06217419341299437","0.4232501292444267","0.2559175204329996","0","","","","","","","",""
"","html-keyboard-response","381","1639314","0.0-204.0-1.0","null","<p></p>","null","","","","","","","","","","","","","","","","","","",""
"","do_trial","382","1645447","0.0-205.0-0.0","1595.4000000357628","","","","50","0,1,0","3","highway","148","probe-49","0.08068351311127687","0.5854464563933803","0.1960930168158673","1","","","","","","","",""
"","html-keyboard-response","383","1646449","0.0-205.0-1.0","null","<p></p>","null","","","","","","","","","","","","","","","","","","",""
"","do_trial","384","1652792","0.0-206.0-0.0","1796.300000011921","","","","50","0,0,1","3","highway","149","probe-218","0.1428471068185348","0.6266555786470723","0.18864303875698787","0","","","","","","","",""
"","html-keyboard-response","385","1654299","0.0-206.0-1.0","null","<p></p>","null","","","","","","","","","","","","","","","","","","",""
"","do_bye","386","1655848","0.0-207.0-0.0","null","","","","null","","","","","","","","","","","","","","","","",""
"","do_travel","387","1661852","0.0-208.0-0.0","null","","","","null","","","","","","","","","","","","","","","","",""
"","do_welcome","388","1663361","0.0-208.0-1.0","null","","","","null","","","","","","","","","","","","","","","","",""
"","do_trial","389","1669960","0.0-209.0-0.0","2032.6000000238419","","","","49","0,1,1","4","forest","150","probe-28","0.0503485972149523","1","0.2214545637532679","0","","","","","","","",""
"","html-keyboard-response","390","1670962","0.0-209.0-1.0","null","<p></p>","null","","","","","","","","","","","","","","","","","","",""
"","do_trial","391","1677247","0.0-210.0-0.0","1738.5","","","","49","1,1,0","4","forest","151","probe-74","0.13156590151552228","1","0.1786741794854568","1","","","","","","","",""
"","html-keyboard-response","392","1678250","0.0-210.0-1.0","null","<p></p>","null","","","","","","","","","","","","","","","","","","",""
"","do_trial","393","1683831","0.0-211.0-0.0","1041.5","","","","49","1,1,0","4","forest","152","probe-222","0.12066684534253927","0.8288593888207609","0.1470788962141485","1","","","","","","","",""
"","html-keyboard-response","394","1684833","0.0-211.0-1.0","null","<p></p>","null","","","","","","","","","","","","","","","","","","",""
"","do_trial","395","1690230","0.0-212.0-0.0","857.5","","","","49","0,1,0","4","forest","153","probe-178","0.1302543228983758","0.7913544768465275","0.16321568220277513","0","","","","","","","",""
"","html-keyboard-response","396","1691232","0.0-212.0-1.0","null","<p></p>","null","","","","","","","","","","","","","","","","","","",""
"","do_trial","397","1696359","0.0-213.0-0.0","588.6999999880791","","","","50","0,1,0","4","forest","154","probe-161","0.09949301970335475","0.7146397002381398","0.27351903669154953","1","","","","","","","",""
"","html-keyboard-response","398","1697362","0.0-213.0-1.0","null","<p></p>","null","","","","","","","","","","","","","","","","","","",""
"","do_trial","399","1702520","0.0-214.0-0.0","618.0999999642372","","","","50","0,1,0","4","forest","155","probe-30","0.06764789006223942","0.7468213850678485","0.2440196383349415","1","","","","","","","",""
"","html-keyboard-response","400","1703522","0.0-214.0-1.0","null","<p></p>","null","","","","","","","","","","","","","","","","","","",""
"","do_trial","401","1709630","0.0-215.0-0.0","1569.3999999761581","","","","50","0,1,0","4","forest","156","probe-106","0.05019271592298262","0.6187659336632649","0.29416387403826677","1","","","","","","","",""
"","html-keyboard-response","402","1710633","0.0-215.0-1.0","null","<p></p>","null","","","","","","","","","","","","","","","","","","",""
"","do_trial","403","1715933","0.0-216.0-0.0","760.5","","","","50","0,1,0","4","forest","157","probe-225","0.2099598243565851","0.5767644972360435","0.29655433100838435","1","","","","","","","",""
"","html-keyboard-response","404","1716935","0.0-216.0-1.0","null","<p></p>","null","","","","","","","","","","","","","","","","","","",""
"","do_trial","405","1722207","0.0-217.0-0.0","733.8000000119209","","","","50","0,1,0","4","forest","158","probe-18","0.13614733523428743","0.6476565032221663","0.507713920350948","1","","","","","","","",""
"","html-keyboard-response","406","1723210","0.0-217.0-1.0","null","<p></p>","null","","","","","","","","","","","","","","","","","","",""
"","do_trial","407","1728287","0.0-218.0-0.0","508.5","","","","50","0,1,0","4","forest","159","probe-151","0.12228828872884417","0.6733433802028194","0.4525047489063782","1","","","","","","","",""
"","html-keyboard-response","408","1729287","0.0-218.0-1.0","null","<p></p>","null","","","","","","","","","","","","","","","","","","",""
"","do_trial","409","1734335","0.0-219.0-0.0","510.0999999642372","","","","50","0,0,1","4","forest","160","probe-223","0.3021038413515044","0.6304103998050214","0.597477109917163","0","","","","","","","",""
"","html-keyboard-response","410","1735337","0.0-219.0-1.0","null","<p></p>","null","","","","","","","","","","","","","","","","","","",""
"","do_trial","411","1741623","0.0-220.0-0.0","1748.8999999761581","","","","51","0,0,0","4","forest","161","probe-144","0.34517164562950264","0.5754606174886893","0.5519718140238422","0","","","","","","","",""
"","html-keyboard-response","412","1742626","0.0-220.0-1.0","null","<p></p>","null","","","","","","","","","","","","","","","","","","",""
"","do_trial","413","1747743","0.0-221.0-0.0","577.9000000357628","","","","49","1,0,1","4","forest","162","probe-26","0.4482996417912154","0.44166748670929623","0.6261649772413397","1","","","","","","","",""
"","html-keyboard-response","414","1748744","0.0-221.0-1.0","null","<p></p>","null","","","","","","","","","","","","","","","","","","",""
"","do_trial","415","1755688","0.0-222.0-0.0","2403.699999988079","","","","49","1,0,1","4","forest","163","probe-01","0.3587482508663614","0.24085590637240833","0.7114598272970369","1","","","","","","","",""
"","html-keyboard-response","416","1756690","0.0-222.0-1.0","null","<p></p>","null","","","","","","","","","","","","","","","","","","",""
"","do_trial","417","1761766","0.0-223.0-0.0","537","","","","49","1,1,1","4","forest","164","probe-34","0.35223557625150326","0.11456012434754226","0.6782897277603798","1","","","","","","","",""
"","html-keyboard-response","418","1762768","0.0-223.0-1.0","null","<p></p>","null","","","","","","","","","","","","","","","","","","",""
"","do_trial","419","1768016","0.0-224.0-0.0","705.5","","","","49","1,0,0","4","forest","165","probe-92","0.28697113071032204","0.05276927375185354","0.6729414334871927","1","","","","","","","",""
"","html-keyboard-response","420","1769017","0.0-224.0-1.0","null","<p></p>","null","","","","","","","","","","","","","","","","","","",""
"","do_trial","421","1774095","0.0-225.0-0.0","535.2000000476837","","","","49","0,0,0","4","forest","166","probe-220","0.2597440252606247","0.2347238548432221","0.6410703987375699","0","","","","","","","",""
"","html-keyboard-response","422","1775097","0.0-225.0-1.0","null","<p></p>","null","","","","","","","","","","","","","","","","","","",""
"","do_trial","423","1779752","0.0-226.0-0.0","115.79999995231628","","","","49","0,0,1","4","forest","167","probe-168","0.1482323115852597","0.24015317384835164","0.6157967531487403","0","","","","","","","",""
"","html-keyboard-response","424","1780754","0.0-226.0-1.0","null","<p></p>","null","","","","","","","","","","","","","","","","","","",""
"","do_trial","425","1785856","0.0-227.0-0.0","561.2999999523163","","","","49","0,0,1","4","forest","168","probe-120","0.07708025362061362","0.07276095158997518","0.7453728612564363","0","","","","","","","",""
"","html-keyboard-response","426","1786858","0.0-227.0-1.0","null","<p></p>","null","","","","","","","","","","","","","","","","","","",""
"","do_trial","427","1792152","0.0-228.0-0.0","753","","","","49","0,0,1","4","forest","169","probe-140","0.14791803224021854","0.08189473391111424","0.8211443658177418","0","","","","","","","",""
"","html-keyboard-response","428","1793154","0.0-228.0-1.0","null","<p></p>","null","","","","","","","","","","","","","","","","","","",""
"","do_trial","429","1798151","0.0-229.0-0.0","457.4000000357628","","","","50","0,0,0","4","forest","170","probe-228","0.2961939908567205","0.10433823857784436","0.7152263962410678","0","","","","","","","",""
"","html-keyboard-response","430","1799154","0.0-229.0-1.0","null","<p></p>","null","","","","","","","","","","","","","","","","","","",""
"","do_trial","431","1804545","0.0-230.0-0.0","850.6999999880791","","","","50","0,0,1","4","forest","171","probe-40","0.15725812554786947","0.1027875659769615","0.6589406158972699","0","","","","","","","",""
"","html-keyboard-response","432","1805547","0.0-230.0-1.0","null","<p></p>","null","","","","","","","","","","","","","","","","","","",""
"","do_trial","433","1810815","0.0-231.0-0.0","728","","","","50","1,0,1","4","forest","172","probe-24","0.26387604025897743","0.08378539748855875","0.7483067330006864","0","","","","","","","",""
"","html-keyboard-response","434","1811817","0.0-231.0-1.0","null","<p></p>","null","","","","","","","","","","","","","","","","","","",""
"","do_trial","435","1816904","0.0-232.0-0.0","546.3999999761581","","","","50","0,0,0","4","forest","173","probe-127","0.27284513370556057","0.14961544576920546","0.6155826221639294","0","","","","","","","",""
"","html-keyboard-response","436","1817905","0.0-232.0-1.0","null","<p></p>","null","","","","","","","","","","","","","","","","","","",""
"","do_trial","437","1823318","0.0-233.0-0.0","872.6999999880791","","","","50","0,0,0","4","forest","174","probe-209","0.27675172864110253","0.25512889092828883","0.6846897064035854","0","","","","","","","",""
"","html-keyboard-response","438","1824320","0.0-233.0-1.0","null","<p></p>","null","","","","","","","","","","","","","","","","","","",""
"","do_trial","439","1830352","0.0-234.0-0.0","1491.699999988079","","","","51","1,0,1","4","forest","175","probe-47","0.24196376906223055","0.1812283293354803","0.680778303099132","1","","","","","","","",""
"","html-keyboard-response","440","1831354","0.0-234.0-1.0","null","<p></p>","null","","","","","","","","","","","","","","","","","","",""
"","do_trial","441","1837395","0.0-235.0-0.0","null","","","","null","1,0,1","4","forest","176","probe-112","0.2756156175342672","0.0889309448946836","0.5427288870092136","","","","","","","","",""
"","html-keyboard-response","442","1838397","0.0-235.0-1.0","null","<p></p>","null","","","","","","","","","","","","","","","","","","",""
"","do_trial","443","1843559","0.0-236.0-0.0","611.6999999880791","","","","51","1,0,1","4","forest","177","probe-05","0.2716767351575348","0.06219156862435649","0.5606567430199338","1","","","","","","","",""
"","html-keyboard-response","444","1844561","0.0-236.0-1.0","null","<p></p>","null","","","","","","","","","","","","","","","","","","",""
"","do_trial","445","1850086","0.0-237.0-0.0","985","","","","51","0,0,1","4","forest","178","probe-36","0.23080028530581423","0.12195532335538868","0.652958406133133","1","","","","","","","",""
"","html-keyboard-response","446","1851088","0.0-237.0-1.0","null","<p></p>","null","","","","","","","","","","","","","","","","","","",""
"","do_trial","447","1856872","0.0-238.0-0.0","1244","","","","51","0,0,1","4","forest","179","probe-148","0.38886699002541236","0.14480168424555562","0.6433945640813292","1","","","","","","","",""
"","html-keyboard-response","448","1857873","0.0-238.0-1.0","null","<p></p>","null","","","","","","","","","","","","","","","","","","",""
"","do_trial","449","1863297","0.0-239.0-0.0","726","","","","51","0,0,0","4","forest","180","probe-132","0.3050013500403299","0.11728998616289263","0.6392153119911723","0","","","","","","","",""
"","html-keyboard-response","450","1864300","0.0-239.0-1.0","null","<p></p>","null","","","","","","","","","","","","","","","","","","",""
"","do_trial","451","1871264","0.0-240.0-0.0","2425.300000011921","","","","51","1,0,1","4","forest","181","probe-19","0.23522105525044087","0.10236554821687831","0.6579214222024561","1","","","","","","","",""
"","html-keyboard-response","452","1872266","0.0-240.0-1.0","null","<p></p>","null","","","","","","","","","","","","","","","","","","",""
"","do_trial","453","1877984","0.0-241.0-0.0","1176.8999999761581","","","","51","0,1,1","4","forest","182","probe-211","0.310275470051409","0.17129106634914326","0.6122479210471637","1","","","","","","","",""
"","html-keyboard-response","454","1878987","0.0-241.0-1.0","null","<p></p>","null","","","","","","","","","","","","","","","","","","",""
"","do_trial","455","1884823","0.0-242.0-0.0","1296.199999988079","","","","51","0,1,0","4","forest","183","probe-182","0.33950890285316676","0.2507753851645758","0.7109609727321764","0","","","","","","","",""
"","html-keyboard-response","456","1885825","0.0-242.0-1.0","null","<p></p>","null","","","","","","","","","","","","","","","","","","",""
"","do_trial","457","1891647","0.0-243.0-0.0","1284","","","","50","1,0,1","4","forest","184","probe-81","0.2566646150559657","0.1923721066981636","0.7376337634535338","0","","","","","","","",""
"","html-keyboard-response","458","1892650","0.0-243.0-1.0","null","<p></p>","null","","","","","","","","","","","","","","","","","","",""
"","do_trial","459","1898079","0.0-244.0-0.0","889.5999999642372","","","","49","0,0,1","4","forest","185","probe-10","0.30539257127267605","0.11415593917210524","0.6023071440624748","0","","","","","","","",""
"","html-keyboard-response","460","1899082","0.0-244.0-1.0","null","<p></p>","null","","","","","","","","","","","","","","","","","","",""
"","do_trial","461","1904480","0.0-245.0-0.0","859.8000000119209","","","","49","1,0,1","4","forest","186","probe-196","0.2954522870620274","0.14526040855359357","0.6904881020394598","1","","","","","","","",""
"","html-keyboard-response","462","1905482","0.0-245.0-1.0","null","<p></p>","null","","","","","","","","","","","","","","","","","","",""
"","do_trial","463","1910726","0.0-246.0-0.0","708.6000000238419","","","","49","0,1,0","4","forest","187","probe-213","0.36252522240059465","0.12079469228891185","0.6238824458824263","0","","","","","","","",""
"","html-keyboard-response","464","1911728","0.0-246.0-1.0","null","<p></p>","null","","","","","","","","","","","","","","","","","","",""
"","do_trial","465","1917144","0.0-247.0-0.0","876","","","","49","0,0,0","4","forest","188","probe-64","0.2392080929549178","0.14851190177121243","0.6274928238095988","0","","","","","","","",""
"","html-keyboard-response","466","1918147","0.0-247.0-1.0","null","<p></p>","null","","","","","","","","","","","","","","","","","","",""
"","do_trial","467","1923520","0.0-248.0-0.0","826.6000000238419","","","","51","0,1,1","4","forest","189","probe-46","0.13187223811185161","0.11675727805273928","0.6924942954672092","1","","","","","","","",""
"","html-keyboard-response","468","1924522","0.0-248.0-1.0","null","<p></p>","null","","","","","","","","","","","","","","","","","","",""
"","do_bye","469","1926030","0.0-249.0-0.0","null","","","","null","","","","","","","","","","","","","","","","",""
"","do_travel","470","1932034","0.0-250.0-0.0","null","","","","null","","","","","","","","","","","","","","","","",""
"","do_welcome","471","1933542","0.0-250.0-1.0","null","","","","null","","","","","","","","","","","","","","","","",""
"","do_trial","472","1940505","0.0-251.0-0.0","2423.5","","","","50","0,0,1","5","countryside","190","probe-189","0.15714218579744685","0.14156754963407894","1","0","","","","","","","",""
"","html-keyboard-response","473","1941507","0.0-251.0-1.0","null","<p></p>","null","","","","","","","","","","","","","","","","","","",""
"","do_trial","474","1946582","0.0-252.0-0.0","536.5","","","","49","0,0,1","5","countryside","191","probe-02","0.23835982570102474","0.17824029329168034","1","0","","","","","","","",""
"","html-keyboard-response","475","1947584","0.0-252.0-1.0","null","<p></p>","null","","","","","","","","","","","","","","","","","","",""
"","do_trial","476","1954592","0.0-253.0-0.0","2452.699999988079","","","","51","1,0,1","5","countryside","192","probe-130","0.3162826490933665","0.12753616965407458","0.9295483150989411","1","","","","","","","",""
"","html-keyboard-response","477","1955596","0.0-253.0-1.0","null","<p></p>","null","","","","","","","","","","","","","","","","","","",""
"","do_trial","478","1961109","0.0-254.0-0.0","972.3999999761581","","","","51","0,0,1","5","countryside","193","probe-212","0.192344604281262","0.11067817216376039","0.901933827195763","1","","","","","","","",""
"","html-keyboard-response","479","1962112","0.0-254.0-1.0","null","<p></p>","null","","","","","","","","","","","","","","","","","","",""
"","do_trial","480","1967216","0.0-255.0-0.0","561.8999999761581","","","","51","0,0,1","5","countryside","194","probe-90","0.20581816513527404","0.050557948552621655","0.7013206739069834","1","","","","","","","",""
"","html-keyboard-response","481","1968218","0.0-255.0-1.0","null","<p></p>","null","","","","","","","","","","","","","","","","","","",""
"","do_trial","482","1973238","0.0-256.0-0.0","480.80000001192093","","","","51","0,0,1","5","countryside","195","probe-156","0.39253840366402165","0.14553268884446","0.5922229040122439","1","","","","","","","",""
"","html-keyboard-response","483","1974242","0.0-256.0-1.0","null","<p></p>","null","","","","","","","","","","","","","","","","","","",""
"","do_trial","484","1979463","0.0-257.0-0.0","682.8000000119209","","","","51","1,0,1","5","countryside","196","probe-14","0.437100847040885","0.05591355048539092","0.5529463912442758","1","","","","","","","",""
"","html-keyboard-response","485","1980466","0.0-257.0-1.0","null","<p></p>","null","","","","","","","","","","","","","","","","","","",""
"","do_trial","486","1985445","0.0-258.0-0.0","440.2000000476837","","","","51","0,1,0","5","countryside","197","probe-72","0.3462577889573716","0.265107731919388","0.512913778199337","0","","","","","","","",""
"","html-keyboard-response","487","1986448","0.0-258.0-1.0","null","<p></p>","null","","","","","","","","","","","","","","","","","","",""
"","do_trial","488","1991799","0.0-259.0-0.0","811.8000000119209","","","","51","0,0,0","5","countryside","198","probe-175","0.46365222560570724","0.09137742021022577","0.5813617798343947","0","","","","","","","",""
"","html-keyboard-response","489","1992802","0.0-259.0-1.0","null","<p></p>","null","","","","","","","","","","","","","","","","","","",""
"","do_trial","490","1998087","0.0-260.0-0.0","745.3000000119209","","","","51","1,0,0","5","countryside","199","probe-17","0.4717866870033927","0.09998359913262908","0.555978563847601","0","","","","","","","",""
"","html-keyboard-response","491","1999090","0.0-260.0-1.0","null","<p></p>","null","","","","","","","","","","","","","","","","","","",""
"","do_trial","492","2004303","0.0-261.0-0.0","670.8000000119209","","","","51","0,0,0","5","countryside","200","probe-63","0.4490725558991727","0.052668107630338856","0.5300636838624685","0","","","","","","","",""
"","html-keyboard-response","493","2005306","0.0-261.0-1.0","null","<p></p>","null","","","","","","","","","","","","","","","","","","",""
"","do_trial","494","2010383","0.0-262.0-0.0","541.1000000238419","","","","51","1,0,1","5","countryside","201","probe-78","0.3909820008678104","0.05536079011031413","0.4851173359255772","1","","","","","","","",""
"","html-keyboard-response","495","2011384","0.0-262.0-1.0","null","<p></p>","null","","","","","","","","","","","","","","","","","","",""
"","do_trial","496","2016720","0.0-263.0-0.0","794","","","","51","0,0,1","5","countryside","202","probe-101","0.542005391228376","0.08182047299210286","0.5091865476033963","1","","","","","","","",""
"","html-keyboard-response","497","2017722","0.0-263.0-1.0","null","<p></p>","null","","","","","","","","","","","","","","","","","","",""
"","do_trial","498","2022888","0.0-264.0-0.0","623","","","","51","0,1,1","5","countryside","203","probe-50","0.5041632068738953","0.1270439324887277","0.5548553453960574","1","","","","","","","",""
"","html-keyboard-response","499","2023889","0.0-264.0-1.0","null","<p></p>","null","","","","","","","","","","","","","","","","","","",""
"","do_trial","500","2029080","0.0-265.0-0.0","649.3999999761581","","","","51","0,0,0","5","countryside","204","probe-56","0.5122547233975359","0.18414055384076647","0.4017669573040699","0","","","","","","","",""
"","html-keyboard-response","501","2030082","0.0-265.0-1.0","null","<p></p>","null","","","","","","","","","","","","","","","","","","",""
"","do_trial","502","2037182","0.0-266.0-0.0","2561","","","","51","0,0,0","5","countryside","205","probe-11","0.40553461936728413","0.07506277933967806","0.31449697165419743","0","","","","","","","",""
"","html-keyboard-response","503","2038185","0.0-266.0-1.0","null","<p></p>","null","","","","","","","","","","","","","","","","","","",""
"","do_trial","504","2044223","0.0-267.0-0.0","null","","","","null","1,0,0","5","countryside","206","probe-185","0.5630351347552452","0.10416150283232617","0.2106711944222983","","","","","","","","",""
"","html-keyboard-response","505","2045226","0.0-267.0-1.0","null","<p></p>","null","","","","","","","","","","","","","","","","","","",""
"","do_trial","506","2051008","0.0-268.0-0.0","1242.8999999761581","","","","51","1,0,0","5","countryside","207","probe-107","0.5120887945622357","0.11717477701814218","0.3482715440747854","0","","","","","","","",""
"","html-keyboard-response","507","2052010","0.0-268.0-1.0","null","<p></p>","null","","","","","","","","","","","","","","","","","","",""
"","do_trial","508","2057824","0.0-269.0-0.0","1274.2999999523163","","","","50","0,0,1","5","countryside","208","probe-136","0.38644511357874023","0.08800128777811284","0.41111449742514966","0","","","","","","","",""
"","html-keyboard-response","509","2058826","0.0-269.0-1.0","null","<p></p>","null","","","","","","","","","","","","","","","","","","",""
"","do_trial","510","2063904","0.0-270.0-0.0","539.1999999880791","","","","49","0,0,0","5","countryside","209","probe-115","0.4004746807912328","0.0996082085834","0.3396234314280639","0","","","","","","","",""
"","html-keyboard-response","511","2064907","0.0-270.0-1.0","null","<p></p>","null","","","","","","","","","","","","","","","","","","",""
"","do_trial","512","2070680","0.0-271.0-0.0","1237.300000011921","","","","51","1,0,1","5","countryside","210","probe-183","0.5133832474971249","0.21316565217766775","0.5548966740396619","1","","","","","","","",""
"","html-keyboard-response","513","2071681","0.0-271.0-1.0","null","<p></p>","null","","","","","","","","","","","","","","","","","","",""
"","do_trial","514","2077686","0.0-272.0-0.0","1463.0999999642372","","","","51","0,0,0","5","countryside","211","probe-137","0.42254094627828254","0.12370731710113049","0.47313177961800534","0","","","","","","","",""
"","html-keyboard-response","515","2078689","0.0-272.0-1.0","null","<p></p>","null","","","","","","","","","","","","","","","","","","",""
"","do_trial","516","2084304","0.0-273.0-0.0","1074.6000000238419","","","","50","1,0,0","5","countryside","212","probe-145","0.713809993374504","0.22404094494727175","0.37215550795911545","0","","","","","","","",""
"","html-keyboard-response","517","2085307","0.0-273.0-1.0","null","<p></p>","null","","","","","","","","","","","","","","","","","","",""
"","do_trial","518","2090623","0.0-274.0-0.0","760.5999999642372","","","","49","0,0,1","5","countryside","213","probe-129","0.7446624563586041","0.09888731547079195","0.4810775894963961","0","","","","","","","",""
"","html-keyboard-response","519","2091625","0.0-274.0-1.0","null","<p></p>","null","","","","","","","","","","","","","","","","","","",""
"","do_trial","520","2096825","0.0-275.0-0.0","660.0999999642372","","","","50","1,0,1","5","countryside","214","probe-29","0.8409840784133724","0.09535831702499513","0.55927445495912","0","","","","","","","",""
"","html-keyboard-response","521","2097828","0.0-275.0-1.0","null","<p></p>","null","","","","","","","","","","","","","","","","","","",""
"","do_trial","522","2102990","0.0-276.0-0.0","619.2000000476837","","","","51","1,1,0","5","countryside","215","probe-31","0.7253735316572458","0.05724799539986505","0.5323173787454155","0","","","","","","","",""
"","html-keyboard-response","523","2103991","0.0-276.0-1.0","null","<p></p>","null","","","","","","","","","","","","","","","","","","",""
"","do_trial","524","2109319","0.0-277.0-0.0","789","","","","49","1,0,0","5","countryside","216","probe-152","0.7377683818370677","0.11231308893624106","0.4347931617922465","1","","","","","","","",""
"","html-keyboard-response","525","2110322","0.0-277.0-1.0","null","<p></p>","null","","","","","","","","","","","","","","","","","","",""
"","do_trial","526","2115974","0.0-278.0-0.0","1106.5","","","","49","1,0,1","5","countryside","217","probe-149","0.8246902920895249","0.08169620446361896","0.4189321126299819","1","","","","","","","",""
"","html-keyboard-response","527","2116977","0.0-278.0-1.0","null","<p></p>","null","","","","","","","","","","","","","","","","","","",""
"","do_trial","528","2122599","0.0-279.0-0.0","1079.199999988079","","","","49","1,0,0","5","countryside","218","probe-42","0.9359617172771859","0.3182058466460647","0.5057201219788628","1","","","","","","","",""
"","html-keyboard-response","529","2123601","0.0-279.0-1.0","null","<p></p>","null","","","","","","","","","","","","","","","","","","",""
"","do_trial","530","2131087","0.0-280.0-0.0","2945.5","","","","49","1,0,0","5","countryside","219","probe-103","0.889284743172865","0.25348968714672654","0.40198552692717654","1","","","","","","","",""
"","html-keyboard-response","531","2132090","0.0-280.0-1.0","null","<p></p>","null","","","","","","","","","","","","","","","","","","",""
