"success","trial_type","trial_index","time_elapsed","internal_node_id","rt","stimulus","key_press","subject_id","participant_id","age","gender","prompt","response","choice_outcomes","context_n","context_img_id","trial_n","probe_img_id","pR_red","pR_white","pR_black","outcome","contextArray_ind","validImageProbes","invalidImageProbes","pRew_Red","pRew_White","pRew_Black","availableForMemProbe","choice_blocks"
"true","fullscreen","0","3840","0.0-0.0","","","","","","","","","","","","","","","","","","","","","","","","","",""
"","pavlovia","1","3844","0.0-1.0","","","","","","","","","","","","","","","","","","","","","","","","","",""
"","instruc1","2","59952","0.0-2.0","null","run_exp/static/audio/clip_1_welcome.m4a","null","67","521","10","Male","<div class='center'><p>Welcome! This is the first part of the experiment. It will last ~30 minutes. In this experiment, you are the head captain of a pirate ship traveling around the world to different islands. You will play a few different games during this experiment. Here is an overview of these games:</p><br><p>Part 1 (today)</p><p>1. Instructions, practice game, and quiz</p><p>2. Pick a pirate game on 6 different islands</p><br><p>Part 2 (1 day later)</p><p>3. Pick a pirate game and memory game</p><p>4. Where did I see this ship? game</p><p>5. Which pirate was the best? game</p><br><p>Part 3 (1 week later)</p><p>6. Alien space mining game</p><p>7. Memory game</p></div>","","","","","","","","","","","","","","","","","",""
"","html-keyboard-response","3","60843","0.0-3.0","889.1999999880791","<div class='center'><p>Welcome! This is the first part of the experiment. It will last ~30 minutes. In this experiment, you are the head captain of a pirate ship traveling around the world to different islands. You will play a few different games during this experiment. Here is an overview of these games:</p><br><p>Part 1 (today)</p><p>1. Instructions, practice game, and quiz</p><p>2. Pick a pirate game on 6 different islands</p><br><p>Part 2 (1 day later)</p><p>3. Pick a pirate game and memory game</p><p>4. Where did I see this ship? game</p><p>5. Which pirate was the best? game</p><br><p>Part 3 (1 week later)</p><p>6. Alien space mining game</p><p>7. Memory game</p><p><b>[Press the space bar to continue]</b></p></div>","32","","","","","","","","","","","","","","","","","","","","","","",""
"","instruc2","4","68845","0.0-4.0","null","run_exp/static/audio/clip_2_different_places.m4a","null","","","","","<div class='center'><p>Today, you’ll visit these 6 islands on your journey. You'll be able to see these islands from your ship.</p><p><img src='run_exp/static/images/contexts/all_contexts.png' height='500'></p></div>","","","","","","","","","","","","","","","","","",""
"","html-keyboard-response","5","69146","0.0-5.0","299.9000000357628","<div class='center'><p>Today, you’ll visit these 6 islands on your journey. You'll be able to see these islands from your ship.</p><p><img src='run_exp/static/images/contexts/all_contexts.png' height='500'></p><p><b>[Press the space bar to continue]</b></p></div>","32","","","","","","","","","","","","","","","","","","","","","","",""
"","instruc3","6","81731","0.0-6.0","null","run_exp/static/audio/clip_3_goal_of_game_1.m4a","null","","","","","<div class='center'><p> The pirates on your ship will rob other ships as they leave the island</p> These ships have just sold their things to people on the island, so they will be filled with lots and lots of gold.</p><p><img src='run_exp/static/images/tutorial/ship_center.png' height='400'></p></div>","","","","","","","","","","","","","","","","","",""
"","html-keyboard-response","7","82555","0.0-7.0","822.0999999642372","<div class='center'><p> The pirates on your ship will rob other ships as they leave the island</p> These ships have just sold their things to people on the island, so they will be filled with lots and lots of gold.</p><p><img src='run_exp/static/images/tutorial/ship_center.png' height='400'></p><p><b>[Press the space bar to continue]</b></p></div>","32","","","","","","","","","","","","","","","","","","","","","","",""
"","instruc4","8","115771","0.0-8.0","null","run_exp/static/audio/clip_4_goal_of_game_2.m4a","null","","","","","<div class='center'><p>As the head captain, you do not have to rob any ships yourself.</p><p>Another pirate will be doing the robbing for you. </p><p>First, you will  choose a pirate to rob the next ship.</p><p><img src='run_exp/static/images/tutorial/pirates_all_crop.png' height='200'></p><p>Then, you'll see if the pirate successfully robbed the ship of their gold. If they were successful, then you'll  get a stack of gold coins like this:</p><p><img src='run_exp/static/images/tutorial/reward.png' height='150'></p><p> If they were <b>not</b> successful, then you'll get no gold coins, and you'll see a big red x like this: </p><p><img src='run_exp/static/images/tutorial/reward_no.png' height='150'></p><p> How much bonus money you make is based on how many gold coins you collect.</p><div>","","","","","","","","","","","","","","","","","",""
"","html-keyboard-response","9","117665","0.0-9.0","1892.5","<div class='center'><p>As the head captain, you do not have to rob any ships yourself.</p><p>Another pirate will be doing the robbing for you. </p><p>First, you will  choose a pirate to rob the next ship.</p><p><img src='run_exp/static/images/tutorial/pirates_all_crop.png' height='200'></p><p>Then, you'll see if the pirate successfully robbed the ship of their gold. If they were successful, then you'll  get a stack of gold coins like this:</p><p><img src='run_exp/static/images/tutorial/reward.png' height='150'></p><p> If they were <b>not</b> successful, then you'll get no gold coins, and you'll see a big red x like this: </p><p><img src='run_exp/static/images/tutorial/reward_no.png' height='150'></p><p> How much bonus money you make is based on how many gold coins you collect.</p<p><b>[Press the space bar to continue]</b></p></div>","32","","","","","","","","","","","","","","","","","","","","","","",""
"","instruc5","10","137196","0.0-10.0","19529.5","run_exp/static/audio/clip_5_probabilistic.m4a","49","","","","","<div class='center'><p>Even the most skilled pirate can not rob EVERY ship.</p><p> Some ships will have very strong protections against pirate attacks.</p><p> Blue beard, here, is very, very good at robbing ships, but he won't be successful every time he tries to rob one.</p><p> You can press the <b>‘1’</b> key on the keyboard to choose him.</p><p> Try choosing him 10 times to see how often he succeeds at robbing a ship. </p><p><img src='run_exp/static/images/tutorial/blue.png' height='500'></p></div>","","","","","","","","","","","","","","","","","",""
"","html-keyboard-response","11","138700","0.0-11.0","null","<div class='center'><p><img src='run_exp/static/images/tutorial/blue_win.png' height='500'></p></div>","null","","","","","","","","","","","","","","","","","","","","","","",""
"","html-keyboard-response","12","139675","0.0-12.0","974.5","<div class='center'><img src='run_exp/static/images/tutorial/blue.png' height='500'></p></div>","49","","","","","","","","","","","","","","","","","","","","","","",""
"","html-keyboard-response","13","141178","0.0-13.0","null","<div class='center'><p><img src='run_exp/static/images/tutorial/blue_win.png' height='500'></p></div>","null","","","","","","","","","","","","","","","","","","","","","","",""
"","html-keyboard-response","14","142011","0.0-14.0","831.8999999761581","<div class='center'><img src='run_exp/static/images/tutorial/blue.png' height='500'></p></div>","49","","","","","","","","","","","","","","","","","","","","","","",""
"","html-keyboard-response","15","143516","0.0-15.0","null","<div class='center'><p><img src='run_exp/static/images/tutorial/blue_win.png' height='500'></p></div>","null","","","","","","","","","","","","","","","","","","","","","","",""
"","html-keyboard-response","16","144219","0.0-16.0","702","<div class='center'><img src='run_exp/static/images/tutorial/blue.png' height='500'></p></div>","49","","","","","","","","","","","","","","","","","","","","","","",""
"","html-keyboard-response","17","145722","0.0-17.0","null","<div class='center'><p><img src='run_exp/static/images/tutorial/blue_no_win.png' height='500'></p></div>","null","","","","","","","","","","","","","","","","","","","","","","",""
"","html-keyboard-response","18","146659","0.0-18.0","936.2999999523163","<div class='center'><img src='run_exp/static/images/tutorial/blue.png' height='500'></p></div>","49","","","","","","","","","","","","","","","","","","","","","","",""
"","html-keyboard-response","19","148163","0.0-19.0","null","<div class='center'><p><img src='run_exp/static/images/tutorial/blue_win.png' height='500'></p></div>","null","","","","","","","","","","","","","","","","","","","","","","",""
"","html-keyboard-response","20","149811","0.0-20.0","1647.3999999761581","<div class='center'><img src='run_exp/static/images/tutorial/blue.png' height='500'></p></div>","49","","","","","","","","","","","","","","","","","","","","","","",""
"","html-keyboard-response","21","151313","0.0-21.0","null","<div class='center'><p><img src='run_exp/static/images/tutorial/blue_win.png' height='500'></p></div>","null","","","","","","","","","","","","","","","","","","","","","","",""
"","html-keyboard-response","22","152139","0.0-22.0","824.5","<div class='center'><img src='run_exp/static/images/tutorial/blue.png' height='500'></p></div>","49","","","","","","","","","","","","","","","","","","","","","","",""
"","html-keyboard-response","23","153640","0.0-23.0","null","<div class='center'><p><img src='run_exp/static/images/tutorial/blue_win.png' height='500'></p></div>","null","","","","","","","","","","","","","","","","","","","","","","",""
"","html-keyboard-response","24","154251","0.0-24.0","609.7999999523163","<div class='center'><img src='run_exp/static/images/tutorial/blue.png' height='500'></p></div>","49","","","","","","","","","","","","","","","","","","","","","","",""
"","html-keyboard-response","25","155753","0.0-25.0","null","<div class='center'><p><img src='run_exp/static/images/tutorial/blue_no_win.png' height='500'></p></div>","null","","","","","","","","","","","","","","","","","","","","","","",""
"","html-keyboard-response","26","157162","0.0-26.0","1408.800000011921","<div class='center'><img src='run_exp/static/images/tutorial/blue.png' height='500'></p></div>","49","","","","","","","","","","","","","","","","","","","","","","",""
"","html-keyboard-response","27","158665","0.0-27.0","null","<div class='center'><p><img src='run_exp/static/images/tutorial/blue_win.png' height='500'></p></div>","null","","","","","","","","","","","","","","","","","","","","","","",""
"","html-keyboard-response","28","159539","0.0-28.0","872.6000000238419","<div class='center'><img src='run_exp/static/images/tutorial/blue.png' height='500'></p></div>","49","","","","","","","","","","","","","","","","","","","","","","",""
"","html-keyboard-response","29","161044","0.0-29.0","null","<div class='center'><p><img src='run_exp/static/images/tutorial/blue_win.png' height='500'></p></div>","null","","","","","","","","","","","","","","","","","","","","","","",""
"","instruc6","30","167679","0.0-30.0","null","run_exp/static/audio/clip_6_blue_beard_outcome.m4a","null","","","","","<div class='center'><p> See, he succeeded in robbing the ships most of the time but not every time. </p></div>","","","","","","","","","","","","","","","","","",""
"","html-keyboard-response","31","169184","0.0-31.0","1505.1000000238419","<div class='center'><p> See, he succeeded in robbing the ships most of the time but not every time. </p><p><b>[Press the space bar to continue]</b></p></div>","32","","","","","","","","","","","","","","","","","","","","","","",""
"","audio-keyboard-response","32","177184","0.0-32.0","7997.699999988079","run_exp/static/audio/clip_7_pick_pirate.m4a","49","","","","","","","","","","","","","","","","","","","","","","",""
"","audio-keyboard-response","33","180104","0.0-33.0-0.0","2917.900000035763","run_exp/static/audio/clip_8_chosen_pirate_win.m4a","32","","","","","","","","","","","","","","","","","","","","","","",""
"","audio-keyboard-response","34","182991","0.0-33.0-1.0","2886.599999964237","run_exp/static/audio/clip_9_pick_a_pirate_again.m4a","50","","","","","","","","","","","","","","","","","","","","","","",""
"","audio-keyboard-response","35","184103","0.0-34.0-0.0","1109.8999999761581","run_exp/static/audio/clip_10_chosen_pirate_loss.m4a","32","","","","","","","","","","","","","","","","","","","","","","",""
"","instruc9","36","191246","0.0-35.0-0.0","null","run_exp/static/audio/clip_11_time_out.m4a","null","","","","","<div class='center'><p>If you don’t make your choice fast enough, you’ll have to wait a few seconds before you can make another one. </p><p><img src='run_exp/static/images/miscellaneous/hurry_up.png' height='500'></p></div>","","","","","","","","","","","","","","","","","",""
"","html-keyboard-response","37","193853","0.0-35.0-1.0","2605.900000035763","<div class='center'><p>If you don’t make your choice fast enough, you’ll have to wait a few seconds before you can make another one. </p><p><img src='run_exp/static/images/miscellaneous/hurry_up.png' height='500'></p><p><b>[Press the space bar to continue]</b></p></div>","32","","","","","","","","","","","","","","","","","","","","","","",""
"","instruc10","38","242491","0.0-35.0-2.0","null","run_exp/static/audio/clip_12_probe.m4a","null","","","","","<div class='center'><p>Once you've choose a pirate, you’ll be shown the ship they are robbing.</p><p>You will never rob the same ship twice. After all, ships that have already been robbed won’t have gold on them. </p><p>Ships can be told apart from one another by the image on them. See, this one has a travel mug on it. </p><p> You’ll have to remember which island you saw each ship on.You will win more bonus money if you remember correctly! To help you remember, you can imagine a story. For example, here, you could imagine a mug full of water in the desert. Or, as another example, if on the forest island, your pirate robbed a ship with an apple on it, you could imagine an apple falling from a tree in the forest. </p><p><img src='run_exp/static/images/tutorial/example_probe.png' height='500'></p></div>","","","","","","","","","","","","","","","","","",""
"","html-keyboard-response","39","245526","0.0-35.0-3.0","3033.7000000476837","<div class='center'><p>Once you've choose a pirate, you’ll be shown the ship they are robbing.</p><p>You will never rob the same ship twice. After all, ships that have already been robbed won’t have gold on them. </p><p>Ships can be told apart from one another by the image on them. See, this one has a travel mug on it. </p><p> You’ll have to remember which island you saw each ship on.You will win more bonus money if you remember correctly! To help you remember, you can imagine a story. For example, here, you could imagine a mug full of water in the desert. Or, as another example, if on the forest island, your pirate robbed a ship with an apple on it, you could imagine an apple falling from a tree in the forest. </p><p><img src='run_exp/static/images/tutorial/example_probe.png' height='500'></p><p><b>[Press the space bar to continue]</b></p></div>","32","","","","","","","","","","","","","","","","","","","","","","",""
"","instruc11","40","266431","0.0-35.0-4.0","null","run_exp/static/audio/clip_13_changepoint.m4a","null","","","","","<div class='center'><p>How successful a pirate is at robbing ships will depend on the island you’re on.</p><p> A pirate may have visited this island many times before and gained a lot of practice robbing ships there.</p><p>So, they’re more likely to be successful than a pirate who has never visited the island before.</p></div>","","","","","","","","","","","","","","","","","",""
"","html-keyboard-response","41","267207","0.0-35.0-5.0","775.3000000119209","<div class='center'><p>How successful a pirate is at robbing ships will depend on the island you’re on.</p><p> A pirate may have visited this island many times before and gained a lot of practice robbing ships there.</p><p>So, they’re more likely to be successful than a pirate who has never visited the island before.</p><p><b>[Press the space bar to continue]</b></p></div>","32","","","","","","","","","","","","","","","","","","","","","","",""
"","instruc12","42","295223","0.0-35.0-6.0","null","run_exp/static/audio/clip_14_drift.m4a","null","","","","","<div class='center'><p>How successful a pirate is at robbing ships can also change over the time spent on the island. </p><p> Ships may hear from islanders about the pirates coming and will improve their protections against the attack. This may make it harder to rob them.</p><p> Ships may also become lazy and weaken the strength of their protections. This may make it easier to rob them.</p><br><p>Things are always changing on the high seas! So, try your best to pay attention!</p><p><img src='run_exp/static/images/tutorial/contingency.png' height='500'></p></div>","","","","","","","","","","","","","","","","","",""
"","html-keyboard-response","43","296645","0.0-35.0-7.0","1421.6000000238419","<div class='center'><p>How successful a pirate is at robbing ships can also change over the time spent on the island. </p><p> Ships may hear from islanders about the pirates coming and will improve their protections against the attack. This may make it harder to rob them.</p><p> Ships may also become lazy and weaken the strength of their protections. This may make it easier to rob them.</p><br><p>Things are always changing on the high seas! So, try your best to pay attention!</p><p><img src='run_exp/static/images/tutorial/contingency.png' height='500'></p><p><b>[Press the space bar to continue]</b></p></div>","32","","","","","","","","","","","","","","","","","","","","","","",""
"","instruc13","44","341313","0.0-35.0-8.0","null","run_exp/static/audio/clip_15_summary.m4a","null","","","","","<div class='center'><p>Let's go over the instructions quickly again. You have two important things to do: </p><b><p> 1. Pick the pirate who is the best at robbing ships on the current island. This way you'll collect more gold coins!</p></b><b><p> 2. Remember on which island a ship was robbed.</p> </b><p>The amount of bonus money you can win depends on both.</p><p><br><p>Let’s try a practice game. The game will start by showing you the pirates. First, pick a pirate using the <b> 1, 2, 3 </b> keys on your keyboard. When you are shown a ship, try to remember which island you’re on by making up a story.</p><p>This is just a practice game, so you’re not playing for money. </p><p> Good luck!</p></div>","","","","","","","","","","","","","","","","","",""
"","html-keyboard-response","45","341489","0.0-35.0-9.0","175.19999998807907","<div class='center'><p>Let's go over the instructions quickly again. You have two important things to do: </p><b><p> 1. Pick the pirate who is the best at robbing ships on the current island. This way you'll collect more gold coins!</p></b><b><p> 2. Remember on which island a ship was robbed.</p> </b><p>The amount of bonus money you can win depends on both.</p><p><br><p>Let’s try a practice game. The game will start by showing you the pirates. First, pick a pirate using the <b> 1, 2, 3 </b> keys on your keyboard. When you are shown a ship, try to remember which island you’re on by making up a story.</p><p>This is just a practice game, so you’re not playing for money. </p><p> Good luck!</p><p><b>[Press the space bar to continue]</b></p></div>","32","","","","","","","","","","","","","","","","","","","","","","",""
"","do_welcome","46","342996","0.0-35.0-10.0","null","","","","","","","","null","","","","","","","","","","","","","","","","",""
"","do_trial","47","349494","0.0-35.0-11.0","1992.3999999761581","","","","","","","","49","1,0,0","","","","","","","","","","","","","","","",""
"","html-keyboard-response","48","350497","0.0-36.0-0.0","null","<p></p>","null","","","","","","","","","","","","","","","","","","","","","","",""
"","do_trial","49","357998","0.0-36.0-1.0","2996.7999999523163","","","","","","","","49","1,1,0","","","","","","","","","","","","","","","",""
"","html-keyboard-response","50","358999","0.0-37.0-0.0","null","<p></p>","null","","","","","","","","","","","","","","","","","","","","","","",""
"","do_trial","51","364038","0.0-37.0-1.0","533.3000000119209","","","","","","","","49","1,0,1","","","","","","","","","","","","","","","",""
"","html-keyboard-response","52","365041","0.0-38.0-0.0","null","<p></p>","null","","","","","","","","","","","","","","","","","","","","","","",""
"","do_trial","53","370510","0.0-38.0-1.0","964.0999999642372","","","","","","","","49","0,1,0","","","","","","","","","","","","","","","",""
"","html-keyboard-response","54","371515","0.0-39.0-0.0","null","<p></p>","null","","","","","","","","","","","","","","","","","","","","","","",""
"","do_trial","55","376806","0.0-39.0-1.0","784.6000000238419","","","","","","","","49","1,0,0","","","","","","","","","","","","","","","",""
"","do_bye","56","378315","0.0-40.0-0.0","null","","","","","","","","null","","","","","","","","","","","","","","","","",""
"","do_travel","57","384319","0.0-40.0-1.0","null","","","","","","","","null","","","","","","","","","","","","","","","","",""
"","do_welcome","58","385823","0.0-40.0-2.0","null","","","","","","","","null","","","","","","","","","","","","","","","","",""
"","do_trial","59","392312","0.0-40.0-3.0","1981","","","","","","","","50","1,0,0","","","","","","","","","","","","","","","",""
"","html-keyboard-response","60","393315","0.0-41.0-0.0","null","<p></p>","null","","","","","","","","","","","","","","","","","","","","","","",""
"","do_trial","61","399129","0.0-41.0-1.0","1304","","","","","","","","51","1,0,1","","","","","","","","","","","","","","","",""
"","html-keyboard-response","62","400135","0.0-42.0-0.0","null","<p></p>","null","","","","","","","","","","","","","","","","","","","","","","",""
"","do_trial","63","404974","0.0-42.0-1.0","331.5","","","","","","","","51","1,1,0","","","","","","","","","","","","","","","",""
"","html-keyboard-response","64","405976","0.0-43.0-0.0","null","<p></p>","null","","","","","","","","","","","","","","","","","","","","","","",""
"","do_trial","65","410773","0.0-43.0-1.0","290.69999998807907","","","","","","","","49","0,0,1","","","","","","","","","","","","","","","",""
"","html-keyboard-response","66","411776","0.0-44.0-0.0","null","<p></p>","null","","","","","","","","","","","","","","","","","","","","","","",""
"","do_trial","67","416560","0.0-44.0-1.0","274.19999998807907","","","","","","","","51","1,0,1","","","","","","","","","","","","","","","",""
"","html-keyboard-response","68","421696","0.0-45.0-0.0","5134.400000035763","<div class='center'><p><img src='run_exp/static/images/tutorial/prac_best_pirate.png'  height='500'></p></div>","49","","","","","","","","","","","","","","","","","","","","","","",""
"","html-keyboard-response","69","423455","0.0-46.0-0.0","1758.5999999642372","<div class='center'><p>That's correct! Red beard was the best.</p><p><b>[Press the space bar to continue]</b></p></div>","32","","","","","","","","","","","","","","","","","","","","","","",""
"","html-keyboard-response","70","426456","0.0-46.0-1.0","2999.699999988079","<div class='center'><p><img src='run_exp/static/images/tutorial/prac_source.png'  height='500'></p></div>","49","","","","","","","","","","","","","","","","","","","","","","",""
"","html-keyboard-response","71","427919","0.0-47.0-0.0","1462.699999988079","<div class='center'><p>That's incorrect! You saw this ship on the cavern island</p><p><b>[Press the space bar to continue]</b></p></div>","32","","","","","","","","","","","","","","","","","","","","","","",""
"","quiz_beginning","72","441347","0.0-47.0-1.0","null","run_exp/static/audio/clip_16_quiz_intro.m4a","null","","","","","<div class='center'><p>Good job on the practice game! Now, you will be asked some true or false questions to make sure you really understand the rules of the game.</p><p> Press <b>'1'</b> on the keyboard for true and press <b>'2'</b> for false.</p></div>","","","","","","","","","","","","","","","","","",""
"","audio-keyboard-response","73","454631","0.0-47.0-2.0","13282","run_exp/static/audio/clip_17_q1.m4a","49","","","","","","","","","","","","","","","","","","","","","","",""
"","q1_err","74","462267","0.0-48.0-0.0","null","run_exp/static/audio/clip_19_wrong_q1.m4a","null","","","","","<div class='center'><p>That’s incorrect! You win bonus money by collecting as many gold coins as possible!</p></div>","","","","","","","","","","","","","","","","","",""
"","html-keyboard-response","75","463484","0.0-48.0-1.0","1215.699999988079","<div class='center'><p>That’s incorrect! You win bonus money by collecting as many gold coins as possible!</p><p><b>[Press the space bar to continue]</b></p></div>","32","","","","","","","","","","","","","","","","","","","","","","",""
"","audio-keyboard-response","76","469448","0.0-48.0-2.0","5964","run_exp/static/audio/clip_20_q2.m4a","50","","","","","","","","","","","","","","","","","","","","","","",""
"","correct","77","472437","0.0-49.0-0.0","null","run_exp/static/audio/clip_18_correct.m4a","null","","","","","<div class='center'><p>That's correct!</p></div>","","","","","","","","","","","","","","","","","",""
"","html-keyboard-response","78","473336","0.0-49.0-1.0","898.5","<div class='center'><p>That's correct!</p><p><b>[Press the space bar to continue]</b></p></div>","32","","","","","","","","","","","","","","","","","","","","","","",""
"","audio-keyboard-response","79","476673","0.0-49.0-2.0","3336","run_exp/static/audio/clip_22_q3.m4a","50","","","","","","","","","","","","","","","","","","","","","","",""
"","correct","80","479635","0.0-50.0-0.0","null","run_exp/static/audio/clip_18_correct.m4a","null","","","","","<div class='center'><p>That's correct!</p></div>","","","","","","","","","","","","","","","","","",""
"","html-keyboard-response","81","480113","0.0-50.0-1.0","477.19999998807907","<div class='center'><p>That's correct!</p><p><b>[Press the space bar to continue]</b></p></div>","32","","","","","","","","","","","","","","","","","","","","","","",""
"","audio-keyboard-response","82","484544","0.0-50.0-2.0","4430.5","run_exp/static/audio/clip_24_q4.m4a","49","","","","","","","","","","","","","","","","","","","","","","",""
"","correct","83","487507","0.0-51.0-0.0","null","run_exp/static/audio/clip_18_correct.m4a","null","","","","","<div class='center'><p>That's correct!</p></div>","","","","","","","","","","","","","","","","","",""
"","html-keyboard-response","84","487768","0.0-51.0-1.0","261.10000002384186","<div class='center'><p>That's correct!</p><p><b>[Press the space bar to continue]</b></p></div>","32","","","","","","","","","","","","","","","","","","","","","","",""
"","q_all_err","85","495308","0.0-52.0-0.0","null","run_exp/static/audio/clip_26_quiz_redo.m4a","null","","","","","<div class='center'><p>Oops, you missed some questions. Now that you’ve heard the correct answers. Try the quiz again! </p></div>","","","","","","","","","","","","","","","","","",""
"","html-keyboard-response","86","496950","0.0-52.0-1.0","1640.3999999761581","<div class='center'><p>Oops, you missed some questions. Now that you’ve heard the correct answers. Try the quiz again! </p><p><b>[Press the space bar to continue]</b></p></div>","32","","","","","","","","","","","","","","","","","","","","","","",""
"","audio-keyboard-response","87","498142","0.0-52.0-2.0","1191.4000000357628","run_exp/static/audio/clip_17_q1.m4a","50","","","","","","","","","","","","","","","","","","","","","","",""
"","correct","88","501113","0.0-53.0-0.0","null","run_exp/static/audio/clip_18_correct.m4a","null","","","","","<div class='center'><p>That's correct!</p></div>","","","","","","","","","","","","","","","","","",""
"","html-keyboard-response","89","501552","0.0-53.0-1.0","437.89999997615814","<div class='center'><p>That's correct!</p><p><b>[Press the space bar to continue]</b></p></div>","32","","","","","","","","","","","","","","","","","","","","","","",""
"","audio-keyboard-response","90","503128","0.0-53.0-2.0","1575.2999999523163","run_exp/static/audio/clip_20_q2.m4a","50","","","","","","","","","","","","","","","","","","","","","","",""
"","correct","91","506082","0.0-54.0-0.0","null","run_exp/static/audio/clip_18_correct.m4a","null","","","","","<div class='center'><p>That's correct!</p></div>","","","","","","","","","","","","","","","","","",""
"","html-keyboard-response","92","506399","0.0-54.0-1.0","316.4000000357628","<div class='center'><p>That's correct!</p><p><b>[Press the space bar to continue]</b></p></div>","32","","","","","","","","","","","","","","","","","","","","","","",""
"","audio-keyboard-response","93","508680","0.0-54.0-2.0","2279.399999976158","run_exp/static/audio/clip_22_q3.m4a","50","","","","","","","","","","","","","","","","","","","","","","",""
"","correct","94","511655","0.0-55.0-0.0","null","run_exp/static/audio/clip_18_correct.m4a","null","","","","","<div class='center'><p>That's correct!</p></div>","","","","","","","","","","","","","","","","","",""
"","html-keyboard-response","95","511911","0.0-55.0-1.0","255.89999997615814","<div class='center'><p>That's correct!</p><p><b>[Press the space bar to continue]</b></p></div>","32","","","","","","","","","","","","","","","","","","","","","","",""
"","audio-keyboard-response","96","513607","0.0-55.0-2.0","1695","run_exp/static/audio/clip_24_q4.m4a","49","","","","","","","","","","","","","","","","","","","","","","",""
"","correct","97","516624","0.0-56.0-0.0","null","run_exp/static/audio/clip_18_correct.m4a","null","","","","","<div class='center'><p>That's correct!</p></div>","","","","","","","","","","","","","","","","","",""
"","html-keyboard-response","98","516871","0.0-56.0-1.0","246.60000002384186","<div class='center'><p>That's correct!</p><p><b>[Press the space bar to continue]</b></p></div>","32","","","","","","","","","","","","","","","","","","","","","","",""
"","q_all_corr","99","523868","0.0-57.0-0.0","null","run_exp/static/audio/clip_27_quiz_all_correct.m4a","null","","","","","<div class='center'><p>Good job! You’re now ready to move on to the real game!</p></div>","","","","","","","","","","","","","","","","","",""
"","html-keyboard-response","100","523887","0.0-57.0-1.0","18","<div class='center'><p>Good job! You’re now ready to move on to the real game!</p><p><b>[Press the space bar to continue]</b></p></div>","32","","","","","","","","","","","","","","","","","","","","","","",""
"","do_welcome","101","525391","0.0-58.0-0.0","null","","","","","","","","null","","","","","","","","","","","","","","","","",""
"","do_trial","102","531399","0.0-59.0-0.0","1465.3999999761581","","","","","","","","49","1,0,0","0","coast","0","probe-57","0.6","0.3","0.1","1","","","","","","","",""
"","html-keyboard-response","103","532401","0.0-59.0-1.0","null","<p></p>","null","","","","","","","","","","","","","","","","","","","","","","",""
"","do_trial","104","537648","0.0-60.0-0.0","705.3999999761581","","","","","","","","49","1,0,0","0","coast","1","probe-20","0.5314138903297859","0.30470986888624446","0.11934356574822456","1","","","","","","","",""
"","html-keyboard-response","105","538651","0.0-60.0-1.0","null","<p></p>","null","","","","","","","","","","","","","","","","","","","","","","",""
"","do_trial","106","544122","0.0-61.0-0.0","918.6000000238419","","","","","","","","49","1,0,0","0","coast","2","probe-144","0.5512848196381198","0.22712927608810585","0.19405330595704098","1","","","","","","","",""
"","html-keyboard-response","107","545130","0.0-61.0-1.0","null","<p></p>","null","","","","","","","","","","","","","","","","","","","","","","",""
"","do_trial","108","550812","0.0-62.0-0.0","1134.800000011921","","","","","","","","49","0,0,0","0","coast","3","probe-28","0.5332183869209774","0.238194969517991","0.08474582382593193","0","","","","","","","",""
"","html-keyboard-response","109","551817","0.0-62.0-1.0","null","<p></p>","null","","","","","","","","","","","","","","","","","","","","","","",""
"","do_trial","110","558360","0.0-63.0-0.0","1998.199999988079","","","","","","","","50","0,0,0","0","coast","4","probe-74","0.5838430767734589","0.24859760208020049","0.10226554361299994","0","","","","","","","",""
"","html-keyboard-response","111","559363","0.0-63.0-1.0","null","<p></p>","null","","","","","","","","","","","","","","","","","","","","","","",""
"","do_trial","112","564329","0.0-64.0-0.0","426.7999999523163","","","","","","","","49","1,1,0","0","coast","5","probe-40","0.6651287082062458","0.33655254111391486","0.07515893519401008","1","","","","","","","",""
"","html-keyboard-response","113","565332","0.0-64.0-1.0","null","<p></p>","null","","","","","","","","","","","","","","","","","","","","","","",""
"","do_trial","114","570555","0.0-65.0-0.0","683","","","","","","","","49","0,0,0","0","coast","6","probe-95","0.45828510432515124","0.38415999276760204","0.05104302111412125","0","","","","","","","",""
"","html-keyboard-response","115","571558","0.0-65.0-1.0","null","<p></p>","null","","","","","","","","","","","","","","","","","","","","","","",""
"","do_trial","116","578960","0.0-66.0-0.0","2859.7000000476837","","","","","","","","51","0,0,0","0","coast","7","probe-97","0.43418602619388785","0.3240130826291363","0.11291627752740219","0","","","","","","","",""
"","html-keyboard-response","117","579962","0.0-66.0-1.0","null","<p></p>","null","","","","","","","","","","","","","","","","","","","","","","",""
"","do_trial","118","585108","0.0-67.0-0.0","605.6999999880791","","","","","","","","49","0,0,0","0","coast","8","probe-04","0.4718169345151923","0.1662551044636569","0.18354904750195494","0","","","","","","","",""
"","html-keyboard-response","119","586113","0.0-67.0-1.0","null","<p></p>","null","","","","","","","","","","","","","","","","","","","","","","",""
"","do_trial","120","591187","0.0-68.0-0.0","535.8999999761581","","","","","","","","49","1,0,0","0","coast","9","probe-120","0.6953680160562263","0.16434467474562608","0.16464564962244704","1","","","","","","","",""
"","html-keyboard-response","121","592193","0.0-68.0-1.0","null","<p></p>","null","","","","","","","","","","","","","","","","","","","","","","",""
"","do_trial","122","597203","0.0-69.0-0.0","470.5","","","","","","","","49","1,0,1","0","coast","10","probe-47","0.5360831048019677","0.20816978569332173","0.11246050786620566","1","","","","","","","",""
"","html-keyboard-response","123","598204","0.0-69.0-1.0","null","<p></p>","null","","","","","","","","","","","","","","","","","","","","","","",""
"","do_trial","124","603294","0.0-70.0-0.0","550.3999999761581","","","","","","","","49","1,0,0","0","coast","11","probe-109","0.5770569608285488","0.24411560143148567","0.08897276453179342","1","","","","","","","",""
"","html-keyboard-response","125","604297","0.0-70.0-1.0","null","<p></p>","null","","","","","","","","","","","","","","","","","","","","","","",""
"","do_trial","126","609184","0.0-71.0-0.0","347.80000001192093","","","","","","","","49","0,1,0","0","coast","12","probe-81","0.6330190994183748","0.19855824486373394","0.17728388464877648","0","","","","","","","",""
"","html-keyboard-response","127","610185","0.0-71.0-1.0","null","<p></p>","null","","","","","","","","","","","","","","","","","","","","","","",""
"","do_trial","128","616626","0.0-72.0-0.0","1896.199999988079","","","","","","","","51","0,0,1","0","coast","13","probe-170","0.640737168787455","0.0787146898759153","0.4365239387313686","1","","","","","","","",""
"","html-keyboard-response","129","617630","0.0-72.0-1.0","null","<p></p>","null","","","","","","","","","","","","","","","","","","","","","","",""
"","do_trial","130","622600","0.0-73.0-0.0","429.89999997615814","","","","","","","","51","1,0,0","0","coast","14","probe-212","0.6444179457010896","0.188494565204641","0.11494475083780266","0","","","","","","","",""
"","html-keyboard-response","131","623602","0.0-73.0-1.0","null","<p></p>","null","","","","","","","","","","","","","","","","","","","","","","",""
"","do_trial","132","628663","0.0-74.0-0.0","523","","","","","","","","51","0,0,1","0","coast","15","probe-225","0.48897607562534023","0.19089164331363948","0.20957218591289337","1","","","","","","","",""
"","html-keyboard-response","133","629666","0.0-74.0-1.0","null","<p></p>","null","","","","","","","","","","","","","","","","","","","","","","",""
"","do_trial","134","634855","0.0-75.0-0.0","646.3000000119209","","","","","","","","51","0,1,0","0","coast","16","probe-213","0.5634118026736049","0.2442747860679194","0.23400822419848555","0","","","","","","","",""
"","html-keyboard-response","135","635856","0.0-75.0-1.0","null","<p></p>","null","","","","","","","","","","","","","","","","","","","","","","",""
"","do_trial","136","641018","0.0-76.0-0.0","620.5","","","","","","","","49","1,0,0","0","coast","17","probe-149","0.509500001222893","0.3200290562060066","0.17392333867895854","1","","","","","","","",""
"","html-keyboard-response","137","642024","0.0-76.0-1.0","null","<p></p>","null","","","","","","","","","","","","","","","","","","","","","","",""
"","do_trial","138","647206","0.0-77.0-0.0","644","","","","","","","","49","1,0,0","0","coast","18","probe-161","0.6145415456161719","0.23227379915237267","0.2678680073247605","1","","","","","","","",""
"","html-keyboard-response","139","648212","0.0-77.0-1.0","null","<p></p>","null","","","","","","","","","","","","","","","","","","","","","","",""
"","do_trial","140","653245","0.0-78.0-0.0","496.30000001192093","","","","","","","","49","1,0,0","0","coast","19","probe-51","0.6740233234746889","0.31075831169163304","0.2068516503750297","1","","","","","","","",""
"","html-keyboard-response","141","654249","0.0-78.0-1.0","null","<p></p>","null","","","","","","","","","","","","","","","","","","","","","","",""
"","do_trial","142","659227","0.0-79.0-0.0","435.80000001192093","","","","","","","","49","0,0,0","0","coast","20","probe-156","0.5961568241209033","0.335717214246784","0.15305722055251886","0","","","","","","","",""
"","html-keyboard-response","143","660231","0.0-79.0-1.0","null","<p></p>","null","","","","","","","","","","","","","","","","","","","","","","",""
"","do_trial","144","665105","0.0-80.0-0.0","333.5","","","","","","","","50","1,1,0","0","coast","21","probe-62","0.6239262354336738","0.48300952588688506","0.18527683672812223","1","","","","","","","",""
"","html-keyboard-response","145","666109","0.0-80.0-1.0","null","<p></p>","null","","","","","","","","","","","","","","","","","","","","","","",""
"","do_trial","146","671095","0.0-81.0-0.0","447.69999998807907","","","","","","","","50","1,0,1","0","coast","22","probe-204","0.6537435121202746","0.38274978952429367","0.1218508116689311","0","","","","","","","",""
"","html-keyboard-response","147","672098","0.0-81.0-1.0","null","<p></p>","null","","","","","","","","","","","","","","","","","","","","","","",""
"","do_trial","148","677046","0.0-82.0-0.0","408.69999998807907","","","","","","","","50","0,1,0","0","coast","23","probe-27","0.5244272165644375","0.40886165411317543","0.0761486326669783","1","","","","","","","",""
"","html-keyboard-response","149","678050","0.0-82.0-1.0","null","<p></p>","null","","","","","","","","","","","","","","","","","","","","","","",""
"","do_trial","150","682989","0.0-83.0-0.0","398.7000000476837","","","","","","","","50","0,0,0","0","coast","24","probe-209","0.4739400523022383","0.290208242590764","0.17475795100029845","0","","","","","","","",""
"","html-keyboard-response","151","683994","0.0-83.0-1.0","null","<p></p>","null","","","","","","","","","","","","","","","","","","","","","","",""
"","do_trial","152","689277","0.0-84.0-0.0","742.3999999761581","","","","","","","","49","1,1,1","0","coast","25","probe-171","0.49057707840017856","0.3499244393353243","0.26699162283315564","1","","","","","","","",""
"","html-keyboard-response","153","690282","0.0-84.0-1.0","null","<p></p>","null","","","","","","","","","","","","","","","","","","","","","","",""
"","do_trial","154","695284","0.0-85.0-0.0","462.60000002384186","","","","","","","","49","0,0,0","0","coast","26","probe-210","0.3879380088761062","0.32946204109281885","0.2877539661457837","0","","","","","","","",""
"","html-keyboard-response","155","696287","0.0-85.0-1.0","null","<p></p>","null","","","","","","","","","","","","","","","","","","","","","","",""
"","do_trial","156","701127","0.0-86.0-0.0","297.80000001192093","","","","","","","","49","0,1,0","0","coast","27","probe-75","0.5112714435905019","0.3782469524887382","0.2694987523119328","0","","","","","","","",""
"","html-keyboard-response","157","702132","0.0-86.0-1.0","null","<p></p>","null","","","","","","","","","","","","","","","","","","","","","","",""
"","do_trial","158","707231","0.0-87.0-0.0","556.7000000476837","","","","","","","","51","1,1,1","0","coast","28","probe-117","0.5623796509471071","0.49348327812401677","0.3072617409988076","1","","","","","","","",""
"","html-keyboard-response","159","708234","0.0-87.0-1.0","null","<p></p>","null","","","","","","","","","","","","","","","","","","","","","","",""
"","do_trial","160","713151","0.0-88.0-0.0","374.80000001192093","","","","","","","","51","1,0,0","0","coast","29","probe-202","0.6178259874450516","0.2957922861656711","0.19396493569746798","0","","","","","","","",""
"","html-keyboard-response","161","714152","0.0-88.0-1.0","null","<p></p>","null","","","","","","","","","","","","","","","","","","","","","","",""
"","do_bye","162","715657","0.0-89.0-0.0","null","","","","","","","","null","","","","","","","","","","","","","","","","",""
"","do_travel","163","721662","0.0-90.0-0.0","null","","","","","","","","null","","","","","","","","","","","","","","","","",""
"","do_welcome","164","723171","0.0-90.0-1.0","null","","","","","","","","null","","","","","","","","","","","","","","","","",""
"","do_trial","165","728831","0.0-91.0-0.0","1120.800000011921","","","","","","","","49","1,0,0","1","city","30","probe-180","1","0.38308862570782154","0.05600584194978602","1","","","","","","","",""
"","html-keyboard-response","166","729833","0.0-91.0-1.0","null","<p></p>","null","","","","","","","","","","","","","","","","","","","","","","",""
"","do_trial","167","734833","0.0-92.0-0.0","460.89999997615814","","","","","","","","49","1,1,0","1","city","31","probe-182","1","0.5442547648756052","0.11973173479488654","1","","","","","","","",""
"","html-keyboard-response","168","735837","0.0-92.0-1.0","null","<p></p>","null","","","","","","","","","","","","","","","","","","","","","","",""
"","do_trial","169","740814","0.0-93.0-0.0","439.10000002384186","","","","","","","","49","1,1,0","1","city","32","probe-122","1","0.4742600258608915","0.1548863884341717","1","","","","","","","",""
"","html-keyboard-response","170","741817","0.0-93.0-1.0","null","<p></p>","null","","","","","","","","","","","","","","","","","","","","","","",""
"","do_trial","171","747049","0.0-94.0-0.0","694.1000000238419","","","","","","","","49","1,1,0","1","city","33","probe-114","0.8884476772966133","0.5162191545515713","0.12159949730282296","1","","","","","","","",""
"","html-keyboard-response","172","748053","0.0-94.0-1.0","null","<p></p>","null","","","","","","","","","","","","","","","","","","","","","","",""
"","do_trial","173","753268","0.0-95.0-0.0","675.8000000119209","","","","","","","","49","1,1,0","1","city","34","probe-93","0.6307498432222772","0.42593772340889835","0.11039529340194434","1","","","","","","","",""
"","html-keyboard-response","174","754272","0.0-95.0-1.0","null","<p></p>","null","","","","","","","","","","","","","","","","","","","","","","",""
"","do_trial","175","759260","0.0-96.0-0.0","447.9000000357628","","","","","","","","49","0,0,0","1","city","35","probe-175","0.6848094802536459","0.3263002265710277","0.20272428781568483","0","","","","","","","",""
"","html-keyboard-response","176","760264","0.0-96.0-1.0","null","<p></p>","null","","","","","","","","","","","","","","","","","","","","","","",""
"","do_trial","177","765386","0.0-97.0-0.0","584.5999999642372","","","","","","","","50","1,1,0","1","city","36","probe-84","0.6504727670683681","0.37233470936993956","0.19446972099219145","1","","","","","","","",""
"","html-keyboard-response","178","766391","0.0-97.0-1.0","null","<p></p>","null","","","","","","","","","","","","","","","","","","","","","","",""
"","do_trial","179","771388","0.0-98.0-0.0","457.60000002384186","","","","","","","","50","1,1,0","1","city","37","probe-226","0.7104404724768275","0.39164366717732885","0.18871958840011768","1","","","","","","","",""
"","html-keyboard-response","180","772391","0.0-98.0-1.0","null","<p></p>","null","","","","","","","","","","","","","","","","","","","","","","",""
"","do_trial","181","777349","0.0-99.0-0.0","415.80000001192093","","","","","","","","50","1,0,0","1","city","38","probe-86","0.6176810050896445","0.3632178347569115","0.23061884202099353","0","","","","","","","",""
"","html-keyboard-response","182","778353","0.0-99.0-1.0","null","<p></p>","null","","","","","","","","","","","","","","","","","","","","","","",""
"","do_trial","183","783300","0.0-100.0-0.0","406.19999998807907","","","","","","","","51","1,1,0","1","city","39","probe-09","0.7239048059024026","0.32298251516389115","0.14500122532037918","0","","","","","","","",""
"","html-keyboard-response","184","784303","0.0-100.0-1.0","null","<p></p>","null","","","","","","","","","","","","","","","","","","","","","","",""
"","do_trial","185","789209","0.0-101.0-0.0","365.5","","","","","","","","49","1,1,0","1","city","40","probe-119","0.6293063281552851","0.38786037418539165","0.12258159143513432","1","","","","","","","",""
"","html-keyboard-response","186","790213","0.0-101.0-1.0","null","<p></p>","null","","","","","","","","","","","","","","","","","","","","","","",""
"","do_trial","187","795391","0.0-102.0-0.0","640","","","","","","","","49","1,1,0","1","city","41","probe-38","0.5936047363076618","0.42382742275266433","0.1408322848808423","1","","","","","","","",""
"","html-keyboard-response","188","796395","0.0-102.0-1.0","null","<p></p>","null","","","","","","","","","","","","","","","","","","","","","","",""
"","do_trial","189","801519","0.0-103.0-0.0","586.4000000357628","","","","","","","","49","0,1,1","1","city","42","probe-141","0.4854955791865884","0.37144351016537414","0.3025613737414401","0","","","","","","","",""
"","html-keyboard-response","190","802524","0.0-103.0-1.0","null","<p></p>","null","","","","","","","","","","","","","","","","","","","","","","",""
"","do_trial","191","807228","0.0-104.0-0.0","165.19999998807907","","","","","","","","50","1,0,0","1","city","43","probe-67","0.3100987258499654","0.2774024977747906","0.3012498840082213","0","","","","","","","",""
"","html-keyboard-response","192","808230","0.0-104.0-1.0","null","<p></p>","null","","","","","","","","","","","","","","","","","","","","","","",""
"","do_trial","193","813178","0.0-105.0-0.0","406.89999997615814","","","","","","","","50","0,0,1","1","city","44","probe-98","0.3873864094084943","0.19867332574083768","0.4757677614652227","0","","","","","","","",""
"","html-keyboard-response","194","814182","0.0-105.0-1.0","null","<p></p>","null","","","","","","","","","","","","","","","","","","","","","","",""
"","do_trial","195","819169","0.0-106.0-0.0","450.30000001192093","","","","","","","","51","0,0,1","1","city","45","probe-79","0.4057720713850602","0.06124164541235308","0.5521635949171043","1","","","","","","","",""
"","html-keyboard-response","196","820172","0.0-106.0-1.0","null","<p></p>","null","","","","","","","","","","","","","","","","","","","","","","",""
"","do_trial","197","825216","0.0-107.0-0.0","505.5","","","","","","","","51","1,0,1","1","city","46","probe-23","0.5537174629287418","0.07786047725827604","0.5895968881658176","1","","","","","","","",""
"","html-keyboard-response","198","826222","0.0-107.0-1.0","null","<p></p>","null","","","","","","","","","","","","","","","","","","","","","","",""
"","do_trial","199","831334","0.0-108.0-0.0","571.8999999761581","","","","","","","","51","0,0,1","1","city","47","probe-190","0.41495057436520405","0.11819730826027801","0.590527607160132","1","","","","","","","",""
"","html-keyboard-response","200","832340","0.0-108.0-1.0","null","<p></p>","null","","","","","","","","","","","","","","","","","","","","","","",""
"","do_trial","201","837704","0.0-109.0-0.0","821.3000000119209","","","","","","","","51","0,0,0","1","city","48","probe-194","0.389641700203197","0.17740343109529946","0.5106745787020623","0","","","","","","","",""
"","html-keyboard-response","202","838710","0.0-109.0-1.0","null","<p></p>","null","","","","","","","","","","","","","","","","","","","","","","",""
"","do_trial","203","843317","0.0-110.0-0.0","66.30000001192093","","","","","","","","49","0,0,0","1","city","49","probe-16","0.21817217026794816","0.11820341342569218","0.5674544611442416","0","","","","","","","",""
"","html-keyboard-response","204","844321","0.0-110.0-1.0","null","<p></p>","null","","","","","","","","","","","","","","","","","","","","","","",""
"","do_trial","205","849361","0.0-111.0-0.0","498.39999997615814","","","","","","","","50","1,0,0","1","city","50","probe-87","0.22111515998244663","0.21054391949141604","0.4904725881338841","0","","","","","","","",""
"","html-keyboard-response","206","850363","0.0-111.0-1.0","null","<p></p>","null","","","","","","","","","","","","","","","","","","","","","","",""
"","do_trial","207","855608","0.0-112.0-0.0","705.6999999880791","","","","","","","","51","1,0,0","1","city","51","probe-164","0.24909357705200855","0.18571357609642697","0.4486115281518774","0","","","","","","","",""
"","html-keyboard-response","208","856611","0.0-112.0-1.0","null","<p></p>","null","","","","","","","","","","","","","","","","","","","","","","",""
"","do_trial","209","861540","0.0-113.0-0.0","390.9000000357628","","","","","","","","49","0,0,0","1","city","52","probe-99","0.3338193352961569","0.22147527344100582","0.4857926946543386","0","","","","","","","",""
"","html-keyboard-response","210","862544","0.0-113.0-1.0","null","<p></p>","null","","","","","","","","","","","","","","","","","","","","","","",""
"","do_trial","211","867350","0.0-114.0-0.0","268.30000001192093","","","","","","","","49","0,0,1","1","city","53","probe-65","0.11977056041225857","0.19397755208060197","0.6128498068760976","0","","","","","","","",""
"","html-keyboard-response","212","868355","0.0-114.0-1.0","null","<p></p>","null","","","","","","","","","","","","","","","","","","","","","","",""
"","do_trial","213","873227","0.0-115.0-0.0","331.5999999642372","","","","","","","","49","0,0,1","1","city","54","probe-22","0.151626001861574","0.23468641711262717","0.5995749993785598","0","","","","","","","",""
"","html-keyboard-response","214","874228","0.0-115.0-1.0","null","<p></p>","null","","","","","","","","","","","","","","","","","","","","","","",""
"","do_trial","215","879084","0.0-116.0-0.0","318.5999999642372","","","","","","","","51","0,0,0","1","city","55","probe-80","0.14500330175836834","0.05393347094174052","0.625282253051833","0","","","","","","","",""
"","html-keyboard-response","216","880088","0.0-116.0-1.0","null","<p></p>","null","","","","","","","","","","","","","","","","","","","","","","",""
"","do_trial","217","885015","0.0-117.0-0.0","387.7000000476837","","","","","","","","51","0,0,1","1","city","56","probe-193","0.21172583188671681","0.05379448990032984","0.7449479270255719","1","","","","","","","",""
"","html-keyboard-response","218","886019","0.0-117.0-1.0","null","<p></p>","null","","","","","","","","","","","","","","","","","","","","","","",""
"","do_trial","219","890913","0.0-118.0-0.0","355","","","","","","","","51","0,1,0","1","city","57","probe-133","0.17577772565818475","0.08902642974546708","0.6693808734875057","0","","","","","","","",""
"","html-keyboard-response","220","891917","0.0-118.0-1.0","null","<p></p>","null","","","","","","","","","","","","","","","","","","","","","","",""
"","do_trial","221","896645","0.0-119.0-0.0","189.5","","","","","","","","49","0,0,1","1","city","58","probe-21","0.2751307314585465","0.12061209875597724","0.5814413381482408","0","","","","","","","",""
"","html-keyboard-response","222","897646","0.0-119.0-1.0","null","<p></p>","null","","","","","","","","","","","","","","","","","","","","","","",""
"","do_trial","223","902543","0.0-120.0-0.0","356.19999998807907","","","","","","","","49","0,0,1","1","city","59","probe-186","0.3453871391765731","0.05099980563908331","0.5518109234713285","0","","","","","","","",""
"","html-keyboard-response","224","903545","0.0-120.0-1.0","null","<p></p>","null","","","","","","","","","","","","","","","","","","","","","","",""
"","do_trial","225","908444","0.0-121.0-0.0","360.10000002384186","","","","","","","","50","0,0,0","1","city","60","probe-129","0.22723369762983164","0.08029601294044497","0.5007511684851368","0","","","","","","","",""
"","html-keyboard-response","226","909448","0.0-121.0-1.0","null","<p></p>","null","","","","","","","","","","","","","","","","","","","","","","",""
"","do_trial","227","914540","0.0-122.0-0.0","550.1000000238419","","","","","","","","50","0,0,1","1","city","61","probe-121","0.18435250379277177","0.10531671339258772","0.5818792496417553","0","","","","","","","",""
"","html-keyboard-response","228","915544","0.0-122.0-1.0","null","<p></p>","null","","","","","","","","","","","","","","","","","","","","","","",""
"","do_trial","229","920579","0.0-123.0-0.0","493.80000001192093","","","","","","","","51","0,0,1","1","city","62","probe-25","0.2369734192705989","0.10249975874787756","0.5440170427107661","1","","","","","","","",""
"","html-keyboard-response","230","921583","0.0-123.0-1.0","null","<p></p>","null","","","","","","","","","","","","","","","","","","","","","","",""
"","do_trial","231","926497","0.0-124.0-0.0","373.5","","","","","","","","51","0,0,0","1","city","63","probe-13","0.2227128112900388","0.21542660675880476","0.4586198945307561","0","","","","","","","",""
"","html-keyboard-response","232","927501","0.0-124.0-1.0","null","<p></p>","null","","","","","","","","","","","","","","","","","","","","","","",""
"","do_trial","233","932419","0.0-125.0-0.0","381.19999998807907","","","","","","","","49","0,0,1","1","city","64","probe-228","0.35573783141085025","0.1373812041558028","0.6112982994420653","0","","","","","","","",""
"","html-keyboard-response","234","933420","0.0-125.0-1.0","null","<p></p>","null","","","","","","","","","","","","","","","","","","","","","","",""
"","do_trial","235","938405","0.0-126.0-0.0","446.30000001192093","","","","","","","","49","0,0,0","1","city","65","probe-136","0.4685485453880686","0.13256750697883185","0.5289425320903239","0","","","","","","","",""
"","html-keyboard-response","236","939408","0.0-126.0-1.0","null","<p></p>","null","","","","","","","","","","","","","","","","","","","","","","",""
"","do_trial","237","944257","0.0-127.0-0.0","309.4000000357628","","","","","","","","49","0,1,0","1","city","66","probe-131","0.39793758736624996","0.1788887649079649","0.5661427676656626","0","","","","","","","",""
"","html-keyboard-response","238","945260","0.0-127.0-1.0","null","<p></p>","null","","","","","","","","","","","","","","","","","","","","","","",""
"","do_trial","239","950222","0.0-128.0-0.0","424.80000001192093","","","","","","","","50","0,0,0","1","city","67","probe-88","0.41461422194294967","0.12624523470303095","0.524154860332454","0","","","","","","","",""
"","html-keyboard-response","240","951228","0.0-128.0-1.0","null","<p></p>","null","","","","","","","","","","","","","","","","","","","","","","",""
"","do_trial","241","956120","0.0-129.0-0.0","351.89999997615814","","","","","","","","51","1,1,1","1","city","68","probe-127","0.44986708714511286","0.11926384174950781","0.5472598057382544","1","","","","","","","",""
"","html-keyboard-response","242","957125","0.0-129.0-1.0","null","<p></p>","null","","","","","","","","","","","","","","","","","","","","","","",""
"","do_trial","243","962214","0.0-130.0-0.0","550.8999999761581","","","","","","","","51","0,1,0","1","city","69","probe-90","0.3363187107900403","0.21723274948458213","0.500514452515053","0","","","","","","","",""
"","html-keyboard-response","244","963220","0.0-130.0-1.0","null","<p></p>","null","","","","","","","","","","","","","","","","","","","","","","",""
"","do_bye","245","964728","0.0-131.0-0.0","null","","","","","","","","null","","","","","","","","","","","","","","","","",""
"","do_travel","246","970731","0.0-132.0-0.0","null","","","","","","","","null","","","","","","","","","","","","","","","","",""
"","do_welcome","247","972239","0.0-132.0-1.0","null","","","","","","","","null","","","","","","","","","","","","","","","","",""
"","do_trial","248","978137","0.0-133.0-0.0","1354.199999988079","","","","","","","","49","0,0,1","2","forest","70","probe-34","0.29969513207224013","0.18279349521127214","1","0","","","","","","","",""
"","html-keyboard-response","249","979140","0.0-133.0-1.0","null","<p></p>","null","","","","","","","","","","","","","","","","","","","","","","",""
"","do_trial","250","984239","0.0-134.0-0.0","561.5","","","","","","","","50","0,1,1","2","forest","71","probe-56","0.34142900275299004","0.09496398241260892","1","1","","","","","","","",""
"","html-keyboard-response","251","985245","0.0-134.0-1.0","null","<p></p>","null","","","","","","","","","","","","","","","","","","","","","","",""
"","do_trial","252","990229","0.0-135.0-0.0","444","","","","","","","","50","1,0,1","2","forest","72","probe-102","0.3478380214768742","0.06912858102714797","0.9138430097921074","0","","","","","","","",""
"","html-keyboard-response","253","991233","0.0-135.0-1.0","null","<p></p>","null","","","","","","","","","","","","","","","","","","","","","","",""
"","do_trial","254","996022","0.0-136.0-0.0","252","","","","","","","","51","1,0,1","2","forest","73","probe-173","0.25238769610987866","0.08743470280689028","0.873365620914363","1","","","","","","","",""
"","html-keyboard-response","255","997025","0.0-136.0-1.0","null","<p></p>","null","","","","","","","","","","","","","","","","","","","","","","",""
"","do_trial","256","1001838","0.0-137.0-0.0","271.2999999523163","","","","","","","","51","0,1,1","2","forest","74","probe-158","0.3118247936730866","0.11851477462304555","0.7572342443258687","1","","","","","","","",""
"","html-keyboard-response","257","1002842","0.0-137.0-1.0","null","<p></p>","null","","","","","","","","","","","","","","","","","","","","","","",""
"","do_trial","258","1007775","0.0-138.0-0.0","391.2999999523163","","","","","","","","51","0,1,0","2","forest","75","probe-110","0.4234609715090272","0.20136301339397633","0.6460559790362467","0","","","","","","","",""
"","html-keyboard-response","259","1008779","0.0-138.0-1.0","null","<p></p>","null","","","","","","","","","","","","","","","","","","","","","","",""
"","do_trial","260","1013863","0.0-139.0-0.0","547.6000000238419","","","","","","","","50","1,0,1","2","forest","76","probe-43","0.3882941701731236","0.21835233470772364","0.6804881664439867","0","","","","","","","",""
"","html-keyboard-response","261","1014868","0.0-139.0-1.0","null","<p></p>","null","","","","","","","","","","","","","","","","","","","","","","",""
"","do_trial","262","1019796","0.0-140.0-0.0","386.60000002384186","","","","","","","","49","0,0,1","2","forest","77","probe-146","0.30166908164147727","0.054837645205306325","0.6335055015184051","0","","","","","","","",""
"","html-keyboard-response","263","1020799","0.0-140.0-1.0","null","<p></p>","null","","","","","","","","","","","","","","","","","","","","","","",""
"","do_trial","264","1025368","0.0-141.0-0.0","28.599999964237213","","","","","","","","51","1,0,0","2","forest","78","probe-41","0.249141257176626","0.05746640829465105","0.6049675578208481","0","","","","","","","",""
"","html-keyboard-response","265","1026371","0.0-141.0-1.0","null","<p></p>","null","","","","","","","","","","","","","","","","","","","","","","",""
"","do_trial","266","1031322","0.0-142.0-0.0","409.39999997615814","","","","","","","","51","1,0,1","2","forest","79","probe-17","0.22180234183110384","0.10858168685231112","0.6600293656186241","1","","","","","","","",""
"","html-keyboard-response","267","1032323","0.0-142.0-1.0","null","<p></p>","null","","","","","","","","","","","","","","","","","","","","","","",""
"","do_trial","268","1037194","0.0-143.0-0.0","332","","","","","","","","49","0,0,0","2","forest","80","probe-157","0.28007131472287194","0.13403050697501706","0.6926971878590205","0","","","","","","","",""
"","html-keyboard-response","269","1038199","0.0-143.0-1.0","null","<p></p>","null","","","","","","","","","","","","","","","","","","","","","","",""
"","do_trial","270","1043357","0.0-144.0-0.0","619","","","","","","","","51","1,0,1","2","forest","81","probe-123","0.20282942886966893","0.2176230405487536","0.7550829324425994","1","","","","","","","",""
"","html-keyboard-response","271","1044361","0.0-144.0-1.0","null","<p></p>","null","","","","","","","","","","","","","","","","","","","","","","",""
"","do_trial","272","1049361","0.0-145.0-0.0","461.5999999642372","","","","","","","","51","0,0,1","2","forest","82","probe-162","0.0666956952186126","0.411642591896282","0.5182868886816593","1","","","","","","","",""
"","html-keyboard-response","273","1050365","0.0-145.0-1.0","null","<p></p>","null","","","","","","","","","","","","","","","","","","","","","","",""
"","do_trial","274","1055254","0.0-146.0-0.0","345.80000001192093","","","","","","","","51","0,1,1","2","forest","83","probe-183","0.0721685069540437","0.3019188740721893","0.564898332218832","1","","","","","","","",""
"","html-keyboard-response","275","1056257","0.0-146.0-1.0","null","<p></p>","null","","","","","","","","","","","","","","","","","","","","","","",""
"","do_trial","276","1061091","0.0-147.0-0.0","295.39999997615814","","","","","","","","51","0,0,1","2","forest","84","probe-76","0.08800678274933509","0.45862079500855485","0.574041532492356","1","","","","","","","",""
"","html-keyboard-response","277","1062095","0.0-147.0-1.0","null","<p></p>","null","","","","","","","","","","","","","","","","","","","","","","",""
"","do_trial","278","1067300","0.0-148.0-0.0","666.3000000119209","","","","","","","","51","1,1,1","2","forest","85","probe-104","0.15516569874120292","0.5000429024414444","0.6970404241191435","1","","","","","","","",""
"","html-keyboard-response","279","1068303","0.0-148.0-1.0","null","<p></p>","null","","","","","","","","","","","","","","","","","","","","","","",""
"","do_trial","280","1073488","0.0-149.0-0.0","646.6999999880791","","","","","","","","51","0,0,0","2","forest","86","probe-145","0.1497628967674536","0.5401120917729283","0.5447881843643091","0","","","","","","","",""
"","html-keyboard-response","281","1074490","0.0-149.0-1.0","null","<p></p>","null","","","","","","","","","","","","","","","","","","","","","","",""
"","do_trial","282","1079712","0.0-150.0-0.0","682.7000000476837","","","","","","","","49","0,1,0","2","forest","87","probe-125","0.1006343794217829","0.5104645306222787","0.36828600630836894","0","","","","","","","",""
"","html-keyboard-response","283","1080714","0.0-150.0-1.0","null","<p></p>","null","","","","","","","","","","","","","","","","","","","","","","",""
"","do_trial","284","1085921","0.0-151.0-0.0","669.1999999880791","","","","","","","","50","0,0,0","2","forest","88","probe-60","0.0646640631784298","0.4964823114592284","0.3614517777902573","0","","","","","","","",""
"","html-keyboard-response","285","1086924","0.0-151.0-1.0","null","<p></p>","null","","","","","","","","","","","","","","","","","","","","","","",""
"","do_trial","286","1092303","0.0-152.0-0.0","841.1000000238419","","","","","","","","51","0,1,0","2","forest","89","probe-200","0.05666416297381872","0.5435790520114979","0.4048727401256653","0","","","","","","","",""
"","html-keyboard-response","287","1093307","0.0-152.0-1.0","null","<p></p>","null","","","","","","","","","","","","","","","","","","","","","","",""
"","do_trial","288","1098767","0.0-153.0-0.0","920.3999999761581","","","","","","","","51","0,0,0","2","forest","90","probe-03","0.13020266260550922","0.42725651057215613","0.3464705175164282","0","","","","","","","",""
"","html-keyboard-response","289","1099771","0.0-153.0-1.0","null","<p></p>","null","","","","","","","","","","","","","","","","","","","","","","",""
"","do_trial","290","1104456","0.0-154.0-0.0","147","","","","","","","","50","0,0,0","2","forest","91","probe-82","0.13679427027365348","0.5065871276334569","0.19923705724271654","0","","","","","","","",""
"","html-keyboard-response","291","1105460","0.0-154.0-1.0","null","<p></p>","null","","","","","","","","","","","","","","","","","","","","","","",""
"","do_trial","292","1110885","0.0-155.0-0.0","882.8000000119209","","","","","","","","50","0,1,0","2","forest","92","probe-169","0.05102324389229108","0.5323969262829384","0.15657248627622233","1","","","","","","","",""
"","html-keyboard-response","293","1111890","0.0-155.0-1.0","null","<p></p>","null","","","","","","","","","","","","","","","","","","","","","","",""
"","do_trial","294","1117170","0.0-156.0-0.0","742.6000000238419","","","","","","","","50","0,0,0","2","forest","93","probe-214","0.1689746592098833","0.6664993381343698","0.13241067996352063","0","","","","","","","",""
"","html-keyboard-response","295","1118173","0.0-156.0-1.0","null","<p></p>","null","","","","","","","","","","","","","","","","","","","","","","",""
"","do_trial","296","1122972","0.0-157.0-0.0","262.5","","","","","","","","49","0,1,0","2","forest","94","probe-160","0.08899788200224704","0.6282529602037077","0.18015451663530616","0","","","","","","","",""
"","html-keyboard-response","297","1123977","0.0-157.0-1.0","null","<p></p>","null","","","","","","","","","","","","","","","","","","","","","","",""
"","do_trial","298","1128518","0.0-158.0-0.0","0.09999996423721313","","","","","","","","51","1,1,0","2","forest","95","probe-71","0.09023690708505383","0.8088120975027713","0.16992852006990164","0","","","","","","","",""
"","html-keyboard-response","299","1129523","0.0-158.0-1.0","null","<p></p>","null","","","","","","","","","","","","","","","","","","","","","","",""
"","do_trial","300","1134651","0.0-159.0-0.0","587.3999999761581","","","","","","","","50","0,1,0","2","forest","96","probe-153","0.11780048538122156","0.719854781583702","0.17100328416910177","1","","","","","","","",""
"","html-keyboard-response","301","1135653","0.0-159.0-1.0","null","<p></p>","null","","","","","","","","","","","","","","","","","","","","","","",""
"","do_trial","302","1140628","0.0-160.0-0.0","432.5999999642372","","","","","","","","51","0,0,0","2","forest","97","probe-70","0.0519216241683899","0.6745260438014479","0.0765390761878989","0","","","","","","","",""
"","html-keyboard-response","303","1141630","0.0-160.0-1.0","null","<p></p>","null","","","","","","","","","","","","","","","","","","","","","","",""
"","do_trial","304","1146264","0.0-161.0-0.0","96.19999998807907","","","","","","","","50","0,1,1","2","forest","98","probe-192","0.10157115319253006","0.697930511177341","0.28554687818971436","1","","","","","","","",""
"","html-keyboard-response","305","1147266","0.0-161.0-1.0","null","<p></p>","null","","","","","","","","","","","","","","","","","","","","","","",""
"","do_trial","306","1152186","0.0-162.0-0.0","381.4000000357628","","","","","","","","50","0,1,1","2","forest","99","probe-42","0.07628848981709586","0.6857389680158054","0.2519664164569866","1","","","","","","","",""
"","html-keyboard-response","307","1153188","0.0-162.0-1.0","null","<p></p>","null","","","","","","","","","","","","","","","","","","","","","","",""
"","do_trial","308","1158667","0.0-163.0-0.0","937.3999999761581","","","","","","","","50","0,0,0","2","forest","100","probe-201","0.06682345072258529","0.5264917345583002","0.1936785214087863","0","","","","","","","",""
"","html-keyboard-response","309","1159672","0.0-163.0-1.0","null","<p></p>","null","","","","","","","","","","","","","","","","","","","","","","",""
"","do_trial","310","1164780","0.0-164.0-0.0","569.5","","","","","","","","50","0,1,0","2","forest","101","probe-92","0.07557331478760095","0.7099532365451819","0.23751224985706462","1","","","","","","","",""
"","html-keyboard-response","311","1165781","0.0-164.0-1.0","null","<p></p>","null","","","","","","","","","","","","","","","","","","","","","","",""
"","do_trial","312","1170602","0.0-165.0-0.0","284.19999998807907","","","","","","","","50","0,0,1","2","forest","102","probe-46","0.10201006542387354","0.9188334502769113","0.2688320677514307","0","","","","","","","",""
"","html-keyboard-response","313","1171606","0.0-165.0-1.0","null","<p></p>","null","","","","","","","","","","","","","","","","","","","","","","",""
"","do_trial","314","1176349","0.0-166.0-0.0","205.0999999642372","","","","","","","","49","0,1,0","2","forest","103","probe-126","0.11194939806178235","0.8424227983996975","0.15347143308663702","0","","","","","","","",""
"","html-keyboard-response","315","1177353","0.0-166.0-1.0","null","<p></p>","null","","","","","","","","","","","","","","","","","","","","","","",""
"","do_trial","316","1182061","0.0-167.0-0.0","169.79999995231628","","","","","","","","49","0,1,1","2","forest","104","probe-69","0.07718351053499845","0.7170241234281002","0.1746330385335495","0","","","","","","","",""
"","html-keyboard-response","317","1183066","0.0-167.0-1.0","null","<p></p>","null","","","","","","","","","","","","","","","","","","","","","","",""
"","do_trial","318","1187749","0.0-168.0-0.0","144.30000001192093","","","","","","","","51","0,1,0","2","forest","105","probe-211","0.18941007116893155","0.6839839919815346","0.298317042576822","0","","","","","","","",""
"","html-keyboard-response","319","1188754","0.0-168.0-1.0","null","<p></p>","null","","","","","","","","","","","","","","","","","","","","","","",""
"","do_trial","320","1193296","0.0-169.0-0.0","0.30000001192092896","","","","","","","","50","1,1,0","2","forest","106","probe-142","0.1422880767341172","0.5833713525490949","0.3768137251416335","1","","","","","","","",""
"","html-keyboard-response","321","1194299","0.0-169.0-1.0","null","<p></p>","null","","","","","","","","","","","","","","","","","","","","","","",""
"","do_trial","322","1199241","0.0-170.0-0.0","402.5","","","","","","","","50","0,1,0","2","forest","107","probe-45","0.10900439160409338","0.6329399749574262","0.28267955665565686","1","","","","","","","",""
"","html-keyboard-response","323","1200242","0.0-170.0-1.0","null","<p></p>","null","","","","","","","","","","","","","","","","","","","","","","",""
"","do_trial","324","1205067","0.0-171.0-0.0","279.19999998807907","","","","","","","","50","0,1,1","2","forest","108","probe-155","0.1698445790079318","0.5686364275377944","0.28421610289805727","1","","","","","","","",""
"","html-keyboard-response","325","1206072","0.0-171.0-1.0","null","<p></p>","null","","","","","","","","","","","","","","","","","","","","","","",""
"","do_trial","326","1211467","0.0-172.0-0.0","853.6999999880791","","","","","","","","50","0,1,0","2","forest","109","probe-159","0.05801783275554847","0.5710206455927552","0.23607623920590237","1","","","","","","","",""
"","html-keyboard-response","327","1212470","0.0-172.0-1.0","null","<p></p>","null","","","","","","","","","","","","","","","","","","","","","","",""
"","do_bye","328","1213977","0.0-173.0-0.0","null","","","","","","","","null","","","","","","","","","","","","","","","","",""
"","do_travel","329","1219980","0.0-174.0-0.0","null","","","","","","","","null","","","","","","","","","","","","","","","","",""
"","do_welcome","330","1221486","0.0-174.0-1.0","null","","","","","","","","null","","","","","","","","","","","","","","","","",""
"","do_trial","331","1228063","0.0-175.0-0.0","2038.6000000238419","","","","","","","","49","0,1,0","3","mountain","110","probe-96","0.1080816736325385","1","0.16510221439636005","0","","","","","","","",""
"","html-keyboard-response","332","1229069","0.0-175.0-1.0","null","<p></p>","null","","","","","","","","","","","","","","","","","","","","","","",""
"","do_trial","333","1234090","0.0-176.0-0.0","482.7000000476837","","","","","","","","50","0,1,0","3","mountain","111","probe-207","0.11036351457037263","1","0.3563231432295287","1","","","","","","","",""
"","html-keyboard-response","334","1235095","0.0-176.0-1.0","null","<p></p>","null","","","","","","","","","","","","","","","","","","","","","","",""
"","do_trial","335","1240116","0.0-177.0-0.0","480.7000000476837","","","","","","","","50","0,1,1","3","mountain","112","probe-48","0.09154781317005943","0.8744935694547471","0.20399507297796995","1","","","","","","","",""
"","html-keyboard-response","336","1241118","0.0-177.0-1.0","null","<p></p>","null","","","","","","","","","","","","","","","","","","","","","","",""
"","do_trial","337","1246044","0.0-178.0-0.0","388.80000001192093","","","","","","","","50","0,1,1","3","mountain","113","probe-188","0.1066682404792716","0.7415512663539642","0.3389925905861096","1","","","","","","","",""
"","html-keyboard-response","338","1247048","0.0-178.0-1.0","null","<p></p>","null","","","","","","","","","","","","","","","","","","","","","","",""
"","do_trial","339","1251813","0.0-179.0-0.0","225.30000001192093","","","","","","","","50","0,0,0","3","mountain","114","probe-222","0.10196873190708272","0.7686010306048201","0.2582048322804382","0","","","","","","","",""
"","html-keyboard-response","340","1252817","0.0-179.0-1.0","null","<p></p>","null","","","","","","","","","","","","","","","","","","","","","","",""
"","do_trial","341","1257413","0.0-180.0-0.0","55.09999996423721","","","","","","","","51","0,1,1","3","mountain","115","probe-230","0.07710772781038686","0.8441835358351847","0.12359923638446957","1","","","","","","","",""
"","html-keyboard-response","342","1258418","0.0-180.0-1.0","null","<p></p>","null","","","","","","","","","","","","","","","","","","","","","","",""
"","do_trial","343","1263394","0.0-181.0-0.0","438.80000001192093","","","","","","","","51","0,1,0","3","mountain","116","probe-78","0.2737113017110464","0.9413059767537227","0.17008480523667474","0","","","","","","","",""
"","html-keyboard-response","344","1264396","0.0-181.0-1.0","null","<p></p>","null","","","","","","","","","","","","","","","","","","","","","","",""
"","do_trial","345","1268937","0.0-182.0-0.0","0.10000002384185791","","","","","","","","50","0,1,0","3","mountain","117","probe-124","0.107448057647999","0.7743259431967313","0.10893776641910591","1","","","","","","","",""
"","html-keyboard-response","346","1269939","0.0-182.0-1.0","null","<p></p>","null","","","","","","","","","","","","","","","","","","","","","","",""
"","do_trial","347","1274793","0.0-183.0-0.0","313.4000000357628","","","","","","","","50","1,0,1","3","mountain","118","probe-106","0.15167920312176308","0.6106819134898414","0.33004749464558814","0","","","","","","","",""
"","html-keyboard-response","348","1275798","0.0-183.0-1.0","null","<p></p>","null","","","","","","","","","","","","","","","","","","","","","","",""
"","do_trial","349","1280561","0.0-184.0-0.0","225.60000002384186","","","","","","","","51","0,0,0","3","mountain","119","probe-191","0.08334584501529392","0.6197280828098624","0.2805766361918124","0","","","","","","","",""
"","html-keyboard-response","350","1281564","0.0-184.0-1.0","null","<p></p>","null","","","","","","","","","","","","","","","","","","","","","","",""
"","do_trial","351","1286124","0.0-185.0-0.0","19.69999998807907","","","","","","","","49","0,0,0","3","mountain","120","probe-147","0.0864220879152912","0.5158466908100569","0.22462871395115172","0","","","","","","","",""
"","html-keyboard-response","352","1287129","0.0-185.0-1.0","null","<p></p>","null","","","","","","","","","","","","","","","","","","","","","","",""
"","do_trial","353","1291727","0.0-186.0-0.0","57.80000001192093","","","","","","","","50","1,1,1","3","mountain","121","probe-178","0.09988852912863463","0.47020548964631526","0.11435365392139961","1","","","","","","","",""
"","html-keyboard-response","354","1292731","0.0-186.0-1.0","null","<p></p>","null","","","","","","","","","","","","","","","","","","","","","","",""
"","do_trial","355","1297639","0.0-187.0-0.0","367.69999998807907","","","","","","","","51","1,0,0","3","mountain","122","probe-55","0.35172093112946323","0.5000426331061609","0.12376818339700661","0","","","","","","","",""
"","html-keyboard-response","356","1298644","0.0-187.0-1.0","null","<p></p>","null","","","","","","","","","","","","","","","","","","","","","","",""
"","do_trial","357","1303387","0.0-188.0-0.0","205.60000002384186","","","","","","","","50","0,1,0","3","mountain","123","probe-10","0.43915622834940365","0.5362095053812155","0.18705802485892942","1","","","","","","","",""
"","html-keyboard-response","358","1304392","0.0-188.0-1.0","null","<p></p>","null","","","","","","","","","","","","","","","","","","","","","","",""
"","do_trial","359","1309092","0.0-189.0-0.0","158.20000004768372","","","","","","","","49","0,0,0","3","mountain","124","probe-163","0.43040641035916594","0.4599378823550779","0.2128365824688264","0","","","","","","","",""
"","html-keyboard-response","360","1310094","0.0-189.0-1.0","null","<p></p>","null","","","","","","","","","","","","","","","","","","","","","","",""
"","do_trial","361","1314842","0.0-190.0-0.0","211.0999999642372","","","","","","","","50","0,0,0","3","mountain","125","probe-50","0.4936289089262412","0.43040243577082804","0.057661744527942885","0","","","","","","","",""
"","html-keyboard-response","362","1315846","0.0-190.0-1.0","null","<p></p>","null","","","","","","","","","","","","","","","","","","","","","","",""
"","do_trial","363","1321164","0.0-191.0-0.0","779.3000000119209","","","","","","","","51","1,1,0","3","mountain","126","probe-172","0.6245945625796","0.35570215562462126","0.08303902777511582","0","","","","","","","",""
"","html-keyboard-response","364","1322169","0.0-191.0-1.0","null","<p></p>","null","","","","","","","","","","","","","","","","","","","","","","",""
"","do_trial","365","1326778","0.0-192.0-0.0","71.39999997615814","","","","","","","","50","1,0,0","3","mountain","127","probe-189","0.5421137560619647","0.17783340340170678","0.15126689083944458","0","","","","","","","",""
"","html-keyboard-response","366","1327781","0.0-192.0-1.0","null","<p></p>","null","","","","","","","","","","","","","","","","","","","","","","",""
"","do_trial","367","1332606","0.0-193.0-0.0","284.5","","","","","","","","50","0,0,0","3","mountain","128","probe-01","0.5624011697311133","0.30178459047262995","0.133171676567818","0","","","","","","","",""
"","html-keyboard-response","368","1333611","0.0-193.0-1.0","null","<p></p>","null","","","","","","","","","","","","","","","","","","","","","","",""
"","do_trial","369","1338242","0.0-194.0-0.0","91.90000003576279","","","","","","","","50","1,1,0","3","mountain","129","probe-58","0.5204023509309258","0.2921761005715527","0.1313779320344885","1","","","","","","","",""
"","html-keyboard-response","370","1339244","0.0-194.0-1.0","null","<p></p>","null","","","","","","","","","","","","","","","","","","","","","","",""
"","do_trial","371","1343868","0.0-195.0-0.0","84.30000001192093","","","","","","","","51","1,0,0","3","mountain","130","probe-30","0.6433213320535485","0.33029075407277086","0.05909545906347491","0","","","","","","","",""
"","html-keyboard-response","372","1344871","0.0-195.0-1.0","null","<p></p>","null","","","","","","","","","","","","","","","","","","","","","","",""
"","do_trial","373","1349742","0.0-196.0-0.0","332.89999997615814","","","","","","","","50","1,0,0","3","mountain","131","probe-167","0.5727420693988903","0.20342242862625226","0.08834130904902723","0","","","","","","","",""
"","html-keyboard-response","374","1350745","0.0-196.0-1.0","null","<p></p>","null","","","","","","","","","","","","","","","","","","","","","","",""
"","do_trial","375","1355998","0.0-197.0-0.0","713.8000000119209","","","","","","","","49","1,0,0","3","mountain","132","probe-132","0.5771185394722596","0.18975502902929553","0.19413507925586057","1","","","","","","","",""
"","html-keyboard-response","376","1357002","0.0-197.0-1.0","null","<p></p>","null","","","","","","","","","","","","","","","","","","","","","","",""
"","do_trial","377","1361722","0.0-198.0-0.0","178.19999998807907","","","","","","","","49","0,0,0","3","mountain","133","probe-150","0.6683466990410903","0.2996192278889086","0.18566780116694104","0","","","","","","","",""
"","html-keyboard-response","378","1362723","0.0-198.0-1.0","null","<p></p>","null","","","","","","","","","","","","","","","","","","","","","","",""
"","do_trial","379","1367645","0.0-199.0-0.0","378.0999999642372","","","","","","","","50","1,0,0","3","mountain","134","probe-151","0.5903797566854702","0.29517799136875694","0.21181450059111664","0","","","","","","","",""
"","html-keyboard-response","380","1368650","0.0-199.0-1.0","null","<p></p>","null","","","","","","","","","","","","","","","","","","","","","","",""
"","do_trial","381","1373392","0.0-200.0-0.0","201.9000000357628","","","","","","","","50","0,0,0","3","mountain","135","probe-54","0.49918667865069105","0.22407569234980293","0.13362539392314382","0","","","","","","","",""
"","html-keyboard-response","382","1374395","0.0-200.0-1.0","null","<p></p>","null","","","","","","","","","","","","","","","","","","","","","","",""
"","do_trial","383","1379556","0.0-201.0-0.0","620.3999999761581","","","","","","","","51","1,0,0","3","mountain","136","probe-176","0.5196569108675686","0.33982025129368504","0.2009828898793967","0","","","","","","","",""
"","html-keyboard-response","384","1380559","0.0-201.0-1.0","null","<p></p>","null","","","","","","","","","","","","","","","","","","","","","","",""
"","do_trial","385","1385727","0.0-202.0-0.0","628.6999999880791","","","","","","","","50","0,1,0","3","mountain","137","probe-52","0.5101911102376687","0.4107609656152361","0.05561783528845668","1","","","","","","","",""
"","html-keyboard-response","386","1386730","0.0-202.0-1.0","null","<p></p>","null","","","","","","","","","","","","","","","","","","","","","","",""
"","do_trial","387","1392148","0.0-203.0-0.0","878.2000000476837","","","","","","","","50","0,0,0","3","mountain","138","probe-115","0.38422002289361445","0.3599956320956957","0.07511861058419743","0","","","","","","","",""
"","html-keyboard-response","388","1393151","0.0-203.0-1.0","null","<p></p>","null","","","","","","","","","","","","","","","","","","","","","","",""
"","do_trial","389","1397980","0.0-204.0-0.0","288.5999999642372","","","","","","","","50","0,1,0","3","mountain","139","probe-177","0.47231560058488675","0.2749574147552347","0.08465925661393406","1","","","","","","","",""
"","html-keyboard-response","390","1398981","0.0-204.0-1.0","null","<p></p>","null","","","","","","","","","","","","","","","","","","","","","","",""
"","do_trial","391","1406093","0.0-205.0-0.0","2573.199999988079","","","","","","","","50","0,0,0","3","mountain","140","probe-143","0.5060139301075226","0.34714552880442684","0.22287697935455275","0","","","","","","","",""
"","html-keyboard-response","392","1407096","0.0-205.0-1.0","null","<p></p>","null","","","","","","","","","","","","","","","","","","","","","","",""
"","do_trial","393","1411636","0.0-206.0-0.0","0","","","","","","","","50","1,0,0","3","mountain","141","probe-53","0.5699731336893094","0.3163779685287247","0.2808207193278994","0","","","","","","","",""
"","html-keyboard-response","394","1412640","0.0-206.0-1.0","null","<p></p>","null","","","","","","","","","","","","","","","","","","","","","","",""
"","do_trial","395","1418590","0.0-207.0-0.0","1410.5","","","","","","","","49","1,0,0","3","mountain","142","probe-199","0.5385432713755957","0.15526070469056472","0.17469132630498305","1","","","","","","","",""
"","html-keyboard-response","396","1419592","0.0-207.0-1.0","null","<p></p>","null","","","","","","","","","","","","","","","","","","","","","","",""
"","do_trial","397","1424489","0.0-208.0-0.0","355.4000000357628","","","","","","","","51","1,0,0","3","mountain","143","probe-63","0.5618640642987575","0.25006698210241834","0.13172404302722343","0","","","","","","","",""
"","html-keyboard-response","398","1425492","0.0-208.0-1.0","null","<p></p>","null","","","","","","","","","","","","","","","","","","","","","","",""
"","do_trial","399","1430241","0.0-209.0-0.0","206.80000001192093","","","","","","","","49","1,0,0","3","mountain","144","probe-15","0.7270757212262328","0.21498224708734548","0.1637984000901853","1","","","","","","","",""
"","html-keyboard-response","400","1431245","0.0-209.0-1.0","null","<p></p>","null","","","","","","","","","","","","","","","","","","","","","","",""
"","do_trial","401","1436108","0.0-210.0-0.0","321.60000002384186","","","","","","","","50","0,1,0","3","mountain","145","probe-66","0.7265438530948974","0.24497876441929398","0.1697157101888999","1","","","","","","","",""
"","html-keyboard-response","402","1437112","0.0-210.0-1.0","null","<p></p>","null","","","","","","","","","","","","","","","","","","","","","","",""
"","do_trial","403","1441893","0.0-211.0-0.0","239","","","","","","","","50","1,0,0","3","mountain","146","probe-85","0.6378970566188504","0.25101855630454756","0.1366797269102149","0","","","","","","","",""
"","html-keyboard-response","404","1442896","0.0-211.0-1.0","null","<p></p>","null","","","","","","","","","","","","","","","","","","","","","","",""
"","do_trial","405","1447439","0.0-212.0-0.0","0","","","","","","","","49","0,0,1","3","mountain","147","probe-185","0.5979817058610882","0.25481700233873594","0.21747606954895116","0","","","","","","","",""
"","html-keyboard-response","406","1448443","0.0-212.0-1.0","null","<p></p>","null","","","","","","","","","","","","","","","","","","","","","","",""
"","do_trial","407","1453181","0.0-213.0-0.0","200.0999999642372","","","","","","","","51","1,0,0","3","mountain","148","probe-59","0.7542863851718963","0.36457414044359143","0.17307031613949156","0","","","","","","","",""
"","html-keyboard-response","408","1454185","0.0-213.0-1.0","null","<p></p>","null","","","","","","","","","","","","","","","","","","","","","","",""
"","do_trial","409","1458819","0.0-214.0-0.0","90","","","","","","","","51","1,1,0","3","mountain","149","probe-73","0.820667401972337","0.2980201685224941","0.24773897686219656","0","","","","","","","",""
"","html-keyboard-response","410","1459821","0.0-214.0-1.0","null","<p></p>","null","","","","","","","","","","","","","","","","","","","","","","",""
"","do_bye","411","1461329","0.0-215.0-0.0","null","","","","","","","","null","","","","","","","","","","","","","","","","",""
"","do_travel","412","1467331","0.0-216.0-0.0","null","","","","","","","","null","","","","","","","","","","","","","","","","",""
"","do_welcome","413","1468838","0.0-216.0-1.0","null","","","","","","","","null","","","","","","","","","","","","","","","","",""
"","do_trial","414","1474884","0.0-217.0-0.0","null","","","","","","","","null","1,0,1","4","highway","150","probe-83","1","0.2132839408768662","0.20581322512799027","","","","","","","","",""
"","html-keyboard-response","415","1475889","0.0-217.0-1.0","null","<p></p>","null","","","","","","","","","","","","","","","","","","","","","","",""
"","do_trial","416","1480912","0.0-218.0-0.0","481.5","","","","","","","","49","1,1,0","4","highway","151","probe-35","1","0.29994939926230546","0.22259927658251297","1","","","","","","","",""
"","html-keyboard-response","417","1481917","0.0-218.0-1.0","null","<p></p>","null","","","","","","","","","","","","","","","","","","","","","","",""
"","do_trial","418","1486524","0.0-219.0-0.0","64.79999995231628","","","","","","","","49","1,1,0","4","highway","152","probe-196","0.8273157017778384","0.3580082594187678","0.18337453835102102","1","","","","","","","",""
"","html-keyboard-response","419","1487528","0.0-219.0-1.0","null","<p></p>","null","","","","","","","","","","","","","","","","","","","","","","",""
"","do_trial","420","1492532","0.0-220.0-0.0","462.10000002384186","","","","","","","","49","1,0,0","4","highway","153","probe-140","0.715067721522752","0.3222493440203057","0.14066017555234475","1","","","","","","","",""
"","html-keyboard-response","421","1493538","0.0-220.0-1.0","null","<p></p>","null","","","","","","","","","","","","","","","","","","","","","","",""
"","do_trial","422","1498641","0.0-221.0-0.0","565.7999999523163","","","","","","","","49","0,1,0","4","highway","154","probe-224","0.9338767227779322","0.40307595250727474","0.1284756866531162","0","","","","","","","",""
"","html-keyboard-response","423","1499645","0.0-221.0-1.0","null","<p></p>","null","","","","","","","","","","","","","","","","","","","","","","",""
"","do_trial","424","1504464","0.0-222.0-0.0","281.30000001192093","","","","","","","","50","1,0,0","4","highway","155","probe-94","0.7969551969580922","0.341997436794691","0.10558226139784685","0","","","","","","","",""
"","html-keyboard-response","425","1505467","0.0-222.0-1.0","null","<p></p>","null","","","","","","","","","","","","","","","","","","","","","","",""
"","do_trial","426","1511510","0.0-223.0-0.0","null","","","","","","","","null","1,1,0","4","highway","156","probe-112","0.82708712992051","0.2767824410902449","0.08486500201891176","","","","","","","","",""
"","html-keyboard-response","427","1512515","0.0-223.0-1.0","null","<p></p>","null","","","","","","","","","","","","","","","","","","","","","","",""
"","do_trial","428","1517203","0.0-224.0-0.0","147.19999998807907","","","","","","","","51","1,1,0","4","highway","157","probe-198","0.7228700809930017","0.2850891945521725","0.3337873794032366","0","","","","","","","",""
"","html-keyboard-response","429","1518204","0.0-224.0-1.0","null","<p></p>","null","","","","","","","","","","","","","","","","","","","","","","",""
"","do_trial","430","1523392","0.0-225.0-0.0","650.5","","","","","","","","50","1,0,0","4","highway","158","probe-152","0.7474719575483991","0.31692412021795296","0.29158187066773195","0","","","","","","","",""
"","html-keyboard-response","431","1524394","0.0-225.0-1.0","null","<p></p>","null","","","","","","","","","","","","","","","","","","","","","","",""
"","do_trial","432","1528938","0.0-226.0-0.0","0.10000002384185791","","","","","","","","49","0,1,0","4","highway","159","probe-101","0.638694625799473","0.28253925259612883","0.2282482695210751","0","","","","","","","",""
"","html-keyboard-response","433","1529942","0.0-226.0-1.0","null","<p></p>","null","","","","","","","","","","","","","","","","","","","","","","",""
"","do_trial","434","1534708","0.0-227.0-0.0","222.30000001192093","","","","","","","","49","1,0,1","4","highway","160","probe-113","0.5193615662114831","0.42223858686335924","0.3447588562666634","1","","","","","","","",""
"","html-keyboard-response","435","1535710","0.0-227.0-1.0","null","<p></p>","null","","","","","","","","","","","","","","","","","","","","","","",""
"","do_trial","436","1540674","0.0-228.0-0.0","423.89999997615814","","","","","","","","51","1,0,1","4","highway","161","probe-203","0.6620271267707595","0.3701397515261031","0.34979701076506386","1","","","","","","","",""
"","html-keyboard-response","437","1541679","0.0-228.0-1.0","null","<p></p>","null","","","","","","","","","","","","","","","","","","","","","","",""
"","do_trial","438","1546659","0.0-229.0-0.0","439.69999998807907","","","","","","","","50","1,0,0","4","highway","162","probe-108","0.49654981880261057","0.3711281788500184","0.33120316613715955","0","","","","","","","",""
"","html-keyboard-response","439","1547663","0.0-229.0-1.0","null","<p></p>","null","","","","","","","","","","","","","","","","","","","","","","",""
"","do_trial","440","1552364","0.0-230.0-0.0","157.9000000357628","","","","","","","","49","0,0,0","4","highway","163","probe-68","0.3861926055919718","0.25864572531290364","0.44045800340587277","0","","","","","","","",""
"","html-keyboard-response","441","1553370","0.0-230.0-1.0","null","<p></p>","null","","","","","","","","","","","","","","","","","","","","","","",""
"","do_trial","442","1557957","0.0-231.0-0.0","44.40000003576279","","","","","","","","49","0,1,0","4","highway","164","probe-205","0.23108884916600622","0.29613936956274484","0.5249112837775293","0","","","","","","","",""
"","html-keyboard-response","443","1558960","0.0-231.0-1.0","null","<p></p>","null","","","","","","","","","","","","","","","","","","","","","","",""
"","do_trial","444","1563602","0.0-232.0-0.0","104","","","","","","","","51","0,0,0","4","highway","165","probe-29","0.21712594329821236","0.41987467154529556","0.5052108790670662","0","","","","","","","",""
"","html-keyboard-response","445","1564603","0.0-232.0-1.0","null","<p></p>","null","","","","","","","","","","","","","","","","","","","","","","",""
"","do_trial","446","1569346","0.0-233.0-0.0","204","","","","","","","","50","0,0,1","4","highway","166","probe-33","0.24141056939412792","0.3113504724293389","0.577828838040236","0","","","","","","","",""
"","html-keyboard-response","447","1570352","0.0-233.0-1.0","null","<p></p>","null","","","","","","","","","","","","","","","","","","","","","","",""
"","do_trial","448","1575941","0.0-234.0-0.0","1046.699999988079","","","","","","","","49","0,1,0","4","highway","167","probe-44","0.2071286163013287","0.38439791135531376","0.5889182185447436","0","","","","","","","",""
"","html-keyboard-response","449","1576944","0.0-234.0-1.0","null","<p></p>","null","","","","","","","","","","","","","","","","","","","","","","",""
"","do_trial","450","1582523","0.0-235.0-0.0","1038.8999999761581","","","","","","","","50","0,1,0","4","highway","168","probe-89","0.057725862221176975","0.37796206011316286","0.5587186445179882","1","","","","","","","",""
"","html-keyboard-response","451","1583525","0.0-235.0-1.0","null","<p></p>","null","","","","","","","","","","","","","","","","","","","","","","",""
"","do_trial","452","1588233","0.0-236.0-0.0","168.30000001192093","","","","","","","","50","1,1,1","4","highway","169","probe-64","0.15070453465489134","0.289680189915531","0.6009828599388305","1","","","","","","","",""
"","html-keyboard-response","453","1589237","0.0-236.0-1.0","null","<p></p>","null","","","","","","","","","","","","","","","","","","","","","","",""
"","do_trial","454","1593890","0.0-237.0-0.0","112.30000001192093","","","","","","","","49","0,0,0","4","highway","170","probe-223","0.18057436476779046","0.2364894054578109","0.6273977013514686","0","","","","","","","",""
"","html-keyboard-response","455","1594895","0.0-237.0-1.0","null","<p></p>","null","","","","","","","","","","","","","","","","","","","","","","",""
"","do_trial","456","1599951","0.0-238.0-0.0","520.2999999523163","","","","","","","","51","0,0,0","4","highway","171","probe-39","0.3027206950836605","0.18514535738866722","0.5092219896221593","0","","","","","","","",""
"","html-keyboard-response","457","1600955","0.0-238.0-1.0","null","<p></p>","null","","","","","","","","","","","","","","","","","","","","","","",""
"","do_trial","458","1606072","0.0-239.0-0.0","580.5","","","","","","","","50","0,1,0","4","highway","172","probe-36","0.18635766738258852","0.20854899628650722","0.5252904443853192","1","","","","","","","",""
"","html-keyboard-response","459","1607074","0.0-239.0-1.0","null","<p></p>","null","","","","","","","","","","","","","","","","","","","","","","",""
"","do_trial","460","1612849","0.0-240.0-0.0","1233.1000000238419","","","","","","","","50","0,0,1","4","highway","173","probe-137","0.2426187625385723","0.17986779990966986","0.6146892285679035","0","","","","","","","",""
"","html-keyboard-response","461","1613852","0.0-240.0-1.0","null","<p></p>","null","","","","","","","","","","","","","","","","","","","","","","",""
"","do_trial","462","1620802","0.0-241.0-0.0","2410.199999988079","","","","","","","","51","1,0,1","4","highway","174","probe-11","0.3542873670403022","0.1358680240836504","0.7618507910149973","1","","","","","","","",""
"","html-keyboard-response","463","1621806","0.0-241.0-1.0","null","<p></p>","null","","","","","","","","","","","","","","","","","","","","","","",""
"","do_trial","464","1627071","0.0-242.0-0.0","724.0999999642372","","","","","","","","51","0,0,1","4","highway","175","probe-02","0.184559963501458","0.1490605934732619","0.7466839734754595","1","","","","","","","",""
"","html-keyboard-response","465","1628075","0.0-242.0-1.0","null","<p></p>","null","","","","","","","","","","","","","","","","","","","","","","",""
"","do_trial","466","1632633","0.0-243.0-0.0","17.19999998807907","","","","","","","","49","0,1,0","4","highway","176","probe-105","0.17954799175978842","0.20691942003195302","0.7360523797160073","0","","","","","","","",""
"","html-keyboard-response","467","1633637","0.0-243.0-1.0","null","<p></p>","null","","","","","","","","","","","","","","","","","","","","","","",""
"","do_trial","468","1639870","0.0-244.0-0.0","1692.1000000238419","","","","","","","","51","0,0,1","4","highway","177","probe-118","0.1275039901086555","0.21211752056497304","0.6860673292712883","1","","","","","","","",""
"","html-keyboard-response","469","1640875","0.0-244.0-1.0","null","<p></p>","null","","","","","","","","","","","","","","","","","","","","","","",""
"","do_trial","470","1646913","0.0-245.0-0.0","1500.6000000238419","","","","","","","","51","0,0,1","4","highway","178","probe-148","0.09460034756922056","0.18751121721811537","0.6518002985825108","1","","","","","","","",""
"","html-keyboard-response","471","1647918","0.0-245.0-1.0","null","<p></p>","null","","","","","","","","","","","","","","","","","","","","","","",""
"","do_trial","472","1652496","0.0-246.0-0.0","39.30000001192093","","","","","","","","50","0,0,0","4","highway","179","probe-216","0.057398147274138285","0.2338897808242278","0.7364674976347604","0","","","","","","","",""
"","html-keyboard-response","473","1653501","0.0-246.0-1.0","null","<p></p>","null","","","","","","","","","","","","","","","","","","","","","","",""
