success,trial_type,trial_index,time_elapsed,internal_node_id,interactions,blur_events,focus_events,fullscreenenter_events,fullscreenexit_events,rt,stimulus,key_press,subject_id,participant_id,age,gender,prompt,response,choice_outcomes,context_n,context_img_id,trial_n,probe_img_id,pR_red,pR_white,pR_black,outcome,contextArray_ind,validImageProbes,invalidImageProbes,pRew_Red,pRew_White,pRew_Black,availableForMemProbe,choice_blocks
TRUE,fullscreen,0,2766,0.0-0.0,"""event"",""trial"",""time""
""fullscreenenter"",""0"",""1791""
","
","
","""event"",""trial"",""time""
""fullscreenenter"",""0"",""1791""
","
",,,,,,,,,,,,,,,,,,,,,,,,,,
,pavlovia,1,2774,0.0-1.0,"""event"",""trial"",""time""
""fullscreenenter"",""0"",""1791""
","
","
","""event"",""trial"",""time""
""fullscreenenter"",""0"",""1791""
","
",,,,,,,,,,,,,,,,,,,,,,,,,,
,instruc1,2,47915,0.0-2.0,"""event"",""trial"",""time""
""fullscreenenter"",""0"",""1791""
","
","
","""event"",""trial"",""time""
""fullscreenenter"",""0"",""1791""
","
",null,run_exp/static/audio/clip_1_welcome.m4a,null,249,727,11,Female,"<div class='center'><p>Welcome! This is the first part of the study. It will last ~30 minutes. In part 1 and part 2 of the study, you are the head captain of a pirate ship traveling around the world to different islands. You will play a few different games throughout these two parts. Here is an overview of them:</p><br><p>Part 1 (today)</p><p>1. Instructions, practice game, and quiz</p><p>2. Pick a pirate game on 6 different islands</p><br><p>Part 2 (tomorrow)</p><p>3. Pick a pirate game and memory game</p><p>4. Where did you see this ship? </p></div>",,,,,,,,,,,,,,,,,,
,html-keyboard-response,3,49094,0.0-3.0,"""event"",""trial"",""time""
""fullscreenenter"",""0"",""1791""
","
","
","""event"",""trial"",""time""
""fullscreenenter"",""0"",""1791""
","
",1173.7,"<div class='center'><p>Welcome! This is the first part of the study. It will last ~30 minutes. In part 1 and part 2 of the study, you are the head captain of a pirate ship traveling around the world to different islands. You will play a few different games throughout these two parts. Here is an overview of them:</p><br><p>Part 1 (today)</p><p>1. Instructions, practice game, and quiz</p><p>2. Pick a pirate game on 6 different islands</p><br><p>Part 2 (tomorrow)</p><p>3. Pick a pirate game and memory game</p><p>4. Where did you see this ship? </p><p><b>[Press the space bar to continue]</b></p></div>",32,,,,,,,,,,,,,,,,,,,,,,,
,instruc2,4,54399,0.0-4.0,"""event"",""trial"",""time""
""fullscreenenter"",""0"",""1791""
","
","
","""event"",""trial"",""time""
""fullscreenenter"",""0"",""1791""
","
",null,run_exp/static/audio/clip_2_different_places.m4a,null,,,,,"<div class='center'><p>Today, you’ll visit these 6 islands on your journey. You'll be able to see these islands from your ship.</p><p><img src='run_exp/static/images/contexts/all_contexts.png' height='500'></p></div>",,,,,,,,,,,,,,,,,,
,html-keyboard-response,5,55734,0.0-5.0,"""event"",""trial"",""time""
""fullscreenenter"",""0"",""1791""
","
","
","""event"",""trial"",""time""
""fullscreenenter"",""0"",""1791""
","
",1331.1,"<div class='center'><p>Today, you’ll visit these 6 islands on your journey. You'll be able to see these islands from your ship.</p><p><img src='run_exp/static/images/contexts/all_contexts.png' height='500'></p><p><b>[Press the space bar to continue]</b></p></div>",32,,,,,,,,,,,,,,,,,,,,,,,
,instruc3,6,65450,0.0-6.0,"""event"",""trial"",""time""
""fullscreenenter"",""0"",""1791""
","
","
","""event"",""trial"",""time""
""fullscreenenter"",""0"",""1791""
","
",null,run_exp/static/audio/clip_3_goal_of_game_1.m4a,null,,,,,"<div class='center'><p> The pirates on your ship will rob other ships as they leave the island.</p> These ships have just sold their goods to the islanders, so they will be filled with lots and lots of gold.</p><p><img src='run_exp/static/images/tutorial/ship_center.png' height='400'></p></div>",,,,,,,,,,,,,,,,,,
,html-keyboard-response,7,66737,0.0-7.0,"""event"",""trial"",""time""
""fullscreenenter"",""0"",""1791""
","
","
","""event"",""trial"",""time""
""fullscreenenter"",""0"",""1791""
","
",1285.5,"<div class='center'><p> The pirates on your ship will rob other ships as they leave the island.</p> These ships have just sold their goods to the islanders, so they will be filled with lots and lots of gold.</p><p><img src='run_exp/static/images/tutorial/ship_center.png' height='400'></p><p><b>[Press the space bar to continue]</b></p></div>",32,,,,,,,,,,,,,,,,,,,,,,,
,instruc4,8,94740,0.0-8.0,"""event"",""trial"",""time""
""fullscreenenter"",""0"",""1791""
","
","
","""event"",""trial"",""time""
""fullscreenenter"",""0"",""1791""
","
",null,run_exp/static/audio/clip_4_goal_of_game_2.m4a,null,,,,,"<div class='center'><p>As the head captain, you do not have to rob any ships yourself. Another pirate will be doing the robbing for you. First, you will choose a pirate to rob the next ship.</p><p><img src='run_exp/static/images/tutorial/pirates_all_crop.png' height='200'></p><p>Then, you'll see if the pirate successfully robbed the ship of their gold. If they were successful, then you'll get a stack of gold coins like this:</p><p><img src='run_exp/static/images/tutorial/reward.png' height='150'></p><p> If they were <b>not</b> successful, then you'll get no gold coins, and you'll see a big red x like this: </p><p><img src='run_exp/static/images/tutorial/reward_no.png' height='150'></p><p> How much bonus money you make is based on how many gold coins you collect.</p><div>",,,,,,,,,,,,,,,,,,
,html-keyboard-response,9,95087,0.0-9.0,"""event"",""trial"",""time""
""fullscreenenter"",""0"",""1791""
","
","
","""event"",""trial"",""time""
""fullscreenenter"",""0"",""1791""
","
",344.3,"<div class='center'><p>As the head captain, you do not have to rob any ships yourself. Another pirate will be doing the robbing for you. First, you will choose a pirate to rob the next ship.</p><p><img src='run_exp/static/images/tutorial/pirates_all_crop.png' height='200'></p><p>Then, you'll see if the pirate successfully robbed the ship of their gold. If they were successful, then you'll get a stack of gold coins like this:</p><p><img src='run_exp/static/images/tutorial/reward.png' height='150'></p><p> If they were <b>not</b> successful, then you'll get no gold coins, and you'll see a big red x like this: </p><p><img src='run_exp/static/images/tutorial/reward_no.png' height='150'></p><p> How much bonus money you make is based on how many gold coins you collect.</p<p><b>[Press the space bar to continue]</b></p></div>",32,,,,,,,,,,,,,,,,,,,,,,,
,instruc5,10,120312,0.0-10.0,"""event"",""trial"",""time""
""fullscreenenter"",""0"",""1791""
","
","
","""event"",""trial"",""time""
""fullscreenenter"",""0"",""1791""
","
",25223.6,run_exp/static/audio/clip_5_probabilistic.m4a,49,,,,,"<div class='center'><p>Even the most skilled pirate can not rob EVERY ship.</p><p> Some ships will have very strong protections against pirate attacks.</p><p> Blue beard, here, is very, very good at robbing ships, but he won't be successful every time he tries to rob one.</p><p> You can press the <b>‘1’</b> key on the keyboard to choose him.</p><p> Try choosing him 10 times to see how often he succeeds at robbing a ship. </p><p><img src='run_exp/static/images/tutorial/blue.png' height='500'></p></div>",,,,,,,,,,,,,,,,,,
,html-keyboard-response,11,121820,0.0-11.0,"""event"",""trial"",""time""
""fullscreenenter"",""0"",""1791""
","
","
","""event"",""trial"",""time""
""fullscreenenter"",""0"",""1791""
","
",null,<div class='center'><p><img src='run_exp/static/images/tutorial/blue_win.png' height='500'></p></div>,null,,,,,,,,,,,,,,,,,,,,,,,
,html-keyboard-response,12,122886,0.0-12.0,"""event"",""trial"",""time""
""fullscreenenter"",""0"",""1791""
","
","
","""event"",""trial"",""time""
""fullscreenenter"",""0"",""1791""
","
",1064,<div class='center'><img src='run_exp/static/images/tutorial/blue.png' height='500'></p></div>,49,,,,,,,,,,,,,,,,,,,,,,,
,html-keyboard-response,13,124392,0.0-13.0,"""event"",""trial"",""time""
""fullscreenenter"",""0"",""1791""
","
","
","""event"",""trial"",""time""
""fullscreenenter"",""0"",""1791""
","
",null,<div class='center'><p><img src='run_exp/static/images/tutorial/blue_win.png' height='500'></p></div>,null,,,,,,,,,,,,,,,,,,,,,,,
,html-keyboard-response,14,124916,0.0-14.0,"""event"",""trial"",""time""
""fullscreenenter"",""0"",""1791""
","
","
","""event"",""trial"",""time""
""fullscreenenter"",""0"",""1791""
","
",521.9,<div class='center'><img src='run_exp/static/images/tutorial/blue.png' height='500'></p></div>,49,,,,,,,,,,,,,,,,,,,,,,,
,html-keyboard-response,15,126421,0.0-15.0,"""event"",""trial"",""time""
""fullscreenenter"",""0"",""1791""
","
","
","""event"",""trial"",""time""
""fullscreenenter"",""0"",""1791""
","
",null,<div class='center'><p><img src='run_exp/static/images/tutorial/blue_win.png' height='500'></p></div>,null,,,,,,,,,,,,,,,,,,,,,,,
,html-keyboard-response,16,126845,0.0-16.0,"""event"",""trial"",""time""
""fullscreenenter"",""0"",""1791""
","
","
","""event"",""trial"",""time""
""fullscreenenter"",""0"",""1791""
","
",422.2,<div class='center'><img src='run_exp/static/images/tutorial/blue.png' height='500'></p></div>,49,,,,,,,,,,,,,,,,,,,,,,,
,html-keyboard-response,17,128351,0.0-17.0,"""event"",""trial"",""time""
""fullscreenenter"",""0"",""1791""
","
","
","""event"",""trial"",""time""
""fullscreenenter"",""0"",""1791""
","
",null,<div class='center'><p><img src='run_exp/static/images/tutorial/blue_no_win.png' height='500'></p></div>,null,,,,,,,,,,,,,,,,,,,,,,,
,html-keyboard-response,18,128881,0.0-18.0,"""event"",""trial"",""time""
""fullscreenenter"",""0"",""1791""
","
","
","""event"",""trial"",""time""
""fullscreenenter"",""0"",""1791""
","
",527.7,<div class='center'><img src='run_exp/static/images/tutorial/blue.png' height='500'></p></div>,49,,,,,,,,,,,,,,,,,,,,,,,
,html-keyboard-response,19,130383,0.0-19.0,"""event"",""trial"",""time""
""fullscreenenter"",""0"",""1791""
","
","
","""event"",""trial"",""time""
""fullscreenenter"",""0"",""1791""
","
",null,<div class='center'><p><img src='run_exp/static/images/tutorial/blue_win.png' height='500'></p></div>,null,,,,,,,,,,,,,,,,,,,,,,,
,html-keyboard-response,20,131240,0.0-20.0,"""event"",""trial"",""time""
""fullscreenenter"",""0"",""1791""
","
","
","""event"",""trial"",""time""
""fullscreenenter"",""0"",""1791""
","
",855.5,<div class='center'><img src='run_exp/static/images/tutorial/blue.png' height='500'></p></div>,49,,,,,,,,,,,,,,,,,,,,,,,
,html-keyboard-response,21,132747,0.0-21.0,"""event"",""trial"",""time""
""fullscreenenter"",""0"",""1791""
","
","
","""event"",""trial"",""time""
""fullscreenenter"",""0"",""1791""
","
",null,<div class='center'><p><img src='run_exp/static/images/tutorial/blue_win.png' height='500'></p></div>,null,,,,,,,,,,,,,,,,,,,,,,,
,html-keyboard-response,22,133342,0.0-22.0,"""event"",""trial"",""time""
""fullscreenenter"",""0"",""1791""
","
","
","""event"",""trial"",""time""
""fullscreenenter"",""0"",""1791""
","
",593,<div class='center'><img src='run_exp/static/images/tutorial/blue.png' height='500'></p></div>,49,,,,,,,,,,,,,,,,,,,,,,,
,html-keyboard-response,23,134849,0.0-23.0,"""event"",""trial"",""time""
""fullscreenenter"",""0"",""1791""
","
","
","""event"",""trial"",""time""
""fullscreenenter"",""0"",""1791""
","
",null,<div class='center'><p><img src='run_exp/static/images/tutorial/blue_win.png' height='500'></p></div>,null,,,,,,,,,,,,,,,,,,,,,,,
,html-keyboard-response,24,135472,0.0-24.0,"""event"",""trial"",""time""
""fullscreenenter"",""0"",""1791""
","
","
","""event"",""trial"",""time""
""fullscreenenter"",""0"",""1791""
","
",621.6,<div class='center'><img src='run_exp/static/images/tutorial/blue.png' height='500'></p></div>,49,,,,,,,,,,,,,,,,,,,,,,,
,html-keyboard-response,25,136979,0.0-25.0,"""event"",""trial"",""time""
""fullscreenenter"",""0"",""1791""
","
","
","""event"",""trial"",""time""
""fullscreenenter"",""0"",""1791""
","
",null,<div class='center'><p><img src='run_exp/static/images/tutorial/blue_no_win.png' height='500'></p></div>,null,,,,,,,,,,,,,,,,,,,,,,,
,html-keyboard-response,26,137498,0.0-26.0,"""event"",""trial"",""time""
""fullscreenenter"",""0"",""1791""
","
","
","""event"",""trial"",""time""
""fullscreenenter"",""0"",""1791""
","
",517.1,<div class='center'><img src='run_exp/static/images/tutorial/blue.png' height='500'></p></div>,49,,,,,,,,,,,,,,,,,,,,,,,
,html-keyboard-response,27,139001,0.0-27.0,"""event"",""trial"",""time""
""fullscreenenter"",""0"",""1791""
","
","
","""event"",""trial"",""time""
""fullscreenenter"",""0"",""1791""
","
",null,<div class='center'><p><img src='run_exp/static/images/tutorial/blue_win.png' height='500'></p></div>,null,,,,,,,,,,,,,,,,,,,,,,,
,html-keyboard-response,28,139538,0.0-28.0,"""event"",""trial"",""time""
""fullscreenenter"",""0"",""1791""
","
","
","""event"",""trial"",""time""
""fullscreenenter"",""0"",""1791""
","
",535,<div class='center'><img src='run_exp/static/images/tutorial/blue.png' height='500'></p></div>,49,,,,,,,,,,,,,,,,,,,,,,,
,html-keyboard-response,29,141045,0.0-29.0,"""event"",""trial"",""time""
""fullscreenenter"",""0"",""1791""
","
","
","""event"",""trial"",""time""
""fullscreenenter"",""0"",""1791""
","
",null,<div class='center'><p><img src='run_exp/static/images/tutorial/blue_win.png' height='500'></p></div>,null,,,,,,,,,,,,,,,,,,,,,,,
,instruc6,30,146470,0.0-30.0,"""event"",""trial"",""time""
""fullscreenenter"",""0"",""1791""
","
","
","""event"",""trial"",""time""
""fullscreenenter"",""0"",""1791""
","
",null,run_exp/static/audio/clip_6_blue_beard_outcome.m4a,null,,,,,"<div class='center'><p> See, he succeeded in robbing the ships most of the time but not every time. </p></div>",,,,,,,,,,,,,,,,,,
,html-keyboard-response,31,147612,0.0-31.0,"""event"",""trial"",""time""
""fullscreenenter"",""0"",""1791""
","
","
","""event"",""trial"",""time""
""fullscreenenter"",""0"",""1791""
","
",1140.5,"<div class='center'><p> See, he succeeded in robbing the ships most of the time but not every time. </p><p><b>[Press the space bar to continue]</b></p></div>",32,,,,,,,,,,,,,,,,,,,,,,,
,audio-keyboard-response,32,163685,0.0-32.0,"""event"",""trial"",""time""
""fullscreenenter"",""0"",""1791""
","
","
","""event"",""trial"",""time""
""fullscreenenter"",""0"",""1791""
","
",16071,run_exp/static/audio/clip_7_pick_pirate.m4a,49,,,,,,,,,,,,,,,,,,,,,,,
,audio-keyboard-response,33,166378,0.0-33.0-0.0,"""event"",""trial"",""time""
""fullscreenenter"",""0"",""1791""
","
","
","""event"",""trial"",""time""
""fullscreenenter"",""0"",""1791""
","
",2690,run_exp/static/audio/clip_8_chosen_pirate_win.m4a,32,,,,,,,,,,,,,,,,,,,,,,,
,audio-keyboard-response,34,167179,0.0-33.0-1.0,"""event"",""trial"",""time""
""fullscreenenter"",""0"",""1791""
","
","
","""event"",""trial"",""time""
""fullscreenenter"",""0"",""1791""
","
",798.4,run_exp/static/audio/clip_9_pick_a_pirate_again.m4a,50,,,,,,,,,,,,,,,,,,,,,,,
,audio-keyboard-response,35,168211,0.0-34.0-0.0,"""event"",""trial"",""time""
""fullscreenenter"",""0"",""1791""
","
","
","""event"",""trial"",""time""
""fullscreenenter"",""0"",""1791""
","
",1028.7,run_exp/static/audio/clip_10_chosen_pirate_loss.m4a,32,,,,,,,,,,,,,,,,,,,,,,,
,instruc9,36,173712,0.0-35.0-0.0,"""event"",""trial"",""time""
""fullscreenenter"",""0"",""1791""
","
","
","""event"",""trial"",""time""
""fullscreenenter"",""0"",""1791""
","
",null,run_exp/static/audio/clip_11_time_out.m4a,null,,,,,"<div class='center'><p>If you don’t make your choice fast enough, you’ll have to wait a few seconds before you can make another one. </p><p><img src='run_exp/static/images/miscellaneous/hurry_up.png' height='500'></p></div>",,,,,,,,,,,,,,,,,,
,html-keyboard-response,37,174424,0.0-35.0-1.0,"""event"",""trial"",""time""
""fullscreenenter"",""0"",""1791""
","
","
","""event"",""trial"",""time""
""fullscreenenter"",""0"",""1791""
","
",710.1,"<div class='center'><p>If you don’t make your choice fast enough, you’ll have to wait a few seconds before you can make another one. </p><p><img src='run_exp/static/images/miscellaneous/hurry_up.png' height='500'></p><p><b>[Press the space bar to continue]</b></p></div>",32,,,,,,,,,,,,,,,,,,,,,,,
,instruc10,38,213520,0.0-35.0-2.0,"""event"",""trial"",""time""
""fullscreenenter"",""0"",""1791""
","
","
","""event"",""trial"",""time""
""fullscreenenter"",""0"",""1791""
","
",null,run_exp/static/audio/clip_12_probe.m4a,null,,,,,"<div class='center'><p>Once you've chosen a pirate, you’ll be shown the ship they are robbing. You will never rob the same ship twice. Ships can be told apart from one another by the image on them. These are the goods that they sell. See, this ship has a travel mug on it. </p><p> You’ll have to remember which island you saw each ship on. You will win more gold coins and hence more bonus money if you remember correctly! To help you remember, you can imagine a story. For example, here, you could imagine a mug full of water in the desert. Or, as another example, if on the forest island, your pirate robbed a ship with an apple on it, you could imagine an apple falling from a tree in the forest. </p><p><img src='run_exp/static/images/tutorial/example_probe.png' height='500'></p></div>",,,,,,,,,,,,,,,,,,
,html-keyboard-response,39,213948,0.0-35.0-3.0,"""event"",""trial"",""time""
""fullscreenenter"",""0"",""1791""
","
","
","""event"",""trial"",""time""
""fullscreenenter"",""0"",""1791""
","
",425.7,"<div class='center'><p>Once you've chosen a pirate, you’ll be shown the ship they are robbing. You will never rob the same ship twice. Ships can be told apart from one another by the image on them. These are the goods that they sell. See, this ship has a travel mug on it. </p><p> You’ll have to remember which island you saw each ship on. You will win more gold coins and hence more bonus money if you remember correctly! To help you remember, you can imagine a story. For example, here, you could imagine a mug full of water in the desert. Or, as another example, if on the forest island, your pirate robbed a ship with an apple on it, you could imagine an apple falling from a tree in the forest. </p><p><img src='run_exp/static/images/tutorial/example_probe.png' height='500'></p><p><b>[Press the space bar to continue]</b></p></div>",32,,,,,,,,,,,,,,,,,,,,,,,
,instruc11,40,230352,0.0-35.0-4.0,"""event"",""trial"",""time""
""fullscreenenter"",""0"",""1791""
","
","
","""event"",""trial"",""time""
""fullscreenenter"",""0"",""1791""
","
",null,run_exp/static/audio/clip_13_changepoint.m4a,null,,,,,"<div class='center'><p>How successful a pirate is at robbing ships will depend on the island you’re on.</p><p> A pirate may have visited this island many times before and gained a lot of practice robbing ships there.</p><p>So, they’re more likely to be successful than a pirate who has never visited the island before.</p></div>",,,,,,,,,,,,,,,,,,
,html-keyboard-response,41,231189,0.0-35.0-5.0,"""event"",""trial"",""time""
""fullscreenenter"",""0"",""1791""
","
","
","""event"",""trial"",""time""
""fullscreenenter"",""0"",""1791""
","
",836.3,"<div class='center'><p>How successful a pirate is at robbing ships will depend on the island you’re on.</p><p> A pirate may have visited this island many times before and gained a lot of practice robbing ships there.</p><p>So, they’re more likely to be successful than a pirate who has never visited the island before.</p><p><b>[Press the space bar to continue]</b></p></div>",32,,,,,,,,,,,,,,,,,,,,,,,
,instruc12,42,272271,0.0-35.0-6.0,"""event"",""trial"",""time""
""fullscreenenter"",""0"",""1791""
","
","
","""event"",""trial"",""time""
""fullscreenenter"",""0"",""1791""
","
",null,run_exp/static/audio/clip_14_drift.m4a,null,,,,,"<div class='center'><p>How successful a pirate is at robbing ships can also change over the time spent on the island. </p><p> Ships may hear from islanders about the pirates coming and will improve their protections against the attack. This may make it harder to rob them.</p><p> Ships may also become lazy and weaken the strength of their protections. This may make it easier to rob them.</p><br><p>Things are always changing on the high seas! So, try your best to pay attention!</p><p><img src='run_exp/static/images/tutorial/contingency.png' height='500'></p></div>",,,,,,,,,,,,,,,,,,
,html-keyboard-response,43,272339,0.0-35.0-7.0,"""event"",""trial"",""time""
""fullscreenenter"",""0"",""1791""
","
","
","""event"",""trial"",""time""
""fullscreenenter"",""0"",""1791""
","
",65.2,"<div class='center'><p>How successful a pirate is at robbing ships can also change over the time spent on the island. </p><p> Ships may hear from islanders about the pirates coming and will improve their protections against the attack. This may make it harder to rob them.</p><p> Ships may also become lazy and weaken the strength of their protections. This may make it easier to rob them.</p><br><p>Things are always changing on the high seas! So, try your best to pay attention!</p><p><img src='run_exp/static/images/tutorial/contingency.png' height='500'></p><p><b>[Press the space bar to continue]</b></p></div>",32,,,,,,,,,,,,,,,,,,,,,,,
,instruc13,44,307535,0.0-35.0-8.0,"""event"",""trial"",""time""
""fullscreenenter"",""0"",""1791""
","
","
","""event"",""trial"",""time""
""fullscreenenter"",""0"",""1791""
","
",null,run_exp/static/audio/clip_15_summary.m4a,null,,,,,"<div class='center'><p>Let's go over the instructions quickly again. You have two important things to do: </p><b><p> 1. Pick the pirate who is the best at robbing ships on the current island. </p></b><b><p> 2. Remember on which island a ship was robbed.</p> </b><p>The amount of bonus money you can win depends on both.</p><p><br><p>Let’s try a practice game. The game will start by showing you the pirates. First, pick a pirate using the <b> 1, 2, 3 </b> keys on your keyboard. When you are shown a ship, try to remember which island you’re on by making up a story.</p><p>This is just a practice game, so you’re not playing for money. </p><p> Good luck! This game will be very difficult but try your best!</p></div>",,,,,,,,,,,,,,,,,,
,html-keyboard-response,45,307964,0.0-35.0-9.0,"""event"",""trial"",""time""
""fullscreenenter"",""0"",""1791""
","
","
","""event"",""trial"",""time""
""fullscreenenter"",""0"",""1791""
","
",427.8,"<div class='center'><p>Let's go over the instructions quickly again. You have two important things to do: </p><b><p> 1. Pick the pirate who is the best at robbing ships on the current island. </p></b><b><p> 2. Remember on which island a ship was robbed.</p> </b><p>The amount of bonus money you can win depends on both.</p><p><br><p>Let’s try a practice game. The game will start by showing you the pirates. First, pick a pirate using the <b> 1, 2, 3 </b> keys on your keyboard. When you are shown a ship, try to remember which island you’re on by making up a story.</p><p>This is just a practice game, so you’re not playing for money. </p><p> Good luck! This game will be very difficult but try your best!</p><p><b>[Press the space bar to continue]</b></p></div>",32,,,,,,,,,,,,,,,,,,,,,,,
,do_welcome,46,311978,0.0-35.0-10.0,"""event"",""trial"",""time""
""fullscreenenter"",""0"",""1791""
","
","
","""event"",""trial"",""time""
""fullscreenenter"",""0"",""1791""
","
",null,,,,,,,,null,,,,,,,,,,,,,,,,,
,do_trial,47,318842,0.0-35.0-11.0,"""event"",""trial"",""time""
""fullscreenenter"",""0"",""1791""
","
","
","""event"",""trial"",""time""
""fullscreenenter"",""0"",""1791""
","
",2349.2,,,,,,,,49,"1,0,0",,,,,,,,,,,,,,,,
,html-keyboard-response,48,319849,0.0-36.0-0.0,"""event"",""trial"",""time""
""fullscreenenter"",""0"",""1791""
","
","
","""event"",""trial"",""time""
""fullscreenenter"",""0"",""1791""
","
",null,<p></p>,null,,,,,,,,,,,,,,,,,,,,,,,
,do_trial,49,325512,0.0-36.0-1.0,"""event"",""trial"",""time""
""fullscreenenter"",""0"",""1791""
","
","
","""event"",""trial"",""time""
""fullscreenenter"",""0"",""1791""
","
",1151.2,,,,,,,,50,"1,1,0",,,,,,,,,,,,,,,,
,html-keyboard-response,50,326520,0.0-37.0-0.0,"""event"",""trial"",""time""
""fullscreenenter"",""0"",""1791""
","
","
","""event"",""trial"",""time""
""fullscreenenter"",""0"",""1791""
","
",null,<p></p>,null,,,,,,,,,,,,,,,,,,,,,,,
,do_trial,51,331674,0.0-37.0-1.0,"""event"",""trial"",""time""
""fullscreenenter"",""0"",""1791""
","
","
","""event"",""trial"",""time""
""fullscreenenter"",""0"",""1791""
","
",645.5,,,,,,,,51,"1,0,1",,,,,,,,,,,,,,,,
,html-keyboard-response,52,332681,0.0-38.0-0.0,"""event"",""trial"",""time""
""fullscreenenter"",""0"",""1791""
","
","
","""event"",""trial"",""time""
""fullscreenenter"",""0"",""1791""
","
",null,<p></p>,null,,,,,,,,,,,,,,,,,,,,,,,
,do_trial,53,337857,0.0-38.0-1.0,"""event"",""trial"",""time""
""fullscreenenter"",""0"",""1791""
","
","
","""event"",""trial"",""time""
""fullscreenenter"",""0"",""1791""
","
",661.8,,,,,,,,50,"0,1,0",,,,,,,,,,,,,,,,
,html-keyboard-response,54,338864,0.0-39.0-0.0,"""event"",""trial"",""time""
""fullscreenenter"",""0"",""1791""
","
","
","""event"",""trial"",""time""
""fullscreenenter"",""0"",""1791""
","
",null,<p></p>,null,,,,,,,,,,,,,,,,,,,,,,,
,do_trial,55,345957,0.0-39.0-1.0,"""event"",""trial"",""time""
""fullscreenenter"",""0"",""1791""
","
","
","""event"",""trial"",""time""
""fullscreenenter"",""0"",""1791""
","
",2578.8,,,,,,,,51,"1,0,0",,,,,,,,,,,,,,,,
,do_bye,56,347469,0.0-40.0-0.0,"""event"",""trial"",""time""
""fullscreenenter"",""0"",""1791""
","
","
","""event"",""trial"",""time""
""fullscreenenter"",""0"",""1791""
","
",null,,,,,,,,null,,,,,,,,,,,,,,,,,
,do_travel,57,356474,0.0-40.0-1.0,"""event"",""trial"",""time""
""fullscreenenter"",""0"",""1791""
","
","
","""event"",""trial"",""time""
""fullscreenenter"",""0"",""1791""
","
",null,,,,,,,,null,,,,,,,,,,,,,,,,,
,do_welcome,58,360484,0.0-40.0-2.0,"""event"",""trial"",""time""
""fullscreenenter"",""0"",""1791""
","
","
","""event"",""trial"",""time""
""fullscreenenter"",""0"",""1791""
","
",null,,,,,,,,null,,,,,,,,,,,,,,,,,
,do_trial,59,366502,0.0-40.0-3.0,"""event"",""trial"",""time""
""fullscreenenter"",""0"",""1791""
","
","
","""event"",""trial"",""time""
""fullscreenenter"",""0"",""1791""
","
",null,,,,,,,,null,"1,0,0",,,,,,,,,,,,,,,,
,do_bye,60,368014,0.0-41.0-0.0,"""event"",""trial"",""time""
""fullscreenenter"",""0"",""1791""
","
","
","""event"",""trial"",""time""
""fullscreenenter"",""0"",""1791""
","
",null,,,,,,,,null,,,,,,,,,,,,,,,,,
,do_travel,61,377023,0.0-41.0-1.0,"""event"",""trial"",""time""
""fullscreenenter"",""0"",""1791""
","
","
","""event"",""trial"",""time""
""fullscreenenter"",""0"",""1791""
","
",null,,,,,,,,null,,,,,,,,,,,,,,,,,
,do_welcome,62,381034,0.0-41.0-2.0,"""event"",""trial"",""time""
""fullscreenenter"",""0"",""1791""
","
","
","""event"",""trial"",""time""
""fullscreenenter"",""0"",""1791""
","
",null,,,,,,,,null,,,,,,,,,,,,,,,,,
,do_trial,63,385749,0.0-41.0-3.0,"""event"",""trial"",""time""
""fullscreenenter"",""0"",""1791""
","
","
","""event"",""trial"",""time""
""fullscreenenter"",""0"",""1791""
","
",201.2,,,,,,,,50,"1,0,0",,,,,,,,,,,,,,,,
,html-keyboard-response,64,386757,0.0-42.0-0.0,"""event"",""trial"",""time""
""fullscreenenter"",""0"",""1791""
","
","
","""event"",""trial"",""time""
""fullscreenenter"",""0"",""1791""
","
",null,<p></p>,null,,,,,,,,,,,,,,,,,,,,,,,
,do_trial,65,391718,0.0-42.0-1.0,"""event"",""trial"",""time""
""fullscreenenter"",""0"",""1791""
","
","
","""event"",""trial"",""time""
""fullscreenenter"",""0"",""1791""
","
",449.2,,,,,,,,49,"1,0,1",,,,,,,,,,,,,,,,
,html-keyboard-response,66,392725,0.0-43.0-0.0,"""event"",""trial"",""time""
""fullscreenenter"",""0"",""1791""
","
","
","""event"",""trial"",""time""
""fullscreenenter"",""0"",""1791""
","
",null,<p></p>,null,,,,,,,,,,,,,,,,,,,,,,,
,do_trial,67,397956,0.0-43.0-1.0,"""event"",""trial"",""time""
""fullscreenenter"",""0"",""1791""
","
","
","""event"",""trial"",""time""
""fullscreenenter"",""0"",""1791""
","
",714.7,,,,,,,,51,"1,1,0",,,,,,,,,,,,,,,,
,html-keyboard-response,68,398964,0.0-44.0-0.0,"""event"",""trial"",""time""
""fullscreenenter"",""0"",""1791""
","
","
","""event"",""trial"",""time""
""fullscreenenter"",""0"",""1791""
","
",null,<p></p>,null,,,,,,,,,,,,,,,,,,,,,,,
,do_trial,69,403931,0.0-44.0-1.0,"""event"",""trial"",""time""
""fullscreenenter"",""0"",""1791""
","
","
","""event"",""trial"",""time""
""fullscreenenter"",""0"",""1791""
","
",451.3,,,,,,,,50,"0,0,1",,,,,,,,,,,,,,,,
,html-keyboard-response,70,404938,0.0-45.0-0.0,"""event"",""trial"",""time""
""fullscreenenter"",""0"",""1791""
","
","
","""event"",""trial"",""time""
""fullscreenenter"",""0"",""1791""
","
",null,<p></p>,null,,,,,,,,,,,,,,,,,,,,,,,
,do_trial,71,409765,0.0-45.0-1.0,"""event"",""trial"",""time""
""fullscreenenter"",""0"",""1791""
","
","
","""event"",""trial"",""time""
""fullscreenenter"",""0"",""1791""
","
",313.7,,,,,,,,49,"1,0,1",,,,,,,,,,,,,,,,
,html-keyboard-response,72,412036,0.0-46.0-0.0,"""event"",""trial"",""time""
""fullscreenenter"",""0"",""1791""
","
","
","""event"",""trial"",""time""
""fullscreenenter"",""0"",""1791""
","
",2267.5,<div class='center'><p><img src='run_exp/static/images/tutorial/prac_best_pirate.png'  height='500'></p></div>,49,,,,,,,,,,,,,,,,,,,,,,,
,html-keyboard-response,73,413303,0.0-47.0-0.0,"""event"",""trial"",""time""
""fullscreenenter"",""0"",""1791""
","
","
","""event"",""trial"",""time""
""fullscreenenter"",""0"",""1791""
","
",1265.1,<div class='center'><p>That's correct! Red beard was the best.</p><p><b>[Press the space bar to continue]</b></p></div>,32,,,,,,,,,,,,,,,,,,,,,,,
,html-keyboard-response,74,417867,0.0-47.0-1.0,"""event"",""trial"",""time""
""fullscreenenter"",""0"",""1791""
","
","
","""event"",""trial"",""time""
""fullscreenenter"",""0"",""1791""
","
",4562,<div class='center'><p><img src='run_exp/static/images/tutorial/prac_source.png'  height='500'></p></div>,50,,,,,,,,,,,,,,,,,,,,,,,
,html-keyboard-response,75,418949,0.0-48.0-0.0,"""event"",""trial"",""time""
""fullscreenenter"",""0"",""1791""
","
","
","""event"",""trial"",""time""
""fullscreenenter"",""0"",""1791""
","
",1079.9,<div class='center'><p>That's correct! You saw this ship on the cavern island.</p><p><b>[Press the space bar to continue]</b></p></div>,32,,,,,,,,,,,,,,,,,,,,,,,
,quiz_beginning,76,430193,0.0-48.0-1.0,"""event"",""trial"",""time""
""fullscreenenter"",""0"",""1791""
","
","
","""event"",""trial"",""time""
""fullscreenenter"",""0"",""1791""
","
",null,run_exp/static/audio/clip_16_quiz_intro.m4a,null,,,,,"<div class='center'><p>Good job on the practice game! Now, you will be asked some true or false questions to make sure you really understand the rules of the game.</p><p> Press <b>'1'</b> on the keyboard for true and press <b>'2'</b> for false.</p></div>",,,,,,,,,,,,,,,,,,
,audio-keyboard-response,77,430377,0.0-48.0-2.0,"""event"",""trial"",""time""
""fullscreenenter"",""0"",""1791""
","
","
","""event"",""trial"",""time""
""fullscreenenter"",""0"",""1791""
","
",182.3,run_exp/static/audio/clip_17_q1.m4a,50,,,,,,,,,,,,,,,,,,,,,,,
,q1_err,78,435291,0.0-49.0-0.0,"""event"",""trial"",""time""
""fullscreenenter"",""0"",""1791""
","
","
","""event"",""trial"",""time""
""fullscreenenter"",""0"",""1791""
","
",null,run_exp/static/audio/clip_19_wrong_q1.m4a,null,,,,,<div class='center'><p>That’s incorrect. You win bonus money by collecting gold coins.</p></div>,,,,,,,,,,,,,,,,,,
,html-keyboard-response,79,436081,0.0-49.0-1.0,"""event"",""trial"",""time""
""fullscreenenter"",""0"",""1791""
","
","
","""event"",""trial"",""time""
""fullscreenenter"",""0"",""1791""
","
",787.9,<div class='center'><p>That’s incorrect. You win bonus money by collecting gold coins.</p><p><b>[Press the space bar to continue]</b></p></div>,32,,,,,,,,,,,,,,,,,,,,,,,
,audio-keyboard-response,80,444512,0.0-49.0-2.0,"""event"",""trial"",""time""
""fullscreenenter"",""0"",""1791""
","
","
","""event"",""trial"",""time""
""fullscreenenter"",""0"",""1791""
","
",8430.5,run_exp/static/audio/clip_20_q2.m4a,50,,,,,,,,,,,,,,,,,,,,,,,
,correct,81,446918,0.0-50.0-0.0,"""event"",""trial"",""time""
""fullscreenenter"",""0"",""1791""
","
","
","""event"",""trial"",""time""
""fullscreenenter"",""0"",""1791""
","
",null,run_exp/static/audio/clip_18_correct.m4a,null,,,,,<div class='center'><p>That's correct!</p></div>,,,,,,,,,,,,,,,,,,
,html-keyboard-response,82,447536,0.0-50.0-1.0,"""event"",""trial"",""time""
""fullscreenenter"",""0"",""1791""
","
","
","""event"",""trial"",""time""
""fullscreenenter"",""0"",""1791""
","
",616.1,<div class='center'><p>That's correct!</p><p><b>[Press the space bar to continue]</b></p></div>,32,,,,,,,,,,,,,,,,,,,,,,,
,audio-keyboard-response,83,450536,0.0-50.0-2.0,"""event"",""trial"",""time""
""fullscreenenter"",""0"",""1791""
","
","
","""event"",""trial"",""time""
""fullscreenenter"",""0"",""1791""
","
",2998.8,run_exp/static/audio/clip_22_q3.m4a,50,,,,,,,,,,,,,,,,,,,,,,,
,correct,84,452934,0.0-51.0-0.0,"""event"",""trial"",""time""
""fullscreenenter"",""0"",""1791""
","
","
","""event"",""trial"",""time""
""fullscreenenter"",""0"",""1791""
","
",null,run_exp/static/audio/clip_18_correct.m4a,null,,,,,<div class='center'><p>That's correct!</p></div>,,,,,,,,,,,,,,,,,,
,html-keyboard-response,85,453906,0.0-51.0-1.0,"""event"",""trial"",""time""
""fullscreenenter"",""0"",""1791""
","
","
","""event"",""trial"",""time""
""fullscreenenter"",""0"",""1791""
","
",970.7,<div class='center'><p>That's correct!</p><p><b>[Press the space bar to continue]</b></p></div>,32,,,,,,,,,,,,,,,,,,,,,,,
,audio-keyboard-response,86,457378,0.0-51.0-2.0,"""event"",""trial"",""time""
""fullscreenenter"",""0"",""1791""
","
","
","""event"",""trial"",""time""
""fullscreenenter"",""0"",""1791""
","
",3471.1,run_exp/static/audio/clip_24_q4.m4a,49,,,,,,,,,,,,,,,,,,,,,,,
,correct,87,459782,0.0-52.0-0.0,"""event"",""trial"",""time""
""fullscreenenter"",""0"",""1791""
","
","
","""event"",""trial"",""time""
""fullscreenenter"",""0"",""1791""
","
",null,run_exp/static/audio/clip_18_correct.m4a,null,,,,,<div class='center'><p>That's correct!</p></div>,,,,,,,,,,,,,,,,,,
,html-keyboard-response,88,460644,0.0-52.0-1.0,"""event"",""trial"",""time""
""fullscreenenter"",""0"",""1791""
","
","
","""event"",""trial"",""time""
""fullscreenenter"",""0"",""1791""
","
",861,<div class='center'><p>That's correct!</p><p><b>[Press the space bar to continue]</b></p></div>,32,,,,,,,,,,,,,,,,,,,,,,,
,q_all_err,89,466822,0.0-53.0-0.0,"""event"",""trial"",""time""
""fullscreenenter"",""0"",""1791""
","
","
","""event"",""trial"",""time""
""fullscreenenter"",""0"",""1791""
","
",null,run_exp/static/audio/clip_26_quiz_redo.m4a,null,,,,,"<div class='center'><p>Oops, you missed some questions. Now that you’ve heard the correct answers. Try the quiz again! </p></div>",,,,,,,,,,,,,,,,,,
,html-keyboard-response,90,467665,0.0-53.0-1.0,"""event"",""trial"",""time""
""fullscreenenter"",""0"",""1791""
","
","
","""event"",""trial"",""time""
""fullscreenenter"",""0"",""1791""
","
",841.8,"<div class='center'><p>Oops, you missed some questions. Now that you’ve heard the correct answers. Try the quiz again! </p><p><b>[Press the space bar to continue]</b></p></div>",32,,,,,,,,,,,,,,,,,,,,,,,
,audio-keyboard-response,91,469326,0.0-53.0-2.0,"""event"",""trial"",""time""
""fullscreenenter"",""0"",""1791""
","
","
","""event"",""trial"",""time""
""fullscreenenter"",""0"",""1791""
","
",1659.7,run_exp/static/audio/clip_17_q1.m4a,49,,,,,,,,,,,,,,,,,,,,,,,
,correct,92,471728,0.0-54.0-0.0,"""event"",""trial"",""time""
""fullscreenenter"",""0"",""1791""
","
","
","""event"",""trial"",""time""
""fullscreenenter"",""0"",""1791""
","
",null,run_exp/static/audio/clip_18_correct.m4a,null,,,,,<div class='center'><p>That's correct!</p></div>,,,,,,,,,,,,,,,,,,
,html-keyboard-response,93,472500,0.0-54.0-1.0,"""event"",""trial"",""time""
""fullscreenenter"",""0"",""1791""
","
","
","""event"",""trial"",""time""
""fullscreenenter"",""0"",""1791""
","
",770.9,<div class='center'><p>That's correct!</p><p><b>[Press the space bar to continue]</b></p></div>,32,,,,,,,,,,,,,,,,,,,,,,,
,audio-keyboard-response,94,475059,0.0-54.0-2.0,"""event"",""trial"",""time""
""fullscreenenter"",""0"",""1791""
","
","
","""event"",""trial"",""time""
""fullscreenenter"",""0"",""1791""
","
",2557.6,run_exp/static/audio/clip_20_q2.m4a,50,,,,,,,,,,,,,,,,,,,,,,,
,correct,95,477467,0.0-55.0-0.0,"""event"",""trial"",""time""
""fullscreenenter"",""0"",""1791""
","
","
","""event"",""trial"",""time""
""fullscreenenter"",""0"",""1791""
","
",null,run_exp/static/audio/clip_18_correct.m4a,null,,,,,<div class='center'><p>That's correct!</p></div>,,,,,,,,,,,,,,,,,,
,html-keyboard-response,96,478261,0.0-55.0-1.0,"""event"",""trial"",""time""
""fullscreenenter"",""0"",""1791""
","
","
","""event"",""trial"",""time""
""fullscreenenter"",""0"",""1791""
","
",792.7,<div class='center'><p>That's correct!</p><p><b>[Press the space bar to continue]</b></p></div>,32,,,,,,,,,,,,,,,,,,,,,,,
,audio-keyboard-response,97,481123,0.0-55.0-2.0,"""event"",""trial"",""time""
""fullscreenenter"",""0"",""1791""
","
","
","""event"",""trial"",""time""
""fullscreenenter"",""0"",""1791""
","
",2860.6,run_exp/static/audio/clip_22_q3.m4a,50,,,,,,,,,,,,,,,,,,,,,,,
,correct,98,483526,0.0-56.0-0.0,"""event"",""trial"",""time""
""fullscreenenter"",""0"",""1791""
","
","
","""event"",""trial"",""time""
""fullscreenenter"",""0"",""1791""
","
",null,run_exp/static/audio/clip_18_correct.m4a,null,,,,,<div class='center'><p>That's correct!</p></div>,,,,,,,,,,,,,,,,,,
,html-keyboard-response,99,484207,0.0-56.0-1.0,"""event"",""trial"",""time""
""fullscreenenter"",""0"",""1791""
","
","
","""event"",""trial"",""time""
""fullscreenenter"",""0"",""1791""
","
",680,<div class='center'><p>That's correct!</p><p><b>[Press the space bar to continue]</b></p></div>,32,,,,,,,,,,,,,,,,,,,,,,,
,audio-keyboard-response,100,486289,0.0-56.0-2.0,"""event"",""trial"",""time""
""fullscreenenter"",""0"",""1791""
","
","
","""event"",""trial"",""time""
""fullscreenenter"",""0"",""1791""
","
",2081.1,run_exp/static/audio/clip_24_q4.m4a,49,,,,,,,,,,,,,,,,,,,,,,,
,correct,101,488732,0.0-57.0-0.0,"""event"",""trial"",""time""
""fullscreenenter"",""0"",""1791""
","
","
","""event"",""trial"",""time""
""fullscreenenter"",""0"",""1791""
","
",null,run_exp/static/audio/clip_18_correct.m4a,null,,,,,<div class='center'><p>That's correct!</p></div>,,,,,,,,,,,,,,,,,,
,html-keyboard-response,102,489486,0.0-57.0-1.0,"""event"",""trial"",""time""
""fullscreenenter"",""0"",""1791""
","
","
","""event"",""trial"",""time""
""fullscreenenter"",""0"",""1791""
","
",752.6,<div class='center'><p>That's correct!</p><p><b>[Press the space bar to continue]</b></p></div>,32,,,,,,,,,,,,,,,,,,,,,,,
,q_all_corr,103,497990,0.0-58.0-0.0,"""event"",""trial"",""time""
""fullscreenenter"",""0"",""1791""
","
","
","""event"",""trial"",""time""
""fullscreenenter"",""0"",""1791""
","
",null,run_exp/static/audio/clip_27_quiz_all_correct.m4a,null,,,,,<div class='center'><p>Good job! You’re now ready to move on to the real game! Remember this game will be difficult but don't get discouraged and try your best!</p></div>,,,,,,,,,,,,,,,,,,
,html-keyboard-response,104,498520,0.0-58.0-1.0,"""event"",""trial"",""time""
""fullscreenenter"",""0"",""1791""
","
","
","""event"",""trial"",""time""
""fullscreenenter"",""0"",""1791""
","
",527.5,<div class='center'><p>Good job! You’re now ready to move on to the real game! Remember this game will be difficult but don't get discouraged and try your best!</p><p><b>[Press the space bar to continue]</b></p></div>,32,,,,,,,,,,,,,,,,,,,,,,,
,do_welcome,105,502529,0.0-59.0-0.0,"""event"",""trial"",""time""
""fullscreenenter"",""0"",""1791""
","
","
","""event"",""trial"",""time""
""fullscreenenter"",""0"",""1791""
","
",null,,,,,,,,null,,,,,,,,,,,,,,,,,
,do_trial,106,508407,0.0-60.0-0.0,"""event"",""trial"",""time""
""fullscreenenter"",""0"",""1791""
","
","
","""event"",""trial"",""time""
""fullscreenenter"",""0"",""1791""
","
",1322.6,,,,,,,,49,"1,0,0",0,forest,0,probe-202,0.6,0.3,0.1,1,,,,,,,,
,html-keyboard-response,107,509413,0.0-60.0-1.0,"""event"",""trial"",""time""
""fullscreenenter"",""0"",""1791""
","
","
","""event"",""trial"",""time""
""fullscreenenter"",""0"",""1791""
","
",null,<p></p>,null,,,,,,,,,,,,,,,,,,,,,,,
,do_trial,108,515796,0.0-61.0-0.0,"""event"",""trial"",""time""
""fullscreenenter"",""0"",""1791""
","
","
","""event"",""trial"",""time""
""fullscreenenter"",""0"",""1791""
","
",1830.8,,,,,,,,50,"0,0,0",0,forest,1,probe-110,0.538662255,0.206535729,0.097682016,0,,,,,,,,
,html-keyboard-response,109,516800,0.0-61.0-1.0,"""event"",""trial"",""time""
""fullscreenenter"",""0"",""1791""
","
","
","""event"",""trial"",""time""
""fullscreenenter"",""0"",""1791""
","
",null,<p></p>,null,,,,,,,,,,,,,,,,,,,,,,,
,do_trial,110,522138,0.0-62.0-0.0,"""event"",""trial"",""time""
""fullscreenenter"",""0"",""1791""
","
","
","""event"",""trial"",""time""
""fullscreenenter"",""0"",""1791""
","
",780.5,,,,,,,,51,"1,0,1",0,forest,2,probe-90,0.694418301,0.094065057,0.092739453,1,,,,,,,,
,html-keyboard-response,111,523145,0.0-62.0-1.0,"""event"",""trial"",""time""
""fullscreenenter"",""0"",""1791""
","
","
","""event"",""trial"",""time""
""fullscreenenter"",""0"",""1791""
","
",null,<p></p>,null,,,,,,,,,,,,,,,,,,,,,,,
,do_trial,112,528379,0.0-63.0-0.0,"""event"",""trial"",""time""
""fullscreenenter"",""0"",""1791""
","
","
","""event"",""trial"",""time""
""fullscreenenter"",""0"",""1791""
","
",681,,,,,,,,49,"1,0,0",0,forest,3,probe-83,0.681849718,0.249457758,0.10010941,1,,,,,,,,
,html-keyboard-response,113,529384,0.0-63.0-1.0,"""event"",""trial"",""time""
""fullscreenenter"",""0"",""1791""
","
","
","""event"",""trial"",""time""
""fullscreenenter"",""0"",""1791""
","
",null,<p></p>,null,,,,,,,,,,,,,,,,,,,,,,,
,do_trial,114,534502,0.0-64.0-0.0,"""event"",""trial"",""time""
""fullscreenenter"",""0"",""1791""
","
","
","""event"",""trial"",""time""
""fullscreenenter"",""0"",""1791""
","
",562.8,,,,,,,,51,"1,1,0",0,forest,4,probe-134,0.691118391,0.390529893,0.144172764,0,,,,,,,,
,html-keyboard-response,115,535509,0.0-64.0-1.0,"""event"",""trial"",""time""
""fullscreenenter"",""0"",""1791""
","
","
","""event"",""trial"",""time""
""fullscreenenter"",""0"",""1791""
","
",null,<p></p>,null,,,,,,,,,,,,,,,,,,,,,,,
,do_trial,116,540827,0.0-65.0-0.0,"""event"",""trial"",""time""
""fullscreenenter"",""0"",""1791""
","
","
","""event"",""trial"",""time""
""fullscreenenter"",""0"",""1791""
","
",773,,,,,,,,50,"1,0,0",0,forest,5,probe-159,0.635188217,0.21535873,0.135141483,0,,,,,,,,
,html-keyboard-response,117,541834,0.0-65.0-1.0,"""event"",""trial"",""time""
""fullscreenenter"",""0"",""1791""
","
","
","""event"",""trial"",""time""
""fullscreenenter"",""0"",""1791""
","
",null,<p></p>,null,,,,,,,,,,,,,,,,,,,,,,,
,do_trial,118,547039,0.0-66.0-0.0,"""event"",""trial"",""time""
""fullscreenenter"",""0"",""1791""
","
","
","""event"",""trial"",""time""
""fullscreenenter"",""0"",""1791""
","
",647.7,,,,,,,,49,"1,0,0",0,forest,6,probe-69,0.502881433,0.354236055,0.131629403,1,,,,,,,,
,html-keyboard-response,119,548047,0.0-66.0-1.0,"""event"",""trial"",""time""
""fullscreenenter"",""0"",""1791""
","
","
","""event"",""trial"",""time""
""fullscreenenter"",""0"",""1791""
","
",null,<p></p>,null,,,,,,,,,,,,,,,,,,,,,,,
,do_trial,120,554100,0.0-67.0-0.0,"""event"",""trial"",""time""
""fullscreenenter"",""0"",""1791""
","
","
","""event"",""trial"",""time""
""fullscreenenter"",""0"",""1791""
","
",null,,,,,,,,null,"0,0,0",0,forest,7,probe-106,0.576929383,0.318821939,0.051555316,,,,,,,,,
,html-keyboard-response,121,555108,0.0-67.0-1.0,"""event"",""trial"",""time""
""fullscreenenter"",""0"",""1791""
","
","
","""event"",""trial"",""time""
""fullscreenenter"",""0"",""1791""
","
",null,<p></p>,null,,,,,,,,,,,,,,,,,,,,,,,
,do_trial,122,560683,0.0-68.0-0.0,"""event"",""trial"",""time""
""fullscreenenter"",""0"",""1791""
","
","
","""event"",""trial"",""time""
""fullscreenenter"",""0"",""1791""
","
",1020.8,,,,,,,,50,"0,1,0",0,forest,8,probe-183,0.622672832,0.346950053,0.080336791,1,,,,,,,,
,html-keyboard-response,123,561692,0.0-68.0-1.0,"""event"",""trial"",""time""
""fullscreenenter"",""0"",""1791""
","
","
","""event"",""trial"",""time""
""fullscreenenter"",""0"",""1791""
","
",null,<p></p>,null,,,,,,,,,,,,,,,,,,,,,,,
,do_trial,124,566899,0.0-69.0-0.0,"""event"",""trial"",""time""
""fullscreenenter"",""0"",""1791""
","
","
","""event"",""trial"",""time""
""fullscreenenter"",""0"",""1791""
","
",649.1,,,,,,,,49,"0,0,0",0,forest,9,probe-192,0.686450156,0.311139558,0.112928464,0,,,,,,,,
,html-keyboard-response,125,567906,0.0-69.0-1.0,"""event"",""trial"",""time""
""fullscreenenter"",""0"",""1791""
","
","
","""event"",""trial"",""time""
""fullscreenenter"",""0"",""1791""
","
",null,<p></p>,null,,,,,,,,,,,,,,,,,,,,,,,
,do_trial,126,572886,0.0-70.0-0.0,"""event"",""trial"",""time""
""fullscreenenter"",""0"",""1791""
","
","
","""event"",""trial"",""time""
""fullscreenenter"",""0"",""1791""
","
",424.9,,,,,,,,51,"1,0,0",0,forest,10,probe-19,0.621425293,0.239011968,0.134035297,0,,,,,,,,
,html-keyboard-response,127,573890,0.0-70.0-1.0,"""event"",""trial"",""time""
""fullscreenenter"",""0"",""1791""
","
","
","""event"",""trial"",""time""
""fullscreenenter"",""0"",""1791""
","
",null,<p></p>,null,,,,,,,,,,,,,,,,,,,,,,,
,do_trial,128,578821,0.0-71.0-0.0,"""event"",""trial"",""time""
""fullscreenenter"",""0"",""1791""
","
","
","""event"",""trial"",""time""
""fullscreenenter"",""0"",""1791""
","
",370.7,,,,,,,,50,"1,1,0",0,forest,11,probe-115,0.632745213,0.287285015,0.100984883,1,,,,,,,,
,html-keyboard-response,129,579829,0.0-71.0-1.0,"""event"",""trial"",""time""
""fullscreenenter"",""0"",""1791""
","
","
","""event"",""trial"",""time""
""fullscreenenter"",""0"",""1791""
","
",null,<p></p>,null,,,,,,,,,,,,,,,,,,,,,,,
,do_trial,130,585170,0.0-72.0-0.0,"""event"",""trial"",""time""
""fullscreenenter"",""0"",""1791""
","
","
","""event"",""trial"",""time""
""fullscreenenter"",""0"",""1791""
","
",793.4,,,,,,,,49,"0,0,0",0,forest,12,probe-62,0.529440511,0.211658403,0.060304173,0,,,,,,,,
,html-keyboard-response,131,586173,0.0-72.0-1.0,"""event"",""trial"",""time""
""fullscreenenter"",""0"",""1791""
","
","
","""event"",""trial"",""time""
""fullscreenenter"",""0"",""1791""
","
",null,<p></p>,null,,,,,,,,,,,,,,,,,,,,,,,
,do_trial,132,591088,0.0-73.0-0.0,"""event"",""trial"",""time""
""fullscreenenter"",""0"",""1791""
","
","
","""event"",""trial"",""time""
""fullscreenenter"",""0"",""1791""
","
",358,,,,,,,,50,"1,1,0",0,forest,13,probe-199,0.490578583,0.24387958,0.113952259,1,,,,,,,,
,html-keyboard-response,133,592091,0.0-73.0-1.0,"""event"",""trial"",""time""
""fullscreenenter"",""0"",""1791""
","
","
","""event"",""trial"",""time""
""fullscreenenter"",""0"",""1791""
","
",null,<p></p>,null,,,,,,,,,,,,,,,,,,,,,,,
,do_trial,134,597109,0.0-74.0-0.0,"""event"",""trial"",""time""
""fullscreenenter"",""0"",""1791""
","
","
","""event"",""trial"",""time""
""fullscreenenter"",""0"",""1791""
","
",469.3,,,,,,,,51,"1,0,1",0,forest,14,probe-127,0.584365998,0.314754704,0.090711716,1,,,,,,,,
,html-keyboard-response,135,598112,0.0-74.0-1.0,"""event"",""trial"",""time""
""fullscreenenter"",""0"",""1791""
","
","
","""event"",""trial"",""time""
""fullscreenenter"",""0"",""1791""
","
",null,<p></p>,null,,,,,,,,,,,,,,,,,,,,,,,
,do_trial,136,603335,0.0-75.0-0.0,"""event"",""trial"",""time""
""fullscreenenter"",""0"",""1791""
","
","
","""event"",""trial"",""time""
""fullscreenenter"",""0"",""1791""
","
",666.8,,,,,,,,50,"0,1,0",0,forest,15,probe-116,0.650534281,0.339813413,0.090380007,1,,,,,,,,
,html-keyboard-response,137,604342,0.0-75.0-1.0,"""event"",""trial"",""time""
""fullscreenenter"",""0"",""1791""
","
","
","""event"",""trial"",""time""
""fullscreenenter"",""0"",""1791""
","
",null,<p></p>,null,,,,,,,,,,,,,,,,,,,,,,,
,do_trial,138,609617,0.0-76.0-0.0,"""event"",""trial"",""time""
""fullscreenenter"",""0"",""1791""
","
","
","""event"",""trial"",""time""
""fullscreenenter"",""0"",""1791""
","
",717,,,,,,,,49,"1,0,0",0,forest,16,probe-141,0.660074665,0.473052143,0.093430825,1,,,,,,,,
,html-keyboard-response,139,610624,0.0-76.0-1.0,"""event"",""trial"",""time""
""fullscreenenter"",""0"",""1791""
","
","
","""event"",""trial"",""time""
""fullscreenenter"",""0"",""1791""
","
",null,<p></p>,null,,,,,,,,,,,,,,,,,,,,,,,
,do_trial,140,615829,0.0-77.0-0.0,"""event"",""trial"",""time""
""fullscreenenter"",""0"",""1791""
","
","
","""event"",""trial"",""time""
""fullscreenenter"",""0"",""1791""
","
",661.7,,,,,,,,51,"1,0,0",0,forest,17,probe-154,0.708398397,0.427087792,0.105990739,0,,,,,,,,
,html-keyboard-response,141,616833,0.0-77.0-1.0,"""event"",""trial"",""time""
""fullscreenenter"",""0"",""1791""
","
","
","""event"",""trial"",""time""
""fullscreenenter"",""0"",""1791""
","
",null,<p></p>,null,,,,,,,,,,,,,,,,,,,,,,,
,do_trial,142,621833,0.0-78.0-0.0,"""event"",""trial"",""time""
""fullscreenenter"",""0"",""1791""
","
","
","""event"",""trial"",""time""
""fullscreenenter"",""0"",""1791""
","
",446,,,,,,,,49,"1,0,0",0,forest,18,probe-38,0.837577941,0.350346444,0.145876324,1,,,,,,,,
,html-keyboard-response,143,622840,0.0-78.0-1.0,"""event"",""trial"",""time""
""fullscreenenter"",""0"",""1791""
","
","
","""event"",""trial"",""time""
""fullscreenenter"",""0"",""1791""
","
",null,<p></p>,null,,,,,,,,,,,,,,,,,,,,,,,
,do_trial,144,627874,0.0-79.0-0.0,"""event"",""trial"",""time""
""fullscreenenter"",""0"",""1791""
","
","
","""event"",""trial"",""time""
""fullscreenenter"",""0"",""1791""
","
",477.1,,,,,,,,50,"1,0,0",0,forest,19,probe-193,0.738885923,0.368926776,0.231110179,0,,,,,,,,
,html-keyboard-response,145,628881,0.0-79.0-1.0,"""event"",""trial"",""time""
""fullscreenenter"",""0"",""1791""
","
","
","""event"",""trial"",""time""
""fullscreenenter"",""0"",""1791""
","
",null,<p></p>,null,,,,,,,,,,,,,,,,,,,,,,,
,do_trial,146,634073,0.0-80.0-0.0,"""event"",""trial"",""time""
""fullscreenenter"",""0"",""1791""
","
","
","""event"",""trial"",""time""
""fullscreenenter"",""0"",""1791""
","
",639.1,,,,,,,,49,"0,1,0",0,forest,20,probe-61,0.742627117,0.254394961,0.238939183,0,,,,,,,,
,html-keyboard-response,147,635076,0.0-80.0-1.0,"""event"",""trial"",""time""
""fullscreenenter"",""0"",""1791""
","
","
","""event"",""trial"",""time""
""fullscreenenter"",""0"",""1791""
","
",null,<p></p>,null,,,,,,,,,,,,,,,,,,,,,,,
,do_trial,148,640218,0.0-81.0-0.0,"""event"",""trial"",""time""
""fullscreenenter"",""0"",""1791""
","
","
","""event"",""trial"",""time""
""fullscreenenter"",""0"",""1791""
","
",584.3,,,,,,,,50,"0,1,0",0,forest,21,probe-114,0.571633189,0.229073904,0.192531454,1,,,,,,,,
,html-keyboard-response,149,641225,0.0-81.0-1.0,"""event"",""trial"",""time""
""fullscreenenter"",""0"",""1791""
","
","
","""event"",""trial"",""time""
""fullscreenenter"",""0"",""1791""
","
",null,<p></p>,null,,,,,,,,,,,,,,,,,,,,,,,
,do_trial,150,647114,0.0-82.0-0.0,"""event"",""trial"",""time""
""fullscreenenter"",""0"",""1791""
","
","
","""event"",""trial"",""time""
""fullscreenenter"",""0"",""1791""
","
",1335.2,,,,,,,,51,"0,0,0",0,forest,22,probe-78,0.458935265,0.284347784,0.205735561,0,,,,,,,,
,html-keyboard-response,151,648122,0.0-82.0-1.0,"""event"",""trial"",""time""
""fullscreenenter"",""0"",""1791""
","
","
","""event"",""trial"",""time""
""fullscreenenter"",""0"",""1791""
","
",null,<p></p>,null,,,,,,,,,,,,,,,,,,,,,,,
,do_trial,152,653631,0.0-83.0-0.0,"""event"",""trial"",""time""
""fullscreenenter"",""0"",""1791""
","
","
","""event"",""trial"",""time""
""fullscreenenter"",""0"",""1791""
","
",947.6,,,,,,,,49,"1,0,1",0,forest,23,probe-99,0.370003324,0.247077904,0.343852816,1,,,,,,,,
,html-keyboard-response,153,654638,0.0-83.0-1.0,"""event"",""trial"",""time""
""fullscreenenter"",""0"",""1791""
","
","
","""event"",""trial"",""time""
""fullscreenenter"",""0"",""1791""
","
",null,<p></p>,null,,,,,,,,,,,,,,,,,,,,,,,
,do_trial,154,659799,0.0-84.0-0.0,"""event"",""trial"",""time""
""fullscreenenter"",""0"",""1791""
","
","
","""event"",""trial"",""time""
""fullscreenenter"",""0"",""1791""
","
",603.3,,,,,,,,50,"0,0,0",0,forest,24,probe-212,0.305463181,0.170627984,0.268938672,0,,,,,,,,
,html-keyboard-response,155,660806,0.0-84.0-1.0,"""event"",""trial"",""time""
""fullscreenenter"",""0"",""1791""
","
","
","""event"",""trial"",""time""
""fullscreenenter"",""0"",""1791""
","
",null,<p></p>,null,,,,,,,,,,,,,,,,,,,,,,,
,do_trial,156,667502,0.0-85.0-0.0,"""event"",""trial"",""time""
""fullscreenenter"",""0"",""1791""
","
","
","""event"",""trial"",""time""
""fullscreenenter"",""0"",""1791""
","
",2149.9,,,,,,,,51,"0,1,0",0,forest,25,probe-135,0.41275851,0.18811757,0.130752614,0,,,,,,,,
,html-keyboard-response,157,668509,0.0-85.0-1.0,"""event"",""trial"",""time""
""fullscreenenter"",""0"",""1791""
","
","
","""event"",""trial"",""time""
""fullscreenenter"",""0"",""1791""
","
",null,<p></p>,null,,,,,,,,,,,,,,,,,,,,,,,
,do_trial,158,673939,0.0-86.0-0.0,"""event"",""trial"",""time""
""fullscreenenter"",""0"",""1791""
","
","
","""event"",""trial"",""time""
""fullscreenenter"",""0"",""1791""
","
",875.9,,,,,,,,49,"1,0,1",0,forest,26,probe-73,0.29289008,0.318098888,0.234964657,1,,,,,,,,
,html-keyboard-response,159,674945,0.0-86.0-1.0,"""event"",""trial"",""time""
""fullscreenenter"",""0"",""1791""
","
","
","""event"",""trial"",""time""
""fullscreenenter"",""0"",""1791""
","
",null,<p></p>,null,,,,,,,,,,,,,,,,,,,,,,,
,do_trial,160,680075,0.0-87.0-0.0,"""event"",""trial"",""time""
""fullscreenenter"",""0"",""1791""
","
","
","""event"",""trial"",""time""
""fullscreenenter"",""0"",""1791""
","
",575.7,,,,,,,,50,"0,1,0",0,forest,27,probe-224,0.473240855,0.353960367,0.198603644,1,,,,,,,,
,html-keyboard-response,161,681082,0.0-87.0-1.0,"""event"",""trial"",""time""
""fullscreenenter"",""0"",""1791""
","
","
","""event"",""trial"",""time""
""fullscreenenter"",""0"",""1791""
","
",null,<p></p>,null,,,,,,,,,,,,,,,,,,,,,,,
,do_trial,162,686353,0.0-88.0-0.0,"""event"",""trial"",""time""
""fullscreenenter"",""0"",""1791""
","
","
","""event"",""trial"",""time""
""fullscreenenter"",""0"",""1791""
","
",714.2,,,,,,,,49,"0,1,0",0,forest,28,probe-184,0.460428963,0.331938665,0.27552602,0,,,,,,,,
,html-keyboard-response,163,687357,0.0-88.0-1.0,"""event"",""trial"",""time""
""fullscreenenter"",""0"",""1791""
","
","
","""event"",""trial"",""time""
""fullscreenenter"",""0"",""1791""
","
",null,<p></p>,null,,,,,,,,,,,,,,,,,,,,,,,
,do_trial,164,692899,0.0-89.0-0.0,"""event"",""trial"",""time""
""fullscreenenter"",""0"",""1791""
","
","
","""event"",""trial"",""time""
""fullscreenenter"",""0"",""1791""
","
",982,,,,,,,,51,"1,0,0",0,forest,29,probe-153,0.524006005,0.205231035,0.223680052,0,,,,,,,,
,html-keyboard-response,165,693903,0.0-89.0-1.0,"""event"",""trial"",""time""
""fullscreenenter"",""0"",""1791""
","
","
","""event"",""trial"",""time""
""fullscreenenter"",""0"",""1791""
","
",null,<p></p>,null,,,,,,,,,,,,,,,,,,,,,,,
,do_bye,166,695415,0.0-90.0-0.0,"""event"",""trial"",""time""
""fullscreenenter"",""0"",""1791""
","
","
","""event"",""trial"",""time""
""fullscreenenter"",""0"",""1791""
","
",null,,,,,,,,null,,,,,,,,,,,,,,,,,
,break,167,699274,0.0-90.0-1.0,"""event"",""trial"",""time""
""fullscreenenter"",""0"",""1791""
","
","
","""event"",""trial"",""time""
""fullscreenenter"",""0"",""1791""
","
",3856.9,"<div class='center'><p>Time to take a quick break! You have 2 minutes to rest, but you can move on sooner if you'd like.</p><p> Press the <b>space bar</b> to continue.</p></div>",32,,,,,,,,,,,,,,,,,,,,,,,
,do_travel,168,708283,0.0-91.0-0.0,"""event"",""trial"",""time""
""fullscreenenter"",""0"",""1791""
","
","
","""event"",""trial"",""time""
""fullscreenenter"",""0"",""1791""
","
",null,,,,,,,,null,,,,,,,,,,,,,,,,,
,do_welcome,169,712293,0.0-91.0-1.0,"""event"",""trial"",""time""
""fullscreenenter"",""0"",""1791""
","
","
","""event"",""trial"",""time""
""fullscreenenter"",""0"",""1791""
","
",null,,,,,,,,null,,,,,,,,,,,,,,,,,
,do_trial,170,717932,0.0-92.0-0.0,"""event"",""trial"",""time""
""fullscreenenter"",""0"",""1791""
","
","
","""event"",""trial"",""time""
""fullscreenenter"",""0"",""1791""
","
",1082.8,,,,,,,,50,"1,0,0",1,coast,30,probe-196,1,0.239847676,0.056727201,0,,,,,,,,
,html-keyboard-response,171,718939,0.0-92.0-1.0,"""event"",""trial"",""time""
""fullscreenenter"",""0"",""1791""
","
","
","""event"",""trial"",""time""
""fullscreenenter"",""0"",""1791""
","
",null,<p></p>,null,,,,,,,,,,,,,,,,,,,,,,,
,do_trial,172,723489,0.0-93.0-0.0,"""event"",""trial"",""time""
""fullscreenenter"",""0"",""1791""
","
","
","""event"",""trial"",""time""
""fullscreenenter"",""0"",""1791""
","
",0.200000003,,,,,,,,51,"1,0,0",1,coast,31,probe-117,1,0.343916154,0.129187052,0,,,,,,,,
,html-keyboard-response,173,724497,0.0-93.0-1.0,"""event"",""trial"",""time""
""fullscreenenter"",""0"",""1791""
","
","
","""event"",""trial"",""time""
""fullscreenenter"",""0"",""1791""
","
",null,<p></p>,null,,,,,,,,,,,,,,,,,,,,,,,
,do_trial,174,729367,0.0-94.0-0.0,"""event"",""trial"",""time""
""fullscreenenter"",""0"",""1791""
","
","
","""event"",""trial"",""time""
""fullscreenenter"",""0"",""1791""
","
",316.6,,,,,,,,49,"1,0,0",1,coast,32,probe-213,1,0.327931408,0.066626808,1,,,,,,,,
,html-keyboard-response,175,730370,0.0-94.0-1.0,"""event"",""trial"",""time""
""fullscreenenter"",""0"",""1791""
","
","
","""event"",""trial"",""time""
""fullscreenenter"",""0"",""1791""
","
",null,<p></p>,null,,,,,,,,,,,,,,,,,,,,,,,
,do_trial,176,735988,0.0-95.0-0.0,"""event"",""trial"",""time""
""fullscreenenter"",""0"",""1791""
","
","
","""event"",""trial"",""time""
""fullscreenenter"",""0"",""1791""
","
",1063.7,,,,,,,,49,"1,0,0",1,coast,33,probe-172,0.860308629,0.256855778,0.056024066,1,,,,,,,,
,html-keyboard-response,177,736996,0.0-95.0-1.0,"""event"",""trial"",""time""
""fullscreenenter"",""0"",""1791""
","
","
","""event"",""trial"",""time""
""fullscreenenter"",""0"",""1791""
","
",null,<p></p>,null,,,,,,,,,,,,,,,,,,,,,,,
,do_trial,178,742363,0.0-96.0-0.0,"""event"",""trial"",""time""
""fullscreenenter"",""0"",""1791""
","
","
","""event"",""trial"",""time""
""fullscreenenter"",""0"",""1791""
","
",809.2,,,,,,,,51,"1,0,0",1,coast,34,probe-129,0.759210429,0.428376304,0.128225191,0,,,,,,,,
,html-keyboard-response,179,743371,0.0-96.0-1.0,"""event"",""trial"",""time""
""fullscreenenter"",""0"",""1791""
","
","
","""event"",""trial"",""time""
""fullscreenenter"",""0"",""1791""
","
",null,<p></p>,null,,,,,,,,,,,,,,,,,,,,,,,
,do_trial,180,748526,0.0-97.0-0.0,"""event"",""trial"",""time""
""fullscreenenter"",""0"",""1791""
","
","
","""event"",""trial"",""time""
""fullscreenenter"",""0"",""1791""
","
",602.9,,,,,,,,50,"0,1,0",1,coast,35,probe-15,0.763536576,0.425278045,0.058513038,1,,,,,,,,
,html-keyboard-response,181,749530,0.0-97.0-1.0,"""event"",""trial"",""time""
""fullscreenenter"",""0"",""1791""
","
","
","""event"",""trial"",""time""
""fullscreenenter"",""0"",""1791""
","
",null,<p></p>,null,,,,,,,,,,,,,,,,,,,,,,,
,do_trial,182,754448,0.0-98.0-0.0,"""event"",""trial"",""time""
""fullscreenenter"",""0"",""1791""
","
","
","""event"",""trial"",""time""
""fullscreenenter"",""0"",""1791""
","
",363.8,,,,,,,,49,"1,0,0",1,coast,36,probe-204,0.707134808,0.326000835,0.162954303,1,,,,,,,,
,html-keyboard-response,183,755453,0.0-98.0-1.0,"""event"",""trial"",""time""
""fullscreenenter"",""0"",""1791""
","
","
","""event"",""trial"",""time""
""fullscreenenter"",""0"",""1791""
","
",null,<p></p>,null,,,,,,,,,,,,,,,,,,,,,,,
,do_trial,184,760552,0.0-99.0-0.0,"""event"",""trial"",""time""
""fullscreenenter"",""0"",""1791""
","
","
","""event"",""trial"",""time""
""fullscreenenter"",""0"",""1791""
","
",552.1,,,,,,,,50,"0,1,0",1,coast,37,probe-98,0.653262039,0.298494915,0.101637183,1,,,,,,,,
,html-keyboard-response,185,761560,0.0-99.0-1.0,"""event"",""trial"",""time""
""fullscreenenter"",""0"",""1791""
","
","
","""event"",""trial"",""time""
""fullscreenenter"",""0"",""1791""
","
",null,<p></p>,null,,,,,,,,,,,,,,,,,,,,,,,
,do_trial,186,766395,0.0-100.0-0.0,"""event"",""trial"",""time""
""fullscreenenter"",""0"",""1791""
","
","
","""event"",""trial"",""time""
""fullscreenenter"",""0"",""1791""
","
",291,,,,,,,,49,"1,0,0",1,coast,38,probe-111,0.640896611,0.39710126,0.061116804,1,,,,,,,,
,html-keyboard-response,187,767399,0.0-100.0-1.0,"""event"",""trial"",""time""
""fullscreenenter"",""0"",""1791""
","
","
","""event"",""trial"",""time""
""fullscreenenter"",""0"",""1791""
","
",null,<p></p>,null,,,,,,,,,,,,,,,,,,,,,,,
,do_trial,188,772680,0.0-101.0-0.0,"""event"",""trial"",""time""
""fullscreenenter"",""0"",""1791""
","
","
","""event"",""trial"",""time""
""fullscreenenter"",""0"",""1791""
","
",721.8,,,,,,,,50,"1,1,0",1,coast,39,probe-168,0.709652077,0.240661244,0.306580762,1,,,,,,,,
,html-keyboard-response,189,773688,0.0-101.0-1.0,"""event"",""trial"",""time""
""fullscreenenter"",""0"",""1791""
","
","
","""event"",""trial"",""time""
""fullscreenenter"",""0"",""1791""
","
",null,<p></p>,null,,,,,,,,,,,,,,,,,,,,,,,
,do_trial,190,779121,0.0-102.0-0.0,"""event"",""trial"",""time""
""fullscreenenter"",""0"",""1791""
","
","
","""event"",""trial"",""time""
""fullscreenenter"",""0"",""1791""
","
",883.2,,,,,,,,51,"1,0,0",1,coast,40,probe-120,0.762537072,0.056399202,0.430110287,0,,,,,,,,
,html-keyboard-response,191,780128,0.0-102.0-1.0,"""event"",""trial"",""time""
""fullscreenenter"",""0"",""1791""
","
","
","""event"",""trial"",""time""
""fullscreenenter"",""0"",""1791""
","
",null,<p></p>,null,,,,,,,,,,,,,,,,,,,,,,,
,do_trial,192,785131,0.0-103.0-0.0,"""event"",""trial"",""time""
""fullscreenenter"",""0"",""1791""
","
","
","""event"",""trial"",""time""
""fullscreenenter"",""0"",""1791""
","
",446.8,,,,,,,,49,"0,0,1",1,coast,41,probe-58,0.744115066,0.051309122,0.626891599,0,,,,,,,,
,html-keyboard-response,193,786139,0.0-103.0-1.0,"""event"",""trial"",""time""
""fullscreenenter"",""0"",""1791""
","
","
","""event"",""trial"",""time""
""fullscreenenter"",""0"",""1791""
","
",null,<p></p>,null,,,,,,,,,,,,,,,,,,,,,,,
,do_trial,194,791008,0.0-104.0-0.0,"""event"",""trial"",""time""
""fullscreenenter"",""0"",""1791""
","
","
","""event"",""trial"",""time""
""fullscreenenter"",""0"",""1791""
","
",316.6,,,,,,,,50,"0,0,1",1,coast,42,probe-217,0.586198059,0.102831128,0.652821657,0,,,,,,,,
,html-keyboard-response,195,792011,0.0-104.0-1.0,"""event"",""trial"",""time""
""fullscreenenter"",""0"",""1791""
","
","
","""event"",""trial"",""time""
""fullscreenenter"",""0"",""1791""
","
",null,<p></p>,null,,,,,,,,,,,,,,,,,,,,,,,
,do_trial,196,796882,0.0-105.0-0.0,"""event"",""trial"",""time""
""fullscreenenter"",""0"",""1791""
","
","
","""event"",""trial"",""time""
""fullscreenenter"",""0"",""1791""
","
",313,,,,,,,,51,"0,0,0",1,coast,43,probe-146,0.508820338,0.182336577,0.579081969,0,,,,,,,,
,html-keyboard-response,197,797890,0.0-105.0-1.0,"""event"",""trial"",""time""
""fullscreenenter"",""0"",""1791""
","
","
","""event"",""trial"",""time""
""fullscreenenter"",""0"",""1791""
","
",null,<p></p>,null,,,,,,,,,,,,,,,,,,,,,,,
,do_trial,198,802898,0.0-106.0-0.0,"""event"",""trial"",""time""
""fullscreenenter"",""0"",""1791""
","
","
","""event"",""trial"",""time""
""fullscreenenter"",""0"",""1791""
","
",457.1,,,,,,,,49,"1,0,1",1,coast,44,probe-164,0.332810584,0.154353818,0.706388851,1,,,,,,,,
,html-keyboard-response,199,803903,0.0-106.0-1.0,"""event"",""trial"",""time""
""fullscreenenter"",""0"",""1791""
","
","
","""event"",""trial"",""time""
""fullscreenenter"",""0"",""1791""
","
",null,<p></p>,null,,,,,,,,,,,,,,,,,,,,,,,
,do_trial,200,808862,0.0-107.0-0.0,"""event"",""trial"",""time""
""fullscreenenter"",""0"",""1791""
","
","
","""event"",""trial"",""time""
""fullscreenenter"",""0"",""1791""
","
",407.1,,,,,,,,50,"0,0,0",1,coast,45,probe-143,0.389614703,0.186159994,0.657214322,0,,,,,,,,
,html-keyboard-response,201,809869,0.0-107.0-1.0,"""event"",""trial"",""time""
""fullscreenenter"",""0"",""1791""
","
","
","""event"",""trial"",""time""
""fullscreenenter"",""0"",""1791""
","
",null,<p></p>,null,,,,,,,,,,,,,,,,,,,,,,,
,do_trial,202,814811,0.0-108.0-0.0,"""event"",""trial"",""time""
""fullscreenenter"",""0"",""1791""
","
","
","""event"",""trial"",""time""
""fullscreenenter"",""0"",""1791""
","
",387.2,,,,,,,,49,"1,1,1",1,coast,46,probe-64,0.380401721,0.125735457,0.653542901,1,,,,,,,,
,html-keyboard-response,203,815818,0.0-108.0-1.0,"""event"",""trial"",""time""
""fullscreenenter"",""0"",""1791""
","
","
","""event"",""trial"",""time""
""fullscreenenter"",""0"",""1791""
","
",null,<p></p>,null,,,,,,,,,,,,,,,,,,,,,,,
,do_trial,204,821345,0.0-109.0-0.0,"""event"",""trial"",""time""
""fullscreenenter"",""0"",""1791""
","
","
","""event"",""trial"",""time""
""fullscreenenter"",""0"",""1791""
","
",974.7,,,,,,,,49,"0,0,0",1,coast,47,probe-17,0.421326492,0.057305029,0.602818691,0,,,,,,,,
,html-keyboard-response,205,822352,0.0-109.0-1.0,"""event"",""trial"",""time""
""fullscreenenter"",""0"",""1791""
","
","
","""event"",""trial"",""time""
""fullscreenenter"",""0"",""1791""
","
",null,<p></p>,null,,,,,,,,,,,,,,,,,,,,,,,
,do_trial,206,827252,0.0-110.0-0.0,"""event"",""trial"",""time""
""fullscreenenter"",""0"",""1791""
","
","
","""event"",""trial"",""time""
""fullscreenenter"",""0"",""1791""
","
",339.3,,,,,,,,50,"0,0,0",1,coast,48,probe-54,0.368511033,0.056635382,0.49384746,0,,,,,,,,
,html-keyboard-response,207,828260,0.0-110.0-1.0,"""event"",""trial"",""time""
""fullscreenenter"",""0"",""1791""
","
","
","""event"",""trial"",""time""
""fullscreenenter"",""0"",""1791""
","
",null,<p></p>,null,,,,,,,,,,,,,,,,,,,,,,,
,do_trial,208,833116,0.0-111.0-0.0,"""event"",""trial"",""time""
""fullscreenenter"",""0"",""1791""
","
","
","""event"",""trial"",""time""
""fullscreenenter"",""0"",""1791""
","
",300.3,,,,,,,,51,"1,0,1",1,coast,49,probe-21,0.4257052,0.171732424,0.474458552,1,,,,,,,,
,html-keyboard-response,209,834124,0.0-111.0-1.0,"""event"",""trial"",""time""
""fullscreenenter"",""0"",""1791""
","
","
","""event"",""trial"",""time""
""fullscreenenter"",""0"",""1791""
","
",null,<p></p>,null,,,,,,,,,,,,,,,,,,,,,,,
,do_trial,210,839142,0.0-112.0-0.0,"""event"",""trial"",""time""
""fullscreenenter"",""0"",""1791""
","
","
","""event"",""trial"",""time""
""fullscreenenter"",""0"",""1791""
","
",470.6,,,,,,,,49,"1,0,1",1,coast,50,probe-225,0.309874507,0.193686067,0.627845757,1,,,,,,,,
,html-keyboard-response,211,840149,0.0-112.0-1.0,"""event"",""trial"",""time""
""fullscreenenter"",""0"",""1791""
","
","
","""event"",""trial"",""time""
""fullscreenenter"",""0"",""1791""
","
",null,<p></p>,null,,,,,,,,,,,,,,,,,,,,,,,
,do_trial,212,845462,0.0-113.0-0.0,"""event"",""trial"",""time""
""fullscreenenter"",""0"",""1791""
","
","
","""event"",""trial"",""time""
""fullscreenenter"",""0"",""1791""
","
",757.6,,,,,,,,51,"0,0,1",1,coast,51,probe-101,0.246703638,0.169302652,0.668099967,1,,,,,,,,
,html-keyboard-response,213,846469,0.0-113.0-1.0,"""event"",""trial"",""time""
""fullscreenenter"",""0"",""1791""
","
","
","""event"",""trial"",""time""
""fullscreenenter"",""0"",""1791""
","
",null,<p></p>,null,,,,,,,,,,,,,,,,,,,,,,,
,do_trial,214,851227,0.0-114.0-0.0,"""event"",""trial"",""time""
""fullscreenenter"",""0"",""1791""
","
","
","""event"",""trial"",""time""
""fullscreenenter"",""0"",""1791""
","
",201.9,,,,,,,,50,"0,0,1",1,coast,52,probe-124,0.305312665,0.181807698,0.692810018,0,,,,,,,,
,html-keyboard-response,215,852230,0.0-114.0-1.0,"""event"",""trial"",""time""
""fullscreenenter"",""0"",""1791""
","
","
","""event"",""trial"",""time""
""fullscreenenter"",""0"",""1791""
","
",null,<p></p>,null,,,,,,,,,,,,,,,,,,,,,,,
,do_trial,216,857354,0.0-115.0-0.0,"""event"",""trial"",""time""
""fullscreenenter"",""0"",""1791""
","
","
","""event"",""trial"",""time""
""fullscreenenter"",""0"",""1791""
","
",569.6,,,,,,,,49,"1,0,1",1,coast,53,probe-65,0.455016759,0.183975497,0.683080458,1,,,,,,,,
,html-keyboard-response,217,858362,0.0-115.0-1.0,"""event"",""trial"",""time""
""fullscreenenter"",""0"",""1791""
","
","
","""event"",""trial"",""time""
""fullscreenenter"",""0"",""1791""
","
",null,<p></p>,null,,,,,,,,,,,,,,,,,,,,,,,
,do_trial,218,864375,0.0-116.0-0.0,"""event"",""trial"",""time""
""fullscreenenter"",""0"",""1791""
","
","
","""event"",""trial"",""time""
""fullscreenenter"",""0"",""1791""
","
",1463,,,,,,,,51,"0,0,1",1,coast,54,probe-175,0.397459714,0.102210232,0.722676557,1,,,,,,,,
,html-keyboard-response,219,865385,0.0-116.0-1.0,"""event"",""trial"",""time""
""fullscreenenter"",""0"",""1791""
","
","
","""event"",""trial"",""time""
""fullscreenenter"",""0"",""1791""
","
",null,<p></p>,null,,,,,,,,,,,,,,,,,,,,,,,
,do_trial,220,870516,0.0-117.0-0.0,"""event"",""trial"",""time""
""fullscreenenter"",""0"",""1791""
","
","
","""event"",""trial"",""time""
""fullscreenenter"",""0"",""1791""
","
",572.2,,,,,,,,50,"1,0,1",1,coast,55,probe-48,0.361968097,0.184963677,0.741485783,0,,,,,,,,
,html-keyboard-response,221,871524,0.0-117.0-1.0,"""event"",""trial"",""time""
""fullscreenenter"",""0"",""1791""
","
","
","""event"",""trial"",""time""
""fullscreenenter"",""0"",""1791""
","
",null,<p></p>,null,,,,,,,,,,,,,,,,,,,,,,,
,do_trial,222,877062,0.0-118.0-0.0,"""event"",""trial"",""time""
""fullscreenenter"",""0"",""1791""
","
","
","""event"",""trial"",""time""
""fullscreenenter"",""0"",""1791""
","
",978.3,,,,,,,,49,"0,0,1",1,coast,56,probe-32,0.386113405,0.147175746,0.765836442,0,,,,,,,,
,html-keyboard-response,223,878069,0.0-118.0-1.0,"""event"",""trial"",""time""
""fullscreenenter"",""0"",""1791""
","
","
","""event"",""trial"",""time""
""fullscreenenter"",""0"",""1791""
","
",null,<p></p>,null,,,,,,,,,,,,,,,,,,,,,,,
,do_trial,224,883365,0.0-119.0-0.0,"""event"",""trial"",""time""
""fullscreenenter"",""0"",""1791""
","
","
","""event"",""trial"",""time""
""fullscreenenter"",""0"",""1791""
","
",750.8,,,,,,,,51,"0,0,1",1,coast,57,probe-162,0.24992598,0.149578393,0.791100808,1,,,,,,,,
,html-keyboard-response,225,884372,0.0-119.0-1.0,"""event"",""trial"",""time""
""fullscreenenter"",""0"",""1791""
","
","
","""event"",""trial"",""time""
""fullscreenenter"",""0"",""1791""
","
",null,<p></p>,null,,,,,,,,,,,,,,,,,,,,,,,
,do_trial,226,889251,0.0-120.0-0.0,"""event"",""trial"",""time""
""fullscreenenter"",""0"",""1791""
","
","
","""event"",""trial"",""time""
""fullscreenenter"",""0"",""1791""
","
",330.6,,,,,,,,50,"0,0,1",1,coast,58,probe-119,0.277815873,0.078085017,0.672281505,0,,,,,,,,
,html-keyboard-response,227,890258,0.0-120.0-1.0,"""event"",""trial"",""time""
""fullscreenenter"",""0"",""1791""
","
","
","""event"",""trial"",""time""
""fullscreenenter"",""0"",""1791""
","
",null,<p></p>,null,,,,,,,,,,,,,,,,,,,,,,,
,do_trial,228,895156,0.0-121.0-0.0,"""event"",""trial"",""time""
""fullscreenenter"",""0"",""1791""
","
","
","""event"",""trial"",""time""
""fullscreenenter"",""0"",""1791""
","
",342,,,,,,,,49,"0,1,1",1,coast,59,probe-88,0.407141507,0.279405143,0.718931396,0,,,,,,,,
,html-keyboard-response,229,896164,0.0-121.0-1.0,"""event"",""trial"",""time""
""fullscreenenter"",""0"",""1791""
","
","
","""event"",""trial"",""time""
""fullscreenenter"",""0"",""1791""
","
",null,<p></p>,null,,,,,,,,,,,,,,,,,,,,,,,
,do_trial,230,901054,0.0-122.0-0.0,"""event"",""trial"",""time""
""fullscreenenter"",""0"",""1791""
","
","
","""event"",""trial"",""time""
""fullscreenenter"",""0"",""1791""
","
",330.6,,,,,,,,50,"0,0,0",1,coast,60,probe-157,0.477542707,0.226940801,0.628768616,0,,,,,,,,
,html-keyboard-response,231,902062,0.0-122.0-1.0,"""event"",""trial"",""time""
""fullscreenenter"",""0"",""1791""
","
","
","""event"",""trial"",""time""
""fullscreenenter"",""0"",""1791""
","
",null,<p></p>,null,,,,,,,,,,,,,,,,,,,,,,,
,do_trial,232,907165,0.0-123.0-0.0,"""event"",""trial"",""time""
""fullscreenenter"",""0"",""1791""
","
","
","""event"",""trial"",""time""
""fullscreenenter"",""0"",""1791""
","
",549.5,,,,,,,,51,"0,1,1",1,coast,61,probe-201,0.204382004,0.243069004,0.624419919,1,,,,,,,,
,html-keyboard-response,233,908173,0.0-123.0-1.0,"""event"",""trial"",""time""
""fullscreenenter"",""0"",""1791""
","
","
","""event"",""trial"",""time""
""fullscreenenter"",""0"",""1791""
","
",null,<p></p>,null,,,,,,,,,,,,,,,,,,,,,,,
,do_trial,234,913257,0.0-124.0-0.0,"""event"",""trial"",""time""
""fullscreenenter"",""0"",""1791""
","
","
","""event"",""trial"",""time""
""fullscreenenter"",""0"",""1791""
","
",531.1,,,,,,,,51,"0,0,1",1,coast,62,probe-68,0.333764719,0.064247196,0.734732187,1,,,,,,,,
,html-keyboard-response,235,914265,0.0-124.0-1.0,"""event"",""trial"",""time""
""fullscreenenter"",""0"",""1791""
","
","
","""event"",""trial"",""time""
""fullscreenenter"",""0"",""1791""
","
",null,<p></p>,null,,,,,,,,,,,,,,,,,,,,,,,
,do_trial,236,919392,0.0-125.0-0.0,"""event"",""trial"",""time""
""fullscreenenter"",""0"",""1791""
","
","
","""event"",""trial"",""time""
""fullscreenenter"",""0"",""1791""
","
",568.3,,,,,,,,50,"1,0,1",1,coast,63,probe-10,0.213847003,0.125328696,0.646715475,0,,,,,,,,
,html-keyboard-response,237,920400,0.0-125.0-1.0,"""event"",""trial"",""time""
""fullscreenenter"",""0"",""1791""
","
","
","""event"",""trial"",""time""
""fullscreenenter"",""0"",""1791""
","
",null,<p></p>,null,,,,,,,,,,,,,,,,,,,,,,,
,do_trial,238,925362,0.0-126.0-0.0,"""event"",""trial"",""time""
""fullscreenenter"",""0"",""1791""
","
","
","""event"",""trial"",""time""
""fullscreenenter"",""0"",""1791""
","
",407.6,,,,,,,,49,"0,1,1",1,coast,64,probe-12,0.052644069,0.115673904,0.706173676,0,,,,,,,,
,html-keyboard-response,239,926369,0.0-126.0-1.0,"""event"",""trial"",""time""
""fullscreenenter"",""0"",""1791""
","
","
","""event"",""trial"",""time""
""fullscreenenter"",""0"",""1791""
","
",null,<p></p>,null,,,,,,,,,,,,,,,,,,,,,,,
,do_trial,240,932354,0.0-127.0-0.0,"""event"",""trial"",""time""
""fullscreenenter"",""0"",""1791""
","
","
","""event"",""trial"",""time""
""fullscreenenter"",""0"",""1791""
","
",1421.8,,,,,,,,51,"0,0,1",1,coast,65,probe-179,0.090238945,0.089715567,0.607038795,1,,,,,,,,
,html-keyboard-response,241,933358,0.0-127.0-1.0,"""event"",""trial"",""time""
""fullscreenenter"",""0"",""1791""
","
","
","""event"",""trial"",""time""
""fullscreenenter"",""0"",""1791""
","
",null,<p></p>,null,,,,,,,,,,,,,,,,,,,,,,,
,do_trial,242,938877,0.0-128.0-0.0,"""event"",""trial"",""time""
""fullscreenenter"",""0"",""1791""
","
","
","""event"",""trial"",""time""
""fullscreenenter"",""0"",""1791""
","
",969.1,,,,,,,,50,"0,0,1",1,coast,66,probe-132,0.102184709,0.205094994,0.575269373,0,,,,,,,,
,html-keyboard-response,243,939885,0.0-128.0-1.0,"""event"",""trial"",""time""
""fullscreenenter"",""0"",""1791""
","
","
","""event"",""trial"",""time""
""fullscreenenter"",""0"",""1791""
","
",null,<p></p>,null,,,,,,,,,,,,,,,,,,,,,,,
,do_trial,244,944839,0.0-129.0-0.0,"""event"",""trial"",""time""
""fullscreenenter"",""0"",""1791""
","
","
","""event"",""trial"",""time""
""fullscreenenter"",""0"",""1791""
","
",399.6,,,,,,,,49,"0,0,0",1,coast,67,probe-185,0.147581673,0.149456685,0.414014208,0,,,,,,,,
,html-keyboard-response,245,945846,0.0-129.0-1.0,"""event"",""trial"",""time""
""fullscreenenter"",""0"",""1791""
","
","
","""event"",""trial"",""time""
""fullscreenenter"",""0"",""1791""
","
",null,<p></p>,null,,,,,,,,,,,,,,,,,,,,,,,
,do_trial,246,950917,0.0-130.0-0.0,"""event"",""trial"",""time""
""fullscreenenter"",""0"",""1791""
","
","
","""event"",""trial"",""time""
""fullscreenenter"",""0"",""1791""
","
",517,,,,,,,,51,"1,0,1",1,coast,68,probe-45,0.096168072,0.05444372,0.491945824,1,,,,,,,,
,html-keyboard-response,247,951922,0.0-130.0-1.0,"""event"",""trial"",""time""
""fullscreenenter"",""0"",""1791""
","
","
","""event"",""trial"",""time""
""fullscreenenter"",""0"",""1791""
","
",null,<p></p>,null,,,,,,,,,,,,,,,,,,,,,,,
,do_trial,248,957142,0.0-131.0-0.0,"""event"",""trial"",""time""
""fullscreenenter"",""0"",""1791""
","
","
","""event"",""trial"",""time""
""fullscreenenter"",""0"",""1791""
","
",665.2,,,,,,,,50,"0,0,0",1,coast,69,probe-85,0.17512535,0.122329013,0.491637055,0,,,,,,,,
,html-keyboard-response,249,958149,0.0-131.0-1.0,"""event"",""trial"",""time""
""fullscreenenter"",""0"",""1791""
","
","
","""event"",""trial"",""time""
""fullscreenenter"",""0"",""1791""
","
",null,<p></p>,null,,,,,,,,,,,,,,,,,,,,,,,
,do_bye,250,959659,0.0-132.0-0.0,"""event"",""trial"",""time""
""fullscreenenter"",""0"",""1791""
","
","
","""event"",""trial"",""time""
""fullscreenenter"",""0"",""1791""
","
",null,,,,,,,,null,,,,,,,,,,,,,,,,,
,break,251,979760,0.0-132.0-1.0,"""event"",""trial"",""time""
""fullscreenenter"",""0"",""1791""
","
","
","""event"",""trial"",""time""
""fullscreenenter"",""0"",""1791""
","
",20099.8,"<div class='center'><p>Time to take a quick break! You have 2 minutes to rest, but you can move on sooner if you'd like.</p><p> Press the <b>space bar</b> to continue.</p></div>",32,,,,,,,,,,,,,,,,,,,,,,,
,do_travel,252,988770,0.0-133.0-0.0,"""event"",""trial"",""time""
""fullscreenenter"",""0"",""1791""
","
","
","""event"",""trial"",""time""
""fullscreenenter"",""0"",""1791""
","
",null,,,,,,,,null,,,,,,,,,,,,,,,,,
,do_welcome,253,992784,0.0-133.0-1.0,"""event"",""trial"",""time""
""fullscreenenter"",""0"",""1791""
","
","
","""event"",""trial"",""time""
""fullscreenenter"",""0"",""1791""
","
",null,,,,,,,,null,,,,,,,,,,,,,,,,,
,do_trial,254,999448,0.0-134.0-0.0,"""event"",""trial"",""time""
""fullscreenenter"",""0"",""1791""
","
","
","""event"",""trial"",""time""
""fullscreenenter"",""0"",""1791""
","
",2108,,,,,,,,51,"0,1,1",2,highway,70,probe-50,0.207633005,0.102016504,1,1,,,,,,,,
,html-keyboard-response,255,1000456,0.0-134.0-1.0,"""event"",""trial"",""time""
""fullscreenenter"",""0"",""1791""
","
","
","""event"",""trial"",""time""
""fullscreenenter"",""0"",""1791""
","
",null,<p></p>,null,,,,,,,,,,,,,,,,,,,,,,,
,do_trial,256,1005138,0.0-135.0-0.0,"""event"",""trial"",""time""
""fullscreenenter"",""0"",""1791""
","
","
","""event"",""trial"",""time""
""fullscreenenter"",""0"",""1791""
","
",127.7,,,,,,,,50,"0,0,1",2,highway,71,probe-95,0.311940203,0.115023875,1,0,,,,,,,,
,html-keyboard-response,257,1006142,0.0-135.0-1.0,"""event"",""trial"",""time""
""fullscreenenter"",""0"",""1791""
","
","
","""event"",""trial"",""time""
""fullscreenenter"",""0"",""1791""
","
",null,<p></p>,null,,,,,,,,,,,,,,,,,,,,,,,
,do_trial,258,1011313,0.0-136.0-0.0,"""event"",""trial"",""time""
""fullscreenenter"",""0"",""1791""
","
","
","""event"",""trial"",""time""
""fullscreenenter"",""0"",""1791""
","
",618.1,,,,,,,,49,"1,1,1",2,highway,72,probe-167,0.222096831,0.173133346,0.74007993,1,,,,,,,,
,html-keyboard-response,259,1012317,0.0-136.0-1.0,"""event"",""trial"",""time""
""fullscreenenter"",""0"",""1791""
","
","
","""event"",""trial"",""time""
""fullscreenenter"",""0"",""1791""
","
",null,<p></p>,null,,,,,,,,,,,,,,,,,,,,,,,
,do_trial,260,1017461,0.0-137.0-0.0,"""event"",""trial"",""time""
""fullscreenenter"",""0"",""1791""
","
","
","""event"",""trial"",""time""
""fullscreenenter"",""0"",""1791""
","
",584.3,,,,,,,,49,"0,1,1",2,highway,73,probe-220,0.234921187,0.265997293,0.662449251,0,,,,,,,,
,html-keyboard-response,261,1018469,0.0-137.0-1.0,"""event"",""trial"",""time""
""fullscreenenter"",""0"",""1791""
","
","
","""event"",""trial"",""time""
""fullscreenenter"",""0"",""1791""
","
",null,<p></p>,null,,,,,,,,,,,,,,,,,,,,,,,
,do_trial,262,1023662,0.0-138.0-0.0,"""event"",""trial"",""time""
""fullscreenenter"",""0"",""1791""
","
","
","""event"",""trial"",""time""
""fullscreenenter"",""0"",""1791""
","
",641.7,,,,,,,,50,"0,0,1",2,highway,74,probe-169,0.065107394,0.051406867,0.698312331,0,,,,,,,,
,html-keyboard-response,263,1024669,0.0-138.0-1.0,"""event"",""trial"",""time""
""fullscreenenter"",""0"",""1791""
","
","
","""event"",""trial"",""time""
""fullscreenenter"",""0"",""1791""
","
",null,<p></p>,null,,,,,,,,,,,,,,,,,,,,,,,
,do_trial,264,1029776,0.0-139.0-0.0,"""event"",""trial"",""time""
""fullscreenenter"",""0"",""1791""
","
","
","""event"",""trial"",""time""
""fullscreenenter"",""0"",""1791""
","
",544,,,,,,,,51,"0,0,1",2,highway,75,probe-92,0.052359134,0.066264849,0.617868737,1,,,,,,,,
,html-keyboard-response,265,1030783,0.0-139.0-1.0,"""event"",""trial"",""time""
""fullscreenenter"",""0"",""1791""
","
","
","""event"",""trial"",""time""
""fullscreenenter"",""0"",""1791""
","
",null,<p></p>,null,,,,,,,,,,,,,,,,,,,,,,,
,do_trial,266,1035873,0.0-140.0-0.0,"""event"",""trial"",""time""
""fullscreenenter"",""0"",""1791""
","
","
","""event"",""trial"",""time""
""fullscreenenter"",""0"",""1791""
","
",542.4,,,,,,,,50,"0,0,1",2,highway,76,probe-200,0.063586732,0.074631032,0.718668326,0,,,,,,,,
,html-keyboard-response,267,1036880,0.0-140.0-1.0,"""event"",""trial"",""time""
""fullscreenenter"",""0"",""1791""
","
","
","""event"",""trial"",""time""
""fullscreenenter"",""0"",""1791""
","
",null,<p></p>,null,,,,,,,,,,,,,,,,,,,,,,,
,do_trial,268,1041950,0.0-141.0-0.0,"""event"",""trial"",""time""
""fullscreenenter"",""0"",""1791""
","
","
","""event"",""trial"",""time""
""fullscreenenter"",""0"",""1791""
","
",522.3,,,,,,,,49,"0,0,0",2,highway,77,probe-22,0.14003708,0.174500906,0.679884857,0,,,,,,,,
,html-keyboard-response,269,1042958,0.0-141.0-1.0,"""event"",""trial"",""time""
""fullscreenenter"",""0"",""1791""
","
","
","""event"",""trial"",""time""
""fullscreenenter"",""0"",""1791""
","
",null,<p></p>,null,,,,,,,,,,,,,,,,,,,,,,,
,do_trial,270,1048106,0.0-142.0-0.0,"""event"",""trial"",""time""
""fullscreenenter"",""0"",""1791""
","
","
","""event"",""trial"",""time""
""fullscreenenter"",""0"",""1791""
","
",590.7,,,,,,,,51,"0,0,1",2,highway,78,probe-11,0.15740768,0.16628726,0.581337142,1,,,,,,,,
,html-keyboard-response,271,1049113,0.0-142.0-1.0,"""event"",""trial"",""time""
""fullscreenenter"",""0"",""1791""
","
","
","""event"",""trial"",""time""
""fullscreenenter"",""0"",""1791""
","
",null,<p></p>,null,,,,,,,,,,,,,,,,,,,,,,,
,do_trial,272,1054222,0.0-143.0-0.0,"""event"",""trial"",""time""
""fullscreenenter"",""0"",""1791""
","
","
","""event"",""trial"",""time""
""fullscreenenter"",""0"",""1791""
","
",552.4,,,,,,,,51,"0,0,1",2,highway,79,probe-171,0.149477692,0.213218042,0.640929701,1,,,,,,,,
,html-keyboard-response,273,1055230,0.0-143.0-1.0,"""event"",""trial"",""time""
""fullscreenenter"",""0"",""1791""
","
","
","""event"",""trial"",""time""
""fullscreenenter"",""0"",""1791""
","
",null,<p></p>,null,,,,,,,,,,,,,,,,,,,,,,,
,do_trial,274,1059927,0.0-144.0-0.0,"""event"",""trial"",""time""
""fullscreenenter"",""0"",""1791""
","
","
","""event"",""trial"",""time""
""fullscreenenter"",""0"",""1791""
","
",145.8,,,,,,,,51,"1,1,1",2,highway,80,probe-66,0.299081966,0.286736361,0.646910135,1,,,,,,,,
,html-keyboard-response,275,1060934,0.0-144.0-1.0,"""event"",""trial"",""time""
""fullscreenenter"",""0"",""1791""
","
","
","""event"",""trial"",""time""
""fullscreenenter"",""0"",""1791""
","
",null,<p></p>,null,,,,,,,,,,,,,,,,,,,,,,,
,do_trial,276,1066315,0.0-145.0-0.0,"""event"",""trial"",""time""
""fullscreenenter"",""0"",""1791""
","
","
","""event"",""trial"",""time""
""fullscreenenter"",""0"",""1791""
","
",830.8,,,,,,,,51,"0,0,0",2,highway,81,probe-138,0.268749449,0.306541326,0.671724946,0,,,,,,,,
,html-keyboard-response,277,1067322,0.0-145.0-1.0,"""event"",""trial"",""time""
""fullscreenenter"",""0"",""1791""
","
","
","""event"",""trial"",""time""
""fullscreenenter"",""0"",""1791""
","
",null,<p></p>,null,,,,,,,,,,,,,,,,,,,,,,,
,do_trial,278,1072506,0.0-146.0-0.0,"""event"",""trial"",""time""
""fullscreenenter"",""0"",""1791""
","
","
","""event"",""trial"",""time""
""fullscreenenter"",""0"",""1791""
","
",631,,,,,,,,51,"0,1,0",2,highway,82,probe-102,0.302085186,0.57004893,0.306624805,0,,,,,,,,
,html-keyboard-response,279,1073509,0.0-146.0-1.0,"""event"",""trial"",""time""
""fullscreenenter"",""0"",""1791""
","
","
","""event"",""trial"",""time""
""fullscreenenter"",""0"",""1791""
","
",null,<p></p>,null,,,,,,,,,,,,,,,,,,,,,,,
,do_trial,280,1079563,0.0-147.0-0.0,"""event"",""trial"",""time""
""fullscreenenter"",""0"",""1791""
","
","
","""event"",""trial"",""time""
""fullscreenenter"",""0"",""1791""
","
",null,,,,,,,,null,"1,1,0",2,highway,83,probe-49,0.186894913,0.612025583,0.290034266,,,,,,,,,
,html-keyboard-response,281,1080571,0.0-147.0-1.0,"""event"",""trial"",""time""
""fullscreenenter"",""0"",""1791""
","
","
","""event"",""trial"",""time""
""fullscreenenter"",""0"",""1791""
","
",null,<p></p>,null,,,,,,,,,,,,,,,,,,,,,,,
,do_trial,282,1085850,0.0-148.0-0.0,"""event"",""trial"",""time""
""fullscreenenter"",""0"",""1791""
","
","
","""event"",""trial"",""time""
""fullscreenenter"",""0"",""1791""
","
",722.3,,,,,,,,51,"0,1,0",2,highway,84,probe-27,0.271520817,0.704118475,0.233664957,0,,,,,,,,
,html-keyboard-response,283,1086855,0.0-148.0-1.0,"""event"",""trial"",""time""
""fullscreenenter"",""0"",""1791""
","
","
","""event"",""trial"",""time""
""fullscreenenter"",""0"",""1791""
","
",null,<p></p>,null,,,,,,,,,,,,,,,,,,,,,,,
,do_trial,284,1093707,0.0-149.0-0.0,"""event"",""trial"",""time""
""fullscreenenter"",""0"",""1791""
","
","
","""event"",""trial"",""time""
""fullscreenenter"",""0"",""1791""
","
",2304.6,,,,,,,,50,"1,1,0",2,highway,85,probe-122,0.427765663,0.741230413,0.164484637,1,,,,,,,,
,html-keyboard-response,285,1094715,0.0-149.0-1.0,"""event"",""trial"",""time""
""fullscreenenter"",""0"",""1791""
","
","
","""event"",""trial"",""time""
""fullscreenenter"",""0"",""1791""
","
",null,<p></p>,null,,,,,,,,,,,,,,,,,,,,,,,
,do_trial,286,1100997,0.0-150.0-0.0,"""event"",""trial"",""time""
""fullscreenenter"",""0"",""1791""
","
","
","""event"",""trial"",""time""
""fullscreenenter"",""0"",""1791""
","
",1728.8,,,,,,,,50,"1,0,0",2,highway,86,probe-133,0.293078187,0.613397859,0.089810754,0,,,,,,,,
,html-keyboard-response,287,1102005,0.0-150.0-1.0,"""event"",""trial"",""time""
""fullscreenenter"",""0"",""1791""
","
","
","""event"",""trial"",""time""
""fullscreenenter"",""0"",""1791""
","
",null,<p></p>,null,,,,,,,,,,,,,,,,,,,,,,,
,do_trial,288,1107596,0.0-151.0-0.0,"""event"",""trial"",""time""
""fullscreenenter"",""0"",""1791""
","
","
","""event"",""trial"",""time""
""fullscreenenter"",""0"",""1791""
","
",1034,,,,,,,,49,"1,0,0",2,highway,87,probe-79,0.3611315,0.608169157,0.077361515,1,,,,,,,,
,html-keyboard-response,289,1108604,0.0-151.0-1.0,"""event"",""trial"",""time""
""fullscreenenter"",""0"",""1791""
","
","
","""event"",""trial"",""time""
""fullscreenenter"",""0"",""1791""
","
",null,<p></p>,null,,,,,,,,,,,,,,,,,,,,,,,
,do_trial,290,1113599,0.0-152.0-0.0,"""event"",""trial"",""time""
""fullscreenenter"",""0"",""1791""
","
","
","""event"",""trial"",""time""
""fullscreenenter"",""0"",""1791""
","
",449.7,,,,,,,,51,"0,1,0",2,highway,88,probe-13,0.242750378,0.738904525,0.116336148,0,,,,,,,,
,html-keyboard-response,291,1114602,0.0-152.0-1.0,"""event"",""trial"",""time""
""fullscreenenter"",""0"",""1791""
","
","
","""event"",""trial"",""time""
""fullscreenenter"",""0"",""1791""
","
",null,<p></p>,null,,,,,,,,,,,,,,,,,,,,,,,
,do_trial,292,1119647,0.0-153.0-0.0,"""event"",""trial"",""time""
""fullscreenenter"",""0"",""1791""
","
","
","""event"",""trial"",""time""
""fullscreenenter"",""0"",""1791""
","
",488.6,,,,,,,,50,"1,1,0",2,highway,89,probe-230,0.394136128,0.555992676,0.152897664,1,,,,,,,,
,html-keyboard-response,293,1120652,0.0-153.0-1.0,"""event"",""trial"",""time""
""fullscreenenter"",""0"",""1791""
","
","
","""event"",""trial"",""time""
""fullscreenenter"",""0"",""1791""
","
",null,<p></p>,null,,,,,,,,,,,,,,,,,,,,,,,
,do_trial,294,1125653,0.0-154.0-0.0,"""event"",""trial"",""time""
""fullscreenenter"",""0"",""1791""
","
","
","""event"",""trial"",""time""
""fullscreenenter"",""0"",""1791""
","
",447.8,,,,,,,,49,"1,1,1",2,highway,90,probe-161,0.374069311,0.49459272,0.057907459,1,,,,,,,,
,html-keyboard-response,295,1126659,0.0-154.0-1.0,"""event"",""trial"",""time""
""fullscreenenter"",""0"",""1791""
","
","
","""event"",""trial"",""time""
""fullscreenenter"",""0"",""1791""
","
",null,<p></p>,null,,,,,,,,,,,,,,,,,,,,,,,
,do_trial,296,1133314,0.0-155.0-0.0,"""event"",""trial"",""time""
""fullscreenenter"",""0"",""1791""
","
","
","""event"",""trial"",""time""
""fullscreenenter"",""0"",""1791""
","
",2105.3,,,,,,,,51,"0,1,1",2,highway,91,probe-76,0.31461892,0.466514191,0.083261022,1,,,,,,,,
,html-keyboard-response,297,1134321,0.0-155.0-1.0,"""event"",""trial"",""time""
""fullscreenenter"",""0"",""1791""
","
","
","""event"",""trial"",""time""
""fullscreenenter"",""0"",""1791""
","
",null,<p></p>,null,,,,,,,,,,,,,,,,,,,,,,,
,do_trial,298,1139370,0.0-156.0-0.0,"""event"",""trial"",""time""
""fullscreenenter"",""0"",""1791""
","
","
","""event"",""trial"",""time""
""fullscreenenter"",""0"",""1791""
","
",492.6,,,,,,,,50,"1,1,0",2,highway,92,probe-178,0.288239018,0.371430723,0.179542232,1,,,,,,,,
,html-keyboard-response,299,1140374,0.0-156.0-1.0,"""event"",""trial"",""time""
""fullscreenenter"",""0"",""1791""
","
","
","""event"",""trial"",""time""
""fullscreenenter"",""0"",""1791""
","
",null,<p></p>,null,,,,,,,,,,,,,,,,,,,,,,,
,do_trial,300,1147113,0.0-157.0-0.0,"""event"",""trial"",""time""
""fullscreenenter"",""0"",""1791""
","
","
","""event"",""trial"",""time""
""fullscreenenter"",""0"",""1791""
","
",2194.1,,,,,,,,49,"0,1,0",2,highway,93,probe-118,0.355561863,0.414830123,0.138951464,0,,,,,,,,
,html-keyboard-response,301,1148120,0.0-157.0-1.0,"""event"",""trial"",""time""
""fullscreenenter"",""0"",""1791""
","
","
","""event"",""trial"",""time""
""fullscreenenter"",""0"",""1791""
","
",null,<p></p>,null,,,,,,,,,,,,,,,,,,,,,,,
,do_trial,302,1153451,0.0-158.0-0.0,"""event"",""trial"",""time""
""fullscreenenter"",""0"",""1791""
","
","
","""event"",""trial"",""time""
""fullscreenenter"",""0"",""1791""
","
",779.1,,,,,,,,51,"0,0,0",2,highway,94,probe-57,0.495902425,0.348478345,0.161428293,0,,,,,,,,
,html-keyboard-response,303,1154459,0.0-158.0-1.0,"""event"",""trial"",""time""
""fullscreenenter"",""0"",""1791""
","
","
","""event"",""trial"",""time""
""fullscreenenter"",""0"",""1791""
","
",null,<p></p>,null,,,,,,,,,,,,,,,,,,,,,,,
,do_trial,304,1160041,0.0-159.0-0.0,"""event"",""trial"",""time""
""fullscreenenter"",""0"",""1791""
","
","
","""event"",""trial"",""time""
""fullscreenenter"",""0"",""1791""
","
",1032.6,,,,,,,,51,"1,1,0",2,highway,95,probe-46,0.439705847,0.475319546,0.214599411,0,,,,,,,,
,html-keyboard-response,305,1161048,0.0-159.0-1.0,"""event"",""trial"",""time""
""fullscreenenter"",""0"",""1791""
","
","
","""event"",""trial"",""time""
""fullscreenenter"",""0"",""1791""
","
",null,<p></p>,null,,,,,,,,,,,,,,,,,,,,,,,
,do_trial,306,1166252,0.0-160.0-0.0,"""event"",""trial"",""time""
""fullscreenenter"",""0"",""1791""
","
","
","""event"",""trial"",""time""
""fullscreenenter"",""0"",""1791""
","
",648.8,,,,,,,,50,"0,1,1",2,highway,96,probe-14,0.313323949,0.570339675,0.202530495,1,,,,,,,,
,html-keyboard-response,307,1167260,0.0-160.0-1.0,"""event"",""trial"",""time""
""fullscreenenter"",""0"",""1791""
","
","
","""event"",""trial"",""time""
""fullscreenenter"",""0"",""1791""
","
",null,<p></p>,null,,,,,,,,,,,,,,,,,,,,,,,
,do_trial,308,1173316,0.0-161.0-0.0,"""event"",""trial"",""time""
""fullscreenenter"",""0"",""1791""
","
","
","""event"",""trial"",""time""
""fullscreenenter"",""0"",""1791""
","
",null,,,,,,,,null,"0,1,0",2,highway,97,probe-108,0.426554987,0.552622411,0.2030133,,,,,,,,,
,html-keyboard-response,309,1174324,0.0-161.0-1.0,"""event"",""trial"",""time""
""fullscreenenter"",""0"",""1791""
","
","
","""event"",""trial"",""time""
""fullscreenenter"",""0"",""1791""
","
",null,<p></p>,null,,,,,,,,,,,,,,,,,,,,,,,
,do_trial,310,1179030,0.0-162.0-0.0,"""event"",""trial"",""time""
""fullscreenenter"",""0"",""1791""
","
","
","""event"",""trial"",""time""
""fullscreenenter"",""0"",""1791""
","
",144.7,,,,,,,,49,"0,1,0",2,highway,98,probe-208,0.298406089,0.402136276,0.171360619,0,,,,,,,,
,html-keyboard-response,311,1180033,0.0-162.0-1.0,"""event"",""trial"",""time""
""fullscreenenter"",""0"",""1791""
","
","
","""event"",""trial"",""time""
""fullscreenenter"",""0"",""1791""
","
",null,<p></p>,null,,,,,,,,,,,,,,,,,,,,,,,
,do_trial,312,1185042,0.0-163.0-0.0,"""event"",""trial"",""time""
""fullscreenenter"",""0"",""1791""
","
","
","""event"",""trial"",""time""
""fullscreenenter"",""0"",""1791""
","
",458.6,,,,,,,,50,"1,1,0",2,highway,99,probe-06,0.405322842,0.556161522,0.263814501,1,,,,,,,,
,html-keyboard-response,313,1186046,0.0-163.0-1.0,"""event"",""trial"",""time""
""fullscreenenter"",""0"",""1791""
","
","
","""event"",""trial"",""time""
""fullscreenenter"",""0"",""1791""
","
",null,<p></p>,null,,,,,,,,,,,,,,,,,,,,,,,
,do_trial,314,1193058,0.0-164.0-0.0,"""event"",""trial"",""time""
""fullscreenenter"",""0"",""1791""
","
","
","""event"",""trial"",""time""
""fullscreenenter"",""0"",""1791""
","
",2452.3,,,,,,,,51,"1,1,1",2,highway,100,probe-51,0.331158403,0.494043176,0.295859262,1,,,,,,,,
,html-keyboard-response,315,1194065,0.0-164.0-1.0,"""event"",""trial"",""time""
""fullscreenenter"",""0"",""1791""
","
","
","""event"",""trial"",""time""
""fullscreenenter"",""0"",""1791""
","
",null,<p></p>,null,,,,,,,,,,,,,,,,,,,,,,,
,do_trial,316,1201239,0.0-165.0-0.0,"""event"",""trial"",""time""
""fullscreenenter"",""0"",""1791""
","
","
","""event"",""trial"",""time""
""fullscreenenter"",""0"",""1791""
","
",2616.2,,,,,,,,51,"1,1,0",2,highway,101,probe-227,0.405964149,0.523351711,0.210089718,0,,,,,,,,
,html-keyboard-response,317,1202246,0.0-165.0-1.0,"""event"",""trial"",""time""
""fullscreenenter"",""0"",""1791""
","
","
","""event"",""trial"",""time""
""fullscreenenter"",""0"",""1791""
","
",null,<p></p>,null,,,,,,,,,,,,,,,,,,,,,,,
,do_trial,318,1207218,0.0-166.0-0.0,"""event"",""trial"",""time""
""fullscreenenter"",""0"",""1791""
","
","
","""event"",""trial"",""time""
""fullscreenenter"",""0"",""1791""
","
",424.3,,,,,,,,50,"0,1,0",2,highway,102,probe-152,0.324927284,0.646417437,0.265781102,1,,,,,,,,
,html-keyboard-response,319,1208225,0.0-166.0-1.0,"""event"",""trial"",""time""
""fullscreenenter"",""0"",""1791""
","
","
","""event"",""trial"",""time""
""fullscreenenter"",""0"",""1791""
","
",null,<p></p>,null,,,,,,,,,,,,,,,,,,,,,,,
,do_trial,320,1212785,0.0-167.0-0.0,"""event"",""trial"",""time""
""fullscreenenter"",""0"",""1791""
","
","
","""event"",""trial"",""time""
""fullscreenenter"",""0"",""1791""
","
",0.100000009,,,,,,,,51,"0,1,0",2,highway,103,probe-104,0.274837711,0.655491831,0.230477505,0,,,,,,,,
,html-keyboard-response,321,1213792,0.0-167.0-1.0,"""event"",""trial"",""time""
""fullscreenenter"",""0"",""1791""
","
","
","""event"",""trial"",""time""
""fullscreenenter"",""0"",""1791""
","
",null,<p></p>,null,,,,,,,,,,,,,,,,,,,,,,,
,do_trial,322,1218788,0.0-168.0-0.0,"""event"",""trial"",""time""
""fullscreenenter"",""0"",""1791""
","
","
","""event"",""trial"",""time""
""fullscreenenter"",""0"",""1791""
","
",444.8,,,,,,,,50,"1,1,1",2,highway,104,probe-140,0.254273675,0.795882423,0.289574207,1,,,,,,,,
,html-keyboard-response,323,1219795,0.0-168.0-1.0,"""event"",""trial"",""time""
""fullscreenenter"",""0"",""1791""
","
","
","""event"",""trial"",""time""
""fullscreenenter"",""0"",""1791""
","
",null,<p></p>,null,,,,,,,,,,,,,,,,,,,,,,,
,do_trial,324,1224815,0.0-169.0-0.0,"""event"",""trial"",""time""
""fullscreenenter"",""0"",""1791""
","
","
","""event"",""trial"",""time""
""fullscreenenter"",""0"",""1791""
","
",461.4,,,,,,,,49,"0,0,1",2,highway,105,probe-07,0.223896885,0.624146634,0.272902169,0,,,,,,,,
,html-keyboard-response,325,1225819,0.0-169.0-1.0,"""event"",""trial"",""time""
""fullscreenenter"",""0"",""1791""
","
","
","""event"",""trial"",""time""
""fullscreenenter"",""0"",""1791""
","
",null,<p></p>,null,,,,,,,,,,,,,,,,,,,,,,,
,do_trial,326,1230510,0.0-170.0-0.0,"""event"",""trial"",""time""
""fullscreenenter"",""0"",""1791""
","
","
","""event"",""trial"",""time""
""fullscreenenter"",""0"",""1791""
","
",133.4,,,,,,,,50,"0,0,0",2,highway,106,probe-74,0.220481113,0.61063846,0.218379935,0,,,,,,,,
,html-keyboard-response,327,1231518,0.0-170.0-1.0,"""event"",""trial"",""time""
""fullscreenenter"",""0"",""1791""
","
","
","""event"",""trial"",""time""
""fullscreenenter"",""0"",""1791""
","
",null,<p></p>,null,,,,,,,,,,,,,,,,,,,,,,,
,do_trial,328,1236187,0.0-171.0-0.0,"""event"",""trial"",""time""
""fullscreenenter"",""0"",""1791""
","
","
","""event"",""trial"",""time""
""fullscreenenter"",""0"",""1791""
","
",125,,,,,,,,51,"0,0,0",2,highway,107,probe-80,0.266418918,0.611542947,0.274483876,0,,,,,,,,
,html-keyboard-response,329,1237193,0.0-171.0-1.0,"""event"",""trial"",""time""
""fullscreenenter"",""0"",""1791""
","
","
","""event"",""trial"",""time""
""fullscreenenter"",""0"",""1791""
","
",null,<p></p>,null,,,,,,,,,,,,,,,,,,,,,,,
,do_trial,330,1242300,0.0-172.0-0.0,"""event"",""trial"",""time""
""fullscreenenter"",""0"",""1791""
","
","
","""event"",""trial"",""time""
""fullscreenenter"",""0"",""1791""
","
",549.8,,,,,,,,49,"1,0,0",2,highway,108,probe-223,0.365166773,0.610374501,0.123276641,1,,,,,,,,
,html-keyboard-response,331,1243307,0.0-172.0-1.0,"""event"",""trial"",""time""
""fullscreenenter"",""0"",""1791""
","
","
","""event"",""trial"",""time""
""fullscreenenter"",""0"",""1791""
","
