"success","trial_type","trial_index","time_elapsed","internal_node_id","interactions","blur_events","focus_events","fullscreenenter_events","fullscreenexit_events","rt","stimulus","key_press","subject_id","participant_id","age","gender","prompt","response","choice_outcomes"
"true","fullscreen","0","11398","0.0-0.0","""event"",""trial"",""time""
""focus"",""0"",""0""
""fullscreenenter"",""0"",""11126""
","
","""event"",""trial"",""time""
""focus"",""0"",""0""
","""event"",""trial"",""time""
""fullscreenenter"",""0"",""11126""
","
","","","","","","","","","",""
"","pavlovia","1","11402","0.0-1.0","""event"",""trial"",""time""
""focus"",""0"",""0""
""fullscreenenter"",""0"",""11126""
","
","""event"",""trial"",""time""
""focus"",""0"",""0""
","""event"",""trial"",""time""
""fullscreenenter"",""0"",""11126""
","
","","","","","","","","","",""
"","instruc1","2","56735","0.0-2.0","""event"",""trial"",""time""
""focus"",""0"",""0""
""fullscreenenter"",""0"",""11126""
","
","""event"",""trial"",""time""
""focus"",""0"",""0""
","""event"",""trial"",""time""
""fullscreenenter"",""0"",""11126""
","
","null","run_exp/static/audio/clip_1_welcome.m4a","null","1143","1143","15","Female","<div class='center'><p>Welcome! This is the first part of the study. It will last ~30 minutes. In part 1 and part 2 of the study, you are the head captain of a pirate ship traveling around the world to different islands. You will play a few different games throughout these two parts. Here is an overview of them:</p><br><p>Part 1 (today)</p><p>1. Instructions, practice game, and quiz</p><p>2. Pick a pirate game on 6 different islands</p><br><p>Part 2 (tomorrow)</p><p>3. Pick a pirate game and memory game</p><p>4. Where did you see this ship? </p></div>","",""
"","html-keyboard-response","3","57752","0.0-3.0","""event"",""trial"",""time""
""focus"",""0"",""0""
""fullscreenenter"",""0"",""11126""
","
","""event"",""trial"",""time""
""focus"",""0"",""0""
","""event"",""trial"",""time""
""fullscreenenter"",""0"",""11126""
","
","1010","<div class='center'><p>Welcome! This is the first part of the study. It will last ~30 minutes. In part 1 and part 2 of the study, you are the head captain of a pirate ship traveling around the world to different islands. You will play a few different games throughout these two parts. Here is an overview of them:</p><br><p>Part 1 (today)</p><p>1. Instructions, practice game, and quiz</p><p>2. Pick a pirate game on 6 different islands</p><br><p>Part 2 (tomorrow)</p><p>3. Pick a pirate game and memory game</p><p>4. Where did you see this ship? </p><p><b>[Press the space bar to continue]</b></p></div>","32","","","","","","",""
"","instruc2","4","63141","0.0-4.0","""event"",""trial"",""time""
""focus"",""0"",""0""
""fullscreenenter"",""0"",""11126""
","
","""event"",""trial"",""time""
""focus"",""0"",""0""
","""event"",""trial"",""time""
""fullscreenenter"",""0"",""11126""
","
","null","run_exp/static/audio/clip_2_different_places.m4a","null","","","","","<div class='center'><p>Today, you’ll visit these 6 islands on your journey. You'll be able to see these islands from your ship.</p><p><img src='run_exp/static/images/contexts/all_contexts.png' height='500'></p></div>","",""
"","html-keyboard-response","5","64487","0.0-5.0","""event"",""trial"",""time""
""focus"",""0"",""0""
""fullscreenenter"",""0"",""11126""
","
","""event"",""trial"",""time""
""focus"",""0"",""0""
","""event"",""trial"",""time""
""fullscreenenter"",""0"",""11126""
","
","1342","<div class='center'><p>Today, you’ll visit these 6 islands on your journey. You'll be able to see these islands from your ship.</p><p><img src='run_exp/static/images/contexts/all_contexts.png' height='500'></p><p><b>[Press the space bar to continue]</b></p></div>","32","","","","","","",""
"","instruc3","6","74262","0.0-6.0","""event"",""trial"",""time""
""focus"",""0"",""0""
""fullscreenenter"",""0"",""11126""
","
","""event"",""trial"",""time""
""focus"",""0"",""0""
","""event"",""trial"",""time""
""fullscreenenter"",""0"",""11126""
","
","null","run_exp/static/audio/clip_3_goal_of_game_1.m4a","null","","","","","<div class='center'><p> The pirates on your ship will rob other ships as they leave the island.</p> These ships have just sold their goods to the islanders, so they will be filled with lots and lots of gold.</p><p><img src='run_exp/static/images/tutorial/ship_center.png' height='400'></p></div>","",""
"","html-keyboard-response","7","74891","0.0-7.0","""event"",""trial"",""time""
""focus"",""0"",""0""
""fullscreenenter"",""0"",""11126""
","
","""event"",""trial"",""time""
""focus"",""0"",""0""
","""event"",""trial"",""time""
""fullscreenenter"",""0"",""11126""
","
","627","<div class='center'><p> The pirates on your ship will rob other ships as they leave the island.</p> These ships have just sold their goods to the islanders, so they will be filled with lots and lots of gold.</p><p><img src='run_exp/static/images/tutorial/ship_center.png' height='400'></p><p><b>[Press the space bar to continue]</b></p></div>","32","","","","","","",""
"","instruc4","8","103071","0.0-8.0","""event"",""trial"",""time""
""focus"",""0"",""0""
""fullscreenenter"",""0"",""11126""
","
","""event"",""trial"",""time""
""focus"",""0"",""0""
","""event"",""trial"",""time""
""fullscreenenter"",""0"",""11126""
","
","null","run_exp/static/audio/clip_4_goal_of_game_2.m4a","null","","","","","<div class='center'><p>As the head captain, you do not have to rob any ships yourself. Another pirate will be doing the robbing for you. First, you will choose a pirate to rob the next ship.</p><p><img src='run_exp/static/images/tutorial/pirates_all_crop.png' height='200'></p><p>Then, you'll see if the pirate successfully robbed the ship of their gold. If they were successful, then you'll get a stack of gold coins like this:</p><p><img src='run_exp/static/images/tutorial/reward.png' height='150'></p><p> If they were <b>not</b> successful, then you'll get no gold coins, and you'll see a big red x like this: </p><p><img src='run_exp/static/images/tutorial/reward_no.png' height='150'></p><p> How much bonus money you make is based on how many gold coins you collect.</p><div>","",""
"","html-keyboard-response","9","104806","0.0-9.0","""event"",""trial"",""time""
""focus"",""0"",""0""
""fullscreenenter"",""0"",""11126""
""blur"",""10"",""129650""
""focus"",""10"",""133257""
""blur"",""10"",""134789""
""focus"",""10"",""135466""
","""event"",""trial"",""time""
""blur"",""10"",""129650""
""blur"",""10"",""134789""
","""event"",""trial"",""time""
""focus"",""0"",""0""
""focus"",""10"",""133257""
""focus"",""10"",""135466""
","""event"",""trial"",""time""
""fullscreenenter"",""0"",""11126""
","
","1730","<div class='center'><p>As the head captain, you do not have to rob any ships yourself. Another pirate will be doing the robbing for you. First, you will choose a pirate to rob the next ship.</p><p><img src='run_exp/static/images/tutorial/pirates_all_crop.png' height='200'></p><p>Then, you'll see if the pirate successfully robbed the ship of their gold. If they were successful, then you'll get a stack of gold coins like this:</p><p><img src='run_exp/static/images/tutorial/reward.png' height='150'></p><p> If they were <b>not</b> successful, then you'll get no gold coins, and you'll see a big red x like this: </p><p><img src='run_exp/static/images/tutorial/reward_no.png' height='150'></p><p> How much bonus money you make is based on how many gold coins you collect.</p<p><b>[Press the space bar to continue]</b></p></div>","32","","","","","","",""
"","instruc5","10","141133","0.0-10.0","""event"",""trial"",""time""
""focus"",""0"",""0""
""fullscreenenter"",""0"",""11126""
""blur"",""10"",""129650""
""focus"",""10"",""133257""
""blur"",""10"",""134789""
""focus"",""10"",""135466""
","""event"",""trial"",""time""
""blur"",""10"",""129650""
""blur"",""10"",""134789""
","""event"",""trial"",""time""
""focus"",""0"",""0""
""focus"",""10"",""133257""
""focus"",""10"",""135466""
","""event"",""trial"",""time""
""fullscreenenter"",""0"",""11126""
","
","36323","run_exp/static/audio/clip_5_probabilistic.m4a","49","","","","","<div class='center'><p>Even the most skilled pirate can not rob EVERY ship.</p><p> Some ships will have very strong protections against pirate attacks.</p><p> Blue beard, here, is very, very good at robbing ships, but he won't be successful every time he tries to rob one.</p><p> You can press the <b>‘1’</b> key on the keyboard to choose him.</p><p> Try choosing him 10 times to see how often he succeeds at robbing a ship. </p><p><img src='run_exp/static/images/tutorial/blue.png' height='500'></p></div>","",""
"","html-keyboard-response","11","142649","0.0-11.0","""event"",""trial"",""time""
""focus"",""0"",""0""
""fullscreenenter"",""0"",""11126""
""blur"",""10"",""129650""
""focus"",""10"",""133257""
""blur"",""10"",""134789""
""focus"",""10"",""135466""
","""event"",""trial"",""time""
""blur"",""10"",""129650""
""blur"",""10"",""134789""
","""event"",""trial"",""time""
""focus"",""0"",""0""
""focus"",""10"",""133257""
""focus"",""10"",""135466""
","""event"",""trial"",""time""
""fullscreenenter"",""0"",""11126""
","
","null","<div class='center'><p><img src='run_exp/static/images/tutorial/blue_win.png' height='500'></p></div>","null","","","","","","",""
"","html-keyboard-response","12","142856","0.0-12.0","""event"",""trial"",""time""
""focus"",""0"",""0""
""fullscreenenter"",""0"",""11126""
""blur"",""10"",""129650""
""focus"",""10"",""133257""
""blur"",""10"",""134789""
""focus"",""10"",""135466""
","""event"",""trial"",""time""
""blur"",""10"",""129650""
""blur"",""10"",""134789""
","""event"",""trial"",""time""
""focus"",""0"",""0""
""focus"",""10"",""133257""
""focus"",""10"",""135466""
","""event"",""trial"",""time""
""fullscreenenter"",""0"",""11126""
","
","205","<div class='center'><img src='run_exp/static/images/tutorial/blue.png' height='500'></p></div>","49","","","","","","",""
"","html-keyboard-response","13","144362","0.0-13.0","""event"",""trial"",""time""
""focus"",""0"",""0""
""fullscreenenter"",""0"",""11126""
""blur"",""10"",""129650""
""focus"",""10"",""133257""
""blur"",""10"",""134789""
""focus"",""10"",""135466""
","""event"",""trial"",""time""
""blur"",""10"",""129650""
""blur"",""10"",""134789""
","""event"",""trial"",""time""
""focus"",""0"",""0""
""focus"",""10"",""133257""
""focus"",""10"",""135466""
","""event"",""trial"",""time""
""fullscreenenter"",""0"",""11126""
","
","null","<div class='center'><p><img src='run_exp/static/images/tutorial/blue_win.png' height='500'></p></div>","null","","","","","","",""
"","html-keyboard-response","14","146056","0.0-14.0","""event"",""trial"",""time""
""focus"",""0"",""0""
""fullscreenenter"",""0"",""11126""
""blur"",""10"",""129650""
""focus"",""10"",""133257""
""blur"",""10"",""134789""
""focus"",""10"",""135466""
","""event"",""trial"",""time""
""blur"",""10"",""129650""
""blur"",""10"",""134789""
","""event"",""trial"",""time""
""focus"",""0"",""0""
""focus"",""10"",""133257""
""focus"",""10"",""135466""
","""event"",""trial"",""time""
""fullscreenenter"",""0"",""11126""
","
","1691","<div class='center'><img src='run_exp/static/images/tutorial/blue.png' height='500'></p></div>","49","","","","","","",""
"","html-keyboard-response","15","147559","0.0-15.0","""event"",""trial"",""time""
""focus"",""0"",""0""
""fullscreenenter"",""0"",""11126""
""blur"",""10"",""129650""
""focus"",""10"",""133257""
""blur"",""10"",""134789""
""focus"",""10"",""135466""
","""event"",""trial"",""time""
""blur"",""10"",""129650""
""blur"",""10"",""134789""
","""event"",""trial"",""time""
""focus"",""0"",""0""
""focus"",""10"",""133257""
""focus"",""10"",""135466""
","""event"",""trial"",""time""
""fullscreenenter"",""0"",""11126""
","
","null","<div class='center'><p><img src='run_exp/static/images/tutorial/blue_win.png' height='500'></p></div>","null","","","","","","",""
"","html-keyboard-response","16","149626","0.0-16.0","""event"",""trial"",""time""
""focus"",""0"",""0""
""fullscreenenter"",""0"",""11126""
""blur"",""10"",""129650""
""focus"",""10"",""133257""
""blur"",""10"",""134789""
""focus"",""10"",""135466""
","""event"",""trial"",""time""
""blur"",""10"",""129650""
""blur"",""10"",""134789""
","""event"",""trial"",""time""
""focus"",""0"",""0""
""focus"",""10"",""133257""
""focus"",""10"",""135466""
","""event"",""trial"",""time""
""fullscreenenter"",""0"",""11126""
","
","2063","<div class='center'><img src='run_exp/static/images/tutorial/blue.png' height='500'></p></div>","49","","","","","","",""
"","html-keyboard-response","17","151139","0.0-17.0","""event"",""trial"",""time""
""focus"",""0"",""0""
""fullscreenenter"",""0"",""11126""
""blur"",""10"",""129650""
""focus"",""10"",""133257""
""blur"",""10"",""134789""
""focus"",""10"",""135466""
","""event"",""trial"",""time""
""blur"",""10"",""129650""
""blur"",""10"",""134789""
","""event"",""trial"",""time""
""focus"",""0"",""0""
""focus"",""10"",""133257""
""focus"",""10"",""135466""
","""event"",""trial"",""time""
""fullscreenenter"",""0"",""11126""
","
","null","<div class='center'><p><img src='run_exp/static/images/tutorial/blue_no_win.png' height='500'></p></div>","null","","","","","","",""
"","html-keyboard-response","18","151673","0.0-18.0","""event"",""trial"",""time""
""focus"",""0"",""0""
""fullscreenenter"",""0"",""11126""
""blur"",""10"",""129650""
""focus"",""10"",""133257""
""blur"",""10"",""134789""
""focus"",""10"",""135466""
","""event"",""trial"",""time""
""blur"",""10"",""129650""
""blur"",""10"",""134789""
","""event"",""trial"",""time""
""focus"",""0"",""0""
""focus"",""10"",""133257""
""focus"",""10"",""135466""
","""event"",""trial"",""time""
""fullscreenenter"",""0"",""11126""
","
","531","<div class='center'><img src='run_exp/static/images/tutorial/blue.png' height='500'></p></div>","49","","","","","","",""
"","html-keyboard-response","19","153188","0.0-19.0","""event"",""trial"",""time""
""focus"",""0"",""0""
""fullscreenenter"",""0"",""11126""
""blur"",""10"",""129650""
""focus"",""10"",""133257""
""blur"",""10"",""134789""
""focus"",""10"",""135466""
","""event"",""trial"",""time""
""blur"",""10"",""129650""
""blur"",""10"",""134789""
","""event"",""trial"",""time""
""focus"",""0"",""0""
""focus"",""10"",""133257""
""focus"",""10"",""135466""
","""event"",""trial"",""time""
""fullscreenenter"",""0"",""11126""
","
","null","<div class='center'><p><img src='run_exp/static/images/tutorial/blue_win.png' height='500'></p></div>","null","","","","","","",""
"","html-keyboard-response","20","154116","0.0-20.0","""event"",""trial"",""time""
""focus"",""0"",""0""
""fullscreenenter"",""0"",""11126""
""blur"",""10"",""129650""
""focus"",""10"",""133257""
""blur"",""10"",""134789""
""focus"",""10"",""135466""
","""event"",""trial"",""time""
""blur"",""10"",""129650""
""blur"",""10"",""134789""
","""event"",""trial"",""time""
""focus"",""0"",""0""
""focus"",""10"",""133257""
""focus"",""10"",""135466""
","""event"",""trial"",""time""
""fullscreenenter"",""0"",""11126""
","
","927","<div class='center'><img src='run_exp/static/images/tutorial/blue.png' height='500'></p></div>","49","","","","","","",""
"","html-keyboard-response","21","155629","0.0-21.0","""event"",""trial"",""time""
""focus"",""0"",""0""
""fullscreenenter"",""0"",""11126""
""blur"",""10"",""129650""
""focus"",""10"",""133257""
""blur"",""10"",""134789""
""focus"",""10"",""135466""
","""event"",""trial"",""time""
""blur"",""10"",""129650""
""blur"",""10"",""134789""
","""event"",""trial"",""time""
""focus"",""0"",""0""
""focus"",""10"",""133257""
""focus"",""10"",""135466""
","""event"",""trial"",""time""
""fullscreenenter"",""0"",""11126""
","
","null","<div class='center'><p><img src='run_exp/static/images/tutorial/blue_win.png' height='500'></p></div>","null","","","","","","",""
"","html-keyboard-response","22","156780","0.0-22.0","""event"",""trial"",""time""
""focus"",""0"",""0""
""fullscreenenter"",""0"",""11126""
""blur"",""10"",""129650""
""focus"",""10"",""133257""
""blur"",""10"",""134789""
""focus"",""10"",""135466""
","""event"",""trial"",""time""
""blur"",""10"",""129650""
""blur"",""10"",""134789""
","""event"",""trial"",""time""
""focus"",""0"",""0""
""focus"",""10"",""133257""
""focus"",""10"",""135466""
","""event"",""trial"",""time""
""fullscreenenter"",""0"",""11126""
","
","1150","<div class='center'><img src='run_exp/static/images/tutorial/blue.png' height='500'></p></div>","49","","","","","","",""
"","html-keyboard-response","23","158286","0.0-23.0","""event"",""trial"",""time""
""focus"",""0"",""0""
""fullscreenenter"",""0"",""11126""
""blur"",""10"",""129650""
""focus"",""10"",""133257""
""blur"",""10"",""134789""
""focus"",""10"",""135466""
","""event"",""trial"",""time""
""blur"",""10"",""129650""
""blur"",""10"",""134789""
","""event"",""trial"",""time""
""focus"",""0"",""0""
""focus"",""10"",""133257""
""focus"",""10"",""135466""
","""event"",""trial"",""time""
""fullscreenenter"",""0"",""11126""
","
","null","<div class='center'><p><img src='run_exp/static/images/tutorial/blue_win.png' height='500'></p></div>","null","","","","","","",""
"","html-keyboard-response","24","159079","0.0-24.0","""event"",""trial"",""time""
""focus"",""0"",""0""
""fullscreenenter"",""0"",""11126""
""blur"",""10"",""129650""
""focus"",""10"",""133257""
""blur"",""10"",""134789""
""focus"",""10"",""135466""
","""event"",""trial"",""time""
""blur"",""10"",""129650""
""blur"",""10"",""134789""
","""event"",""trial"",""time""
""focus"",""0"",""0""
""focus"",""10"",""133257""
""focus"",""10"",""135466""
","""event"",""trial"",""time""
""fullscreenenter"",""0"",""11126""
","
","789","<div class='center'><img src='run_exp/static/images/tutorial/blue.png' height='500'></p></div>","49","","","","","","",""
"","html-keyboard-response","25","160582","0.0-25.0","""event"",""trial"",""time""
""focus"",""0"",""0""
""fullscreenenter"",""0"",""11126""
""blur"",""10"",""129650""
""focus"",""10"",""133257""
""blur"",""10"",""134789""
""focus"",""10"",""135466""
","""event"",""trial"",""time""
""blur"",""10"",""129650""
""blur"",""10"",""134789""
","""event"",""trial"",""time""
""focus"",""0"",""0""
""focus"",""10"",""133257""
""focus"",""10"",""135466""
","""event"",""trial"",""time""
""fullscreenenter"",""0"",""11126""
","
","null","<div class='center'><p><img src='run_exp/static/images/tutorial/blue_no_win.png' height='500'></p></div>","null","","","","","","",""
"","html-keyboard-response","26","162074","0.0-26.0","""event"",""trial"",""time""
""focus"",""0"",""0""
""fullscreenenter"",""0"",""11126""
""blur"",""10"",""129650""
""focus"",""10"",""133257""
""blur"",""10"",""134789""
""focus"",""10"",""135466""
","""event"",""trial"",""time""
""blur"",""10"",""129650""
""blur"",""10"",""134789""
","""event"",""trial"",""time""
""focus"",""0"",""0""
""focus"",""10"",""133257""
""focus"",""10"",""135466""
","""event"",""trial"",""time""
""fullscreenenter"",""0"",""11126""
","
","1491","<div class='center'><img src='run_exp/static/images/tutorial/blue.png' height='500'></p></div>","49","","","","","","",""
"","html-keyboard-response","27","163578","0.0-27.0","""event"",""trial"",""time""
""focus"",""0"",""0""
""fullscreenenter"",""0"",""11126""
""blur"",""10"",""129650""
""focus"",""10"",""133257""
""blur"",""10"",""134789""
""focus"",""10"",""135466""
","""event"",""trial"",""time""
""blur"",""10"",""129650""
""blur"",""10"",""134789""
","""event"",""trial"",""time""
""focus"",""0"",""0""
""focus"",""10"",""133257""
""focus"",""10"",""135466""
","""event"",""trial"",""time""
""fullscreenenter"",""0"",""11126""
","
","null","<div class='center'><p><img src='run_exp/static/images/tutorial/blue_win.png' height='500'></p></div>","null","","","","","","",""
"","html-keyboard-response","28","167265","0.0-28.0","""event"",""trial"",""time""
""focus"",""0"",""0""
""fullscreenenter"",""0"",""11126""
""blur"",""10"",""129650""
""focus"",""10"",""133257""
""blur"",""10"",""134789""
""focus"",""10"",""135466""
","""event"",""trial"",""time""
""blur"",""10"",""129650""
""blur"",""10"",""134789""
","""event"",""trial"",""time""
""focus"",""0"",""0""
""focus"",""10"",""133257""
""focus"",""10"",""135466""
","""event"",""trial"",""time""
""fullscreenenter"",""0"",""11126""
","
","3684","<div class='center'><img src='run_exp/static/images/tutorial/blue.png' height='500'></p></div>","49","","","","","","",""
"","html-keyboard-response","29","168779","0.0-29.0","""event"",""trial"",""time""
""focus"",""0"",""0""
""fullscreenenter"",""0"",""11126""
""blur"",""10"",""129650""
""focus"",""10"",""133257""
""blur"",""10"",""134789""
""focus"",""10"",""135466""
","""event"",""trial"",""time""
""blur"",""10"",""129650""
""blur"",""10"",""134789""
","""event"",""trial"",""time""
""focus"",""0"",""0""
""focus"",""10"",""133257""
""focus"",""10"",""135466""
","""event"",""trial"",""time""
""fullscreenenter"",""0"",""11126""
","
","null","<div class='center'><p><img src='run_exp/static/images/tutorial/blue_win.png' height='500'></p></div>","null","","","","","","",""
"","instruc6","30","174281","0.0-30.0","""event"",""trial"",""time""
""focus"",""0"",""0""
""fullscreenenter"",""0"",""11126""
""blur"",""10"",""129650""
""focus"",""10"",""133257""
""blur"",""10"",""134789""
""focus"",""10"",""135466""
","""event"",""trial"",""time""
""blur"",""10"",""129650""
""blur"",""10"",""134789""
","""event"",""trial"",""time""
""focus"",""0"",""0""
""focus"",""10"",""133257""
""focus"",""10"",""135466""
","""event"",""trial"",""time""
""fullscreenenter"",""0"",""11126""
","
","null","run_exp/static/audio/clip_6_blue_beard_outcome.m4a","null","","","","","<div class='center'><p> See, he succeeded in robbing the ships most of the time but not every time. </p></div>","",""
"","html-keyboard-response","31","176110","0.0-31.0","""event"",""trial"",""time""
""focus"",""0"",""0""
""fullscreenenter"",""0"",""11126""
""blur"",""10"",""129650""
""focus"",""10"",""133257""
""blur"",""10"",""134789""
""focus"",""10"",""135466""
","""event"",""trial"",""time""
""blur"",""10"",""129650""
""blur"",""10"",""134789""
","""event"",""trial"",""time""
""focus"",""0"",""0""
""focus"",""10"",""133257""
""focus"",""10"",""135466""
","""event"",""trial"",""time""
""fullscreenenter"",""0"",""11126""
","
","1827","<div class='center'><p> See, he succeeded in robbing the ships most of the time but not every time. </p><p><b>[Press the space bar to continue]</b></p></div>","32","","","","","","",""
"","audio-keyboard-response","32","185033","0.0-32.0","""event"",""trial"",""time""
""focus"",""0"",""0""
""fullscreenenter"",""0"",""11126""
""blur"",""10"",""129650""
""focus"",""10"",""133257""
""blur"",""10"",""134789""
""focus"",""10"",""135466""
","""event"",""trial"",""time""
""blur"",""10"",""129650""
""blur"",""10"",""134789""
","""event"",""trial"",""time""
""focus"",""0"",""0""
""focus"",""10"",""133257""
""focus"",""10"",""135466""
","""event"",""trial"",""time""
""fullscreenenter"",""0"",""11126""
","
","8919","run_exp/static/audio/clip_7_pick_pirate.m4a","50","","","","","","",""
"","audio-keyboard-response","33","188730","0.0-33.0-0.0","""event"",""trial"",""time""
""focus"",""0"",""0""
""fullscreenenter"",""0"",""11126""
""blur"",""10"",""129650""
""focus"",""10"",""133257""
""blur"",""10"",""134789""
""focus"",""10"",""135466""
","""event"",""trial"",""time""
""blur"",""10"",""129650""
""blur"",""10"",""134789""
","""event"",""trial"",""time""
""focus"",""0"",""0""
""focus"",""10"",""133257""
""focus"",""10"",""135466""
","""event"",""trial"",""time""
""fullscreenenter"",""0"",""11126""
","
","3693","run_exp/static/audio/clip_8_chosen_pirate_win.m4a","32","","","","","","",""
"","audio-keyboard-response","34","190944","0.0-33.0-1.0","""event"",""trial"",""time""
""focus"",""0"",""0""
""fullscreenenter"",""0"",""11126""
""blur"",""10"",""129650""
""focus"",""10"",""133257""
""blur"",""10"",""134789""
""focus"",""10"",""135466""
","""event"",""trial"",""time""
""blur"",""10"",""129650""
""blur"",""10"",""134789""
","""event"",""trial"",""time""
""focus"",""0"",""0""
""focus"",""10"",""133257""
""focus"",""10"",""135466""
","""event"",""trial"",""time""
""fullscreenenter"",""0"",""11126""
","
","2212","run_exp/static/audio/clip_9_pick_a_pirate_again.m4a","49","","","","","","",""
"","audio-keyboard-response","35","192620","0.0-34.0-0.0","""event"",""trial"",""time""
""focus"",""0"",""0""
""fullscreenenter"",""0"",""11126""
""blur"",""10"",""129650""
""focus"",""10"",""133257""
""blur"",""10"",""134789""
""focus"",""10"",""135466""
","""event"",""trial"",""time""
""blur"",""10"",""129650""
""blur"",""10"",""134789""
","""event"",""trial"",""time""
""focus"",""0"",""0""
""focus"",""10"",""133257""
""focus"",""10"",""135466""
","""event"",""trial"",""time""
""fullscreenenter"",""0"",""11126""
","
","1670","run_exp/static/audio/clip_10_chosen_pirate_loss.m4a","32","","","","","","",""
"","instruc9","36","198191","0.0-35.0-0.0","""event"",""trial"",""time""
""focus"",""0"",""0""
""fullscreenenter"",""0"",""11126""
""blur"",""10"",""129650""
""focus"",""10"",""133257""
""blur"",""10"",""134789""
""focus"",""10"",""135466""
","""event"",""trial"",""time""
""blur"",""10"",""129650""
""blur"",""10"",""134789""
","""event"",""trial"",""time""
""focus"",""0"",""0""
""focus"",""10"",""133257""
""focus"",""10"",""135466""
","""event"",""trial"",""time""
""fullscreenenter"",""0"",""11126""
","
","null","run_exp/static/audio/clip_11_time_out.m4a","null","","","","","<div class='center'><p>If you don’t make your choice fast enough, you’ll have to wait a few seconds before you can make another one. </p><p><img src='run_exp/static/images/miscellaneous/hurry_up.png' height='500'></p></div>","",""
"","html-keyboard-response","37","199239","0.0-35.0-1.0","""event"",""trial"",""time""
""focus"",""0"",""0""
""fullscreenenter"",""0"",""11126""
""blur"",""10"",""129650""
""focus"",""10"",""133257""
""blur"",""10"",""134789""
""focus"",""10"",""135466""
","""event"",""trial"",""time""
""blur"",""10"",""129650""
""blur"",""10"",""134789""
","""event"",""trial"",""time""
""focus"",""0"",""0""
""focus"",""10"",""133257""
""focus"",""10"",""135466""
","""event"",""trial"",""time""
""fullscreenenter"",""0"",""11126""
","
","1045","<div class='center'><p>If you don’t make your choice fast enough, you’ll have to wait a few seconds before you can make another one. </p><p><img src='run_exp/static/images/miscellaneous/hurry_up.png' height='500'></p><p><b>[Press the space bar to continue]</b></p></div>","32","","","","","","",""
"","instruc10","38","238432","0.0-35.0-2.0","""event"",""trial"",""time""
""focus"",""0"",""0""
""fullscreenenter"",""0"",""11126""
""blur"",""10"",""129650""
""focus"",""10"",""133257""
""blur"",""10"",""134789""
""focus"",""10"",""135466""
","""event"",""trial"",""time""
""blur"",""10"",""129650""
""blur"",""10"",""134789""
","""event"",""trial"",""time""
""focus"",""0"",""0""
""focus"",""10"",""133257""
""focus"",""10"",""135466""
","""event"",""trial"",""time""
""fullscreenenter"",""0"",""11126""
","
","null","run_exp/static/audio/clip_12_probe.m4a","null","","","","","<div class='center'><p>Once you've chosen a pirate, you’ll be shown the ship they are robbing. You will never rob the same ship twice. Ships can be told apart from one another by the image on them. These are the goods that they sell. See, this ship has a travel mug on it. </p><p> You’ll have to remember which island you saw each ship on. You will win more gold coins and hence more bonus money if you remember correctly! To help you remember, you can imagine a story. For example, here, you could imagine a mug full of water in the desert. Or, as another example, if on the forest island, your pirate robbed a ship with an apple on it, you could imagine an apple falling from a tree in the forest. </p><p><img src='run_exp/static/images/tutorial/example_probe.png' height='500'></p></div>","",""
"","html-keyboard-response","39","239929","0.0-35.0-3.0","""event"",""trial"",""time""
""focus"",""0"",""0""
""fullscreenenter"",""0"",""11126""
""blur"",""10"",""129650""
""focus"",""10"",""133257""
""blur"",""10"",""134789""
""focus"",""10"",""135466""
","""event"",""trial"",""time""
""blur"",""10"",""129650""
""blur"",""10"",""134789""
","""event"",""trial"",""time""
""focus"",""0"",""0""
""focus"",""10"",""133257""
""focus"",""10"",""135466""
","""event"",""trial"",""time""
""fullscreenenter"",""0"",""11126""
","
","1493","<div class='center'><p>Once you've chosen a pirate, you’ll be shown the ship they are robbing. You will never rob the same ship twice. Ships can be told apart from one another by the image on them. These are the goods that they sell. See, this ship has a travel mug on it. </p><p> You’ll have to remember which island you saw each ship on. You will win more gold coins and hence more bonus money if you remember correctly! To help you remember, you can imagine a story. For example, here, you could imagine a mug full of water in the desert. Or, as another example, if on the forest island, your pirate robbed a ship with an apple on it, you could imagine an apple falling from a tree in the forest. </p><p><img src='run_exp/static/images/tutorial/example_probe.png' height='500'></p><p><b>[Press the space bar to continue]</b></p></div>","32","","","","","","",""
"","instruc11","40","256411","0.0-35.0-4.0","""event"",""trial"",""time""
""focus"",""0"",""0""
""fullscreenenter"",""0"",""11126""
""blur"",""10"",""129650""
""focus"",""10"",""133257""
""blur"",""10"",""134789""
""focus"",""10"",""135466""
","""event"",""trial"",""time""
""blur"",""10"",""129650""
""blur"",""10"",""134789""
","""event"",""trial"",""time""
""focus"",""0"",""0""
""focus"",""10"",""133257""
""focus"",""10"",""135466""
","""event"",""trial"",""time""
""fullscreenenter"",""0"",""11126""
","
","null","run_exp/static/audio/clip_13_changepoint.m4a","null","","","","","<div class='center'><p>How successful a pirate is at robbing ships will depend on the island you’re on.</p><p> A pirate may have visited this island many times before and gained a lot of practice robbing ships there.</p><p>So, they’re more likely to be successful than a pirate who has never visited the island before.</p></div>","",""
"","html-keyboard-response","41","257044","0.0-35.0-5.0","""event"",""trial"",""time""
""focus"",""0"",""0""
""fullscreenenter"",""0"",""11126""
""blur"",""10"",""129650""
""focus"",""10"",""133257""
""blur"",""10"",""134789""
""focus"",""10"",""135466""
","""event"",""trial"",""time""
""blur"",""10"",""129650""
""blur"",""10"",""134789""
","""event"",""trial"",""time""
""focus"",""0"",""0""
""focus"",""10"",""133257""
""focus"",""10"",""135466""
","""event"",""trial"",""time""
""fullscreenenter"",""0"",""11126""
","
","630","<div class='center'><p>How successful a pirate is at robbing ships will depend on the island you’re on.</p><p> A pirate may have visited this island many times before and gained a lot of practice robbing ships there.</p><p>So, they’re more likely to be successful than a pirate who has never visited the island before.</p><p><b>[Press the space bar to continue]</b></p></div>","32","","","","","","",""
"","instruc12","42","298272","0.0-35.0-6.0","""event"",""trial"",""time""
""focus"",""0"",""0""
""fullscreenenter"",""0"",""11126""
""blur"",""10"",""129650""
""focus"",""10"",""133257""
""blur"",""10"",""134789""
""focus"",""10"",""135466""
","""event"",""trial"",""time""
""blur"",""10"",""129650""
""blur"",""10"",""134789""
","""event"",""trial"",""time""
""focus"",""0"",""0""
""focus"",""10"",""133257""
""focus"",""10"",""135466""
","""event"",""trial"",""time""
""fullscreenenter"",""0"",""11126""
","
","null","run_exp/static/audio/clip_14_drift.m4a","null","","","","","<div class='center'><p>How successful a pirate is at robbing ships can also change over the time spent on the island. </p><p> Ships may hear from islanders about the pirates coming and will improve their protections against the attack. This may make it harder to rob them.</p><p> Ships may also become lazy and weaken the strength of their protections. This may make it easier to rob them.</p><br><p>Things are always changing on the high seas! So, try your best to pay attention!</p><p><img src='run_exp/static/images/tutorial/contingency.png' height='500'></p></div>","",""
"","html-keyboard-response","43","301274","0.0-35.0-7.0","""event"",""trial"",""time""
""focus"",""0"",""0""
""fullscreenenter"",""0"",""11126""
""blur"",""10"",""129650""
""focus"",""10"",""133257""
""blur"",""10"",""134789""
""focus"",""10"",""135466""
","""event"",""trial"",""time""
""blur"",""10"",""129650""
""blur"",""10"",""134789""
","""event"",""trial"",""time""
""focus"",""0"",""0""
""focus"",""10"",""133257""
""focus"",""10"",""135466""
","""event"",""trial"",""time""
""fullscreenenter"",""0"",""11126""
","
","2999","<div class='center'><p>How successful a pirate is at robbing ships can also change over the time spent on the island. </p><p> Ships may hear from islanders about the pirates coming and will improve their protections against the attack. This may make it harder to rob them.</p><p> Ships may also become lazy and weaken the strength of their protections. This may make it easier to rob them.</p><br><p>Things are always changing on the high seas! So, try your best to pay attention!</p><p><img src='run_exp/static/images/tutorial/contingency.png' height='500'></p><p><b>[Press the space bar to continue]</b></p></div>","32","","","","","","",""
"","instruc13","44","336542","0.0-35.0-8.0","""event"",""trial"",""time""
""focus"",""0"",""0""
""fullscreenenter"",""0"",""11126""
""blur"",""10"",""129650""
""focus"",""10"",""133257""
""blur"",""10"",""134789""
""focus"",""10"",""135466""
","""event"",""trial"",""time""
""blur"",""10"",""129650""
""blur"",""10"",""134789""
","""event"",""trial"",""time""
""focus"",""0"",""0""
""focus"",""10"",""133257""
""focus"",""10"",""135466""
","""event"",""trial"",""time""
""fullscreenenter"",""0"",""11126""
","
","null","run_exp/static/audio/clip_15_summary.m4a","null","","","","","<div class='center'><p>Let's go over the instructions quickly again. You have two important things to do: </p><b><p> 1. Pick the pirate who is the best at robbing ships on the current island. </p></b><b><p> 2. Remember on which island a ship was robbed.</p> </b><p>The amount of bonus money you can win depends on both.</p><p><br><p>Let’s try a practice game. The game will start by showing you the pirates. First, pick a pirate using the <b> 1, 2, 3 </b> keys on your keyboard. When you are shown a ship, try to remember which island you’re on by making up a story.</p><p>This is just a practice game, so you’re not playing for money. </p><p> Good luck! This game will be very difficult but try your best!</p></div>","",""
"","html-keyboard-response","45","337356","0.0-35.0-9.0","""event"",""trial"",""time""
""focus"",""0"",""0""
""fullscreenenter"",""0"",""11126""
""blur"",""10"",""129650""
""focus"",""10"",""133257""
""blur"",""10"",""134789""
""focus"",""10"",""135466""
","""event"",""trial"",""time""
""blur"",""10"",""129650""
""blur"",""10"",""134789""
","""event"",""trial"",""time""
""focus"",""0"",""0""
""focus"",""10"",""133257""
""focus"",""10"",""135466""
","""event"",""trial"",""time""
""fullscreenenter"",""0"",""11126""
","
","811","<div class='center'><p>Let's go over the instructions quickly again. You have two important things to do: </p><b><p> 1. Pick the pirate who is the best at robbing ships on the current island. </p></b><b><p> 2. Remember on which island a ship was robbed.</p> </b><p>The amount of bonus money you can win depends on both.</p><p><br><p>Let’s try a practice game. The game will start by showing you the pirates. First, pick a pirate using the <b> 1, 2, 3 </b> keys on your keyboard. When you are shown a ship, try to remember which island you’re on by making up a story.</p><p>This is just a practice game, so you’re not playing for money. </p><p> Good luck! This game will be very difficult but try your best!</p><p><b>[Press the space bar to continue]</b></p></div>","32","","","","","","",""
"","do_welcome","46","341545","0.0-35.0-10.0","""event"",""trial"",""time""
""focus"",""0"",""0""
""fullscreenenter"",""0"",""11126""
""blur"",""10"",""129650""
""focus"",""10"",""133257""
""blur"",""10"",""134789""
""focus"",""10"",""135466""
""blur"",""47"",""344641""
","""event"",""trial"",""time""
""blur"",""10"",""129650""
""blur"",""10"",""134789""
""blur"",""47"",""344641""
","""event"",""trial"",""time""
""focus"",""0"",""0""
""focus"",""10"",""133257""
""focus"",""10"",""135466""
","""event"",""trial"",""time""
""fullscreenenter"",""0"",""11126""
","
","null","","","","","","","","null",""
"","do_trial","47","347574","0.0-35.0-11.0","""event"",""trial"",""time""
""focus"",""0"",""0""
""fullscreenenter"",""0"",""11126""
""blur"",""10"",""129650""
""focus"",""10"",""133257""
""blur"",""10"",""134789""
""focus"",""10"",""135466""
""blur"",""47"",""344641""
","""event"",""trial"",""time""
""blur"",""10"",""129650""
""blur"",""10"",""134789""
""blur"",""47"",""344641""
","""event"",""trial"",""time""
""focus"",""0"",""0""
""focus"",""10"",""133257""
""focus"",""10"",""135466""
","""event"",""trial"",""time""
""fullscreenenter"",""0"",""11126""
","
","null","","","","","","","","null","1,0,0"
"","html-keyboard-response","48","348584","0.0-36.0-0.0","""event"",""trial"",""time""
""focus"",""0"",""0""
""fullscreenenter"",""0"",""11126""
""blur"",""10"",""129650""
""focus"",""10"",""133257""
""blur"",""10"",""134789""
""focus"",""10"",""135466""
""blur"",""47"",""344641""
""focus"",""49"",""349670""
""blur"",""49"",""350114""
","""event"",""trial"",""time""
""blur"",""10"",""129650""
""blur"",""10"",""134789""
""blur"",""47"",""344641""
""blur"",""49"",""350114""
","""event"",""trial"",""time""
""focus"",""0"",""0""
""focus"",""10"",""133257""
""focus"",""10"",""135466""
""focus"",""49"",""349670""
","""event"",""trial"",""time""
""fullscreenenter"",""0"",""11126""
","
","null","<p></p>","null","","","","","","",""
"","do_trial","49","354617","0.0-36.0-1.0","""event"",""trial"",""time""
""focus"",""0"",""0""
""fullscreenenter"",""0"",""11126""
""blur"",""10"",""129650""
""focus"",""10"",""133257""
""blur"",""10"",""134789""
""focus"",""10"",""135466""
""blur"",""47"",""344641""
""focus"",""49"",""349670""
""blur"",""49"",""350114""
","""event"",""trial"",""time""
""blur"",""10"",""129650""
""blur"",""10"",""134789""
""blur"",""47"",""344641""
""blur"",""49"",""350114""
","""event"",""trial"",""time""
""focus"",""0"",""0""
""focus"",""10"",""133257""
""focus"",""10"",""135466""
""focus"",""49"",""349670""
","""event"",""trial"",""time""
""fullscreenenter"",""0"",""11126""
","
","null","","","","","","","","null","1,0,0"
"","html-keyboard-response","50","355634","0.0-37.0-0.0","""event"",""trial"",""time""
""focus"",""0"",""0""
""fullscreenenter"",""0"",""11126""
""blur"",""10"",""129650""
""focus"",""10"",""133257""
""blur"",""10"",""134789""
""focus"",""10"",""135466""
""blur"",""47"",""344641""
""focus"",""49"",""349670""
""blur"",""49"",""350114""
""focus"",""51"",""356383""
""blur"",""51"",""357061""
""focus"",""51"",""359696""
","""event"",""trial"",""time""
""blur"",""10"",""129650""
""blur"",""10"",""134789""
""blur"",""47"",""344641""
""blur"",""49"",""350114""
""blur"",""51"",""357061""
","""event"",""trial"",""time""
""focus"",""0"",""0""
""focus"",""10"",""133257""
""focus"",""10"",""135466""
""focus"",""49"",""349670""
""focus"",""51"",""356383""
""focus"",""51"",""359696""
","""event"",""trial"",""time""
""fullscreenenter"",""0"",""11126""
","
","null","<p></p>","null","","","","","","",""
"","do_trial","51","361655","0.0-37.0-1.0","""event"",""trial"",""time""
""focus"",""0"",""0""
""fullscreenenter"",""0"",""11126""
""blur"",""10"",""129650""
""focus"",""10"",""133257""
""blur"",""10"",""134789""
""focus"",""10"",""135466""
""blur"",""47"",""344641""
""focus"",""49"",""349670""
""blur"",""49"",""350114""
""focus"",""51"",""356383""
""blur"",""51"",""357061""
""focus"",""51"",""359696""
","""event"",""trial"",""time""
""blur"",""10"",""129650""
""blur"",""10"",""134789""
""blur"",""47"",""344641""
""blur"",""49"",""350114""
""blur"",""51"",""357061""
","""event"",""trial"",""time""
""focus"",""0"",""0""
""focus"",""10"",""133257""
""focus"",""10"",""135466""
""focus"",""49"",""349670""
""focus"",""51"",""356383""
""focus"",""51"",""359696""
","""event"",""trial"",""time""
""fullscreenenter"",""0"",""11126""
","
","null","","","","","","","","null","1,0,0"
"","html-keyboard-response","52","362662","0.0-38.0-0.0","""event"",""trial"",""time""
""focus"",""0"",""0""
""fullscreenenter"",""0"",""11126""
""blur"",""10"",""129650""
""focus"",""10"",""133257""
""blur"",""10"",""134789""
""focus"",""10"",""135466""
""blur"",""47"",""344641""
""focus"",""49"",""349670""
""blur"",""49"",""350114""
""focus"",""51"",""356383""
""blur"",""51"",""357061""
""focus"",""51"",""359696""
","""event"",""trial"",""time""
""blur"",""10"",""129650""
""blur"",""10"",""134789""
""blur"",""47"",""344641""
""blur"",""49"",""350114""
""blur"",""51"",""357061""
","""event"",""trial"",""time""
""focus"",""0"",""0""
""focus"",""10"",""133257""
""focus"",""10"",""135466""
""focus"",""49"",""349670""
""focus"",""51"",""356383""
""focus"",""51"",""359696""
","""event"",""trial"",""time""
""fullscreenenter"",""0"",""11126""
","
","null","<p></p>","null","","","","","","",""
"","do_trial","53","368691","0.0-38.0-1.0","""event"",""trial"",""time""
""focus"",""0"",""0""
""fullscreenenter"",""0"",""11126""
""blur"",""10"",""129650""
""focus"",""10"",""133257""
""blur"",""10"",""134789""
""focus"",""10"",""135466""
""blur"",""47"",""344641""
""focus"",""49"",""349670""
""blur"",""49"",""350114""
""focus"",""51"",""356383""
""blur"",""51"",""357061""
""focus"",""51"",""359696""
","""event"",""trial"",""time""
""blur"",""10"",""129650""
""blur"",""10"",""134789""
""blur"",""47"",""344641""
""blur"",""49"",""350114""
""blur"",""51"",""357061""
","""event"",""trial"",""time""
""focus"",""0"",""0""
""focus"",""10"",""133257""
""focus"",""10"",""135466""
""focus"",""49"",""349670""
""focus"",""51"",""356383""
""focus"",""51"",""359696""
","""event"",""trial"",""time""
""fullscreenenter"",""0"",""11126""
","
","null","","","","","","","","null","1,0,0"
"","html-keyboard-response","54","369701","0.0-39.0-0.0","""event"",""trial"",""time""
""focus"",""0"",""0""
""fullscreenenter"",""0"",""11126""
""blur"",""10"",""129650""
""focus"",""10"",""133257""
""blur"",""10"",""134789""
""focus"",""10"",""135466""
""blur"",""47"",""344641""
""focus"",""49"",""349670""
""blur"",""49"",""350114""
""focus"",""51"",""356383""
""blur"",""51"",""357061""
""focus"",""51"",""359696""
","""event"",""trial"",""time""
""blur"",""10"",""129650""
""blur"",""10"",""134789""
""blur"",""47"",""344641""
""blur"",""49"",""350114""
""blur"",""51"",""357061""
","""event"",""trial"",""time""
""focus"",""0"",""0""
""focus"",""10"",""133257""
""focus"",""10"",""135466""
""focus"",""49"",""349670""
""focus"",""51"",""356383""
""focus"",""51"",""359696""
","""event"",""trial"",""time""
""fullscreenenter"",""0"",""11126""
","
","null","<p></p>","null","","","","","","",""
"","do_trial","55","375721","0.0-39.0-1.0","""event"",""trial"",""time""
""focus"",""0"",""0""
""fullscreenenter"",""0"",""11126""
""blur"",""10"",""129650""
""focus"",""10"",""133257""
""blur"",""10"",""134789""
""focus"",""10"",""135466""
""blur"",""47"",""344641""
""focus"",""49"",""349670""
""blur"",""49"",""350114""
""focus"",""51"",""356383""
""blur"",""51"",""357061""
""focus"",""51"",""359696""
","""event"",""trial"",""time""
""blur"",""10"",""129650""
""blur"",""10"",""134789""
""blur"",""47"",""344641""
""blur"",""49"",""350114""
""blur"",""51"",""357061""
","""event"",""trial"",""time""
""focus"",""0"",""0""
""focus"",""10"",""133257""
""focus"",""10"",""135466""
""focus"",""49"",""349670""
""focus"",""51"",""356383""
""focus"",""51"",""359696""
","""event"",""trial"",""time""
""fullscreenenter"",""0"",""11126""
","
","null","","","","","","","","null","1,0,0"
"","html-keyboard-response","56","376730","0.0-40.0-0.0","""event"",""trial"",""time""
""focus"",""0"",""0""
""fullscreenenter"",""0"",""11126""
""blur"",""10"",""129650""
""focus"",""10"",""133257""
""blur"",""10"",""134789""
""focus"",""10"",""135466""
""blur"",""47"",""344641""
""focus"",""49"",""349670""
""blur"",""49"",""350114""
""focus"",""51"",""356383""
""blur"",""51"",""357061""
""focus"",""51"",""359696""
""blur"",""57"",""378692""
""focus"",""57"",""380145""
","""event"",""trial"",""time""
""blur"",""10"",""129650""
""blur"",""10"",""134789""
""blur"",""47"",""344641""
""blur"",""49"",""350114""
""blur"",""51"",""357061""
""blur"",""57"",""378692""
","""event"",""trial"",""time""
""focus"",""0"",""0""
""focus"",""10"",""133257""
""focus"",""10"",""135466""
""focus"",""49"",""349670""
""focus"",""51"",""356383""
""focus"",""51"",""359696""
""focus"",""57"",""380145""
","""event"",""trial"",""time""
""fullscreenenter"",""0"",""11126""
","
","null","<p></p>","null","","","","","","",""
"","do_trial","57","382746","0.0-40.0-1.0","""event"",""trial"",""time""
""focus"",""0"",""0""
""fullscreenenter"",""0"",""11126""
""blur"",""10"",""129650""
""focus"",""10"",""133257""
""blur"",""10"",""134789""
""focus"",""10"",""135466""
""blur"",""47"",""344641""
""focus"",""49"",""349670""
""blur"",""49"",""350114""
""focus"",""51"",""356383""
""blur"",""51"",""357061""
""focus"",""51"",""359696""
""blur"",""57"",""378692""
""focus"",""57"",""380145""
","""event"",""trial"",""time""
""blur"",""10"",""129650""
""blur"",""10"",""134789""
""blur"",""47"",""344641""
""blur"",""49"",""350114""
""blur"",""51"",""357061""
""blur"",""57"",""378692""
","""event"",""trial"",""time""
""focus"",""0"",""0""
""focus"",""10"",""133257""
""focus"",""10"",""135466""
""focus"",""49"",""349670""
""focus"",""51"",""356383""
""focus"",""51"",""359696""
""focus"",""57"",""380145""
","""event"",""trial"",""time""
""fullscreenenter"",""0"",""11126""
","
","null","","","","","","","","null","1,0,0"
"","html-keyboard-response","58","383754","0.0-41.0-0.0","""event"",""trial"",""time""
""focus"",""0"",""0""
""fullscreenenter"",""0"",""11126""
""blur"",""10"",""129650""
""focus"",""10"",""133257""
""blur"",""10"",""134789""
""focus"",""10"",""135466""
""blur"",""47"",""344641""
""focus"",""49"",""349670""
""blur"",""49"",""350114""
""focus"",""51"",""356383""
""blur"",""51"",""357061""
""focus"",""51"",""359696""
""blur"",""57"",""378692""
""focus"",""57"",""380145""
""blur"",""59"",""384234""
""focus"",""59"",""384816""
","""event"",""trial"",""time""
""blur"",""10"",""129650""
""blur"",""10"",""134789""
""blur"",""47"",""344641""
""blur"",""49"",""350114""
""blur"",""51"",""357061""
""blur"",""57"",""378692""
""blur"",""59"",""384234""
","""event"",""trial"",""time""
""focus"",""0"",""0""
""focus"",""10"",""133257""
""focus"",""10"",""135466""
""focus"",""49"",""349670""
""focus"",""51"",""356383""
""focus"",""51"",""359696""
""focus"",""57"",""380145""
""focus"",""59"",""384816""
","""event"",""trial"",""time""
""fullscreenenter"",""0"",""11126""
","
","null","<p></p>","null","","","","","","",""
"","do_trial","59","389771","0.0-41.0-1.0","""event"",""trial"",""time""
""focus"",""0"",""0""
""fullscreenenter"",""0"",""11126""
""blur"",""10"",""129650""
""focus"",""10"",""133257""
""blur"",""10"",""134789""
""focus"",""10"",""135466""
""blur"",""47"",""344641""
""focus"",""49"",""349670""
""blur"",""49"",""350114""
""focus"",""51"",""356383""
""blur"",""51"",""357061""
""focus"",""51"",""359696""
""blur"",""57"",""378692""
""focus"",""57"",""380145""
""blur"",""59"",""384234""
""focus"",""59"",""384816""
","""event"",""trial"",""time""
""blur"",""10"",""129650""
""blur"",""10"",""134789""
""blur"",""47"",""344641""
""blur"",""49"",""350114""
""blur"",""51"",""357061""
""blur"",""57"",""378692""
""blur"",""59"",""384234""
","""event"",""trial"",""time""
""focus"",""0"",""0""
""focus"",""10"",""133257""
""focus"",""10"",""135466""
""focus"",""49"",""349670""
""focus"",""51"",""356383""
""focus"",""51"",""359696""
""focus"",""57"",""380145""
""focus"",""59"",""384816""
","""event"",""trial"",""time""
""fullscreenenter"",""0"",""11126""
","
","null","","","","","","","","null","1,0,0"
"","html-keyboard-response","60","390785","0.0-42.0-0.0","""event"",""trial"",""time""
""focus"",""0"",""0""
""fullscreenenter"",""0"",""11126""
""blur"",""10"",""129650""
""focus"",""10"",""133257""
""blur"",""10"",""134789""
""focus"",""10"",""135466""
""blur"",""47"",""344641""
""focus"",""49"",""349670""
""blur"",""49"",""350114""
""focus"",""51"",""356383""
""blur"",""51"",""357061""
""focus"",""51"",""359696""
""blur"",""57"",""378692""
""focus"",""57"",""380145""
""blur"",""59"",""384234""
""focus"",""59"",""384816""
","""event"",""trial"",""time""
""blur"",""10"",""129650""
""blur"",""10"",""134789""
""blur"",""47"",""344641""
""blur"",""49"",""350114""
""blur"",""51"",""357061""
""blur"",""57"",""378692""
""blur"",""59"",""384234""
","""event"",""trial"",""time""
""focus"",""0"",""0""
""focus"",""10"",""133257""
""focus"",""10"",""135466""
""focus"",""49"",""349670""
""focus"",""51"",""356383""
""focus"",""51"",""359696""
""focus"",""57"",""380145""
""focus"",""59"",""384816""
","""event"",""trial"",""time""
""fullscreenenter"",""0"",""11126""
","
","null","<p></p>","null","","","","","","",""
"","do_trial","61","396817","0.0-42.0-1.0","""event"",""trial"",""time""
""focus"",""0"",""0""
""fullscreenenter"",""0"",""11126""
""blur"",""10"",""129650""
""focus"",""10"",""133257""
""blur"",""10"",""134789""
""focus"",""10"",""135466""
""blur"",""47"",""344641""
""focus"",""49"",""349670""
""blur"",""49"",""350114""
""focus"",""51"",""356383""
""blur"",""51"",""357061""
""focus"",""51"",""359696""
""blur"",""57"",""378692""
""focus"",""57"",""380145""
""blur"",""59"",""384234""
""focus"",""59"",""384816""
","""event"",""trial"",""time""
""blur"",""10"",""129650""
""blur"",""10"",""134789""
""blur"",""47"",""344641""
""blur"",""49"",""350114""
""blur"",""51"",""357061""
""blur"",""57"",""378692""
""blur"",""59"",""384234""
","""event"",""trial"",""time""
""focus"",""0"",""0""
""focus"",""10"",""133257""
""focus"",""10"",""135466""
""focus"",""49"",""349670""
""focus"",""51"",""356383""
""focus"",""51"",""359696""
""focus"",""57"",""380145""
""focus"",""59"",""384816""
","""event"",""trial"",""time""
""fullscreenenter"",""0"",""11126""
","
","null","","","","","","","","null","1,0,0"
"","html-keyboard-response","62","397833","0.0-43.0-0.0","""event"",""trial"",""time""
""focus"",""0"",""0""
""fullscreenenter"",""0"",""11126""
""blur"",""10"",""129650""
""focus"",""10"",""133257""
""blur"",""10"",""134789""
""focus"",""10"",""135466""
""blur"",""47"",""344641""
""focus"",""49"",""349670""
""blur"",""49"",""350114""
""focus"",""51"",""356383""
""blur"",""51"",""357061""
""focus"",""51"",""359696""
""blur"",""57"",""378692""
""focus"",""57"",""380145""
""blur"",""59"",""384234""
""focus"",""59"",""384816""
","""event"",""trial"",""time""
""blur"",""10"",""129650""
""blur"",""10"",""134789""
""blur"",""47"",""344641""
""blur"",""49"",""350114""
""blur"",""51"",""357061""
""blur"",""57"",""378692""
""blur"",""59"",""384234""
","""event"",""trial"",""time""
""focus"",""0"",""0""
""focus"",""10"",""133257""
""focus"",""10"",""135466""
""focus"",""49"",""349670""
""focus"",""51"",""356383""
""focus"",""51"",""359696""
""focus"",""57"",""380145""
""focus"",""59"",""384816""
","""event"",""trial"",""time""
""fullscreenenter"",""0"",""11126""
","
","null","<p></p>","null","","","","","","",""
"","do_trial","63","403858","0.0-43.0-1.0","""event"",""trial"",""time""
""focus"",""0"",""0""
""fullscreenenter"",""0"",""11126""
""blur"",""10"",""129650""
""focus"",""10"",""133257""
""blur"",""10"",""134789""
""focus"",""10"",""135466""
""blur"",""47"",""344641""
""focus"",""49"",""349670""
""blur"",""49"",""350114""
""focus"",""51"",""356383""
""blur"",""51"",""357061""
""focus"",""51"",""359696""
""blur"",""57"",""378692""
""focus"",""57"",""380145""
""blur"",""59"",""384234""
""focus"",""59"",""384816""
","""event"",""trial"",""time""
""blur"",""10"",""129650""
""blur"",""10"",""134789""
""blur"",""47"",""344641""
""blur"",""49"",""350114""
""blur"",""51"",""357061""
""blur"",""57"",""378692""
""blur"",""59"",""384234""
","""event"",""trial"",""time""
""focus"",""0"",""0""
""focus"",""10"",""133257""
""focus"",""10"",""135466""
""focus"",""49"",""349670""
""focus"",""51"",""356383""
""focus"",""51"",""359696""
""focus"",""57"",""380145""
""focus"",""59"",""384816""
","""event"",""trial"",""time""
""fullscreenenter"",""0"",""11126""
","
","null","","","","","","","","null","1,0,0"
"","html-keyboard-response","64","404872","0.0-44.0-0.0","""event"",""trial"",""time""
""focus"",""0"",""0""
""fullscreenenter"",""0"",""11126""
""blur"",""10"",""129650""
""focus"",""10"",""133257""
""blur"",""10"",""134789""
""focus"",""10"",""135466""
""blur"",""47"",""344641""
""focus"",""49"",""349670""
""blur"",""49"",""350114""
""focus"",""51"",""356383""
""blur"",""51"",""357061""
""focus"",""51"",""359696""
""blur"",""57"",""378692""
""focus"",""57"",""380145""
""blur"",""59"",""384234""
""focus"",""59"",""384816""
","""event"",""trial"",""time""
""blur"",""10"",""129650""
""blur"",""10"",""134789""
""blur"",""47"",""344641""
""blur"",""49"",""350114""
""blur"",""51"",""357061""
""blur"",""57"",""378692""
""blur"",""59"",""384234""
","""event"",""trial"",""time""
""focus"",""0"",""0""
""focus"",""10"",""133257""
""focus"",""10"",""135466""
""focus"",""49"",""349670""
""focus"",""51"",""356383""
""focus"",""51"",""359696""
""focus"",""57"",""380145""
""focus"",""59"",""384816""
","""event"",""trial"",""time""
""fullscreenenter"",""0"",""11126""
","
","null","<p></p>","null","","","","","","",""
"","do_trial","65","410896","0.0-44.0-1.0","""event"",""trial"",""time""
""focus"",""0"",""0""
""fullscreenenter"",""0"",""11126""
""blur"",""10"",""129650""
""focus"",""10"",""133257""
""blur"",""10"",""134789""
""focus"",""10"",""135466""
""blur"",""47"",""344641""
""focus"",""49"",""349670""
""blur"",""49"",""350114""
""focus"",""51"",""356383""
""blur"",""51"",""357061""
""focus"",""51"",""359696""
""blur"",""57"",""378692""
""focus"",""57"",""380145""
""blur"",""59"",""384234""
""focus"",""59"",""384816""
","""event"",""trial"",""time""
""blur"",""10"",""129650""
""blur"",""10"",""134789""
""blur"",""47"",""344641""
""blur"",""49"",""350114""
""blur"",""51"",""357061""
""blur"",""57"",""378692""
""blur"",""59"",""384234""
","""event"",""trial"",""time""
""focus"",""0"",""0""
""focus"",""10"",""133257""
""focus"",""10"",""135466""
""focus"",""49"",""349670""
""focus"",""51"",""356383""
""focus"",""51"",""359696""
""focus"",""57"",""380145""
""focus"",""59"",""384816""
","""event"",""trial"",""time""
""fullscreenenter"",""0"",""11126""
","
","null","","","","","","","","null","1,0,0"
"","html-keyboard-response","66","411906","0.0-45.0-0.0","""event"",""trial"",""time""
""focus"",""0"",""0""
""fullscreenenter"",""0"",""11126""
""blur"",""10"",""129650""
""focus"",""10"",""133257""
""blur"",""10"",""134789""
""focus"",""10"",""135466""
""blur"",""47"",""344641""
""focus"",""49"",""349670""
""blur"",""49"",""350114""
""focus"",""51"",""356383""
""blur"",""51"",""357061""
""focus"",""51"",""359696""
""blur"",""57"",""378692""
""focus"",""57"",""380145""
""blur"",""59"",""384234""
""focus"",""59"",""384816""
""blur"",""67"",""414616""
""focus"",""67"",""417487""
","""event"",""trial"",""time""
""blur"",""10"",""129650""
""blur"",""10"",""134789""
""blur"",""47"",""344641""
""blur"",""49"",""350114""
""blur"",""51"",""357061""
""blur"",""57"",""378692""
""blur"",""59"",""384234""
""blur"",""67"",""414616""
","""event"",""trial"",""time""
""focus"",""0"",""0""
""focus"",""10"",""133257""
""focus"",""10"",""135466""
""focus"",""49"",""349670""
""focus"",""51"",""356383""
""focus"",""51"",""359696""
""focus"",""57"",""380145""
""focus"",""59"",""384816""
""focus"",""67"",""417487""
","""event"",""trial"",""time""
""fullscreenenter"",""0"",""11126""
","
","null","<p></p>","null","","","","","","",""
"","do_trial","67","417924","0.0-45.0-1.0","""event"",""trial"",""time""
""focus"",""0"",""0""
""fullscreenenter"",""0"",""11126""
""blur"",""10"",""129650""
""focus"",""10"",""133257""
""blur"",""10"",""134789""
""focus"",""10"",""135466""
""blur"",""47"",""344641""
""focus"",""49"",""349670""
""blur"",""49"",""350114""
""focus"",""51"",""356383""
""blur"",""51"",""357061""
""focus"",""51"",""359696""
""blur"",""57"",""378692""
""focus"",""57"",""380145""
""blur"",""59"",""384234""
""focus"",""59"",""384816""
""blur"",""67"",""414616""
""focus"",""67"",""417487""
","""event"",""trial"",""time""
""blur"",""10"",""129650""
""blur"",""10"",""134789""
""blur"",""47"",""344641""
""blur"",""49"",""350114""
""blur"",""51"",""357061""
""blur"",""57"",""378692""
""blur"",""59"",""384234""
""blur"",""67"",""414616""
","""event"",""trial"",""time""
""focus"",""0"",""0""
""focus"",""10"",""133257""
""focus"",""10"",""135466""
""focus"",""49"",""349670""
""focus"",""51"",""356383""
""focus"",""51"",""359696""
""focus"",""57"",""380145""
""focus"",""59"",""384816""
""focus"",""67"",""417487""
","""event"",""trial"",""time""
""fullscreenenter"",""0"",""11126""
","
","null","","","","","","","","null","1,0,0"
"","html-keyboard-response","68","418927","0.0-46.0-0.0","""event"",""trial"",""time""
""focus"",""0"",""0""
""fullscreenenter"",""0"",""11126""
""blur"",""10"",""129650""
""focus"",""10"",""133257""
""blur"",""10"",""134789""
""focus"",""10"",""135466""
""blur"",""47"",""344641""
""focus"",""49"",""349670""
""blur"",""49"",""350114""
""focus"",""51"",""356383""
""blur"",""51"",""357061""
""focus"",""51"",""359696""
""blur"",""57"",""378692""
""focus"",""57"",""380145""
""blur"",""59"",""384234""
""focus"",""59"",""384816""
""blur"",""67"",""414616""
""focus"",""67"",""417487""
","""event"",""trial"",""time""
""blur"",""10"",""129650""
""blur"",""10"",""134789""
""blur"",""47"",""344641""
""blur"",""49"",""350114""
""blur"",""51"",""357061""
""blur"",""57"",""378692""
""blur"",""59"",""384234""
""blur"",""67"",""414616""
","""event"",""trial"",""time""
""focus"",""0"",""0""
""focus"",""10"",""133257""
""focus"",""10"",""135466""
""focus"",""49"",""349670""
""focus"",""51"",""356383""
""focus"",""51"",""359696""
""focus"",""57"",""380145""
""focus"",""59"",""384816""
""focus"",""67"",""417487""
","""event"",""trial"",""time""
""fullscreenenter"",""0"",""11126""
","
","null","<p></p>","null","","","","","","",""
"","do_trial","69","425204","0.0-46.0-1.0","""event"",""trial"",""time""
""focus"",""0"",""0""
""fullscreenenter"",""0"",""11126""
""blur"",""10"",""129650""
""focus"",""10"",""133257""
""blur"",""10"",""134789""
""focus"",""10"",""135466""
""blur"",""47"",""344641""
""focus"",""49"",""349670""
""blur"",""49"",""350114""
""focus"",""51"",""356383""
""blur"",""51"",""357061""
""focus"",""51"",""359696""
""blur"",""57"",""378692""
""focus"",""57"",""380145""
""blur"",""59"",""384234""
""focus"",""59"",""384816""
""blur"",""67"",""414616""
""focus"",""67"",""417487""
","""event"",""trial"",""time""
""blur"",""10"",""129650""
""blur"",""10"",""134789""
""blur"",""47"",""344641""
""blur"",""49"",""350114""
""blur"",""51"",""357061""
""blur"",""57"",""378692""
""blur"",""59"",""384234""
""blur"",""67"",""414616""
","""event"",""trial"",""time""
""focus"",""0"",""0""
""focus"",""10"",""133257""
""focus"",""10"",""135466""
""focus"",""49"",""349670""
""focus"",""51"",""356383""
""focus"",""51"",""359696""
""focus"",""57"",""380145""
""focus"",""59"",""384816""
""focus"",""67"",""417487""
","""event"",""trial"",""time""
""fullscreenenter"",""0"",""11126""
","
","1762","","","","","","","","49","1,0,0"
"","html-keyboard-response","70","426211","0.0-47.0-0.0","""event"",""trial"",""time""
""focus"",""0"",""0""
""fullscreenenter"",""0"",""11126""
""blur"",""10"",""129650""
""focus"",""10"",""133257""
""blur"",""10"",""134789""
""focus"",""10"",""135466""
""blur"",""47"",""344641""
""focus"",""49"",""349670""
""blur"",""49"",""350114""
""focus"",""51"",""356383""
""blur"",""51"",""357061""
""focus"",""51"",""359696""
""blur"",""57"",""378692""
""focus"",""57"",""380145""
""blur"",""59"",""384234""
""focus"",""59"",""384816""
""blur"",""67"",""414616""
""focus"",""67"",""417487""
""blur"",""71"",""428685""
""focus"",""71"",""431426""
","""event"",""trial"",""time""
""blur"",""10"",""129650""
""blur"",""10"",""134789""
""blur"",""47"",""344641""
""blur"",""49"",""350114""
""blur"",""51"",""357061""
""blur"",""57"",""378692""
""blur"",""59"",""384234""
""blur"",""67"",""414616""
""blur"",""71"",""428685""
","""event"",""trial"",""time""
""focus"",""0"",""0""
""focus"",""10"",""133257""
""focus"",""10"",""135466""
""focus"",""49"",""349670""
""focus"",""51"",""356383""
""focus"",""51"",""359696""
""focus"",""57"",""380145""
""focus"",""59"",""384816""
""focus"",""67"",""417487""
""focus"",""71"",""431426""
","""event"",""trial"",""time""
""fullscreenenter"",""0"",""11126""
","
","null","<p></p>","null","","","","","","",""
"","do_trial","71","432243","0.0-47.0-1.0","""event"",""trial"",""time""
""focus"",""0"",""0""
""fullscreenenter"",""0"",""11126""
""blur"",""10"",""129650""
""focus"",""10"",""133257""
""blur"",""10"",""134789""
""focus"",""10"",""135466""
""blur"",""47"",""344641""
""focus"",""49"",""349670""
""blur"",""49"",""350114""
""focus"",""51"",""356383""
""blur"",""51"",""357061""
""focus"",""51"",""359696""
""blur"",""57"",""378692""
""focus"",""57"",""380145""
""blur"",""59"",""384234""
""focus"",""59"",""384816""
""blur"",""67"",""414616""
""focus"",""67"",""417487""
""blur"",""71"",""428685""
""focus"",""71"",""431426""
","""event"",""trial"",""time""
""blur"",""10"",""129650""
""blur"",""10"",""134789""
""blur"",""47"",""344641""
""blur"",""49"",""350114""
""blur"",""51"",""357061""
""blur"",""57"",""378692""
""blur"",""59"",""384234""
""blur"",""67"",""414616""
""blur"",""71"",""428685""
","""event"",""trial"",""time""
""focus"",""0"",""0""
""focus"",""10"",""133257""
""focus"",""10"",""135466""
""focus"",""49"",""349670""
""focus"",""51"",""356383""
""focus"",""51"",""359696""
""focus"",""57"",""380145""
""focus"",""59"",""384816""
""focus"",""67"",""417487""
""focus"",""71"",""431426""
","""event"",""trial"",""time""
""fullscreenenter"",""0"",""11126""
","
","null","","","","","","","","null","1,1,0"
"","html-keyboard-response","72","433257","0.0-48.0-0.0","""event"",""trial"",""time""
""focus"",""0"",""0""
""fullscreenenter"",""0"",""11126""
""blur"",""10"",""129650""
""focus"",""10"",""133257""
""blur"",""10"",""134789""
""focus"",""10"",""135466""
""blur"",""47"",""344641""
""focus"",""49"",""349670""
""blur"",""49"",""350114""
""focus"",""51"",""356383""
""blur"",""51"",""357061""
""focus"",""51"",""359696""
""blur"",""57"",""378692""
""focus"",""57"",""380145""
""blur"",""59"",""384234""
""focus"",""59"",""384816""
""blur"",""67"",""414616""
""focus"",""67"",""417487""
""blur"",""71"",""428685""
""focus"",""71"",""431426""
""blur"",""73"",""434579""
""focus"",""73"",""436144""
""blur"",""73"",""436519""
""focus"",""73"",""436761""
","""event"",""trial"",""time""
""blur"",""10"",""129650""
""blur"",""10"",""134789""
""blur"",""47"",""344641""
""blur"",""49"",""350114""
""blur"",""51"",""357061""
""blur"",""57"",""378692""
""blur"",""59"",""384234""
""blur"",""67"",""414616""
""blur"",""71"",""428685""
""blur"",""73"",""434579""
""blur"",""73"",""436519""
","""event"",""trial"",""time""
""focus"",""0"",""0""
""focus"",""10"",""133257""
""focus"",""10"",""135466""
""focus"",""49"",""349670""
""focus"",""51"",""356383""
""focus"",""51"",""359696""
""focus"",""57"",""380145""
""focus"",""59"",""384816""
""focus"",""67"",""417487""
""focus"",""71"",""431426""
""focus"",""73"",""436144""
""focus"",""73"",""436761""
","""event"",""trial"",""time""
""fullscreenenter"",""0"",""11126""
","
","null","<p></p>","null","","","","","","",""
"","do_trial","73","439279","0.0-48.0-1.0","""event"",""trial"",""time""
""focus"",""0"",""0""
""fullscreenenter"",""0"",""11126""
""blur"",""10"",""129650""
""focus"",""10"",""133257""
""blur"",""10"",""134789""
""focus"",""10"",""135466""
""blur"",""47"",""344641""
""focus"",""49"",""349670""
""blur"",""49"",""350114""
""focus"",""51"",""356383""
""blur"",""51"",""357061""
""focus"",""51"",""359696""
""blur"",""57"",""378692""
""focus"",""57"",""380145""
""blur"",""59"",""384234""
""focus"",""59"",""384816""
""blur"",""67"",""414616""
""focus"",""67"",""417487""
""blur"",""71"",""428685""
""focus"",""71"",""431426""
""blur"",""73"",""434579""
""focus"",""73"",""436144""
""blur"",""73"",""436519""
""focus"",""73"",""436761""
","""event"",""trial"",""time""
""blur"",""10"",""129650""
""blur"",""10"",""134789""
""blur"",""47"",""344641""
""blur"",""49"",""350114""
""blur"",""51"",""357061""
""blur"",""57"",""378692""
""blur"",""59"",""384234""
""blur"",""67"",""414616""
""blur"",""71"",""428685""
""blur"",""73"",""434579""
""blur"",""73"",""436519""
","""event"",""trial"",""time""
""focus"",""0"",""0""
""focus"",""10"",""133257""
""focus"",""10"",""135466""
""focus"",""49"",""349670""
""focus"",""51"",""356383""
""focus"",""51"",""359696""
""focus"",""57"",""380145""
""focus"",""59"",""384816""
""focus"",""67"",""417487""
""focus"",""71"",""431426""
""focus"",""73"",""436144""
""focus"",""73"",""436761""
","""event"",""trial"",""time""
""fullscreenenter"",""0"",""11126""
","
","null","","","","","","","","null","1,1,0"
"","html-keyboard-response","74","440287","0.0-49.0-0.0","""event"",""trial"",""time""
""focus"",""0"",""0""
""fullscreenenter"",""0"",""11126""
""blur"",""10"",""129650""
""focus"",""10"",""133257""
""blur"",""10"",""134789""
""focus"",""10"",""135466""
""blur"",""47"",""344641""
""focus"",""49"",""349670""
""blur"",""49"",""350114""
""focus"",""51"",""356383""
""blur"",""51"",""357061""
""focus"",""51"",""359696""
""blur"",""57"",""378692""
""focus"",""57"",""380145""
""blur"",""59"",""384234""
""focus"",""59"",""384816""
""blur"",""67"",""414616""
""focus"",""67"",""417487""
""blur"",""71"",""428685""
""focus"",""71"",""431426""
""blur"",""73"",""434579""
""focus"",""73"",""436144""
""blur"",""73"",""436519""
""focus"",""73"",""436761""
""blur"",""75"",""442122""
""focus"",""75"",""442652""
","""event"",""trial"",""time""
""blur"",""10"",""129650""
""blur"",""10"",""134789""
""blur"",""47"",""344641""
""blur"",""49"",""350114""
""blur"",""51"",""357061""
""blur"",""57"",""378692""
""blur"",""59"",""384234""
""blur"",""67"",""414616""
""blur"",""71"",""428685""
""blur"",""73"",""434579""
""blur"",""73"",""436519""
""blur"",""75"",""442122""
","""event"",""trial"",""time""
""focus"",""0"",""0""
""focus"",""10"",""133257""
""focus"",""10"",""135466""
""focus"",""49"",""349670""
""focus"",""51"",""356383""
""focus"",""51"",""359696""
""focus"",""57"",""380145""
""focus"",""59"",""384816""
""focus"",""67"",""417487""
""focus"",""71"",""431426""
""focus"",""73"",""436144""
""focus"",""73"",""436761""
""focus"",""75"",""442652""
","""event"",""trial"",""time""
""fullscreenenter"",""0"",""11126""
","
","null","<p></p>","null","","","","","","",""
"","do_trial","75","446312","0.0-49.0-1.0","""event"",""trial"",""time""
""focus"",""0"",""0""
""fullscreenenter"",""0"",""11126""
""blur"",""10"",""129650""
""focus"",""10"",""133257""
""blur"",""10"",""134789""
""focus"",""10"",""135466""
""blur"",""47"",""344641""
""focus"",""49"",""349670""
""blur"",""49"",""350114""
""focus"",""51"",""356383""
""blur"",""51"",""357061""
""focus"",""51"",""359696""
""blur"",""57"",""378692""
""focus"",""57"",""380145""
""blur"",""59"",""384234""
""focus"",""59"",""384816""
""blur"",""67"",""414616""
""focus"",""67"",""417487""
""blur"",""71"",""428685""
""focus"",""71"",""431426""
""blur"",""73"",""434579""
""focus"",""73"",""436144""
""blur"",""73"",""436519""
""focus"",""73"",""436761""
""blur"",""75"",""442122""
""focus"",""75"",""442652""
","""event"",""trial"",""time""
""blur"",""10"",""129650""
""blur"",""10"",""134789""
""blur"",""47"",""344641""
""blur"",""49"",""350114""
""blur"",""51"",""357061""
""blur"",""57"",""378692""
""blur"",""59"",""384234""
""blur"",""67"",""414616""
""blur"",""71"",""428685""
""blur"",""73"",""434579""
""blur"",""73"",""436519""
""blur"",""75"",""442122""
","""event"",""trial"",""time""
""focus"",""0"",""0""
""focus"",""10"",""133257""
""focus"",""10"",""135466""
""focus"",""49"",""349670""
""focus"",""51"",""356383""
""focus"",""51"",""359696""
""focus"",""57"",""380145""
""focus"",""59"",""384816""
""focus"",""67"",""417487""
""focus"",""71"",""431426""
""focus"",""73"",""436144""
""focus"",""73"",""436761""
""focus"",""75"",""442652""
","""event"",""trial"",""time""
""fullscreenenter"",""0"",""11126""
","
","null","","","","","","","","null","1,1,0"
"","html-keyboard-response","76","447327","0.0-50.0-0.0","""event"",""trial"",""time""
""focus"",""0"",""0""
""fullscreenenter"",""0"",""11126""
""blur"",""10"",""129650""
""focus"",""10"",""133257""
""blur"",""10"",""134789""
""focus"",""10"",""135466""
""blur"",""47"",""344641""
""focus"",""49"",""349670""
""blur"",""49"",""350114""
""focus"",""51"",""356383""
""blur"",""51"",""357061""
""focus"",""51"",""359696""
""blur"",""57"",""378692""
""focus"",""57"",""380145""
""blur"",""59"",""384234""
""focus"",""59"",""384816""
""blur"",""67"",""414616""
""focus"",""67"",""417487""
""blur"",""71"",""428685""
""focus"",""71"",""431426""
""blur"",""73"",""434579""
""focus"",""73"",""436144""
""blur"",""73"",""436519""
""focus"",""73"",""436761""
""blur"",""75"",""442122""
""focus"",""75"",""442652""
""blur"",""77"",""448649""
""focus"",""77"",""450508""
","""event"",""trial"",""time""
""blur"",""10"",""129650""
""blur"",""10"",""134789""
""blur"",""47"",""344641""
""blur"",""49"",""350114""
""blur"",""51"",""357061""
""blur"",""57"",""378692""
""blur"",""59"",""384234""
""blur"",""67"",""414616""
""blur"",""71"",""428685""
""blur"",""73"",""434579""
""blur"",""73"",""436519""
""blur"",""75"",""442122""
""blur"",""77"",""448649""
","""event"",""trial"",""time""
""focus"",""0"",""0""
""focus"",""10"",""133257""
""focus"",""10"",""135466""
""focus"",""49"",""349670""
""focus"",""51"",""356383""
""focus"",""51"",""359696""
""focus"",""57"",""380145""
""focus"",""59"",""384816""
""focus"",""67"",""417487""
""focus"",""71"",""431426""
""focus"",""73"",""436144""
""focus"",""73"",""436761""
""focus"",""75"",""442652""
""focus"",""77"",""450508""
","""event"",""trial"",""time""
""fullscreenenter"",""0"",""11126""
","
","null","<p></p>","null","","","","","","",""
"","do_trial","77","453361","0.0-50.0-1.0","""event"",""trial"",""time""
""focus"",""0"",""0""
""fullscreenenter"",""0"",""11126""
""blur"",""10"",""129650""
""focus"",""10"",""133257""
""blur"",""10"",""134789""
""focus"",""10"",""135466""
""blur"",""47"",""344641""
""focus"",""49"",""349670""
""blur"",""49"",""350114""
""focus"",""51"",""356383""
""blur"",""51"",""357061""
""focus"",""51"",""359696""
""blur"",""57"",""378692""
""focus"",""57"",""380145""
""blur"",""59"",""384234""
""focus"",""59"",""384816""
""blur"",""67"",""414616""
""focus"",""67"",""417487""
""blur"",""71"",""428685""
""focus"",""71"",""431426""
""blur"",""73"",""434579""
""focus"",""73"",""436144""
""blur"",""73"",""436519""
""focus"",""73"",""436761""
""blur"",""75"",""442122""
""focus"",""75"",""442652""
""blur"",""77"",""448649""
""focus"",""77"",""450508""
","""event"",""trial"",""time""
""blur"",""10"",""129650""
""blur"",""10"",""134789""
""blur"",""47"",""344641""
""blur"",""49"",""350114""
""blur"",""51"",""357061""
""blur"",""57"",""378692""
""blur"",""59"",""384234""
""blur"",""67"",""414616""
""blur"",""71"",""428685""
""blur"",""73"",""434579""
""blur"",""73"",""436519""
""blur"",""75"",""442122""
""blur"",""77"",""448649""
","""event"",""trial"",""time""
""focus"",""0"",""0""
""focus"",""10"",""133257""
""focus"",""10"",""135466""
""focus"",""49"",""349670""
""focus"",""51"",""356383""
""focus"",""51"",""359696""
""focus"",""57"",""380145""
""focus"",""59"",""384816""
""focus"",""67"",""417487""
""focus"",""71"",""431426""
""focus"",""73"",""436144""
""focus"",""73"",""436761""
""focus"",""75"",""442652""
""focus"",""77"",""450508""
","""event"",""trial"",""time""
""fullscreenenter"",""0"",""11126""
","
","null","","","","","","","","null","1,1,0"
"","html-keyboard-response","78","454365","0.0-51.0-0.0","""event"",""trial"",""time""
""focus"",""0"",""0""
""fullscreenenter"",""0"",""11126""
""blur"",""10"",""129650""
""focus"",""10"",""133257""
""blur"",""10"",""134789""
""focus"",""10"",""135466""
""blur"",""47"",""344641""
""focus"",""49"",""349670""
""blur"",""49"",""350114""
""focus"",""51"",""356383""
""blur"",""51"",""357061""
""focus"",""51"",""359696""
""blur"",""57"",""378692""
""focus"",""57"",""380145""
""blur"",""59"",""384234""
""focus"",""59"",""384816""
""blur"",""67"",""414616""
""focus"",""67"",""417487""
""blur"",""71"",""428685""
""focus"",""71"",""431426""
""blur"",""73"",""434579""
""focus"",""73"",""436144""
""blur"",""73"",""436519""
""focus"",""73"",""436761""
""blur"",""75"",""442122""
""focus"",""75"",""442652""
""blur"",""77"",""448649""
""focus"",""77"",""450508""
""blur"",""79"",""454992""
""focus"",""79"",""456074""
""blur"",""79"",""456148""
","""event"",""trial"",""time""
""blur"",""10"",""129650""
""blur"",""10"",""134789""
""blur"",""47"",""344641""
""blur"",""49"",""350114""
""blur"",""51"",""357061""
""blur"",""57"",""378692""
""blur"",""59"",""384234""
""blur"",""67"",""414616""
""blur"",""71"",""428685""
""blur"",""73"",""434579""
""blur"",""73"",""436519""
""blur"",""75"",""442122""
""blur"",""77"",""448649""
""blur"",""79"",""454992""
""blur"",""79"",""456148""
","""event"",""trial"",""time""
""focus"",""0"",""0""
""focus"",""10"",""133257""
""focus"",""10"",""135466""
""focus"",""49"",""349670""
""focus"",""51"",""356383""
""focus"",""51"",""359696""
""focus"",""57"",""380145""
""focus"",""59"",""384816""
""focus"",""67"",""417487""
""focus"",""71"",""431426""
""focus"",""73"",""436144""
""focus"",""73"",""436761""
""focus"",""75"",""442652""
""focus"",""77"",""450508""
""focus"",""79"",""456074""
","""event"",""trial"",""time""
""fullscreenenter"",""0"",""11126""
","
","null","<p></p>","null","","","","","","",""
"","do_trial","79","460386","0.0-51.0-1.0","""event"",""trial"",""time""
""focus"",""0"",""0""
""fullscreenenter"",""0"",""11126""
""blur"",""10"",""129650""
""focus"",""10"",""133257""
""blur"",""10"",""134789""
""focus"",""10"",""135466""
""blur"",""47"",""344641""
""focus"",""49"",""349670""
""blur"",""49"",""350114""
""focus"",""51"",""356383""
""blur"",""51"",""357061""
""focus"",""51"",""359696""
""blur"",""57"",""378692""
""focus"",""57"",""380145""
""blur"",""59"",""384234""
""focus"",""59"",""384816""
""blur"",""67"",""414616""
""focus"",""67"",""417487""
""blur"",""71"",""428685""
""focus"",""71"",""431426""
""blur"",""73"",""434579""
""focus"",""73"",""436144""
""blur"",""73"",""436519""
""focus"",""73"",""436761""
""blur"",""75"",""442122""
""focus"",""75"",""442652""
""blur"",""77"",""448649""
""focus"",""77"",""450508""
""blur"",""79"",""454992""
""focus"",""79"",""456074""
""blur"",""79"",""456148""
""focus"",""80"",""460505""
","""event"",""trial"",""time""
""blur"",""10"",""129650""
""blur"",""10"",""134789""
""blur"",""47"",""344641""
""blur"",""49"",""350114""
""blur"",""51"",""357061""
""blur"",""57"",""378692""
""blur"",""59"",""384234""
""blur"",""67"",""414616""
""blur"",""71"",""428685""
""blur"",""73"",""434579""
""blur"",""73"",""436519""
""blur"",""75"",""442122""
""blur"",""77"",""448649""
""blur"",""79"",""454992""
""blur"",""79"",""456148""
","""event"",""trial"",""time""
""focus"",""0"",""0""
""focus"",""10"",""133257""
""focus"",""10"",""135466""
""focus"",""49"",""349670""
""focus"",""51"",""356383""
""focus"",""51"",""359696""
""focus"",""57"",""380145""
""focus"",""59"",""384816""
""focus"",""67"",""417487""
""focus"",""71"",""431426""
""focus"",""73"",""436144""
""focus"",""73"",""436761""
""focus"",""75"",""442652""
""focus"",""77"",""450508""
""focus"",""79"",""456074""
""focus"",""80"",""460505""
","""event"",""trial"",""time""
""fullscreenenter"",""0"",""11126""
","
","null","","","","","","","","null","1,1,0"
"","html-keyboard-response","80","461389","0.0-52.0-0.0","""event"",""trial"",""time""
""focus"",""0"",""0""
""fullscreenenter"",""0"",""11126""
""blur"",""10"",""129650""
""focus"",""10"",""133257""
""blur"",""10"",""134789""
""focus"",""10"",""135466""
""blur"",""47"",""344641""
""focus"",""49"",""349670""
""blur"",""49"",""350114""
""focus"",""51"",""356383""
""blur"",""51"",""357061""
""focus"",""51"",""359696""
""blur"",""57"",""378692""
""focus"",""57"",""380145""
""blur"",""59"",""384234""
""focus"",""59"",""384816""
""blur"",""67"",""414616""
""focus"",""67"",""417487""
""blur"",""71"",""428685""
""focus"",""71"",""431426""
""blur"",""73"",""434579""
""focus"",""73"",""436144""
""blur"",""73"",""436519""
""focus"",""73"",""436761""
""blur"",""75"",""442122""
""focus"",""75"",""442652""
""blur"",""77"",""448649""
""focus"",""77"",""450508""
""blur"",""79"",""454992""
""focus"",""79"",""456074""
""blur"",""79"",""456148""
""focus"",""80"",""460505""
""blur"",""81"",""463279""
""focus"",""81"",""463400""
""blur"",""81"",""464014""
","""event"",""trial"",""time""
""blur"",""10"",""129650""
""blur"",""10"",""134789""
""blur"",""47"",""344641""
""blur"",""49"",""350114""
""blur"",""51"",""357061""
""blur"",""57"",""378692""
""blur"",""59"",""384234""
""blur"",""67"",""414616""
""blur"",""71"",""428685""
""blur"",""73"",""434579""
""blur"",""73"",""436519""
""blur"",""75"",""442122""
""blur"",""77"",""448649""
""blur"",""79"",""454992""
""blur"",""79"",""456148""
""blur"",""81"",""463279""
""blur"",""81"",""464014""
","""event"",""trial"",""time""
""focus"",""0"",""0""
""focus"",""10"",""133257""
""focus"",""10"",""135466""
""focus"",""49"",""349670""
""focus"",""51"",""356383""
""focus"",""51"",""359696""
""focus"",""57"",""380145""
""focus"",""59"",""384816""
""focus"",""67"",""417487""
""focus"",""71"",""431426""
""focus"",""73"",""436144""
""focus"",""73"",""436761""
""focus"",""75"",""442652""
""focus"",""77"",""450508""
""focus"",""79"",""456074""
""focus"",""80"",""460505""
""focus"",""81"",""463400""
","""event"",""trial"",""time""
""fullscreenenter"",""0"",""11126""
","
","null","<p></p>","null","","","","","","",""
"","do_trial","81","467419","0.0-52.0-1.0","""event"",""trial"",""time""
""focus"",""0"",""0""
""fullscreenenter"",""0"",""11126""
""blur"",""10"",""129650""
""focus"",""10"",""133257""
""blur"",""10"",""134789""
""focus"",""10"",""135466""
""blur"",""47"",""344641""
""focus"",""49"",""349670""
""blur"",""49"",""350114""
""focus"",""51"",""356383""
""blur"",""51"",""357061""
""focus"",""51"",""359696""
""blur"",""57"",""378692""
""focus"",""57"",""380145""
""blur"",""59"",""384234""
""focus"",""59"",""384816""
""blur"",""67"",""414616""
""focus"",""67"",""417487""
""blur"",""71"",""428685""
""focus"",""71"",""431426""
""blur"",""73"",""434579""
""focus"",""73"",""436144""
""blur"",""73"",""436519""
""focus"",""73"",""436761""
""blur"",""75"",""442122""
""focus"",""75"",""442652""
""blur"",""77"",""448649""
""focus"",""77"",""450508""
""blur"",""79"",""454992""
""focus"",""79"",""456074""
""blur"",""79"",""456148""
""focus"",""80"",""460505""
""blur"",""81"",""463279""
""focus"",""81"",""463400""
""blur"",""81"",""464014""
","""event"",""trial"",""time""
""blur"",""10"",""129650""
""blur"",""10"",""134789""
""blur"",""47"",""344641""
""blur"",""49"",""350114""
""blur"",""51"",""357061""
""blur"",""57"",""378692""
""blur"",""59"",""384234""
""blur"",""67"",""414616""
""blur"",""71"",""428685""
""blur"",""73"",""434579""
""blur"",""73"",""436519""
""blur"",""75"",""442122""
""blur"",""77"",""448649""
""blur"",""79"",""454992""
""blur"",""79"",""456148""
""blur"",""81"",""463279""
""blur"",""81"",""464014""
","""event"",""trial"",""time""
""focus"",""0"",""0""
""focus"",""10"",""133257""
""focus"",""10"",""135466""
""focus"",""49"",""349670""
""focus"",""51"",""356383""
""focus"",""51"",""359696""
""focus"",""57"",""380145""
""focus"",""59"",""384816""
""focus"",""67"",""417487""
""focus"",""71"",""431426""
""focus"",""73"",""436144""
""focus"",""73"",""436761""
""focus"",""75"",""442652""
""focus"",""77"",""450508""
""focus"",""79"",""456074""
""focus"",""80"",""460505""
""focus"",""81"",""463400""
","""event"",""trial"",""time""
""fullscreenenter"",""0"",""11126""
","
","null","","","","","","","","null","1,1,0"
"","html-keyboard-response","82","468423","0.0-53.0-0.0","""event"",""trial"",""time""
""focus"",""0"",""0""
""fullscreenenter"",""0"",""11126""
""blur"",""10"",""129650""
""focus"",""10"",""133257""
""blur"",""10"",""134789""
""focus"",""10"",""135466""
""blur"",""47"",""344641""
""focus"",""49"",""349670""
""blur"",""49"",""350114""
""focus"",""51"",""356383""
""blur"",""51"",""357061""
""focus"",""51"",""359696""
""blur"",""57"",""378692""
""focus"",""57"",""380145""
""blur"",""59"",""384234""
""focus"",""59"",""384816""
""blur"",""67"",""414616""
""focus"",""67"",""417487""
""blur"",""71"",""428685""
""focus"",""71"",""431426""
""blur"",""73"",""434579""
""focus"",""73"",""436144""
""blur"",""73"",""436519""
""focus"",""73"",""436761""
""blur"",""75"",""442122""
""focus"",""75"",""442652""
""blur"",""77"",""448649""
""focus"",""77"",""450508""
""blur"",""79"",""454992""
""focus"",""79"",""456074""
""blur"",""79"",""456148""
""focus"",""80"",""460505""
""blur"",""81"",""463279""
""focus"",""81"",""463400""
""blur"",""81"",""464014""
""focus"",""83"",""468994""
""blur"",""83"",""469431""
""focus"",""83"",""472146""
""blur"",""83"",""473313""
","""event"",""trial"",""time""
""blur"",""10"",""129650""
""blur"",""10"",""134789""
""blur"",""47"",""344641""
""blur"",""49"",""350114""
""blur"",""51"",""357061""
""blur"",""57"",""378692""
""blur"",""59"",""384234""
""blur"",""67"",""414616""
""blur"",""71"",""428685""
""blur"",""73"",""434579""
""blur"",""73"",""436519""
""blur"",""75"",""442122""
""blur"",""77"",""448649""
""blur"",""79"",""454992""
""blur"",""79"",""456148""
""blur"",""81"",""463279""
""blur"",""81"",""464014""
""blur"",""83"",""469431""
""blur"",""83"",""473313""
","""event"",""trial"",""time""
""focus"",""0"",""0""
""focus"",""10"",""133257""
""focus"",""10"",""135466""
""focus"",""49"",""349670""
""focus"",""51"",""356383""
""focus"",""51"",""359696""
""focus"",""57"",""380145""
""focus"",""59"",""384816""
""focus"",""67"",""417487""
""focus"",""71"",""431426""
""focus"",""73"",""436144""
""focus"",""73"",""436761""
""focus"",""75"",""442652""
""focus"",""77"",""450508""
""focus"",""79"",""456074""
""focus"",""80"",""460505""
""focus"",""81"",""463400""
""focus"",""83"",""468994""
""focus"",""83"",""472146""
","""event"",""trial"",""time""
""fullscreenenter"",""0"",""11126""
","
","null","<p></p>","null","","","","","","",""
"","do_trial","83","474455","0.0-53.0-1.0","""event"",""trial"",""time""
""focus"",""0"",""0""
""fullscreenenter"",""0"",""11126""
""blur"",""10"",""129650""
""focus"",""10"",""133257""
""blur"",""10"",""134789""
""focus"",""10"",""135466""
""blur"",""47"",""344641""
""focus"",""49"",""349670""
""blur"",""49"",""350114""
""focus"",""51"",""356383""
""blur"",""51"",""357061""
""focus"",""51"",""359696""
""blur"",""57"",""378692""
""focus"",""57"",""380145""
""blur"",""59"",""384234""
""focus"",""59"",""384816""
""blur"",""67"",""414616""
""focus"",""67"",""417487""
""blur"",""71"",""428685""
""focus"",""71"",""431426""
""blur"",""73"",""434579""
""focus"",""73"",""436144""
""blur"",""73"",""436519""
""focus"",""73"",""436761""
""blur"",""75"",""442122""
""focus"",""75"",""442652""
""blur"",""77"",""448649""
""focus"",""77"",""450508""
""blur"",""79"",""454992""
""focus"",""79"",""456074""
""blur"",""79"",""456148""
""focus"",""80"",""460505""
""blur"",""81"",""463279""
""focus"",""81"",""463400""
""blur"",""81"",""464014""
""focus"",""83"",""468994""
""blur"",""83"",""469431""
""focus"",""83"",""472146""
""blur"",""83"",""473313""
","""event"",""trial"",""time""
""blur"",""10"",""129650""
""blur"",""10"",""134789""
""blur"",""47"",""344641""
""blur"",""49"",""350114""
""blur"",""51"",""357061""
""blur"",""57"",""378692""
""blur"",""59"",""384234""
""blur"",""67"",""414616""
""blur"",""71"",""428685""
""blur"",""73"",""434579""
""blur"",""73"",""436519""
""blur"",""75"",""442122""
""blur"",""77"",""448649""
""blur"",""79"",""454992""
""blur"",""79"",""456148""
""blur"",""81"",""463279""
""blur"",""81"",""464014""
""blur"",""83"",""469431""
""blur"",""83"",""473313""
","""event"",""trial"",""time""
""focus"",""0"",""0""
""focus"",""10"",""133257""
""focus"",""10"",""135466""
""focus"",""49"",""349670""
""focus"",""51"",""356383""
""focus"",""51"",""359696""
""focus"",""57"",""380145""
""focus"",""59"",""384816""
""focus"",""67"",""417487""
""focus"",""71"",""431426""
""focus"",""73"",""436144""
""focus"",""73"",""436761""
""focus"",""75"",""442652""
""focus"",""77"",""450508""
""focus"",""79"",""456074""
""focus"",""80"",""460505""
""focus"",""81"",""463400""
""focus"",""83"",""468994""
""focus"",""83"",""472146""
","""event"",""trial"",""time""
""fullscreenenter"",""0"",""11126""
","
","null","","","","","","","","null","1,1,0"
"","html-keyboard-response","84","475468","0.0-54.0-0.0","""event"",""trial"",""time""
""focus"",""0"",""0""
""fullscreenenter"",""0"",""11126""
""blur"",""10"",""129650""
""focus"",""10"",""133257""
""blur"",""10"",""134789""
""focus"",""10"",""135466""
""blur"",""47"",""344641""
""focus"",""49"",""349670""
""blur"",""49"",""350114""
""focus"",""51"",""356383""
""blur"",""51"",""357061""
""focus"",""51"",""359696""
""blur"",""57"",""378692""
""focus"",""57"",""380145""
""blur"",""59"",""384234""
""focus"",""59"",""384816""
""blur"",""67"",""414616""
""focus"",""67"",""417487""
""blur"",""71"",""428685""
""focus"",""71"",""431426""
""blur"",""73"",""434579""
""focus"",""73"",""436144""
""blur"",""73"",""436519""
""focus"",""73"",""436761""
""blur"",""75"",""442122""
""focus"",""75"",""442652""
""blur"",""77"",""448649""
""focus"",""77"",""450508""
""blur"",""79"",""454992""
""focus"",""79"",""456074""
""blur"",""79"",""456148""
""focus"",""80"",""460505""
""blur"",""81"",""463279""
""focus"",""81"",""463400""
""blur"",""81"",""464014""
""focus"",""83"",""468994""
""blur"",""83"",""469431""
""focus"",""83"",""472146""
""blur"",""83"",""473313""
""focus"",""85"",""476050""
""blur"",""85"",""477512""
""focus"",""85"",""480762""
","""event"",""trial"",""time""
""blur"",""10"",""129650""
""blur"",""10"",""134789""
""blur"",""47"",""344641""
""blur"",""49"",""350114""
""blur"",""51"",""357061""
""blur"",""57"",""378692""
""blur"",""59"",""384234""
""blur"",""67"",""414616""
""blur"",""71"",""428685""
""blur"",""73"",""434579""
""blur"",""73"",""436519""
""blur"",""75"",""442122""
""blur"",""77"",""448649""
""blur"",""79"",""454992""
""blur"",""79"",""456148""
""blur"",""81"",""463279""
""blur"",""81"",""464014""
""blur"",""83"",""469431""
""blur"",""83"",""473313""
""blur"",""85"",""477512""
","""event"",""trial"",""time""
""focus"",""0"",""0""
""focus"",""10"",""133257""
""focus"",""10"",""135466""
""focus"",""49"",""349670""
""focus"",""51"",""356383""
""focus"",""51"",""359696""
""focus"",""57"",""380145""
""focus"",""59"",""384816""
""focus"",""67"",""417487""
""focus"",""71"",""431426""
""focus"",""73"",""436144""
""focus"",""73"",""436761""
""focus"",""75"",""442652""
""focus"",""77"",""450508""
""focus"",""79"",""456074""
""focus"",""80"",""460505""
""focus"",""81"",""463400""
""focus"",""83"",""468994""
""focus"",""83"",""472146""
""focus"",""85"",""476050""
""focus"",""85"",""480762""
","""event"",""trial"",""time""
""fullscreenenter"",""0"",""11126""
","
","null","<p></p>","null","","","","","","",""
"","do_trial","85","481490","0.0-54.0-1.0","""event"",""trial"",""time""
""focus"",""0"",""0""
""fullscreenenter"",""0"",""11126""
""blur"",""10"",""129650""
""focus"",""10"",""133257""
""blur"",""10"",""134789""
""focus"",""10"",""135466""
""blur"",""47"",""344641""
""focus"",""49"",""349670""
""blur"",""49"",""350114""
""focus"",""51"",""356383""
""blur"",""51"",""357061""
""focus"",""51"",""359696""
""blur"",""57"",""378692""
""focus"",""57"",""380145""
""blur"",""59"",""384234""
""focus"",""59"",""384816""
""blur"",""67"",""414616""
""focus"",""67"",""417487""
""blur"",""71"",""428685""
""focus"",""71"",""431426""
""blur"",""73"",""434579""
""focus"",""73"",""436144""
""blur"",""73"",""436519""
""focus"",""73"",""436761""
""blur"",""75"",""442122""
""focus"",""75"",""442652""
""blur"",""77"",""448649""
""focus"",""77"",""450508""
""blur"",""79"",""454992""
""focus"",""79"",""456074""
""blur"",""79"",""456148""
""focus"",""80"",""460505""
""blur"",""81"",""463279""
""focus"",""81"",""463400""
""blur"",""81"",""464014""
""focus"",""83"",""468994""
""blur"",""83"",""469431""
""focus"",""83"",""472146""
""blur"",""83"",""473313""
""focus"",""85"",""476050""
""blur"",""85"",""477512""
""focus"",""85"",""480762""
","""event"",""trial"",""time""
""blur"",""10"",""129650""
""blur"",""10"",""134789""
""blur"",""47"",""344641""
""blur"",""49"",""350114""
""blur"",""51"",""357061""
""blur"",""57"",""378692""
""blur"",""59"",""384234""
""blur"",""67"",""414616""
""blur"",""71"",""428685""
""blur"",""73"",""434579""
""blur"",""73"",""436519""
""blur"",""75"",""442122""
""blur"",""77"",""448649""
""blur"",""79"",""454992""
""blur"",""79"",""456148""
""blur"",""81"",""463279""
""blur"",""81"",""464014""
""blur"",""83"",""469431""
""blur"",""83"",""473313""
""blur"",""85"",""477512""
","""event"",""trial"",""time""
""focus"",""0"",""0""
""focus"",""10"",""133257""
""focus"",""10"",""135466""
""focus"",""49"",""349670""
""focus"",""51"",""356383""
""focus"",""51"",""359696""
""focus"",""57"",""380145""
""focus"",""59"",""384816""
""focus"",""67"",""417487""
""focus"",""71"",""431426""
""focus"",""73"",""436144""
""focus"",""73"",""436761""
""focus"",""75"",""442652""
""focus"",""77"",""450508""
""focus"",""79"",""456074""
""focus"",""80"",""460505""
""focus"",""81"",""463400""
""focus"",""83"",""468994""
""focus"",""83"",""472146""
""focus"",""85"",""476050""
""focus"",""85"",""480762""
","""event"",""trial"",""time""
""fullscreenenter"",""0"",""11126""
","
","null","","","","","","","","null","1,1,0"
"","html-keyboard-response","86","482502","0.0-55.0-0.0","""event"",""trial"",""time""
""focus"",""0"",""0""
""fullscreenenter"",""0"",""11126""
""blur"",""10"",""129650""
""focus"",""10"",""133257""
""blur"",""10"",""134789""
""focus"",""10"",""135466""
""blur"",""47"",""344641""
""focus"",""49"",""349670""
""blur"",""49"",""350114""
""focus"",""51"",""356383""
""blur"",""51"",""357061""
""focus"",""51"",""359696""
""blur"",""57"",""378692""
""focus"",""57"",""380145""
""blur"",""59"",""384234""
""focus"",""59"",""384816""
""blur"",""67"",""414616""
""focus"",""67"",""417487""
""blur"",""71"",""428685""
""focus"",""71"",""431426""
""blur"",""73"",""434579""
""focus"",""73"",""436144""
""blur"",""73"",""436519""
""focus"",""73"",""436761""
""blur"",""75"",""442122""
""focus"",""75"",""442652""
""blur"",""77"",""448649""
""focus"",""77"",""450508""
""blur"",""79"",""454992""
""focus"",""79"",""456074""
""blur"",""79"",""456148""
""focus"",""80"",""460505""
""blur"",""81"",""463279""
""focus"",""81"",""463400""
""blur"",""81"",""464014""
""focus"",""83"",""468994""
""blur"",""83"",""469431""
""focus"",""83"",""472146""
""blur"",""83"",""473313""
""focus"",""85"",""476050""
""blur"",""85"",""477512""
""focus"",""85"",""480762""
""blur"",""87"",""484212""
""focus"",""87"",""486519""
","""event"",""trial"",""time""
""blur"",""10"",""129650""
""blur"",""10"",""134789""
""blur"",""47"",""344641""
""blur"",""49"",""350114""
""blur"",""51"",""357061""
""blur"",""57"",""378692""
""blur"",""59"",""384234""
""blur"",""67"",""414616""
""blur"",""71"",""428685""
""blur"",""73"",""434579""
""blur"",""73"",""436519""
""blur"",""75"",""442122""
""blur"",""77"",""448649""
""blur"",""79"",""454992""
""blur"",""79"",""456148""
""blur"",""81"",""463279""
""blur"",""81"",""464014""
""blur"",""83"",""469431""
""blur"",""83"",""473313""
""blur"",""85"",""477512""
""blur"",""87"",""484212""
","""event"",""trial"",""time""
""focus"",""0"",""0""
""focus"",""10"",""133257""
""focus"",""10"",""135466""
""focus"",""49"",""349670""
""focus"",""51"",""356383""
""focus"",""51"",""359696""
""focus"",""57"",""380145""
""focus"",""59"",""384816""
""focus"",""67"",""417487""
""focus"",""71"",""431426""
""focus"",""73"",""436144""
""focus"",""73"",""436761""
""focus"",""75"",""442652""
""focus"",""77"",""450508""
""focus"",""79"",""456074""
""focus"",""80"",""460505""
""focus"",""81"",""463400""
""focus"",""83"",""468994""
""focus"",""83"",""472146""
""focus"",""85"",""476050""
""focus"",""85"",""480762""
""focus"",""87"",""486519""
","""event"",""trial"",""time""
""fullscreenenter"",""0"",""11126""
","
","null","<p></p>","null","","","","","","",""
"","do_trial","87","488535","0.0-55.0-1.0","""event"",""trial"",""time""
""focus"",""0"",""0""
""fullscreenenter"",""0"",""11126""
""blur"",""10"",""129650""
""focus"",""10"",""133257""
""blur"",""10"",""134789""
""focus"",""10"",""135466""
""blur"",""47"",""344641""
""focus"",""49"",""349670""
""blur"",""49"",""350114""
""focus"",""51"",""356383""
""blur"",""51"",""357061""
""focus"",""51"",""359696""
""blur"",""57"",""378692""
""focus"",""57"",""380145""
""blur"",""59"",""384234""
""focus"",""59"",""384816""
""blur"",""67"",""414616""
""focus"",""67"",""417487""
""blur"",""71"",""428685""
""focus"",""71"",""431426""
""blur"",""73"",""434579""
""focus"",""73"",""436144""
""blur"",""73"",""436519""
""focus"",""73"",""436761""
""blur"",""75"",""442122""
""focus"",""75"",""442652""
""blur"",""77"",""448649""
""focus"",""77"",""450508""
""blur"",""79"",""454992""
""focus"",""79"",""456074""
""blur"",""79"",""456148""
""focus"",""80"",""460505""
""blur"",""81"",""463279""
""focus"",""81"",""463400""
""blur"",""81"",""464014""
""focus"",""83"",""468994""
""blur"",""83"",""469431""
""focus"",""83"",""472146""
""blur"",""83"",""473313""
""focus"",""85"",""476050""
""blur"",""85"",""477512""
""focus"",""85"",""480762""
""blur"",""87"",""484212""
""focus"",""87"",""486519""
","""event"",""trial"",""time""
""blur"",""10"",""129650""
""blur"",""10"",""134789""
""blur"",""47"",""344641""
""blur"",""49"",""350114""
""blur"",""51"",""357061""
""blur"",""57"",""378692""
""blur"",""59"",""384234""
""blur"",""67"",""414616""
""blur"",""71"",""428685""
""blur"",""73"",""434579""
""blur"",""73"",""436519""
""blur"",""75"",""442122""
""blur"",""77"",""448649""
""blur"",""79"",""454992""
""blur"",""79"",""456148""
""blur"",""81"",""463279""
""blur"",""81"",""464014""
""blur"",""83"",""469431""
""blur"",""83"",""473313""
""blur"",""85"",""477512""
""blur"",""87"",""484212""
","""event"",""trial"",""time""
""focus"",""0"",""0""
""focus"",""10"",""133257""
""focus"",""10"",""135466""
""focus"",""49"",""349670""
""focus"",""51"",""356383""
""focus"",""51"",""359696""
""focus"",""57"",""380145""
""focus"",""59"",""384816""
""focus"",""67"",""417487""
""focus"",""71"",""431426""
""focus"",""73"",""436144""
""focus"",""73"",""436761""
""focus"",""75"",""442652""
""focus"",""77"",""450508""
""focus"",""79"",""456074""
""focus"",""80"",""460505""
""focus"",""81"",""463400""
""focus"",""83"",""468994""
""focus"",""83"",""472146""
""focus"",""85"",""476050""
""focus"",""85"",""480762""
""focus"",""87"",""486519""
","""event"",""trial"",""time""
""fullscreenenter"",""0"",""11126""
","
","null","","","","","","","","null","1,1,0"
"","html-keyboard-response","88","489543","0.0-56.0-0.0","""event"",""trial"",""time""
""focus"",""0"",""0""
""fullscreenenter"",""0"",""11126""
""blur"",""10"",""129650""
""focus"",""10"",""133257""
""blur"",""10"",""134789""
""focus"",""10"",""135466""
""blur"",""47"",""344641""
""focus"",""49"",""349670""
""blur"",""49"",""350114""
""focus"",""51"",""356383""
""blur"",""51"",""357061""
""focus"",""51"",""359696""
""blur"",""57"",""378692""
""focus"",""57"",""380145""
""blur"",""59"",""384234""
""focus"",""59"",""384816""
""blur"",""67"",""414616""
""focus"",""67"",""417487""
""blur"",""71"",""428685""
""focus"",""71"",""431426""
""blur"",""73"",""434579""
""focus"",""73"",""436144""
""blur"",""73"",""436519""
""focus"",""73"",""436761""
""blur"",""75"",""442122""
""focus"",""75"",""442652""
""blur"",""77"",""448649""
""focus"",""77"",""450508""
""blur"",""79"",""454992""
""focus"",""79"",""456074""
""blur"",""79"",""456148""
""focus"",""80"",""460505""
""blur"",""81"",""463279""
""focus"",""81"",""463400""
""blur"",""81"",""464014""
