"success","trial_type","trial_index","time_elapsed","internal_node_id","interactions","blur_events","focus_events","fullscreenenter_events","fullscreenexit_events","rt","stimulus","key_press","subject_id","participant_id","age","gender","prompt","response","choice_outcomes","context_n","context_img_id","trial_n","probe_img_id","pR_red","pR_white","pR_black","outcome","contextArray_ind","validImageProbes","invalidImageProbes","pRew_Red","pRew_White","pRew_Black","availableForMemProbe","choice_blocks"
"true","fullscreen","0","3204","0.0-0.0","""event"",""trial"",""time""
""focus"",""0"",""0""
""fullscreenenter"",""0"",""2541""
","
","""event"",""trial"",""time""
""focus"",""0"",""0""
","""event"",""trial"",""time""
""fullscreenenter"",""0"",""2541""
","
","","","","","","","","","","","","","","","","","","","","","","","","","",""
"","pavlovia","1","3217","0.0-1.0","""event"",""trial"",""time""
""focus"",""0"",""0""
""fullscreenenter"",""0"",""2541""
","
","""event"",""trial"",""time""
""focus"",""0"",""0""
","""event"",""trial"",""time""
""fullscreenenter"",""0"",""2541""
","
","","","","","","","","","","","","","","","","","","","","","","","","","",""
"","instruc1","2","48404","0.0-2.0","""event"",""trial"",""time""
""focus"",""0"",""0""
""fullscreenenter"",""0"",""2541""
","
","""event"",""trial"",""time""
""focus"",""0"",""0""
","""event"",""trial"",""time""
""fullscreenenter"",""0"",""2541""
","
","null","run_exp/static/audio/clip_1_welcome.m4a","null","374","472","24","Female","<div class='center'><p>Welcome! This is the first part of the study. It will last ~30 minutes. In part 1 and part 2 of the study, you are the head captain of a pirate ship traveling around the world to different islands. You will play a few different games throughout these two parts. Here is an overview of them:</p><br><p>Part 1 (today)</p><p>1. Instructions, practice game, and quiz</p><p>2. Pick a pirate game on 6 different islands</p><br><p>Part 2 (tomorrow)</p><p>3. Pick a pirate game and memory game</p><p>4. Where did you see this ship? </p></div>","","","","","","","","","","","","","","","","","",""
"","html-keyboard-response","3","48457","0.0-3.0","""event"",""trial"",""time""
""focus"",""0"",""0""
""fullscreenenter"",""0"",""2541""
","
","""event"",""trial"",""time""
""focus"",""0"",""0""
","""event"",""trial"",""time""
""fullscreenenter"",""0"",""2541""
","
","45","<div class='center'><p>Welcome! This is the first part of the study. It will last ~30 minutes. In part 1 and part 2 of the study, you are the head captain of a pirate ship traveling around the world to different islands. You will play a few different games throughout these two parts. Here is an overview of them:</p><br><p>Part 1 (today)</p><p>1. Instructions, practice game, and quiz</p><p>2. Pick a pirate game on 6 different islands</p><br><p>Part 2 (tomorrow)</p><p>3. Pick a pirate game and memory game</p><p>4. Where did you see this ship? </p><p><b>[Press the space bar to continue]</b></p></div>","32","","","","","","","","","","","","","","","","","","","","","","",""
"","instruc2","4","53807","0.0-4.0","""event"",""trial"",""time""
""focus"",""0"",""0""
""fullscreenenter"",""0"",""2541""
","
","""event"",""trial"",""time""
""focus"",""0"",""0""
","""event"",""trial"",""time""
""fullscreenenter"",""0"",""2541""
","
","null","run_exp/static/audio/clip_2_different_places.m4a","null","","","","","<div class='center'><p>Today, you’ll visit these 6 islands on your journey. You'll be able to see these islands from your ship.</p><p><img src='run_exp/static/images/contexts/all_contexts.png' height='500'></p></div>","","","","","","","","","","","","","","","","","",""
"","html-keyboard-response","5","62162","0.0-5.0","""event"",""trial"",""time""
""focus"",""0"",""0""
""fullscreenenter"",""0"",""2541""
","
","""event"",""trial"",""time""
""focus"",""0"",""0""
","""event"",""trial"",""time""
""fullscreenenter"",""0"",""2541""
","
","8348","<div class='center'><p>Today, you’ll visit these 6 islands on your journey. You'll be able to see these islands from your ship.</p><p><img src='run_exp/static/images/contexts/all_contexts.png' height='500'></p><p><b>[Press the space bar to continue]</b></p></div>","32","","","","","","","","","","","","","","","","","","","","","","",""
"","instruc3","6","71920","0.0-6.0","""event"",""trial"",""time""
""focus"",""0"",""0""
""fullscreenenter"",""0"",""2541""
","
","""event"",""trial"",""time""
""focus"",""0"",""0""
","""event"",""trial"",""time""
""fullscreenenter"",""0"",""2541""
","
","null","run_exp/static/audio/clip_3_goal_of_game_1.m4a","null","","","","","<div class='center'><p> The pirates on your ship will rob other ships as they leave the island.</p> These ships have just sold their goods to the islanders, so they will be filled with lots and lots of gold.</p><p><img src='run_exp/static/images/tutorial/ship_center.png' height='400'></p></div>","","","","","","","","","","","","","","","","","",""
"","html-keyboard-response","7","73176","0.0-7.0","""event"",""trial"",""time""
""focus"",""0"",""0""
""fullscreenenter"",""0"",""2541""
","
","""event"",""trial"",""time""
""focus"",""0"",""0""
","""event"",""trial"",""time""
""fullscreenenter"",""0"",""2541""
","
","1251","<div class='center'><p> The pirates on your ship will rob other ships as they leave the island.</p> These ships have just sold their goods to the islanders, so they will be filled with lots and lots of gold.</p><p><img src='run_exp/static/images/tutorial/ship_center.png' height='400'></p><p><b>[Press the space bar to continue]</b></p></div>","32","","","","","","","","","","","","","","","","","","","","","","",""
"","instruc4","8","101212","0.0-8.0","""event"",""trial"",""time""
""focus"",""0"",""0""
""fullscreenenter"",""0"",""2541""
","
","""event"",""trial"",""time""
""focus"",""0"",""0""
","""event"",""trial"",""time""
""fullscreenenter"",""0"",""2541""
","
","null","run_exp/static/audio/clip_4_goal_of_game_2.m4a","null","","","","","<div class='center'><p>As the head captain, you do not have to rob any ships yourself. Another pirate will be doing the robbing for you. First, you will choose a pirate to rob the next ship.</p><p><img src='run_exp/static/images/tutorial/pirates_all_crop.png' height='200'></p><p>Then, you'll see if the pirate successfully robbed the ship of their gold. If they were successful, then you'll get a stack of gold coins like this:</p><p><img src='run_exp/static/images/tutorial/reward.png' height='150'></p><p> If they were <b>not</b> successful, then you'll get no gold coins, and you'll see a big red x like this: </p><p><img src='run_exp/static/images/tutorial/reward_no.png' height='150'></p><p> How much bonus money you make is based on how many gold coins you collect.</p><div>","","","","","","","","","","","","","","","","","",""
"","html-keyboard-response","9","101887","0.0-9.0","""event"",""trial"",""time""
""focus"",""0"",""0""
""fullscreenenter"",""0"",""2541""
","
","""event"",""trial"",""time""
""focus"",""0"",""0""
","""event"",""trial"",""time""
""fullscreenenter"",""0"",""2541""
","
","664","<div class='center'><p>As the head captain, you do not have to rob any ships yourself. Another pirate will be doing the robbing for you. First, you will choose a pirate to rob the next ship.</p><p><img src='run_exp/static/images/tutorial/pirates_all_crop.png' height='200'></p><p>Then, you'll see if the pirate successfully robbed the ship of their gold. If they were successful, then you'll get a stack of gold coins like this:</p><p><img src='run_exp/static/images/tutorial/reward.png' height='150'></p><p> If they were <b>not</b> successful, then you'll get no gold coins, and you'll see a big red x like this: </p><p><img src='run_exp/static/images/tutorial/reward_no.png' height='150'></p><p> How much bonus money you make is based on how many gold coins you collect.</p<p><b>[Press the space bar to continue]</b></p></div>","32","","","","","","","","","","","","","","","","","","","","","","",""
"","instruc5","10","123180","0.0-10.0","""event"",""trial"",""time""
""focus"",""0"",""0""
""fullscreenenter"",""0"",""2541""
","
","""event"",""trial"",""time""
""focus"",""0"",""0""
","""event"",""trial"",""time""
""fullscreenenter"",""0"",""2541""
","
","21289","run_exp/static/audio/clip_5_probabilistic.m4a","49","","","","","<div class='center'><p>Even the most skilled pirate can not rob EVERY ship.</p><p> Some ships will have very strong protections against pirate attacks.</p><p> Blue beard, here, is very, very good at robbing ships, but he won't be successful every time he tries to rob one.</p><p> You can press the <b>‘1’</b> key on the keyboard to choose him.</p><p> Try choosing him 10 times to see how often he succeeds at robbing a ship. </p><p><img src='run_exp/static/images/tutorial/blue.png' height='500'></p></div>","","","","","","","","","","","","","","","","","",""
"","html-keyboard-response","11","124693","0.0-11.0","""event"",""trial"",""time""
""focus"",""0"",""0""
""fullscreenenter"",""0"",""2541""
","
","""event"",""trial"",""time""
""focus"",""0"",""0""
","""event"",""trial"",""time""
""fullscreenenter"",""0"",""2541""
","
","null","<div class='center'><p><img src='run_exp/static/images/tutorial/blue_win.png' height='500'></p></div>","null","","","","","","","","","","","","","","","","","","","","","","",""
"","html-keyboard-response","12","125593","0.0-12.0","""event"",""trial"",""time""
""focus"",""0"",""0""
""fullscreenenter"",""0"",""2541""
","
","""event"",""trial"",""time""
""focus"",""0"",""0""
","""event"",""trial"",""time""
""fullscreenenter"",""0"",""2541""
","
","898","<div class='center'><img src='run_exp/static/images/tutorial/blue.png' height='500'></p></div>","49","","","","","","","","","","","","","","","","","","","","","","",""
"","html-keyboard-response","13","127101","0.0-13.0","""event"",""trial"",""time""
""focus"",""0"",""0""
""fullscreenenter"",""0"",""2541""
","
","""event"",""trial"",""time""
""focus"",""0"",""0""
","""event"",""trial"",""time""
""fullscreenenter"",""0"",""2541""
","
","null","<div class='center'><p><img src='run_exp/static/images/tutorial/blue_win.png' height='500'></p></div>","null","","","","","","","","","","","","","","","","","","","","","","",""
"","html-keyboard-response","14","127330","0.0-14.0","""event"",""trial"",""time""
""focus"",""0"",""0""
""fullscreenenter"",""0"",""2541""
","
","""event"",""trial"",""time""
""focus"",""0"",""0""
","""event"",""trial"",""time""
""fullscreenenter"",""0"",""2541""
","
","228","<div class='center'><img src='run_exp/static/images/tutorial/blue.png' height='500'></p></div>","49","","","","","","","","","","","","","","","","","","","","","","",""
"","html-keyboard-response","15","128835","0.0-15.0","""event"",""trial"",""time""
""focus"",""0"",""0""
""fullscreenenter"",""0"",""2541""
","
","""event"",""trial"",""time""
""focus"",""0"",""0""
","""event"",""trial"",""time""
""fullscreenenter"",""0"",""2541""
","
","null","<div class='center'><p><img src='run_exp/static/images/tutorial/blue_win.png' height='500'></p></div>","null","","","","","","","","","","","","","","","","","","","","","","",""
"","html-keyboard-response","16","128860","0.0-16.0","""event"",""trial"",""time""
""focus"",""0"",""0""
""fullscreenenter"",""0"",""2541""
","
","""event"",""trial"",""time""
""focus"",""0"",""0""
","""event"",""trial"",""time""
""fullscreenenter"",""0"",""2541""
","
","24","<div class='center'><img src='run_exp/static/images/tutorial/blue.png' height='500'></p></div>","49","","","","","","","","","","","","","","","","","","","","","","",""
"","html-keyboard-response","17","130376","0.0-17.0","""event"",""trial"",""time""
""focus"",""0"",""0""
""fullscreenenter"",""0"",""2541""
","
","""event"",""trial"",""time""
""focus"",""0"",""0""
","""event"",""trial"",""time""
""fullscreenenter"",""0"",""2541""
","
","null","<div class='center'><p><img src='run_exp/static/images/tutorial/blue_no_win.png' height='500'></p></div>","null","","","","","","","","","","","","","","","","","","","","","","",""
"","html-keyboard-response","18","130676","0.0-18.0","""event"",""trial"",""time""
""focus"",""0"",""0""
""fullscreenenter"",""0"",""2541""
","
","""event"",""trial"",""time""
""focus"",""0"",""0""
","""event"",""trial"",""time""
""fullscreenenter"",""0"",""2541""
","
","297","<div class='center'><img src='run_exp/static/images/tutorial/blue.png' height='500'></p></div>","49","","","","","","","","","","","","","","","","","","","","","","",""
"","html-keyboard-response","19","132191","0.0-19.0","""event"",""trial"",""time""
""focus"",""0"",""0""
""fullscreenenter"",""0"",""2541""
","
","""event"",""trial"",""time""
""focus"",""0"",""0""
","""event"",""trial"",""time""
""fullscreenenter"",""0"",""2541""
","
","null","<div class='center'><p><img src='run_exp/static/images/tutorial/blue_win.png' height='500'></p></div>","null","","","","","","","","","","","","","","","","","","","","","","",""
"","html-keyboard-response","20","132707","0.0-20.0","""event"",""trial"",""time""
""focus"",""0"",""0""
""fullscreenenter"",""0"",""2541""
","
","""event"",""trial"",""time""
""focus"",""0"",""0""
","""event"",""trial"",""time""
""fullscreenenter"",""0"",""2541""
","
","515","<div class='center'><img src='run_exp/static/images/tutorial/blue.png' height='500'></p></div>","49","","","","","","","","","","","","","","","","","","","","","","",""
"","html-keyboard-response","21","134222","0.0-21.0","""event"",""trial"",""time""
""focus"",""0"",""0""
""fullscreenenter"",""0"",""2541""
","
","""event"",""trial"",""time""
""focus"",""0"",""0""
","""event"",""trial"",""time""
""fullscreenenter"",""0"",""2541""
","
","null","<div class='center'><p><img src='run_exp/static/images/tutorial/blue_win.png' height='500'></p></div>","null","","","","","","","","","","","","","","","","","","","","","","",""
"","html-keyboard-response","22","134538","0.0-22.0","""event"",""trial"",""time""
""focus"",""0"",""0""
""fullscreenenter"",""0"",""2541""
","
","""event"",""trial"",""time""
""focus"",""0"",""0""
","""event"",""trial"",""time""
""fullscreenenter"",""0"",""2541""
","
","315","<div class='center'><img src='run_exp/static/images/tutorial/blue.png' height='500'></p></div>","49","","","","","","","","","","","","","","","","","","","","","","",""
"","html-keyboard-response","23","136044","0.0-23.0","""event"",""trial"",""time""
""focus"",""0"",""0""
""fullscreenenter"",""0"",""2541""
","
","""event"",""trial"",""time""
""focus"",""0"",""0""
","""event"",""trial"",""time""
""fullscreenenter"",""0"",""2541""
","
","null","<div class='center'><p><img src='run_exp/static/images/tutorial/blue_win.png' height='500'></p></div>","null","","","","","","","","","","","","","","","","","","","","","","",""
"","html-keyboard-response","24","136378","0.0-24.0","""event"",""trial"",""time""
""focus"",""0"",""0""
""fullscreenenter"",""0"",""2541""
","
","""event"",""trial"",""time""
""focus"",""0"",""0""
","""event"",""trial"",""time""
""fullscreenenter"",""0"",""2541""
","
","334","<div class='center'><img src='run_exp/static/images/tutorial/blue.png' height='500'></p></div>","49","","","","","","","","","","","","","","","","","","","","","","",""
"","html-keyboard-response","25","137889","0.0-25.0","""event"",""trial"",""time""
""focus"",""0"",""0""
""fullscreenenter"",""0"",""2541""
","
","""event"",""trial"",""time""
""focus"",""0"",""0""
","""event"",""trial"",""time""
""fullscreenenter"",""0"",""2541""
","
","null","<div class='center'><p><img src='run_exp/static/images/tutorial/blue_no_win.png' height='500'></p></div>","null","","","","","","","","","","","","","","","","","","","","","","",""
"","html-keyboard-response","26","138597","0.0-26.0","""event"",""trial"",""time""
""focus"",""0"",""0""
""fullscreenenter"",""0"",""2541""
","
","""event"",""trial"",""time""
""focus"",""0"",""0""
","""event"",""trial"",""time""
""fullscreenenter"",""0"",""2541""
","
","707","<div class='center'><img src='run_exp/static/images/tutorial/blue.png' height='500'></p></div>","49","","","","","","","","","","","","","","","","","","","","","","",""
"","html-keyboard-response","27","140109","0.0-27.0","""event"",""trial"",""time""
""focus"",""0"",""0""
""fullscreenenter"",""0"",""2541""
","
","""event"",""trial"",""time""
""focus"",""0"",""0""
","""event"",""trial"",""time""
""fullscreenenter"",""0"",""2541""
","
","null","<div class='center'><p><img src='run_exp/static/images/tutorial/blue_win.png' height='500'></p></div>","null","","","","","","","","","","","","","","","","","","","","","","",""
"","html-keyboard-response","28","140416","0.0-28.0","""event"",""trial"",""time""
""focus"",""0"",""0""
""fullscreenenter"",""0"",""2541""
","
","""event"",""trial"",""time""
""focus"",""0"",""0""
","""event"",""trial"",""time""
""fullscreenenter"",""0"",""2541""
","
","306","<div class='center'><img src='run_exp/static/images/tutorial/blue.png' height='500'></p></div>","49","","","","","","","","","","","","","","","","","","","","","","",""
"","html-keyboard-response","29","141922","0.0-29.0","""event"",""trial"",""time""
""focus"",""0"",""0""
""fullscreenenter"",""0"",""2541""
","
","""event"",""trial"",""time""
""focus"",""0"",""0""
","""event"",""trial"",""time""
""fullscreenenter"",""0"",""2541""
","
","null","<div class='center'><p><img src='run_exp/static/images/tutorial/blue_win.png' height='500'></p></div>","null","","","","","","","","","","","","","","","","","","","","","","",""
"","instruc6","30","147361","0.0-30.0","""event"",""trial"",""time""
""focus"",""0"",""0""
""fullscreenenter"",""0"",""2541""
","
","""event"",""trial"",""time""
""focus"",""0"",""0""
","""event"",""trial"",""time""
""fullscreenenter"",""0"",""2541""
","
","null","run_exp/static/audio/clip_6_blue_beard_outcome.m4a","null","","","","","<div class='center'><p> See, he succeeded in robbing the ships most of the time but not every time. </p></div>","","","","","","","","","","","","","","","","","",""
"","html-keyboard-response","31","148019","0.0-31.0","""event"",""trial"",""time""
""focus"",""0"",""0""
""fullscreenenter"",""0"",""2541""
","
","""event"",""trial"",""time""
""focus"",""0"",""0""
","""event"",""trial"",""time""
""fullscreenenter"",""0"",""2541""
","
","656","<div class='center'><p> See, he succeeded in robbing the ships most of the time but not every time. </p><p><b>[Press the space bar to continue]</b></p></div>","32","","","","","","","","","","","","","","","","","","","","","","",""
"","audio-keyboard-response","32","164821","0.0-32.0","""event"",""trial"",""time""
""focus"",""0"",""0""
""fullscreenenter"",""0"",""2541""
","
","""event"",""trial"",""time""
""focus"",""0"",""0""
","""event"",""trial"",""time""
""fullscreenenter"",""0"",""2541""
","
","16800","run_exp/static/audio/clip_7_pick_pirate.m4a","49","","","","","","","","","","","","","","","","","","","","","","",""
"","audio-keyboard-response","33","169460","0.0-33.0-0.0","""event"",""trial"",""time""
""focus"",""0"",""0""
""fullscreenenter"",""0"",""2541""
","
","""event"",""trial"",""time""
""focus"",""0"",""0""
","""event"",""trial"",""time""
""fullscreenenter"",""0"",""2541""
","
","4638","run_exp/static/audio/clip_8_chosen_pirate_win.m4a","32","","","","","","","","","","","","","","","","","","","","","","",""
"","audio-keyboard-response","34","172474","0.0-33.0-1.0","""event"",""trial"",""time""
""focus"",""0"",""0""
""fullscreenenter"",""0"",""2541""
","
","""event"",""trial"",""time""
""focus"",""0"",""0""
","""event"",""trial"",""time""
""fullscreenenter"",""0"",""2541""
","
","3014","run_exp/static/audio/clip_9_pick_a_pirate_again.m4a","50","","","","","","","","","","","","","","","","","","","","","","",""
"","audio-keyboard-response","35","177196","0.0-34.0-0.0","""event"",""trial"",""time""
""focus"",""0"",""0""
""fullscreenenter"",""0"",""2541""
","
","""event"",""trial"",""time""
""focus"",""0"",""0""
","""event"",""trial"",""time""
""fullscreenenter"",""0"",""2541""
","
","4717","run_exp/static/audio/clip_10_chosen_pirate_loss.m4a","32","","","","","","","","","","","","","","","","","","","","","","",""
"","instruc9","36","182741","0.0-35.0-0.0","""event"",""trial"",""time""
""focus"",""0"",""0""
""fullscreenenter"",""0"",""2541""
","
","""event"",""trial"",""time""
""focus"",""0"",""0""
","""event"",""trial"",""time""
""fullscreenenter"",""0"",""2541""
","
","null","run_exp/static/audio/clip_11_time_out.m4a","null","","","","","<div class='center'><p>If you don’t make your choice fast enough, you’ll have to wait a few seconds before you can make another one. </p><p><img src='run_exp/static/images/miscellaneous/hurry_up.png' height='500'></p></div>","","","","","","","","","","","","","","","","","",""
"","html-keyboard-response","37","183446","0.0-35.0-1.0","""event"",""trial"",""time""
""focus"",""0"",""0""
""fullscreenenter"",""0"",""2541""
","
","""event"",""trial"",""time""
""focus"",""0"",""0""
","""event"",""trial"",""time""
""fullscreenenter"",""0"",""2541""
","
","702","<div class='center'><p>If you don’t make your choice fast enough, you’ll have to wait a few seconds before you can make another one. </p><p><img src='run_exp/static/images/miscellaneous/hurry_up.png' height='500'></p><p><b>[Press the space bar to continue]</b></p></div>","32","","","","","","","","","","","","","","","","","","","","","","",""
"","instruc10","38","222598","0.0-35.0-2.0","""event"",""trial"",""time""
""focus"",""0"",""0""
""fullscreenenter"",""0"",""2541""
","
","""event"",""trial"",""time""
""focus"",""0"",""0""
","""event"",""trial"",""time""
""fullscreenenter"",""0"",""2541""
","
","null","run_exp/static/audio/clip_12_probe.m4a","null","","","","","<div class='center'><p>Once you've chosen a pirate, you’ll be shown the ship they are robbing. You will never rob the same ship twice. Ships can be told apart from one another by the image on them. These are the goods that they sell. See, this ship has a travel mug on it. </p><p> You’ll have to remember which island you saw each ship on. You will win more gold coins and hence more bonus money if you remember correctly! To help you remember, you can imagine a story. For example, here, you could imagine a mug full of water in the desert. Or, as another example, if on the forest island, your pirate robbed a ship with an apple on it, you could imagine an apple falling from a tree in the forest. </p><p><img src='run_exp/static/images/tutorial/example_probe.png' height='500'></p></div>","","","","","","","","","","","","","","","","","",""
"","html-keyboard-response","39","223693","0.0-35.0-3.0","""event"",""trial"",""time""
""focus"",""0"",""0""
""fullscreenenter"",""0"",""2541""
","
","""event"",""trial"",""time""
""focus"",""0"",""0""
","""event"",""trial"",""time""
""fullscreenenter"",""0"",""2541""
","
","1090","<div class='center'><p>Once you've chosen a pirate, you’ll be shown the ship they are robbing. You will never rob the same ship twice. Ships can be told apart from one another by the image on them. These are the goods that they sell. See, this ship has a travel mug on it. </p><p> You’ll have to remember which island you saw each ship on. You will win more gold coins and hence more bonus money if you remember correctly! To help you remember, you can imagine a story. For example, here, you could imagine a mug full of water in the desert. Or, as another example, if on the forest island, your pirate robbed a ship with an apple on it, you could imagine an apple falling from a tree in the forest. </p><p><img src='run_exp/static/images/tutorial/example_probe.png' height='500'></p><p><b>[Press the space bar to continue]</b></p></div>","32","","","","","","","","","","","","","","","","","","","","","","",""
"","instruc11","40","240241","0.0-35.0-4.0","""event"",""trial"",""time""
""focus"",""0"",""0""
""fullscreenenter"",""0"",""2541""
","
","""event"",""trial"",""time""
""focus"",""0"",""0""
","""event"",""trial"",""time""
""fullscreenenter"",""0"",""2541""
","
","null","run_exp/static/audio/clip_13_changepoint.m4a","null","","","","","<div class='center'><p>How successful a pirate is at robbing ships will depend on the island you’re on.</p><p> A pirate may have visited this island many times before and gained a lot of practice robbing ships there.</p><p>So, they’re more likely to be successful than a pirate who has never visited the island before.</p></div>","","","","","","","","","","","","","","","","","",""
"","html-keyboard-response","41","240835","0.0-35.0-5.0","""event"",""trial"",""time""
""focus"",""0"",""0""
""fullscreenenter"",""0"",""2541""
","
","""event"",""trial"",""time""
""focus"",""0"",""0""
","""event"",""trial"",""time""
""fullscreenenter"",""0"",""2541""
","
","591","<div class='center'><p>How successful a pirate is at robbing ships will depend on the island you’re on.</p><p> A pirate may have visited this island many times before and gained a lot of practice robbing ships there.</p><p>So, they’re more likely to be successful than a pirate who has never visited the island before.</p><p><b>[Press the space bar to continue]</b></p></div>","32","","","","","","","","","","","","","","","","","","","","","","",""
"","instruc12","42","281998","0.0-35.0-6.0","""event"",""trial"",""time""
""focus"",""0"",""0""
""fullscreenenter"",""0"",""2541""
","
","""event"",""trial"",""time""
""focus"",""0"",""0""
","""event"",""trial"",""time""
""fullscreenenter"",""0"",""2541""
","
","null","run_exp/static/audio/clip_14_drift.m4a","null","","","","","<div class='center'><p>How successful a pirate is at robbing ships can also change over the time spent on the island. </p><p> Ships may hear from islanders about the pirates coming and will improve their protections against the attack. This may make it harder to rob them.</p><p> Ships may also become lazy and weaken the strength of their protections. This may make it easier to rob them.</p><br><p>Things are always changing on the high seas! So, try your best to pay attention!</p><p><img src='run_exp/static/images/tutorial/contingency.png' height='500'></p></div>","","","","","","","","","","","","","","","","","",""
"","html-keyboard-response","43","287954","0.0-35.0-7.0","""event"",""trial"",""time""
""focus"",""0"",""0""
""fullscreenenter"",""0"",""2541""
","
","""event"",""trial"",""time""
""focus"",""0"",""0""
","""event"",""trial"",""time""
""fullscreenenter"",""0"",""2541""
","
","5950","<div class='center'><p>How successful a pirate is at robbing ships can also change over the time spent on the island. </p><p> Ships may hear from islanders about the pirates coming and will improve their protections against the attack. This may make it harder to rob them.</p><p> Ships may also become lazy and weaken the strength of their protections. This may make it easier to rob them.</p><br><p>Things are always changing on the high seas! So, try your best to pay attention!</p><p><img src='run_exp/static/images/tutorial/contingency.png' height='500'></p><p><b>[Press the space bar to continue]</b></p></div>","32","","","","","","","","","","","","","","","","","","","","","","",""
"","instruc13","44","323257","0.0-35.0-8.0","""event"",""trial"",""time""
""focus"",""0"",""0""
""fullscreenenter"",""0"",""2541""
","
","""event"",""trial"",""time""
""focus"",""0"",""0""
","""event"",""trial"",""time""
""fullscreenenter"",""0"",""2541""
","
","null","run_exp/static/audio/clip_15_summary.m4a","null","","","","","<div class='center'><p>Let's go over the instructions quickly again. You have two important things to do: </p><b><p> 1. Pick the pirate who is the best at robbing ships on the current island. </p></b><b><p> 2. Remember on which island a ship was robbed.</p> </b><p>The amount of bonus money you can win depends on both.</p><p><br><p>Let’s try a practice game. The game will start by showing you the pirates. First, pick a pirate using the <b> 1, 2, 3 </b> keys on your keyboard. When you are shown a ship, try to remember which island you’re on by making up a story.</p><p>This is just a practice game, so you’re not playing for money. </p><p> Good luck! This game will be very difficult but try your best!</p></div>","","","","","","","","","","","","","","","","","",""
"","html-keyboard-response","45","325074","0.0-35.0-9.0","""event"",""trial"",""time""
""focus"",""0"",""0""
""fullscreenenter"",""0"",""2541""
","
","""event"",""trial"",""time""
""focus"",""0"",""0""
","""event"",""trial"",""time""
""fullscreenenter"",""0"",""2541""
","
","1814","<div class='center'><p>Let's go over the instructions quickly again. You have two important things to do: </p><b><p> 1. Pick the pirate who is the best at robbing ships on the current island. </p></b><b><p> 2. Remember on which island a ship was robbed.</p> </b><p>The amount of bonus money you can win depends on both.</p><p><br><p>Let’s try a practice game. The game will start by showing you the pirates. First, pick a pirate using the <b> 1, 2, 3 </b> keys on your keyboard. When you are shown a ship, try to remember which island you’re on by making up a story.</p><p>This is just a practice game, so you’re not playing for money. </p><p> Good luck! This game will be very difficult but try your best!</p><p><b>[Press the space bar to continue]</b></p></div>","32","","","","","","","","","","","","","","","","","","","","","","",""
"","do_welcome","46","329218","0.0-35.0-10.0","""event"",""trial"",""time""
""focus"",""0"",""0""
""fullscreenenter"",""0"",""2541""
","
","""event"",""trial"",""time""
""focus"",""0"",""0""
","""event"",""trial"",""time""
""fullscreenenter"",""0"",""2541""
","
","null","","","","","","","","null","","","","","","","","","","","","","","","","",""
"","do_trial","47","334687","0.0-35.0-11.0","""event"",""trial"",""time""
""focus"",""0"",""0""
""fullscreenenter"",""0"",""2541""
","
","""event"",""trial"",""time""
""focus"",""0"",""0""
","""event"",""trial"",""time""
""fullscreenenter"",""0"",""2541""
","
","944","","","","","","","","49","1,0,0","","","","","","","","","","","","","","","",""
"","html-keyboard-response","48","335706","0.0-36.0-0.0","""event"",""trial"",""time""
""focus"",""0"",""0""
""fullscreenenter"",""0"",""2541""
","
","""event"",""trial"",""time""
""focus"",""0"",""0""
","""event"",""trial"",""time""
""fullscreenenter"",""0"",""2541""
","
","null","<p></p>","null","","","","","","","","","","","","","","","","","","","","","","",""
"","do_trial","49","340678","0.0-36.0-1.0","""event"",""trial"",""time""
""focus"",""0"",""0""
""fullscreenenter"",""0"",""2541""
","
","""event"",""trial"",""time""
""focus"",""0"",""0""
","""event"",""trial"",""time""
""fullscreenenter"",""0"",""2541""
","
","451","","","","","","","","49","1,1,0","","","","","","","","","","","","","","","",""
"","html-keyboard-response","50","341697","0.0-37.0-0.0","""event"",""trial"",""time""
""focus"",""0"",""0""
""fullscreenenter"",""0"",""2541""
","
","""event"",""trial"",""time""
""focus"",""0"",""0""
","""event"",""trial"",""time""
""fullscreenenter"",""0"",""2541""
","
","null","<p></p>","null","","","","","","","","","","","","","","","","","","","","","","",""
"","do_trial","51","346607","0.0-37.0-1.0","""event"",""trial"",""time""
""focus"",""0"",""0""
""fullscreenenter"",""0"",""2541""
","
","""event"",""trial"",""time""
""focus"",""0"",""0""
","""event"",""trial"",""time""
""fullscreenenter"",""0"",""2541""
","
","383","","","","","","","","49","1,0,1","","","","","","","","","","","","","","","",""
"","html-keyboard-response","52","347627","0.0-38.0-0.0","""event"",""trial"",""time""
""focus"",""0"",""0""
""fullscreenenter"",""0"",""2541""
","
","""event"",""trial"",""time""
""focus"",""0"",""0""
","""event"",""trial"",""time""
""fullscreenenter"",""0"",""2541""
","
","null","<p></p>","null","","","","","","","","","","","","","","","","","","","","","","",""
"","do_trial","53","352917","0.0-38.0-1.0","""event"",""trial"",""time""
""focus"",""0"",""0""
""fullscreenenter"",""0"",""2541""
","
","""event"",""trial"",""time""
""focus"",""0"",""0""
","""event"",""trial"",""time""
""fullscreenenter"",""0"",""2541""
","
","757","","","","","","","","49","0,1,0","","","","","","","","","","","","","","","",""
"","html-keyboard-response","54","353937","0.0-39.0-0.0","""event"",""trial"",""time""
""focus"",""0"",""0""
""fullscreenenter"",""0"",""2541""
","
","""event"",""trial"",""time""
""focus"",""0"",""0""
","""event"",""trial"",""time""
""fullscreenenter"",""0"",""2541""
","
","null","<p></p>","null","","","","","","","","","","","","","","","","","","","","","","",""
"","do_trial","55","360604","0.0-39.0-1.0","""event"",""trial"",""time""
""focus"",""0"",""0""
""fullscreenenter"",""0"",""2541""
","
","""event"",""trial"",""time""
""focus"",""0"",""0""
","""event"",""trial"",""time""
""fullscreenenter"",""0"",""2541""
","
","2143","","","","","","","","49","1,0,0","","","","","","","","","","","","","","","",""
"","do_bye","56","362122","0.0-40.0-0.0","""event"",""trial"",""time""
""focus"",""0"",""0""
""fullscreenenter"",""0"",""2541""
","
","""event"",""trial"",""time""
""focus"",""0"",""0""
","""event"",""trial"",""time""
""fullscreenenter"",""0"",""2541""
","
","null","","","","","","","","null","","","","","","","","","","","","","","","","",""
"","do_travel","57","371172","0.0-40.0-1.0","""event"",""trial"",""time""
""focus"",""0"",""0""
""fullscreenenter"",""0"",""2541""
","
","""event"",""trial"",""time""
""focus"",""0"",""0""
","""event"",""trial"",""time""
""fullscreenenter"",""0"",""2541""
","
","null","","","","","","","","null","","","","","","","","","","","","","","","","",""
"","do_welcome","58","375207","0.0-40.0-2.0","""event"",""trial"",""time""
""focus"",""0"",""0""
""fullscreenenter"",""0"",""2541""
","
","""event"",""trial"",""time""
""focus"",""0"",""0""
","""event"",""trial"",""time""
""fullscreenenter"",""0"",""2541""
","
","null","","","","","","","","null","","","","","","","","","","","","","","","","",""
"","do_trial","59","380834","0.0-40.0-3.0","""event"",""trial"",""time""
""focus"",""0"",""0""
""fullscreenenter"",""0"",""2541""
","
","""event"",""trial"",""time""
""focus"",""0"",""0""
","""event"",""trial"",""time""
""fullscreenenter"",""0"",""2541""
","
","1094","","","","","","","","49","1,0,0","","","","","","","","","","","","","","","",""
"","html-keyboard-response","60","381840","0.0-41.0-0.0","""event"",""trial"",""time""
""focus"",""0"",""0""
""fullscreenenter"",""0"",""2541""
","
","""event"",""trial"",""time""
""focus"",""0"",""0""
","""event"",""trial"",""time""
""fullscreenenter"",""0"",""2541""
","
","null","<p></p>","null","","","","","","","","","","","","","","","","","","","","","","",""
"","do_trial","61","386746","0.0-41.0-1.0","""event"",""trial"",""time""
""focus"",""0"",""0""
""fullscreenenter"",""0"",""2541""
","
","""event"",""trial"",""time""
""focus"",""0"",""0""
","""event"",""trial"",""time""
""fullscreenenter"",""0"",""2541""
","
","381","","","","","","","","49","1,0,1","","","","","","","","","","","","","","","",""
"","html-keyboard-response","62","387750","0.0-42.0-0.0","""event"",""trial"",""time""
""focus"",""0"",""0""
""fullscreenenter"",""0"",""2541""
","
","""event"",""trial"",""time""
""focus"",""0"",""0""
","""event"",""trial"",""time""
""fullscreenenter"",""0"",""2541""
","
","null","<p></p>","null","","","","","","","","","","","","","","","","","","","","","","",""
"","do_trial","63","393337","0.0-42.0-1.0","""event"",""trial"",""time""
""focus"",""0"",""0""
""fullscreenenter"",""0"",""2541""
","
","""event"",""trial"",""time""
""focus"",""0"",""0""
","""event"",""trial"",""time""
""fullscreenenter"",""0"",""2541""
","
","1062","","","","","","","","49","1,1,0","","","","","","","","","","","","","","","",""
"","html-keyboard-response","64","394357","0.0-43.0-0.0","""event"",""trial"",""time""
""focus"",""0"",""0""
""fullscreenenter"",""0"",""2541""
","
","""event"",""trial"",""time""
""focus"",""0"",""0""
","""event"",""trial"",""time""
""fullscreenenter"",""0"",""2541""
","
","null","<p></p>","null","","","","","","","","","","","","","","","","","","","","","","",""
"","do_trial","65","399401","0.0-43.0-1.0","""event"",""trial"",""time""
""focus"",""0"",""0""
""fullscreenenter"",""0"",""2541""
","
","""event"",""trial"",""time""
""focus"",""0"",""0""
","""event"",""trial"",""time""
""fullscreenenter"",""0"",""2541""
","
","521","","","","","","","","49","0,0,1","","","","","","","","","","","","","","","",""
"","html-keyboard-response","66","400407","0.0-44.0-0.0","""event"",""trial"",""time""
""focus"",""0"",""0""
""fullscreenenter"",""0"",""2541""
","
","""event"",""trial"",""time""
""focus"",""0"",""0""
","""event"",""trial"",""time""
""fullscreenenter"",""0"",""2541""
","
","null","<p></p>","null","","","","","","","","","","","","","","","","","","","","","","",""
"","do_trial","67","405217","0.0-44.0-1.0","""event"",""trial"",""time""
""focus"",""0"",""0""
""fullscreenenter"",""0"",""2541""
","
","""event"",""trial"",""time""
""focus"",""0"",""0""
","""event"",""trial"",""time""
""fullscreenenter"",""0"",""2541""
","
","289","","","","","","","","49","1,0,1","","","","","","","","","","","","","","","",""
"","html-keyboard-response","68","407474","0.0-45.0-0.0","""event"",""trial"",""time""
""focus"",""0"",""0""
""fullscreenenter"",""0"",""2541""
","
","""event"",""trial"",""time""
""focus"",""0"",""0""
","""event"",""trial"",""time""
""fullscreenenter"",""0"",""2541""
","
","2254","<div class='center'><p><img src='run_exp/static/images/tutorial/prac_best_pirate.png'  height='500'></p></div>","49","","","","","","","","","","","","","","","","","","","","","","",""
"","html-keyboard-response","69","409198","0.0-46.0-0.0","""event"",""trial"",""time""
""focus"",""0"",""0""
""fullscreenenter"",""0"",""2541""
","
","""event"",""trial"",""time""
""focus"",""0"",""0""
","""event"",""trial"",""time""
""fullscreenenter"",""0"",""2541""
","
","1722","<div class='center'><p>That's correct! Red beard was the best.</p><p><b>[Press the space bar to continue]</b></p></div>","32","","","","","","","","","","","","","","","","","","","","","","",""
"","html-keyboard-response","70","411710","0.0-46.0-1.0","""event"",""trial"",""time""
""focus"",""0"",""0""
""fullscreenenter"",""0"",""2541""
","
","""event"",""trial"",""time""
""focus"",""0"",""0""
","""event"",""trial"",""time""
""fullscreenenter"",""0"",""2541""
","
","2511","<div class='center'><p><img src='run_exp/static/images/tutorial/prac_source.png'  height='500'></p></div>","50","","","","","","","","","","","","","","","","","","","","","","",""
"","html-keyboard-response","71","414652","0.0-47.0-0.0","""event"",""trial"",""time""
""focus"",""0"",""0""
""fullscreenenter"",""0"",""2541""
","
","""event"",""trial"",""time""
""focus"",""0"",""0""
","""event"",""trial"",""time""
""fullscreenenter"",""0"",""2541""
","
","2940","<div class='center'><p>That's correct! You saw this ship on the cavern island.</p><p><b>[Press the space bar to continue]</b></p></div>","32","","","","","","","","","","","","","","","","","","","","","","",""
"","quiz_beginning","72","425977","0.0-47.0-1.0","""event"",""trial"",""time""
""focus"",""0"",""0""
""fullscreenenter"",""0"",""2541""
","
","""event"",""trial"",""time""
""focus"",""0"",""0""
","""event"",""trial"",""time""
""fullscreenenter"",""0"",""2541""
","
","null","run_exp/static/audio/clip_16_quiz_intro.m4a","null","","","","","<div class='center'><p>Good job on the practice game! Now, you will be asked some true or false questions to make sure you really understand the rules of the game.</p><p> Press <b>'1'</b> on the keyboard for true and press <b>'2'</b> for false.</p></div>","","","","","","","","","","","","","","","","","",""
"","audio-keyboard-response","73","429281","0.0-47.0-2.0","""event"",""trial"",""time""
""focus"",""0"",""0""
""fullscreenenter"",""0"",""2541""
","
","""event"",""trial"",""time""
""focus"",""0"",""0""
","""event"",""trial"",""time""
""fullscreenenter"",""0"",""2541""
","
","3303","run_exp/static/audio/clip_17_q1.m4a","49","","","","","","","","","","","","","","","","","","","","","","",""
"","correct","74","431827","0.0-48.0-0.0","""event"",""trial"",""time""
""focus"",""0"",""0""
""fullscreenenter"",""0"",""2541""
","
","""event"",""trial"",""time""
""focus"",""0"",""0""
","""event"",""trial"",""time""
""fullscreenenter"",""0"",""2541""
","
","null","run_exp/static/audio/clip_18_correct.m4a","null","","","","","<div class='center'><p>That's correct!</p></div>","","","","","","","","","","","","","","","","","",""
"","html-keyboard-response","75","431890","0.0-48.0-1.0","""event"",""trial"",""time""
""focus"",""0"",""0""
""fullscreenenter"",""0"",""2541""
","
","""event"",""trial"",""time""
""focus"",""0"",""0""
","""event"",""trial"",""time""
""fullscreenenter"",""0"",""2541""
","
","61","<div class='center'><p>That's correct!</p><p><b>[Press the space bar to continue]</b></p></div>","32","","","","","","","","","","","","","","","","","","","","","","",""
"","audio-keyboard-response","76","440313","0.0-48.0-2.0","""event"",""trial"",""time""
""focus"",""0"",""0""
""fullscreenenter"",""0"",""2541""
","
","""event"",""trial"",""time""
""focus"",""0"",""0""
","""event"",""trial"",""time""
""fullscreenenter"",""0"",""2541""
","
","8422","run_exp/static/audio/clip_20_q2.m4a","50","","","","","","","","","","","","","","","","","","","","","","",""
"","correct","77","442822","0.0-49.0-0.0","""event"",""trial"",""time""
""focus"",""0"",""0""
""fullscreenenter"",""0"",""2541""
","
","""event"",""trial"",""time""
""focus"",""0"",""0""
","""event"",""trial"",""time""
""fullscreenenter"",""0"",""2541""
","
","null","run_exp/static/audio/clip_18_correct.m4a","null","","","","","<div class='center'><p>That's correct!</p></div>","","","","","","","","","","","","","","","","","",""
"","html-keyboard-response","78","443557","0.0-49.0-1.0","""event"",""trial"",""time""
""focus"",""0"",""0""
""fullscreenenter"",""0"",""2541""
","
","""event"",""trial"",""time""
""focus"",""0"",""0""
","""event"",""trial"",""time""
""fullscreenenter"",""0"",""2541""
","
","735","<div class='center'><p>That's correct!</p><p><b>[Press the space bar to continue]</b></p></div>","32","","","","","","","","","","","","","","","","","","","","","","",""
"","audio-keyboard-response","79","451123","0.0-49.0-2.0","""event"",""trial"",""time""
""focus"",""0"",""0""
""fullscreenenter"",""0"",""2541""
","
","""event"",""trial"",""time""
""focus"",""0"",""0""
","""event"",""trial"",""time""
""fullscreenenter"",""0"",""2541""
","
","7565","run_exp/static/audio/clip_22_q3.m4a","50","","","","","","","","","","","","","","","","","","","","","","",""
"","correct","80","453638","0.0-50.0-0.0","""event"",""trial"",""time""
""focus"",""0"",""0""
""fullscreenenter"",""0"",""2541""
","
","""event"",""trial"",""time""
""focus"",""0"",""0""
","""event"",""trial"",""time""
""fullscreenenter"",""0"",""2541""
","
","null","run_exp/static/audio/clip_18_correct.m4a","null","","","","","<div class='center'><p>That's correct!</p></div>","","","","","","","","","","","","","","","","","",""
"","html-keyboard-response","81","457007","0.0-50.0-1.0","""event"",""trial"",""time""
""focus"",""0"",""0""
""fullscreenenter"",""0"",""2541""
","
","""event"",""trial"",""time""
""focus"",""0"",""0""
","""event"",""trial"",""time""
""fullscreenenter"",""0"",""2541""
","
","3367","<div class='center'><p>That's correct!</p><p><b>[Press the space bar to continue]</b></p></div>","32","","","","","","","","","","","","","","","","","","","","","","",""
"","audio-keyboard-response","82","462233","0.0-50.0-2.0","""event"",""trial"",""time""
""focus"",""0"",""0""
""fullscreenenter"",""0"",""2541""
","
","""event"",""trial"",""time""
""focus"",""0"",""0""
","""event"",""trial"",""time""
""fullscreenenter"",""0"",""2541""
","
","5225","run_exp/static/audio/clip_24_q4.m4a","49","","","","","","","","","","","","","","","","","","","","","","",""
"","correct","83","464828","0.0-51.0-0.0","""event"",""trial"",""time""
""focus"",""0"",""0""
""fullscreenenter"",""0"",""2541""
","
","""event"",""trial"",""time""
""focus"",""0"",""0""
","""event"",""trial"",""time""
""fullscreenenter"",""0"",""2541""
","
","null","run_exp/static/audio/clip_18_correct.m4a","null","","","","","<div class='center'><p>That's correct!</p></div>","","","","","","","","","","","","","","","","","",""
"","html-keyboard-response","84","466491","0.0-51.0-1.0","""event"",""trial"",""time""
""focus"",""0"",""0""
""fullscreenenter"",""0"",""2541""
","
","""event"",""trial"",""time""
""focus"",""0"",""0""
","""event"",""trial"",""time""
""fullscreenenter"",""0"",""2541""
","
","1661","<div class='center'><p>That's correct!</p><p><b>[Press the space bar to continue]</b></p></div>","32","","","","","","","","","","","","","","","","","","","","","","",""
"","q_all_corr","85","475049","0.0-52.0-0.0","""event"",""trial"",""time""
""focus"",""0"",""0""
""fullscreenenter"",""0"",""2541""
","
","""event"",""trial"",""time""
""focus"",""0"",""0""
","""event"",""trial"",""time""
""fullscreenenter"",""0"",""2541""
","
","null","run_exp/static/audio/clip_27_quiz_all_correct.m4a","null","","","","","<div class='center'><p>Good job! You’re now ready to move on to the real game! Remember this game will be difficult but don't get discouraged and try your best!</p></div>","","","","","","","","","","","","","","","","","",""
"","html-keyboard-response","86","476853","0.0-52.0-1.0","""event"",""trial"",""time""
""focus"",""0"",""0""
""fullscreenenter"",""0"",""2541""
","
","""event"",""trial"",""time""
""focus"",""0"",""0""
","""event"",""trial"",""time""
""fullscreenenter"",""0"",""2541""
","
","1802","<div class='center'><p>Good job! You’re now ready to move on to the real game! Remember this game will be difficult but don't get discouraged and try your best!</p><p><b>[Press the space bar to continue]</b></p></div>","32","","","","","","","","","","","","","","","","","","","","","","",""
"","do_welcome","87","480893","0.0-53.0-0.0","""event"",""trial"",""time""
""focus"",""0"",""0""
""fullscreenenter"",""0"",""2541""
","
","""event"",""trial"",""time""
""focus"",""0"",""0""
","""event"",""trial"",""time""
""fullscreenenter"",""0"",""2541""
","
","null","","","","","","","","null","","","","","","","","","","","","","","","","",""
"","do_trial","88","486342","0.0-54.0-0.0","""event"",""trial"",""time""
""focus"",""0"",""0""
""fullscreenenter"",""0"",""2541""
","
","""event"",""trial"",""time""
""focus"",""0"",""0""
","""event"",""trial"",""time""
""fullscreenenter"",""0"",""2541""
","
","832","","","","","","","","49","1,1,0","0","highway","0","probe-109","0.6","0.3","0.1","1","","","","","","","",""
"","html-keyboard-response","89","487356","0.0-54.0-1.0","""event"",""trial"",""time""
""focus"",""0"",""0""
""fullscreenenter"",""0"",""2541""
","
","""event"",""trial"",""time""
""focus"",""0"",""0""
","""event"",""trial"",""time""
""fullscreenenter"",""0"",""2541""
","
","null","<p></p>","null","","","","","","","","","","","","","","","","","","","","","","",""
"","do_trial","90","492247","0.0-55.0-0.0","""event"",""trial"",""time""
""focus"",""0"",""0""
""fullscreenenter"",""0"",""2541""
","
","""event"",""trial"",""time""
""focus"",""0"",""0""
","""event"",""trial"",""time""
""fullscreenenter"",""0"",""2541""
","
","309","","","","","","","","49","1,0,0","0","highway","1","probe-209","0.6755367401075821","0.2719274149786047","0.08869515880306596","1","","","","","","","",""
"","html-keyboard-response","91","493261","0.0-55.0-1.0","""event"",""trial"",""time""
""focus"",""0"",""0""
""fullscreenenter"",""0"",""2541""
","
","""event"",""trial"",""time""
""focus"",""0"",""0""
","""event"",""trial"",""time""
""fullscreenenter"",""0"",""2541""
","
","null","<p></p>","null","","","","","","","","","","","","","","","","","","","","","","",""
"","do_trial","92","498681","0.0-56.0-0.0","""event"",""trial"",""time""
""focus"",""0"",""0""
""fullscreenenter"",""0"",""2541""
","
","""event"",""trial"",""time""
""focus"",""0"",""0""
","""event"",""trial"",""time""
""fullscreenenter"",""0"",""2541""
","
","851","","","","","","","","49","1,1,0","0","highway","2","probe-93","0.629594122123749","0.30969243100556776","0.20076354126693688","1","","","","","","","",""
"","html-keyboard-response","93","499696","0.0-56.0-1.0","""event"",""trial"",""time""
""focus"",""0"",""0""
""fullscreenenter"",""0"",""2541""
","
","""event"",""trial"",""time""
""focus"",""0"",""0""
","""event"",""trial"",""time""
""fullscreenenter"",""0"",""2541""
","
","null","<p></p>","null","","","","","","","","","","","","","","","","","","","","","","",""
"","do_trial","94","505148","0.0-57.0-0.0","""event"",""trial"",""time""
""focus"",""0"",""0""
""fullscreenenter"",""0"",""2541""
","
","""event"",""trial"",""time""
""focus"",""0"",""0""
","""event"",""trial"",""time""
""fullscreenenter"",""0"",""2541""
","
","882","","","","","","","","49","1,1,0","0","highway","3","probe-68","0.7266155053226726","0.4220707655798453","0.0823250837591516","1","","","","","","","",""
"","html-keyboard-response","95","506167","0.0-57.0-1.0","""event"",""trial"",""time""
""focus"",""0"",""0""
""fullscreenenter"",""0"",""2541""
","
","""event"",""trial"",""time""
""focus"",""0"",""0""
","""event"",""trial"",""time""
""fullscreenenter"",""0"",""2541""
","
","null","<p></p>","null","","","","","","","","","","","","","","","","","","","","","","",""
"","do_trial","96","511348","0.0-58.0-0.0","""event"",""trial"",""time""
""focus"",""0"",""0""
""fullscreenenter"",""0"",""2541""
","
","""event"",""trial"",""time""
""focus"",""0"",""0""
","""event"",""trial"",""time""
""fullscreenenter"",""0"",""2541""
","
","608","","","","","","","","49","1,0,0","0","highway","4","probe-67","0.5712259175824765","0.38499846137025673","0.19393549141537467","1","","","","","","","",""
"","html-keyboard-response","97","512368","0.0-58.0-1.0","""event"",""trial"",""time""
""focus"",""0"",""0""
""fullscreenenter"",""0"",""2541""
","
","""event"",""trial"",""time""
""focus"",""0"",""0""
","""event"",""trial"",""time""
""fullscreenenter"",""0"",""2541""
","
","null","<p></p>","null","","","","","","","","","","","","","","","","","","","","","","",""
"","do_trial","98","517758","0.0-59.0-0.0","""event"",""trial"",""time""
""focus"",""0"",""0""
""fullscreenenter"",""0"",""2541""
","
","""event"",""trial"",""time""
""focus"",""0"",""0""
","""event"",""trial"",""time""
""fullscreenenter"",""0"",""2541""
","
","816","","","","","","","","49","1,0,0","0","highway","5","probe-186","0.6237801801658304","0.3334915731693945","0.20135092239981667","1","","","","","","","",""
"","html-keyboard-response","99","518779","0.0-59.0-1.0","""event"",""trial"",""time""
""focus"",""0"",""0""
""fullscreenenter"",""0"",""2541""
","
","""event"",""trial"",""time""
""focus"",""0"",""0""
","""event"",""trial"",""time""
""fullscreenenter"",""0"",""2541""
","
","null","<p></p>","null","","","","","","","","","","","","","","","","","","","","","","",""
"","do_trial","100","524088","0.0-60.0-0.0","""event"",""trial"",""time""
""focus"",""0"",""0""
""fullscreenenter"",""0"",""2541""
","
","""event"",""trial"",""time""
""focus"",""0"",""0""
","""event"",""trial"",""time""
""fullscreenenter"",""0"",""2541""
","
","728","","","","","","","","49","0,1,0","0","highway","6","probe-23","0.5980722969244984","0.4977007845662631","0.10749736542357173","0","","","","","","","",""
"","html-keyboard-response","101","525107","0.0-60.0-1.0","""event"",""trial"",""time""
""focus"",""0"",""0""
""fullscreenenter"",""0"",""2541""
","
","""event"",""trial"",""time""
""focus"",""0"",""0""
","""event"",""trial"",""time""
""fullscreenenter"",""0"",""2541""
","
","null","<p></p>","null","","","","","","","","","","","","","","","","","","","","","","",""
"","do_trial","102","530058","0.0-61.0-0.0","""event"",""trial"",""time""
""focus"",""0"",""0""
""fullscreenenter"",""0"",""2541""
","
","""event"",""trial"",""time""
""focus"",""0"",""0""
","""event"",""trial"",""time""
""fullscreenenter"",""0"",""2541""
","
","339","","","","","","","","49","1,0,0","0","highway","7","probe-125","0.5887213983800129","0.25583258658169233","0.1164792838332255","1","","","","","","","",""
"","html-keyboard-response","103","531078","0.0-61.0-1.0","""event"",""trial"",""time""
""focus"",""0"",""0""
""fullscreenenter"",""0"",""2541""
","
","""event"",""trial"",""time""
""focus"",""0"",""0""
","""event"",""trial"",""time""
""fullscreenenter"",""0"",""2541""
","
","null","<p></p>","null","","","","","","","","","","","","","","","","","","","","","","",""
"","do_trial","104","536108","0.0-62.0-0.0","""event"",""trial"",""time""
""focus"",""0"",""0""
""fullscreenenter"",""0"",""2541""
","
","""event"",""trial"",""time""
""focus"",""0"",""0""
","""event"",""trial"",""time""
""fullscreenenter"",""0"",""2541""
","
","455","","","","","","","","49","0,1,0","0","highway","8","probe-196","0.5433030663411489","0.24858801233812775","0.13457194498817804","0","","","","","","","",""
"","html-keyboard-response","105","537128","0.0-62.0-1.0","""event"",""trial"",""time""
""focus"",""0"",""0""
""fullscreenenter"",""0"",""2541""
","
","""event"",""trial"",""time""
""focus"",""0"",""0""
","""event"",""trial"",""time""
""fullscreenenter"",""0"",""2541""
","
","null","<p></p>","null","","","","","","","","","","","","","","","","","","","","","","",""
"","do_trial","106","541980","0.0-63.0-0.0","""event"",""trial"",""time""
""focus"",""0"",""0""
""fullscreenenter"",""0"",""2541""
","
","""event"",""trial"",""time""
""focus"",""0"",""0""
","""event"",""trial"",""time""
""fullscreenenter"",""0"",""2541""
","
","285","","","","","","","","49","1,0,1","0","highway","9","probe-31","0.6867063529260699","0.1858177403607106","0.17701627885498192","1","","","","","","","",""
"","html-keyboard-response","107","542991","0.0-63.0-1.0","""event"",""trial"",""time""
""focus"",""0"",""0""
""fullscreenenter"",""0"",""2541""
","
","""event"",""trial"",""time""
""focus"",""0"",""0""
","""event"",""trial"",""time""
""fullscreenenter"",""0"",""2541""
","
","null","<p></p>","null","","","","","","","","","","","","","","","","","","","","","","",""
"","do_trial","108","548106","0.0-64.0-0.0","""event"",""trial"",""time""
""focus"",""0"",""0""
""fullscreenenter"",""0"",""2541""
","
","""event"",""trial"",""time""
""focus"",""0"",""0""
","""event"",""trial"",""time""
""fullscreenenter"",""0"",""2541""
","
","476","","","","","","","","49","1,1,0","0","highway","10","probe-71","0.48501806087171956","0.22715186031247026","0.1676255625465167","1","","","","","","","",""
"","html-keyboard-response","109","549114","0.0-64.0-1.0","""event"",""trial"",""time""
""focus"",""0"",""0""
""fullscreenenter"",""0"",""2541""
","
","""event"",""trial"",""time""
""focus"",""0"",""0""
","""event"",""trial"",""time""
""fullscreenenter"",""0"",""2541""
","
","null","<p></p>","null","","","","","","","","","","","","","","","","","","","","","","",""
"","do_trial","110","554474","0.0-65.0-0.0","""event"",""trial"",""time""
""focus"",""0"",""0""
""fullscreenenter"",""0"",""2541""
","
","""event"",""trial"",""time""
""focus"",""0"",""0""
","""event"",""trial"",""time""
""fullscreenenter"",""0"",""2541""
","
","764","","","","","","","","49","1,0,0","0","highway","11","probe-172","0.41848651560523953","0.2415499988667914","0.11120481126644759","1","","","","","","","",""
"","html-keyboard-response","111","555483","0.0-65.0-1.0","""event"",""trial"",""time""
""focus"",""0"",""0""
""fullscreenenter"",""0"",""2541""
","
","""event"",""trial"",""time""
""focus"",""0"",""0""
","""event"",""trial"",""time""
""fullscreenenter"",""0"",""2541""
","
","null","<p></p>","null","","","","","","","","","","","","","","","","","","","","","","",""
"","do_trial","112","560677","0.0-66.0-0.0","""event"",""trial"",""time""
""focus"",""0"",""0""
""fullscreenenter"",""0"",""2541""
","
","""event"",""trial"",""time""
""focus"",""0"",""0""
","""event"",""trial"",""time""
""fullscreenenter"",""0"",""2541""
","
","631","","","","","","","","49","1,0,0","0","highway","12","probe-144","0.5179070294513969","0.31733049325155066","0.2783563398314761","1","","","","","","","",""
"","html-keyboard-response","113","561682","0.0-66.0-1.0","""event"",""trial"",""time""
""focus"",""0"",""0""
""fullscreenenter"",""0"",""2541""
","
","""event"",""trial"",""time""
""focus"",""0"",""0""
","""event"",""trial"",""time""
""fullscreenenter"",""0"",""2541""
","
","null","<p></p>","null","","","","","","","","","","","","","","","","","","","","","","",""
"","do_trial","114","567458","0.0-67.0-0.0","""event"",""trial"",""time""
""focus"",""0"",""0""
""fullscreenenter"",""0"",""2541""
","
","""event"",""trial"",""time""
""focus"",""0"",""0""
","""event"",""trial"",""time""
""fullscreenenter"",""0"",""2541""
","
","1159","","","","","","","","49","1,1,0","0","highway","13","probe-122","0.5417962449519658","0.33562726247108343","0.1687765614207685","1","","","","","","","",""
"","html-keyboard-response","115","568467","0.0-67.0-1.0","""event"",""trial"",""time""
""focus"",""0"",""0""
""fullscreenenter"",""0"",""2541""
","
","""event"",""trial"",""time""
""focus"",""0"",""0""
","""event"",""trial"",""time""
""fullscreenenter"",""0"",""2541""
","
","null","<p></p>","null","","","","","","","","","","","","","","","","","","","","","","",""
"","do_trial","116","573428","0.0-68.0-0.0","""event"",""trial"",""time""
""focus"",""0"",""0""
""fullscreenenter"",""0"",""2541""
","
","""event"",""trial"",""time""
""focus"",""0"",""0""
","""event"",""trial"",""time""
""fullscreenenter"",""0"",""2541""
","
","385","","","","","","","","49","0,0,0","0","highway","14","probe-193","0.5340636649472613","0.3800160436829706","0.11368538559943688","0","","","","","","","",""
"","html-keyboard-response","117","574447","0.0-68.0-1.0","""event"",""trial"",""time""
""focus"",""0"",""0""
""fullscreenenter"",""0"",""2541""
","
","""event"",""trial"",""time""
""focus"",""0"",""0""
","""event"",""trial"",""time""
""fullscreenenter"",""0"",""2541""
","
","null","<p></p>","null","","","","","","","","","","","","","","","","","","","","","","",""
"","do_trial","118","580537","0.0-69.0-0.0","""event"",""trial"",""time""
""focus"",""0"",""0""
""fullscreenenter"",""0"",""2541""
","
","""event"",""trial"",""time""
""focus"",""0"",""0""
","""event"",""trial"",""time""
""fullscreenenter"",""0"",""2541""
","
","null","","","","","","","","null","1,1,0","0","highway","15","probe-100","0.5805372929508514","0.392059525783082","0.14196753886151997","","","","","","","","",""
"","html-keyboard-response","119","581548","0.0-69.0-1.0","""event"",""trial"",""time""
""focus"",""0"",""0""
""fullscreenenter"",""0"",""2541""
","
","""event"",""trial"",""time""
""focus"",""0"",""0""
","""event"",""trial"",""time""
""fullscreenenter"",""0"",""2541""
","
","null","<p></p>","null","","","","","","","","","","","","","","","","","","","","","","",""
"","do_trial","120","586868","0.0-70.0-0.0","""event"",""trial"",""time""
""focus"",""0"",""0""
""fullscreenenter"",""0"",""2541""
","
","""event"",""trial"",""time""
""focus"",""0"",""0""
","""event"",""trial"",""time""
""fullscreenenter"",""0"",""2541""
","
","757","","","","","","","","49","1,0,0","0","highway","16","probe-57","0.6268541888522282","0.13308638177694435","0.10159826690731404","1","","","","","","","",""
"","html-keyboard-response","121","587878","0.0-70.0-1.0","""event"",""trial"",""time""
""focus"",""0"",""0""
""fullscreenenter"",""0"",""2541""
","
","""event"",""trial"",""time""
""focus"",""0"",""0""
","""event"",""trial"",""time""
""fullscreenenter"",""0"",""2541""
","
","null","<p></p>","null","","","","","","","","","","","","","","","","","","","","","","",""
"","do_trial","122","593108","0.0-71.0-0.0","""event"",""trial"",""time""
""focus"",""0"",""0""
""fullscreenenter"",""0"",""2541""
","
","""event"",""trial"",""time""
""focus"",""0"",""0""
","""event"",""trial"",""time""
""fullscreenenter"",""0"",""2541""
","
","657","","","","","","","","49","1,1,0","0","highway","17","probe-60","0.6829970921742239","0.251164321555527","0.15070983761880785","1","","","","","","","",""
"","html-keyboard-response","123","594128","0.0-71.0-1.0","""event"",""trial"",""time""
""focus"",""0"",""0""
""fullscreenenter"",""0"",""2541""
","
","""event"",""trial"",""time""
""focus"",""0"",""0""
","""event"",""trial"",""time""
""fullscreenenter"",""0"",""2541""
","
","null","<p></p>","null","","","","","","","","","","","","","","","","","","","","","","",""
"","do_trial","124","599068","0.0-72.0-0.0","""event"",""trial"",""time""
""focus"",""0"",""0""
""fullscreenenter"",""0"",""2541""
","
","""event"",""trial"",""time""
""focus"",""0"",""0""
","""event"",""trial"",""time""
""fullscreenenter"",""0"",""2541""
","
","366","","","","","","","","49","1,1,0","0","highway","18","probe-105","0.6250524336443538","0.3118182642252693","0.08985119452662482","1","","","","","","","",""
"","html-keyboard-response","125","600078","0.0-72.0-1.0","""event"",""trial"",""time""
""focus"",""0"",""0""
""fullscreenenter"",""0"",""2541""
","
","""event"",""trial"",""time""
""focus"",""0"",""0""
","""event"",""trial"",""time""
""fullscreenenter"",""0"",""2541""
","
","null","<p></p>","null","","","","","","","","","","","","","","","","","","","","","","",""
"","do_trial","126","604999","0.0-73.0-0.0","""event"",""trial"",""time""
""focus"",""0"",""0""
""fullscreenenter"",""0"",""2541""
","
","""event"",""trial"",""time""
""focus"",""0"",""0""
","""event"",""trial"",""time""
""fullscreenenter"",""0"",""2541""
","
","341","","","","","","","","49","1,0,0","0","highway","19","probe-103","0.6265344186900204","0.3533349349375689","0.1618053151783902","1","","","","","","","",""
"","html-keyboard-response","127","606007","0.0-73.0-1.0","""event"",""trial"",""time""
""focus"",""0"",""0""
""fullscreenenter"",""0"",""2541""
","
","""event"",""trial"",""time""
""focus"",""0"",""0""
","""event"",""trial"",""time""
""fullscreenenter"",""0"",""2541""
","
","null","<p></p>","null","","","","","","","","","","","","","","","","","","","","","","",""
"","do_trial","128","610864","0.0-74.0-0.0","""event"",""trial"",""time""
""focus"",""0"",""0""
""fullscreenenter"",""0"",""2541""
","
","""event"",""trial"",""time""
""focus"",""0"",""0""
","""event"",""trial"",""time""
""fullscreenenter"",""0"",""2541""
","
","271","","","","","","","","49","1,1,1","0","highway","20","probe-184","0.6504447261015653","0.37610291572549664","0.0891642269072116","1","","","","","","","",""
"","html-keyboard-response","129","611871","0.0-74.0-1.0","""event"",""trial"",""time""
""focus"",""0"",""0""
""fullscreenenter"",""0"",""2541""
","
","""event"",""trial"",""time""
""focus"",""0"",""0""
","""event"",""trial"",""time""
""fullscreenenter"",""0"",""2541""
","
","null","<p></p>","null","","","","","","","","","","","","","","","","","","","","","","",""
"","do_trial","130","617242","0.0-75.0-0.0","""event"",""trial"",""time""
""focus"",""0"",""0""
""fullscreenenter"",""0"",""2541""
","
","""event"",""trial"",""time""
""focus"",""0"",""0""
","""event"",""trial"",""time""
""fullscreenenter"",""0"",""2541""
","
","795","","","","","","","","49","1,0,1","0","highway","21","probe-181","0.558716492343911","0.2739793949528962","0.07166792389512892","1","","","","","","","",""
"","html-keyboard-response","131","618251","0.0-75.0-1.0","""event"",""trial"",""time""
""focus"",""0"",""0""
""fullscreenenter"",""0"",""2541""
","
","""event"",""trial"",""time""
""focus"",""0"",""0""
","""event"",""trial"",""time""
""fullscreenenter"",""0"",""2541""
","
","null","<p></p>","null","","","","","","","","","","","","","","","","","","","","","","",""
"","do_trial","132","623087","0.0-76.0-0.0","""event"",""trial"",""time""
""focus"",""0"",""0""
""fullscreenenter"",""0"",""2541""
","
","""event"",""trial"",""time""
""focus"",""0"",""0""
","""event"",""trial"",""time""
""fullscreenenter"",""0"",""2541""
","
","248","","","","","","","","49","1,0,0","0","highway","22","probe-159","0.7086812599235559","0.2211627282046289","0.053639518126288845","1","","","","","","","",""
"","html-keyboard-response","133","624098","0.0-76.0-1.0","""event"",""trial"",""time""
""focus"",""0"",""0""
""fullscreenenter"",""0"",""2541""
","
","""event"",""trial"",""time""
""focus"",""0"",""0""
","""event"",""trial"",""time""
""fullscreenenter"",""0"",""2541""
","
","null","<p></p>","null","","","","","","","","","","","","","","","","","","","","","","",""
"","do_trial","134","629178","0.0-77.0-0.0","""event"",""trial"",""time""
""focus"",""0"",""0""
""fullscreenenter"",""0"",""2541""
","
","""event"",""trial"",""time""
""focus"",""0"",""0""
","""event"",""trial"",""time""
""fullscreenenter"",""0"",""2541""
","
","471","","","","","","","","49","1,0,0","0","highway","23","probe-48","0.6552094671472952","0.2499645267976722","0.06767427677629174","1","","","","","","","",""
"","html-keyboard-response","135","630198","0.0-77.0-1.0","""event"",""trial"",""time""
""focus"",""0"",""0""
""fullscreenenter"",""0"",""2541""
","
","""event"",""trial"",""time""
""focus"",""0"",""0""
","""event"",""trial"",""time""
""fullscreenenter"",""0"",""2541""
","
","null","<p></p>","null","","","","","","","","","","","","","","","","","","","","","","",""
"","do_trial","136","635038","0.0-78.0-0.0","""event"",""trial"",""time""
""focus"",""0"",""0""
""fullscreenenter"",""0"",""2541""
","
","""event"",""trial"",""time""
""focus"",""0"",""0""
","""event"",""trial"",""time""
""fullscreenenter"",""0"",""2541""
","
","253","","","","","","","","49","1,1,0","0","highway","24","probe-180","0.8061292338636843","0.38613232359180416","0.20658197613120544","1","","","","","","","",""
"","html-keyboard-response","137","636048","0.0-78.0-1.0","""event"",""trial"",""time""
""focus"",""0"",""0""
""fullscreenenter"",""0"",""2541""
","
","""event"",""trial"",""time""
""focus"",""0"",""0""
","""event"",""trial"",""time""
""fullscreenenter"",""0"",""2541""
","
","null","<p></p>","null","","","","","","","","","","","","","","","","","","","","","","",""
"","do_trial","138","641117","0.0-79.0-0.0","""event"",""trial"",""time""
""focus"",""0"",""0""
""fullscreenenter"",""0"",""2541""
","
","""event"",""trial"",""time""
""focus"",""0"",""0""
","""event"",""trial"",""time""
""fullscreenenter"",""0"",""2541""
","
","503","","","","","","","","49","1,0,0","0","highway","25","probe-124","0.7840809830183543","0.47806122149718094","0.12616900282905663","1","","","","","","","",""
"","html-keyboard-response","139","642138","0.0-79.0-1.0","""event"",""trial"",""time""
""focus"",""0"",""0""
""fullscreenenter"",""0"",""2541""
","
","""event"",""trial"",""time""
""focus"",""0"",""0""
","""event"",""trial"",""time""
""fullscreenenter"",""0"",""2541""
","
","null","<p></p>","null","","","","","","","","","","","","","","","","","","","","","","",""
"","do_trial","140","647148","0.0-80.0-0.0","""event"",""trial"",""time""
""focus"",""0"",""0""
""fullscreenenter"",""0"",""2541""
","
","""event"",""trial"",""time""
""focus"",""0"",""0""
","""event"",""trial"",""time""
""fullscreenenter"",""0"",""2541""
","
","396","","","","","","","","49","1,0,1","0","highway","26","probe-25","0.7426792336164391","0.44258859232929426","0.18155451426323307","1","","","","","","","",""
"","html-keyboard-response","141","648168","0.0-80.0-1.0","""event"",""trial"",""time""
""focus"",""0"",""0""
""fullscreenenter"",""0"",""2541""
","
","""event"",""trial"",""time""
""focus"",""0"",""0""
","""event"",""trial"",""time""
""fullscreenenter"",""0"",""2541""
","
","null","<p></p>","null","","","","","","","","","","","","","","","","","","","","","","",""
"","do_trial","142","653218","0.0-81.0-0.0","""event"",""trial"",""time""
""focus"",""0"",""0""
""fullscreenenter"",""0"",""2541""
","
","""event"",""trial"",""time""
""focus"",""0"",""0""
","""event"",""trial"",""time""
""fullscreenenter"",""0"",""2541""
","
","478","","","","","","","","49","0,1,1","0","highway","27","probe-229","0.6228247123931702","0.4240055545560669","0.11144455204826559","0","","","","","","","",""
"","html-keyboard-response","143","654237","0.0-81.0-1.0","""event"",""trial"",""time""
""focus"",""0"",""0""
""fullscreenenter"",""0"",""2541""
","
","""event"",""trial"",""time""
""focus"",""0"",""0""
","""event"",""trial"",""time""
""fullscreenenter"",""0"",""2541""
","
","null","<p></p>","null","","","","","","","","","","","","","","","","","","","","","","",""
"","do_trial","144","659328","0.0-82.0-0.0","""event"",""trial"",""time""
""focus"",""0"",""0""
""fullscreenenter"",""0"",""2541""
","
","""event"",""trial"",""time""
""focus"",""0"",""0""
","""event"",""trial"",""time""
""fullscreenenter"",""0"",""2541""
","
","524","","","","","","","","49","0,0,0","0","highway","28","probe-140","0.5090037641114552","0.46466295923985196","0.07788514527144802","0","","","","","","","",""
"","html-keyboard-response","145","660347","0.0-82.0-1.0","""event"",""trial"",""time""
""focus"",""0"",""0""
""fullscreenenter"",""0"",""2541""
","
","""event"",""trial"",""time""
""focus"",""0"",""0""
","""event"",""trial"",""time""
""fullscreenenter"",""0"",""2541""
","
","null","<p></p>","null","","","","","","","","","","","","","","","","","","","","","","",""
"","do_trial","146","665240","0.0-83.0-0.0","""event"",""trial"",""time""
""focus"",""0"",""0""
""fullscreenenter"",""0"",""2541""
","
","""event"",""trial"",""time""
""focus"",""0"",""0""
","""event"",""trial"",""time""
""fullscreenenter"",""0"",""2541""
","
","309","","","","","","","","49","1,0,0","0","highway","29","probe-74","0.6035273795283979","0.24073290826418395","0.11448063748039472","1","","","","","","","",""
"","html-keyboard-response","147","666247","0.0-83.0-1.0","""event"",""trial"",""time""
""focus"",""0"",""0""
""fullscreenenter"",""0"",""2541""
","
","""event"",""trial"",""time""
""focus"",""0"",""0""
","""event"",""trial"",""time""
""fullscreenenter"",""0"",""2541""
","
","null","<p></p>","null","","","","","","","","","","","","","","","","","","","","","","",""
"","do_bye","148","667768","0.0-84.0-0.0","""event"",""trial"",""time""
""focus"",""0"",""0""
""fullscreenenter"",""0"",""2541""
","
","""event"",""trial"",""time""
""focus"",""0"",""0""
","""event"",""trial"",""time""
""fullscreenenter"",""0"",""2541""
","
","null","","","","","","","","null","","","","","","","","","","","","","","","","",""
"","break","149","685840","0.0-84.0-1.0","""event"",""trial"",""time""
""focus"",""0"",""0""
""fullscreenenter"",""0"",""2541""
","
","""event"",""trial"",""time""
""focus"",""0"",""0""
","""event"",""trial"",""time""
""fullscreenenter"",""0"",""2541""
","
","18070","<div class='center'><p>Time to take a quick break! You have 2 minutes to rest, but you can move on sooner if you'd like.</p><p> Press the <b>space bar</b> to continue.</p></div>","32","","","","","","","","","","","","","","","","","","","","","","",""
"","do_travel","150","694865","0.0-85.0-0.0","""event"",""trial"",""time""
""focus"",""0"",""0""
""fullscreenenter"",""0"",""2541""
","
","""event"",""trial"",""time""
""focus"",""0"",""0""
","""event"",""trial"",""time""
""fullscreenenter"",""0"",""2541""
","
","null","","","","","","","","null","","","","","","","","","","","","","","","","",""
"","do_welcome","151","698914","0.0-85.0-1.0","""event"",""trial"",""time""
""focus"",""0"",""0""
""fullscreenenter"",""0"",""2541""
","
","""event"",""trial"",""time""
""focus"",""0"",""0""
","""event"",""trial"",""time""
""fullscreenenter"",""0"",""2541""
","
","null","","","","","","","","null","","","","","","","","","","","","","","","","",""
"","do_trial","152","704400","0.0-86.0-0.0","""event"",""trial"",""time""
""focus"",""0"",""0""
""fullscreenenter"",""0"",""2541""
","
","""event"",""trial"",""time""
""focus"",""0"",""0""
","""event"",""trial"",""time""
""fullscreenenter"",""0"",""2541""
","
","857","","","","","","","","49","1,0,0","1","mountain","30","probe-22","1","0.07191122462101951","0.0790841970151645","1","","","","","","","",""
"","html-keyboard-response","153","705409","0.0-86.0-1.0","""event"",""trial"",""time""
""focus"",""0"",""0""
""fullscreenenter"",""0"",""2541""
","
","""event"",""trial"",""time""
""focus"",""0"",""0""
","""event"",""trial"",""time""
""fullscreenenter"",""0"",""2541""
","
","null","<p></p>","null","","","","","","","","","","","","","","","","","","","","","","",""
"","do_trial","154","710467","0.0-87.0-0.0","""event"",""trial"",""time""
""focus"",""0"",""0""
""fullscreenenter"",""0"",""2541""
","
","""event"",""trial"",""time""
""focus"",""0"",""0""
","""event"",""trial"",""time""
""fullscreenenter"",""0"",""2541""
","
","460","","","","","","","","49","1,1,0","1","mountain","31","probe-81","1","0.09110353065130283","0.09645362294983188","1","","","","","","","",""
"","html-keyboard-response","155","711471","0.0-87.0-1.0","""event"",""trial"",""time""
""focus"",""0"",""0""
""fullscreenenter"",""0"",""2541""
","
","""event"",""trial"",""time""
""focus"",""0"",""0""
","""event"",""trial"",""time""
""fullscreenenter"",""0"",""2541""
","
","null","<p></p>","null","","","","","","","","","","","","","","","","","","","","","","",""
"","do_trial","156","717947","0.0-88.0-0.0","""event"",""trial"",""time""
""focus"",""0"",""0""
""fullscreenenter"",""0"",""2541""
","
","""event"",""trial"",""time""
""focus"",""0"",""0""
","""event"",""trial"",""time""
""fullscreenenter"",""0"",""2541""
","
","1891","","","","","","","","49","1,0,0","1","mountain","32","probe-63","1","0.11063063081272581","0.17577495434711338","1","","","","","","","",""
"","html-keyboard-response","157","718961","0.0-88.0-1.0","""event"",""trial"",""time""
""focus"",""0"",""0""
""fullscreenenter"",""0"",""2541""
","
","""event"",""trial"",""time""
""focus"",""0"",""0""
","""event"",""trial"",""time""
""fullscreenenter"",""0"",""2541""
","
","null","<p></p>","null","","","","","","","","","","","","","","","","","","","","","","",""
"","do_trial","158","724105","0.0-89.0-0.0","""event"",""trial"",""time""
""focus"",""0"",""0""
""fullscreenenter"",""0"",""2541""
","
","""event"",""trial"",""time""
""focus"",""0"",""0""
","""event"",""trial"",""time""
""fullscreenenter"",""0"",""2541""
","
","558","","","","","","","","49","0,0,0","1","mountain","33","probe-146","0.8548998943988906","0.11354358935877587","0.1870727681066563","0","","","","","","","",""
"","html-keyboard-response","159","725108","0.0-89.0-1.0","""event"",""trial"",""time""
""focus"",""0"",""0""
""fullscreenenter"",""0"",""2541""
","
","""event"",""trial"",""time""
""focus"",""0"",""0""
","""event"",""trial"",""time""
""fullscreenenter"",""0"",""2541""
","
","null","<p></p>","null","","","","","","","","","","","","","","","","","","","","","","",""
"","do_trial","160","730325","0.0-90.0-0.0","""event"",""trial"",""time""
""focus"",""0"",""0""
""fullscreenenter"",""0"",""2541""
","
","""event"",""trial"",""time""
""focus"",""0"",""0""
","""event"",""trial"",""time""
""fullscreenenter"",""0"",""2541""
","
","620","","","","","","","","49","1,1,0","1","mountain","34","probe-84","0.7018933586978071","0.1415212090295726","0.1213714964541687","1","","","","","","","",""
"","html-keyboard-response","161","731333","0.0-90.0-1.0","""event"",""trial"",""time""
""focus"",""0"",""0""
""fullscreenenter"",""0"",""2541""
","
","""event"",""trial"",""time""
""focus"",""0"",""0""
","""event"",""trial"",""time""
""fullscreenenter"",""0"",""2541""
","
","null","<p></p>","null","","","","","","","","","","","","","","","","","","","","","","",""
"","do_trial","162","736619","0.0-91.0-0.0","""event"",""trial"",""time""
""focus"",""0"",""0""
""fullscreenenter"",""0"",""2541""
","
","""event"",""trial"",""time""
""focus"",""0"",""0""
","""event"",""trial"",""time""
""fullscreenenter"",""0"",""2541""
","
","718","","","","","","","","49","0,0,0","1","mountain","35","probe-151","0.598090365266312","0.3157024133693678","0.1372848612637061","0","","","","","","","",""
"","html-keyboard-response","163","737628","0.0-91.0-1.0","""event"",""trial"",""time""
""focus"",""0"",""0""
""fullscreenenter"",""0"",""2541""
","
","""event"",""trial"",""time""
""focus"",""0"",""0""
","""event"",""trial"",""time""
""fullscreenenter"",""0"",""2541""
","
","null","<p></p>","null","","","","","","","","","","","","","","","","","","","","","","",""
"","do_trial","164","743341","0.0-92.0-0.0","""event"",""trial"",""time""
""focus"",""0"",""0""
""fullscreenenter"",""0"",""2541""
","
","""event"",""trial"",""time""
""focus"",""0"",""0""
","""event"",""trial"",""time""
""fullscreenenter"",""0"",""2541""
","
","1124","","","","","","","","49","0,0,0","1","mountain","36","probe-165","0.5176193453921724","0.4088914191174955","0.06917127563151303","0","","","","","","","",""
"","html-keyboard-response","165","744355","0.0-92.0-1.0","""event"",""trial"",""time""
""focus"",""0"",""0""
""fullscreenenter"",""0"",""2541""
","
","""event"",""trial"",""time""
""focus"",""0"",""0""
","""event"",""trial"",""time""
""fullscreenenter"",""0"",""2541""
","
","null","<p></p>","null","","","","","","","","","","","","","","","","","","","","","","",""
"","do_trial","166","749198","0.0-93.0-0.0","""event"",""trial"",""time""
""focus"",""0"",""0""
""fullscreenenter"",""0"",""2541""
","
","""event"",""trial"",""time""
""focus"",""0"",""0""
","""event"",""trial"",""time""
""fullscreenenter"",""0"",""2541""
","
","265","","","","","","","","51","1,1,0","1","mountain","37","probe-173","0.7596679923421844","0.2751215739459559","0.12840974155819507","0","","","","","","","",""
"","html-keyboard-response","167","750218","0.0-93.0-1.0","""event"",""trial"",""time""
""focus"",""0"",""0""
""fullscreenenter"",""0"",""2541""
","
","""event"",""trial"",""time""
""focus"",""0"",""0""
","""event"",""trial"",""time""
""fullscreenenter"",""0"",""2541""
","
","null","<p></p>","null","","","","","","","","","","","","","","","","","","","","","","",""
"","do_trial","168","755408","0.0-94.0-0.0","""event"",""trial"",""time""
""focus"",""0"",""0""
""fullscreenenter"",""0"",""2541""
","
","""event"",""trial"",""time""
""focus"",""0"",""0""
","""event"",""trial"",""time""
""fullscreenenter"",""0"",""2541""
","
","575","","","","","","","","51","1,1,1","1","mountain","38","probe-176","0.760491144112046","0.20324971621450463","0.2510969473724173","1","","","","","","","",""
"","html-keyboard-response","169","756418","0.0-94.0-1.0","""event"",""trial"",""time""
""focus"",""0"",""0""
""fullscreenenter"",""0"",""2541""
","
","""event"",""trial"",""time""
""focus"",""0"",""0""
","""event"",""trial"",""time""
""fullscreenenter"",""0"",""2541""
","
","null","<p></p>","null","","","","","","","","","","","","","","","","","","","","","","",""
"","do_trial","170","761398","0.0-95.0-0.0","""event"",""trial"",""time""
""focus"",""0"",""0""
""fullscreenenter"",""0"",""2541""
","
","""event"",""trial"",""time""
""focus"",""0"",""0""
","""event"",""trial"",""time""
""fullscreenenter"",""0"",""2541""
","
","416","","","","","","","","51","0,0,1","1","mountain","39","probe-175","0.6702178465989863","0.25610599925180366","0.2593856826148574","1","","","","","","","",""
"","html-keyboard-response","171","762417","0.0-95.0-1.0","""event"",""trial"",""time""
""focus"",""0"",""0""
""fullscreenenter"",""0"",""2541""
","
","""event"",""trial"",""time""
""focus"",""0"",""0""
","""event"",""trial"",""time""
""fullscreenenter"",""0"",""2541""
","
","null","<p></p>","null","","","","","","","","","","","","","","","","","","","","","","",""
"","do_trial","172","767447","0.0-96.0-0.0","""event"",""trial"",""time""
""focus"",""0"",""0""
""fullscreenenter"",""0"",""2541""
","
","""event"",""trial"",""time""
""focus"",""0"",""0""
","""event"",""trial"",""time""
""fullscreenenter"",""0"",""2541""
","
","456","","","","","","","","51","0,1,1","1","mountain","40","probe-218","0.5607492224075257","0.2632148379164271","0.19114550081774093","1","","","","","","","",""
"","html-keyboard-response","173","768458","0.0-96.0-1.0","""event"",""trial"",""time""
""focus"",""0"",""0""
""fullscreenenter"",""0"",""2541""
","
","""event"",""trial"",""time""
""focus"",""0"",""0""
","""event"",""trial"",""time""
""fullscreenenter"",""0"",""2541""
","
","null","<p></p>","null","","","","","","","","","","","","","","","","","","","","","","",""
"","do_trial","174","774008","0.0-97.0-0.0","""event"",""trial"",""time""
""focus"",""0"",""0""
""fullscreenenter"",""0"",""2541""
","
","""event"",""trial"",""time""
""focus"",""0"",""0""
","""event"",""trial"",""time""
""fullscreenenter"",""0"",""2541""
","
","963","","","","","","","","51","1,0,1","1","mountain","41","probe-123","0.6593897297814307","0.36903014694949293","0.32508946071171096","1","","","","","","","",""
"","html-keyboard-response","175","775028","0.0-97.0-1.0","""event"",""trial"",""time""
""focus"",""0"",""0""
""fullscreenenter"",""0"",""2541""
","
","""event"",""trial"",""time""
""focus"",""0"",""0""
","""event"",""trial"",""time""
""fullscreenenter"",""0"",""2541""
","
","null","<p></p>","null","","","","","","","","","","","","","","","","","","","","","","",""
"","do_trial","176","780259","0.0-98.0-0.0","""event"",""trial"",""time""
""focus"",""0"",""0""
""fullscreenenter"",""0"",""2541""
","
","""event"",""trial"",""time""
""focus"",""0"",""0""
","""event"",""trial"",""time""
""fullscreenenter"",""0"",""2541""
","
","668","","","","","","","","51","0,1,1","1","mountain","42","probe-92","0.460670100133829","0.4282374626902117","0.3501814890766582","1","","","","","","","",""
"","html-keyboard-response","177","781277","0.0-98.0-1.0","""event"",""trial"",""time""
""focus"",""0"",""0""
""fullscreenenter"",""0"",""2541""
","
","""event"",""trial"",""time""
""focus"",""0"",""0""
","""event"",""trial"",""time""
""fullscreenenter"",""0"",""2541""
","
","null","<p></p>","null","","","","","","","","","","","","","","","","","","","","","","",""
"","do_trial","178","786574","0.0-99.0-0.0","""event"",""trial"",""time""
""focus"",""0"",""0""
""fullscreenenter"",""0"",""2541""
","
","""event"",""trial"",""time""
""focus"",""0"",""0""
","""event"",""trial"",""time""
""fullscreenenter"",""0"",""2541""
","
","679","","","","","","","","51","1,1,0","1","mountain","43","probe-189","0.5428513780290186","0.42243794553081626","0.21350633624573698","0","","","","","","","",""
"","html-keyboard-response","179","787582","0.0-99.0-1.0","""event"",""trial"",""time""
""focus"",""0"",""0""
""fullscreenenter"",""0"",""2541""
","
","""event"",""trial"",""time""
""focus"",""0"",""0""
","""event"",""trial"",""time""
""fullscreenenter"",""0"",""2541""
","
","null","<p></p>","null","","","","","","","","","","","","","","","","","","","","","","",""
"","do_trial","180","792964","0.0-100.0-0.0","""event"",""trial"",""time""
""focus"",""0"",""0""
""fullscreenenter"",""0"",""2541""
","
","""event"",""trial"",""time""
""focus"",""0"",""0""
","""event"",""trial"",""time""
""fullscreenenter"",""0"",""2541""
","
","795","","","","","","","","51","1,1,0","1","mountain","44","probe-213","0.47449307489419","0.4188775261440232","0.17151789487795605","0","","","","","","","",""
"","html-keyboard-response","181","793970","0.0-100.0-1.0","""event"",""trial"",""time""
""focus"",""0"",""0""
""fullscreenenter"",""0"",""2541""
","
","""event"",""trial"",""time""
""focus"",""0"",""0""
","""event"",""trial"",""time""
""fullscreenenter"",""0"",""2541""
","
","null","<p></p>","null","","","","","","","","","","","","","","","","","","","","","","",""
"","do_trial","182","798844","0.0-101.0-0.0","""event"",""trial"",""time""
""focus"",""0"",""0""
""fullscreenenter"",""0"",""2541""
","
","""event"",""trial"",""time""
""focus"",""0"",""0""
","""event"",""trial"",""time""
""fullscreenenter"",""0"",""2541""
","
","309","","","","","","","","51","0,0,0","1","mountain","45","probe-203","0.35549285435107103","0.46501162149054465","0.11999651267490008","0","","","","","","","",""
"","html-keyboard-response","183","799850","0.0-101.0-1.0","""event"",""trial"",""time""
""focus"",""0"",""0""
""fullscreenenter"",""0"",""2541""
","
","""event"",""trial"",""time""
""focus"",""0"",""0""
","""event"",""trial"",""time""
""fullscreenenter"",""0"",""2541""
","
","null","<p></p>","null","","","","","","","","","","","","","","","","","","","","","","",""
"","do_trial","184","804438","0.0-102.0-0.0","""event"",""trial"",""time""
""focus"",""0"",""0""
""fullscreenenter"",""0"",""2541""
","
","""event"",""trial"",""time""
""focus"",""0"",""0""
","""event"",""trial"",""time""
""fullscreenenter"",""0"",""2541""
","
","12","","","","","","","","50","0,1,0","1","mountain","46","probe-90","0.44362841641881445","0.46315004055344794","0.12999615152287702","1","","","","","","","",""
"","html-keyboard-response","185","805444","0.0-102.0-1.0","""event"",""trial"",""time""
""focus"",""0"",""0""
""fullscreenenter"",""0"",""2541""
","
","""event"",""trial"",""time""
""focus"",""0"",""0""
","""event"",""trial"",""time""
""fullscreenenter"",""0"",""2541""
","
","null","<p></p>","null","","","","","","","","","","","","","","","","","","","","","","",""
"","do_trial","186","810647","0.0-103.0-0.0","""event"",""trial"",""time""
""focus"",""0"",""0""
""fullscreenenter"",""0"",""2541""
","
","""event"",""trial"",""time""
""focus"",""0"",""0""
","""event"",""trial"",""time""
""fullscreenenter"",""0"",""2541""
","
","623","","","","","","","","50","1,1,0","1","mountain","47","probe-191","0.4713976298410206","0.5108891340757338","0.17204055238950744","1","","","","","","","",""
"","html-keyboard-response","187","811654","0.0-103.0-1.0","""event"",""trial"",""time""
""focus"",""0"",""0""
""fullscreenenter"",""0"",""2541""
","
","""event"",""trial"",""time""
""focus"",""0"",""0""
","""event"",""trial"",""time""
""fullscreenenter"",""0"",""2541""
","
","null","<p></p>","null","","","","","","","","","","","","","","","","","","","","","","",""
"","do_trial","188","816777","0.0-104.0-0.0","""event"",""trial"",""time""
""focus"",""0"",""0""
""fullscreenenter"",""0"",""2541""
","
","""event"",""trial"",""time""
""focus"",""0"",""0""
","""event"",""trial"",""time""
""fullscreenenter"",""0"",""2541""
","
","539","","","","","","","","50","1,0,0","1","mountain","48","probe-214","0.47663442455036426","0.5317619538770471","0.13229135988977545","0","","","","","","","",""
"","html-keyboard-response","189","817798","0.0-104.0-1.0","""event"",""trial"",""time""
""focus"",""0"",""0""
""fullscreenenter"",""0"",""2541""
","
","""event"",""trial"",""time""
""focus"",""0"",""0""
","""event"",""trial"",""time""
""fullscreenenter"",""0"",""2541""
","
","null","<p></p>","null","","","","","","","","","","","","","","","","","","","","","","",""
"","do_trial","190","822687","0.0-105.0-0.0","""event"",""trial"",""time""
""focus"",""0"",""0""
""fullscreenenter"",""0"",""2541""
","
","""event"",""trial"",""time""
""focus"",""0"",""0""
","""event"",""trial"",""time""
""fullscreenenter"",""0"",""2541""
","
","310","","","","","","","","50","0,1,0","1","mountain","49","probe-40","0.3929518996311168","0.5366085696666316","0.23208410736426843","1","","","","","","","",""
"","html-keyboard-response","191","823708","0.0-105.0-1.0","""event"",""trial"",""time""
""focus"",""0"",""0""
""fullscreenenter"",""0"",""2541""
","
","""event"",""trial"",""time""
""focus"",""0"",""0""
","""event"",""trial"",""time""
""fullscreenenter"",""0"",""2541""
","
","null","<p></p>","null","","","","","","","","","","","","","","","","","","","","","","",""
"","do_trial","192","828518","0.0-106.0-0.0","""event"",""trial"",""time""
""focus"",""0"",""0""
""fullscreenenter"",""0"",""2541""
","
","""event"",""trial"",""time""
""focus"",""0"",""0""
","""event"",""trial"",""time""
""fullscreenenter"",""0"",""2541""
","
","237","","","","","","","","50","0,1,0","1","mountain","50","probe-178","0.34682192445795273","0.5826483087254385","0.15431358341646118","1","","","","","","","",""
"","html-keyboard-response","193","829531","0.0-106.0-1.0","""event"",""trial"",""time""
""focus"",""0"",""0""
""fullscreenenter"",""0"",""2541""
","
","""event"",""trial"",""time""
""focus"",""0"",""0""
","""event"",""trial"",""time""
""fullscreenenter"",""0"",""2541""
","
","null","<p></p>","null","","","","","","","","","","","","","","","","","","","","","","",""
"","do_trial","194","834331","0.0-107.0-0.0","""event"",""trial"",""time""
""focus"",""0"",""0""
""fullscreenenter"",""0"",""2541""
","
","""event"",""trial"",""time""
""focus"",""0"",""0""
","""event"",""trial"",""time""
""fullscreenenter"",""0"",""2541""
","
","232","","","","","","","","50","1,0,0","1","mountain","51","probe-108","0.29163775402132525","0.518086818911413","0.24589517480180229","0","","","","","","","",""
"","html-keyboard-response","195","835346","0.0-107.0-1.0","""event"",""trial"",""time""
""focus"",""0"",""0""
""fullscreenenter"",""0"",""2541""
","
","""event"",""trial"",""time""
""focus"",""0"",""0""
","""event"",""trial"",""time""
""fullscreenenter"",""0"",""2541""
","
","null","<p></p>","null","","","","","","","","","","","","","","","","","","","","","","",""
"","do_trial","196","840895","0.0-108.0-0.0","""event"",""trial"",""time""
""focus"",""0"",""0""
""fullscreenenter"",""0"",""2541""
","
","""event"",""trial"",""time""
""focus"",""0"",""0""
","""event"",""trial"",""time""
""fullscreenenter"",""0"",""2541""
","
","964","","","","","","","","50","0,0,0","1","mountain","52","probe-46","0.320694872707591","0.5243256476416819","0.1374763020101923","0","","","","","","","",""
"","html-keyboard-response","197","841906","0.0-108.0-1.0","""event"",""trial"",""time""
""focus"",""0"",""0""
""fullscreenenter"",""0"",""2541""
","
","""event"",""trial"",""time""
""focus"",""0"",""0""
","""event"",""trial"",""time""
""fullscreenenter"",""0"",""2541""
","
","null","<p></p>","null","","","","","","","","","","","","","","","","","","","","","","",""
"","do_trial","198","846787","0.0-109.0-0.0","""event"",""trial"",""time""
""focus"",""0"",""0""
""fullscreenenter"",""0"",""2541""
","
","""event"",""trial"",""time""
""focus"",""0"",""0""
","""event"",""trial"",""time""
""fullscreenenter"",""0"",""2541""
","
","279","","","","","","","","50","0,1,0","1","mountain","53","probe-197","0.309814199329314","0.5878596610953645","0.23400072041779446","1","","","","","","","",""
"","html-keyboard-response","199","847791","0.0-109.0-1.0","""event"",""trial"",""time""
""focus"",""0"",""0""
""fullscreenenter"",""0"",""2541""
","
","""event"",""trial"",""time""
""focus"",""0"",""0""
","""event"",""trial"",""time""
""fullscreenenter"",""0"",""2541""
","
","null","<p></p>","null","","","","","","","","","","","","","","","","","","","","","","",""
"","do_trial","200","852746","0.0-110.0-0.0","""event"",""trial"",""time""
""focus"",""0"",""0""
""fullscreenenter"",""0"",""2541""
","
","""event"",""trial"",""time""
""focus"",""0"",""0""
","""event"",""trial"",""time""
""fullscreenenter"",""0"",""2541""
","
","376","","","","","","","","50","0,0,0","1","mountain","54","probe-133","0.4384713983033806","0.6277638475898555","0.15256237873736864","0","","","","","","","",""
"","html-keyboard-response","201","853750","0.0-110.0-1.0","""event"",""trial"",""time""
""focus"",""0"",""0""
""fullscreenenter"",""0"",""2541""
","
","""event"",""trial"",""time""
""focus"",""0"",""0""
","""event"",""trial"",""time""
""fullscreenenter"",""0"",""2541""
","
","null","<p></p>","null","","","","","","","","","","","","","","","","","","","","","","",""
"","do_trial","202","858760","0.0-111.0-0.0","""event"",""trial"",""time""
""focus"",""0"",""0""
""fullscreenenter"",""0"",""2541""
","
","""event"",""trial"",""time""
""focus"",""0"",""0""
","""event"",""trial"",""time""
""fullscreenenter"",""0"",""2541""
","
","436","","","","","","","","50","1,1,1","1","mountain","55","probe-198","0.3586921382307567","0.5675916688637065","0.3642545969904643","1","","","","","","","",""
"","html-keyboard-response","203","859766","0.0-111.0-1.0","""event"",""trial"",""time""
""focus"",""0"",""0""
""fullscreenenter"",""0"",""2541""
","
","""event"",""trial"",""time""
""focus"",""0"",""0""
","""event"",""trial"",""time""
""fullscreenenter"",""0"",""2541""
","
","null","<p></p>","null","","","","","","","","","","","","","","","","","","","","","","",""
"","do_trial","204","864840","0.0-112.0-0.0","""event"",""trial"",""time""
""focus"",""0"",""0""
""fullscreenenter"",""0"",""2541""
","
","""event"",""trial"",""time""
""focus"",""0"",""0""
","""event"",""trial"",""time""
""fullscreenenter"",""0"",""2541""
","
","507","","","","","","","","50","0,0,1","1","mountain","56","probe-43","0.2988055178072911","0.49330019714230405","0.30944081489691927","0","","","","","","","",""
"","html-keyboard-response","205","865844","0.0-112.0-1.0","""event"",""trial"",""time""
""focus"",""0"",""0""
""fullscreenenter"",""0"",""2541""
","
","""event"",""trial"",""time""
""focus"",""0"",""0""
","""event"",""trial"",""time""
""fullscreenenter"",""0"",""2541""
","
","null","<p></p>","null","","","","","","","","","","","","","","","","","","","","","","",""
"","do_trial","206","870720","0.0-113.0-0.0","""event"",""trial"",""time""
""focus"",""0"",""0""
""fullscreenenter"",""0"",""2541""
","
","""event"",""trial"",""time""
""focus"",""0"",""0""
","""event"",""trial"",""time""
""fullscreenenter"",""0"",""2541""
","
","304","","","","","","","","50","0,0,1","1","mountain","57","probe-155","0.3821762255326891","0.443799998529344","0.18526340907132816","0","","","","","","","",""
"","html-keyboard-response","207","871727","0.0-113.0-1.0","""event"",""trial"",""time""
""focus"",""0"",""0""
""fullscreenenter"",""0"",""2541""
","
","""event"",""trial"",""time""
""focus"",""0"",""0""
","""event"",""trial"",""time""
""fullscreenenter"",""0"",""2541""
","
","null","<p></p>","null","","","","","","","","","","","","","","","","","","","","","","",""
"","do_trial","208","876542","0.0-114.0-0.0","""event"",""trial"",""time""
""focus"",""0"",""0""
""fullscreenenter"",""0"",""2541""
","
","""event"",""trial"",""time""
""focus"",""0"",""0""
","""event"",""trial"",""time""
""fullscreenenter"",""0"",""2541""
","
","234","","","","","","","","49","1,0,0","1","mountain","58","probe-185","0.2870567495337924","0.4678203691454462","0.20511441905398858","1","","","","","","","",""
"","html-keyboard-response","209","877547","0.0-114.0-1.0","""event"",""trial"",""time""
""focus"",""0"",""0""
""fullscreenenter"",""0"",""2541""
","
","""event"",""trial"",""time""
""focus"",""0"",""0""
","""event"",""trial"",""time""
""fullscreenenter"",""0"",""2541""
","
","null","<p></p>","null","","","","","","","","","","","","","","","","","","","","","","",""
"","do_trial","210","882468","0.0-115.0-0.0","""event"",""trial"",""time""
""focus"",""0"",""0""
""fullscreenenter"",""0"",""2541""
","
","""event"",""trial"",""time""
""focus"",""0"",""0""
","""event"",""trial"",""time""
""fullscreenenter"",""0"",""2541""
","
","329","","","","","","","","49","0,1,0","1","mountain","59","probe-166","0.3389292747250062","0.7028305197207244","0.1645860942967581","0","","","","","","","",""
"","html-keyboard-response","211","883475","0.0-115.0-1.0","""event"",""trial"",""time""
""focus"",""0"",""0""
""fullscreenenter"",""0"",""2541""
","
","""event"",""trial"",""time""
""focus"",""0"",""0""
","""event"",""trial"",""time""
""fullscreenenter"",""0"",""2541""
","
","null","<p></p>","null","","","","","","","","","","","","","","","","","","","","","","",""
"","do_trial","212","888347","0.0-116.0-0.0","""event"",""trial"",""time""
""focus"",""0"",""0""
""fullscreenenter"",""0"",""2541""
","
","""event"",""trial"",""time""
""focus"",""0"",""0""
","""event"",""trial"",""time""
""fullscreenenter"",""0"",""2541""
","
","272","","","","","","","","49","0,1,0","1","mountain","60","probe-02","0.2611079871897696","0.7494732228577944","0.13071412593976395","0","","","","","","","",""
"","html-keyboard-response","213","889356","0.0-116.0-1.0","""event"",""trial"",""time""
""focus"",""0"",""0""
""fullscreenenter"",""0"",""2541""
","
","""event"",""trial"",""time""
""focus"",""0"",""0""
","""event"",""trial"",""time""
""fullscreenenter"",""0"",""2541""
","
","null","<p></p>","null","","","","","","","","","","","","","","","","","","","","","","",""
"","do_trial","214","894834","0.0-117.0-0.0","""event"",""trial"",""time""
""focus"",""0"",""0""
""fullscreenenter"",""0"",""2541""
","
","""event"",""trial"",""time""
""focus"",""0"",""0""
","""event"",""trial"",""time""
""fullscreenenter"",""0"",""2541""
","
","896","","","","","","","","51","1,1,0","1","mountain","61","probe-141","0.28877835258592277","0.7065432807481027","0.19234917209138774","0","","","","","","","",""
"","html-keyboard-response","215","895841","0.0-117.0-1.0","""event"",""trial"",""time""
""focus"",""0"",""0""
""fullscreenenter"",""0"",""2541""
","
","""event"",""trial"",""time""
""focus"",""0"",""0""
","""event"",""trial"",""time""
""fullscreenenter"",""0"",""2541""
","
","null","<p></p>","null","","","","","","","","","","","","","","","","","","","","","","",""
"","do_trial","216","900727","0.0-118.0-0.0","""event"",""trial"",""time""
""focus"",""0"",""0""
""fullscreenenter"",""0"",""2541""
","
","""event"",""trial"",""time""
""focus"",""0"",""0""
","""event"",""trial"",""time""
""fullscreenenter"",""0"",""2541""
","
","327","","","","","","","","51","0,1,0","1","mountain","62","probe-34","0.2922650033046273","0.6541057744285023","0.2785541057759351","0","","","","","","","",""
"","html-keyboard-response","217","901734","0.0-118.0-1.0","""event"",""trial"",""time""
""focus"",""0"",""0""
""fullscreenenter"",""0"",""2541""
","
","""event"",""trial"",""time""
""focus"",""0"",""0""
","""event"",""trial"",""time""
