"success","trial_type","trial_index","time_elapsed","internal_node_id","rt","stimulus","key_press","subject_id","response","choice_outcomes","context_n","context_img_id","trial_n","probe_img_id","pR_red","pR_white","pR_black","outcome","contextArray_ind","validImageProbes","invalidImageProbes","pRew_Red","pRew_White","pRew_Black","availableForMemProbe","choice_blocks"
"true","fullscreen","0","10445","0.0-0.0","","","","","","","","","","","","","","","","","","","","","",""
"","pavlovia","1","10452","0.0-1.0","","","","","","","","","","","","","","","","","","","","","",""
"","html-keyboard-response","2","138063","0.0-2.0","127606.39999961853","<div class='center'><p>Welcome! This is the first day of the experiment which will last ~30 minutes. In this experiment, you are the head captain of a pirate ship traveling around the world to different places. You will complete several different tasks during this experiment. Here is an overview of these tasks:</p><br><p>Day 1</p><p>1. Tutorial and quiz</p><p>2. Pick a pirate game in 6 different places</p><br><p>Day 2</p><p>3. Pick a pirate game and memory game</p><p>4. Final questions and payment</p><br><p>If you complete the entire experiment, you will receive $15 and a possible bonus payment.</p><p><b>[Press the space bar to begin the tutorial]</b></p></div>","32","614860a9f6d5f8c9c9b12b20","","","","","","","","","","","","","","","","","",""
"","html-keyboard-response","3","154636","0.0-3.0","16567.70000076294","<div class='center'><p>You are the head captain of a pirate ship.</p><p> Your pirates rob other ships as they leave the marketplace port.</p> These ships have just sold all their goods at the marketplace, so they have lots and lots of gold on them.</p><p><img src='run_exp/static/images/ship_center.png' height='400'></p><p><b>[Press the space bar to continue]</b></p></div>","32","","","","","","","","","","","","","","","","","","",""
"","html-keyboard-response","4","174270","0.0-4.0","19630.699999809265","<div class='center'><p>As the head captain, you do not have to rob any ships yourself.</p><p>You get to choose which pirate you want to rob the next ship. </p><p>If they are successful at robbing the ship, then you will get gold coins.</p><p> If they are not successful, then you will get no gold coins.</p><p> The more coins you collect, the more bonus money you will win. So, choose your pirate wisely.</p><p><img src='run_exp/static/images/goal.png' height='400'></p><p><b>[Press the space bar to continue]</b></p><div>","32","","","","","","","","","","","","","","","","","","",""
"","html-keyboard-response","5","211045","0.0-5.0","36772.5","<div class='center'><p>Even the most skilled pirate will not be able to rob EVERY ship.</p><p> Some ships will have very strong defenses against attacks.</p><p> For example, blue beard, here,  is very good at robbing ships.</p><p> You can press the <b>‘1’</b> button on the keyboard to choose him.</p><p> Try choosing him 10 times to see how often he is successful at robbing ships. </p><p><img src='run_exp/static/images/blue.png' height='500'></p></div>","49","","","","","","","","","","","","","","","","","","",""
"","html-keyboard-response","6","212548","0.0-6.0","null","<br><br><br><br><p><img src='run_exp/static/images/blue_win.png' height='500'></p>","null","","","","","","","","","","","","","","","","","","",""
"","html-keyboard-response","7","212885","0.0-7.0","334.20000076293945","<br><br><br><br><p><img src='run_exp/static/images/blue.png' height='500'></p>","49","","","","","","","","","","","","","","","","","","",""
"","html-keyboard-response","8","214389","0.0-8.0","null","<br><br><br><br><p><img src='run_exp/static/images/blue_win.png' height='500'></p>","null","","","","","","","","","","","","","","","","","","",""
"","html-keyboard-response","9","216009","0.0-9.0","1618.3999996185303","<br><br><br><br><p><img src='run_exp/static/images/blue.png' height='500'></p>","49","","","","","","","","","","","","","","","","","","",""
"","html-keyboard-response","10","217512","0.0-10.0","null","<br><br><br><br><p><img src='run_exp/static/images/blue_win.png' height='500'></p>","null","","","","","","","","","","","","","","","","","","",""
"","html-keyboard-response","11","218268","0.0-11.0","753.5999994277954","<br><br><br><br><p><img src='run_exp/static/images/blue.png' height='500'></p>","49","","","","","","","","","","","","","","","","","","",""
"","html-keyboard-response","12","219771","0.0-12.0","null","<br><br><br><br><p><img src='run_exp/static/images/blue_no_win.png' height='500'></p>","null","","","","","","","","","","","","","","","","","","",""
"","html-keyboard-response","13","221244","0.0-13.0","1470.1999998092651","<br><br><br><br><p><img src='run_exp/static/images/blue.png' height='500'></p>","49","","","","","","","","","","","","","","","","","","",""
"","html-keyboard-response","14","222746","0.0-14.0","null","<br><br><br><br><p><img src='run_exp/static/images/blue_win.png' height='500'></p>","null","","","","","","","","","","","","","","","","","","",""
"","html-keyboard-response","15","223770","0.0-15.0","1021.8999996185303","<br><br><br><br><p><img src='run_exp/static/images/blue.png' height='500'></p>","49","","","","","","","","","","","","","","","","","","",""
"","html-keyboard-response","16","225273","0.0-16.0","null","<br><br><br><br><p><img src='run_exp/static/images/blue_win.png' height='500'></p>","null","","","","","","","","","","","","","","","","","","",""
"","html-keyboard-response","17","225831","0.0-17.0","555.3999996185303","<br><br><br><br><p><img src='run_exp/static/images/blue.png' height='500'></p>","49","","","","","","","","","","","","","","","","","","",""
"","html-keyboard-response","18","227334","0.0-18.0","null","<br><br><br><br><p><img src='run_exp/static/images/blue_win.png' height='500'></p>","null","","","","","","","","","","","","","","","","","","",""
"","html-keyboard-response","19","227860","0.0-19.0","524.7000007629395","<br><br><br><br><p><img src='run_exp/static/images/blue.png' height='500'></p>","49","","","","","","","","","","","","","","","","","","",""
"","html-keyboard-response","20","229363","0.0-20.0","null","<br><br><br><br><p><img src='run_exp/static/images/blue_no_win.png' height='500'></p>","null","","","","","","","","","","","","","","","","","","",""
"","html-keyboard-response","21","230039","0.0-21.0","674.6999998092651","<br><br><br><br><p><img src='run_exp/static/images/blue.png' height='500'></p>","49","","","","","","","","","","","","","","","","","","",""
"","html-keyboard-response","22","231541","0.0-22.0","null","<br><br><br><br><p><img src='run_exp/static/images/blue_win.png' height='500'></p>","null","","","","","","","","","","","","","","","","","","",""
"","html-keyboard-response","23","232060","0.0-23.0","516.4000005722046","<br><br><br><br><p><img src='run_exp/static/images/blue.png' height='500'></p>","49","","","","","","","","","","","","","","","","","","",""
"","html-keyboard-response","24","233562","0.0-24.0","null","<br><br><br><br><p><img src='run_exp/static/images/blue_win.png' height='500'></p>","null","","","","","","","","","","","","","","","","","","",""
"","html-keyboard-response","25","242907","0.0-25.0","9343.199999809265","<div class='center'><p> See, he was successful at robbing the ships most of the time but not every time. </p><p><b>[Press the space bar to continue]</b></p></div>","32","","","","","","","","","","","","","","","","","","",""
"","html-keyboard-response","26","256839","0.0-26.0","13929.199999809265","<div class='center'><p>In the game, you will get to choose which of three pirates you want to rob the next ship. <p>Press the <b>‘1’</b> button on your keyboard to pick the pirate with the red beard.</p><p> Press <b>‘2’</b> to pick the pirate with the white beard.</p><p> Press <b>‘3’</b> to pick the pirate with the black beard.</p><p>Try picking a pirate now!</p><p><img src='run_exp/static/images/all_pirates.png' height='500'></p></div>","49","","","","","","","","","","","","","","","","","","",""
"","html-keyboard-response","27","259215","0.0-27.0-0.0","2370.800000190735","<div class='center'><p>This pirate was successful at robbing the ship!</p><p><img src='run_exp/static/images/red_win.png' height='500'></p><p><b>[Press the space bar to continue]</b></p></div>","32","","","","","","","","","","","","","","","","","","",""
"","html-keyboard-response","28","262968","0.0-27.0-1.0","3750.8999996185303","<div class='center'><p>Now try choosing another</p><p><img src='run_exp/static/images/all_pirates.png' height='500'></p></div>","50","","","","","","","","","","","","","","","","","","",""
"","html-keyboard-response","29","265058","0.0-28.0-0.0","2085.3999996185303","<div class='center'><p>This pirate was not successful at robbing the ship!</p><p><img src='run_exp/static/images/white_no_win.png' height='500'></p><p><b>[Press the space bar to continue]</b></p></div>","32","","","","","","","","","","","","","","","","","","",""
"","html-keyboard-response","30","271906","0.0-29.0-0.0","6845.800000190735","<div class='center'><p>You’ll stop at these 6 places on your journey.</p><p><img src='run_exp/static/images/all_contexts.png' height='500'></p><p><b>[Press the space bar to continue]</b></p></div>","32","","","","","","","","","","","","","","","","","","",""
"","html-keyboard-response","31","283799","0.0-29.0-1.0","11892.39999961853","<div class='center'><p>How good a pirate is at robbing ships will depend on the current place.</p><p> Some pirates will have been to the place before, and will have more experience robbing ships there.</p><p>So, they will be more successful at stealing gold and bringing it back to you.</p><p><b>[Press the space bar to continue]</b></p></div>","32","","","","","","","","","","","","","","","","","","",""
"","html-keyboard-response","32","323789","0.0-29.0-2.0","39986.599999427795","<div class='center'><p>How successful a pirate is at robbing ships can also change in a place.<p> Ships may hear about the pirates coming and will improve their defenses. This may make it more difficult to rob them.</p><p> Ships may also grow lazy and lower their defenses. This may make it easier to rob them.</p><br><p>Things are always changing on the high seas! So, try your best to pay attention!</p><p><img src='run_exp/static/images/contingency.png' height='500'></p><p><b>[Press the space bar to continue]</b></p></div>","32","","","","","","","","","","","","","","","","","","",""
"","html-keyboard-response","33","456462","0.0-29.0-3.0","132668.30000019073","<div class='center'><p>Once you choose a pirate to rob a ship, you’ll be shown the ship they are robbing.</p><p>The ship will have a picture of the item they sold at the marketplace.</p><p> Try your best to remember the ship and where you saw the ship.</p><p> You’ll have to remember this for later, and remembering this correctly will help you win more bonus money!</p><p>You can remember the ship by remembering the item they sold at the marketplace</p><p>A helpful strategy is to try to come up with a story of the chosen pirate and ship’s item interacting with the scene.</p><p> For example, a ship might have sold travel mugs and you could imagine red beard walking through the city with a travel mug. </p><p>Or imagine an apple falling from a tree into white beard's hands in the forest.</p><p><img src='run_exp/static/images/example_probe.png' height='500'></p><p><b>[Press the space bar to continue]</b></p></div>","32","","","","","","","","","","","","","","","","","","",""
"","html-keyboard-response","34","470629","0.0-29.0-4.0","14163.900000572205","<div class='center'><p>If you don’t make your choice fast enough, you’ll have to wait a few seconds before you can make another one. </p><p>You can’t win more gold. You just have to sit and wait.</p><p><img src='run_exp/static/images/hurry_up.png' height='500'></p><p><b>[Press the space bar to continue]</b></p></div>","32","","","","","","","","","","","","","","","","","","",""
"","html-keyboard-response","35","504623","0.0-29.0-5.0","33992.699999809265","<div class='center'><p>Again, you have two important things to do: </p><b><p> 1. Pick the pirate who you think will be most successful at robbing the next ship.</p></b><b><p> 2. Remember where a pirate robbed a ship.</p> </b><p>Both are important in determining how much bonus money you’ll win.</p><br><p>Let’s try a practice game. The game will start by showing you the pirates. First pick a pirate using the <b> 1, 2, 3 </b> buttons on your keyboard. When you are shown a ship, try to remember the place you’re in by making up a story.</p><p> You only have 3 seconds to pick a pirate, so please make a choice quickly! If you are too slow, you’ll have to wait a bit during the time out.</p><p> Don’t feel rushed, but please do try to make a choice every time.</p><p>How good a pirate is at robbing a ship will change depending on the place they are in and how good the defenses are of the ship.</p> <p>This is just a practice game, so you’re not playing for money. </p><p>You’ll receive a bag which may or may not contain gold coins.</p><p> In the real game, though, you’ll be able to see whether or not you received the gold coins.</p><p> Good luck, remember press <b>'1'</b> to choose red beard, <b>'2'</b> to choose white beard, and <b>'3'</b> to choose black beard</p><p><b>[Press the space bar to begin the practice game]</b></p></div>","32","","","","","","","","","","","","","","","","","","",""
"","do_trial_prac","36","511490","0.0-29.0-6.0","1890.3000001907349","","","","49","","","","","","","","","","","","","","","","",""
"","do_trial_prac","37","517502","0.0-29.0-7.0","null","","","","null","","","","","","","","","","","","","","","","",""
"","do_trial_prac","38","522734","0.0-29.0-8.0","719.8999996185303","","","","50","","","","","","","","","","","","","","","","",""
"","do_trial_prac","39","528006","0.0-29.0-9.0","758.3999996185303","","","","50","","","","","","","","","","","","","","","","",""
"","do_trial_prac","40","533109","0.0-29.0-10.0","589.1999998092651","","","","49","","","","","","","","","","","","","","","","",""
"","html-keyboard-response","41","540816","0.0-29.0-11.0","7704.89999961853","<div class='center'><p>Great job on the practice game!</p><p> Now, you will be asked you some true or false questions to make sure you really understand the rules of the game.</p><p> Press <b>'1'</b> on the keyboard for true and press <b>'2'</b> for false.</p><p><b>[Press the space bar to begin the quiz]</b></p></div>","32","","","","","","","","","","","","","","","","","","",""
"","html-keyboard-response","42","549246","0.0-29.0-12.0","8428","<div class='center'><p>You win bonus money by making choices as fast as possible.</p><p>Press 1 for true and press  2 for false.</p></div>","49","","","","","","","","","","","","","","","","","","",""
"","html-keyboard-response","43","554610","0.0-30.0-0.0","5360.39999961853","<br><br><br><br><p>That’s incorrect! You win bonus money by collecting as many gold coins as possible!</p><p><b>[press the space bar to continue with the quiz]</b></p>","32","","","","","","","","","","","","","","","","","","",""
"","html-keyboard-response","44","565502","0.0-30.0-1.0","10890.800000190735","<div class='center'><p>You press the <b>‘3’</b> button on the keyboard to choose the red bearded pirate? </p><p>Press 1 for true and press  2 for false.</p></div>","50","","","","","","","","","","","","","","","","","","",""
"","html-keyboard-response","45","567395","0.0-31.0-0.0","1890.1000003814697","<br><br><br><br><p>That's correct!</p> <p><b>[press the space bar to continue with the quiz]</b></p>","32","","","","","","","","","","","","","","","","","","",""
"","html-keyboard-response","46","573424","0.0-31.0-1.0","6027.900000572205","<div class='center'><p>A pirate will always be equally successful at robbing ships in each place</p><p>Press 1 for true and press  2 for false.</p></div>","50","","","","","","","","","","","","","","","","","","",""
"","html-keyboard-response","47","576724","0.0-32.0-0.0","3297.4000005722046","<br><br><br><br><p>That's correct!</p> <p><b>[press the space bar to continue with the quiz]</b></p>","32","","","","","","","","","","","","","","","","","","",""
"","html-keyboard-response","48","583222","0.0-32.0-1.0","6495.10000038147","<div class='center'><p>You should remember the place where a pirate robbed a ship.</p><p>Press 1 for true and press  2 for false.</p></div>","49","","","","","","","","","","","","","","","","","","",""
"","html-keyboard-response","49","585324","0.0-33.0-0.0","2100.199999809265","<br><br><br><br><p>That's correct!</p> <p><b>[press the space bar to continue with the quiz]</b></p>","32","","","","","","","","","","","","","","","","","","",""
"","html-keyboard-response","50","592761","0.0-34.0-0.0","7435.199999809265","<br><br><br><br><p>Oops, you missed some questions. Now that you’ve heard the correct answers. Try the quiz again! If you fail the quiz too many times, you won’t be able to do the experiment. </p> <p><br>[press the space bar to repeat the quiz]</br></p>","32","","","","","","","","","","","","","","","","","","",""
"","html-keyboard-response","51","597465","0.0-34.0-1.0","4701.800000190735","<div class='center'><p>You win bonus money by making choices as fast as possible.</p><p>Press 1 for true and press  2 for false.</p></div>","49","","","","","","","","","","","","","","","","","","",""
"","html-keyboard-response","52","599887","0.0-35.0-0.0","2419.5","<br><br><br><br><p>That’s incorrect! You win bonus money by collecting as many gold coins as possible!</p><p><b>[press the space bar to continue with the quiz]</b></p>","32","","","","","","","","","","","","","","","","","","",""
"","html-keyboard-response","53","605989","0.0-35.0-1.0","6099.599999427795","<div class='center'><p>You press the <b>‘3’</b> button on the keyboard to choose the red bearded pirate? </p><p>Press 1 for true and press  2 for false.</p></div>","50","","","","","","","","","","","","","","","","","","",""
"","html-keyboard-response","54","607303","0.0-36.0-0.0","1311.1000003814697","<br><br><br><br><p>That's correct!</p> <p><b>[press the space bar to continue with the quiz]</b></p>","32","","","","","","","","","","","","","","","","","","",""
"","html-keyboard-response","55","612118","0.0-36.0-1.0","4811.900000572205","<div class='center'><p>A pirate will always be equally successful at robbing ships in each place</p><p>Press 1 for true and press  2 for false.</p></div>","50","","","","","","","","","","","","","","","","","","",""
"","html-keyboard-response","56","612944","0.0-37.0-0.0","824.8000001907349","<br><br><br><br><p>That's correct!</p> <p><b>[press the space bar to continue with the quiz]</b></p>","32","","","","","","","","","","","","","","","","","","",""
"","html-keyboard-response","57","615516","0.0-37.0-1.0","2569.800000190735","<div class='center'><p>You should remember the place where a pirate robbed a ship.</p><p>Press 1 for true and press  2 for false.</p></div>","49","","","","","","","","","","","","","","","","","","",""
"","html-keyboard-response","58","616115","0.0-38.0-0.0","597","<br><br><br><br><p>That's correct!</p> <p><b>[press the space bar to continue with the quiz]</b></p>","32","","","","","","","","","","","","","","","","","","",""
"","html-keyboard-response","59","617919","0.0-39.0-0.0","1801.3999996185303","<br><br><br><br><p>Oops, you missed some questions. Now that you’ve heard the correct answers. Try the quiz again! If you fail the quiz too many times, you won’t be able to do the experiment. </p> <p><br>[press the space bar to repeat the quiz]</br></p>","32","","","","","","","","","","","","","","","","","","",""
"","html-keyboard-response","60","621867","0.0-39.0-1.0","3945","<div class='center'><p>You win bonus money by making choices as fast as possible.</p><p>Press 1 for true and press  2 for false.</p></div>","50","","","","","","","","","","","","","","","","","","",""
"","html-keyboard-response","61","622584","0.0-40.0-0.0","713.6000003814697","<br><br><br><br><p>That's correct!</p> <p><b>[press the space bar to continue with the quiz]</b></p>","32","","","","","","","","","","","","","","","","","","",""
"","html-keyboard-response","62","624776","0.0-40.0-1.0","2190.9000005722046","<div class='center'><p>You press the <b>‘3’</b> button on the keyboard to choose the red bearded pirate? </p><p>Press 1 for true and press  2 for false.</p></div>","50","","","","","","","","","","","","","","","","","","",""
"","html-keyboard-response","63","625425","0.0-41.0-0.0","645.8999996185303","<br><br><br><br><p>That's correct!</p> <p><b>[press the space bar to continue with the quiz]</b></p>","32","","","","","","","","","","","","","","","","","","",""
"","html-keyboard-response","64","636510","0.0-41.0-1.0","11082.300000190735","<div class='center'><p>A pirate will always be equally successful at robbing ships in each place</p><p>Press 1 for true and press  2 for false.</p></div>","50","","","","","","","","","","","","","","","","","","",""
"","html-keyboard-response","65","637067","0.0-42.0-0.0","555.2000007629395","<br><br><br><br><p>That's correct!</p> <p><b>[press the space bar to continue with the quiz]</b></p>","32","","","","","","","","","","","","","","","","","","",""
"","html-keyboard-response","66","639928","0.0-42.0-1.0","2857.800000190735","<div class='center'><p>You should remember the place where a pirate robbed a ship.</p><p>Press 1 for true and press  2 for false.</p></div>","49","","","","","","","","","","","","","","","","","","",""
"","html-keyboard-response","67","640576","0.0-43.0-0.0","591.3999996185303","<br><br><br><br><p>That's correct!</p> <p><b>[press the space bar to continue with the quiz]</b></p>","32","","","","","","","","","","","","","","","","","","",""
"","html-keyboard-response","68","642660","0.0-44.0-0.0","2081.1000003814697","<br><br><br><br><p>Good job! You’re now ready to move on to the real game!</p> <p><br>[press the space bar to begin!]</br></p>","32","","","","","","","","","","","","","","","","","","",""
"","do_welcome","69","644182","0.0-45.0-0.0","null","","","","null","","","","","","","","","","","","","","","","",""
"","do_trial","70","651618","0.0-46.0-0.0","2728.9000005722046","","","","49","1,1,0","0","countryside","0","probe-20","1","0.4","0.1","1","","","","","","","",""
"","do_trial","71","657977","0.0-47.0-0.0","1642.5999994277954","","","","49","1,0,0","0","countryside","1","probe-141","1","0.19485042648426348","0.2957763825843324","1","","","","","","","",""
"","do_trial","72","663071","0.0-48.0-0.0","395.0999994277954","","","","49","1,0,0","0","countryside","2","probe-151","1","0.2486357203813602","0.08564598501082048","1","","","","","","","",""
"","do_trial","73","668235","0.0-49.0-0.0","420.69999980926514","","","","50","1,1,0","0","countryside","3","probe-222","1","0.12884872929266408","0.16825898823855093","1","","","","","","","",""
"","do_trial","74","673069","0.0-50.0-0.0","134.30000019073486","","","","50","1,0,0","0","countryside","4","probe-22","0.9167571400535556","0.21805698820719144","0.17359294588193783","0","","","","","","","",""
"","do_trial","75","679672","0.0-51.0-0.0","1829","","","","50","1,0,0","0","countryside","5","probe-05","0.8264533787083858","0.29540229246411753","0.12043221175158335","0","","","","","","","",""
"","do_trial","76","684595","0.0-52.0-0.0","233.9000005722046","","","","51","1,0,0","0","countryside","6","probe-202","0.7116747277856329","0.3283285691762083","0.08816036207550897","0","","","","","","","",""
"","do_trial","77","689619","0.0-53.0-0.0","362.69999980926514","","","","51","1,0,1","0","countryside","7","probe-143","0.7650246390902004","0.4419175377837934","0.19152514136768234","1","","","","","","","",""
"","do_trial","78","694296","0.0-54.0-0.0","0.3000001907348633","","","","51","0,1,0","0","countryside","8","probe-235","0.8594488613566514","0.48536038687644123","0.10645650830835862","0","","","","","","","",""
"","do_trial","79","699401","0.0-55.0-0.0","418.80000019073486","","","","50","1,0,0","0","countryside","9","probe-160","0.7115968040031679","0.33051416602973027","0.08447169773017212","0","","","","","","","",""
"","do_trial","80","704396","0.0-56.0-0.0","330.6000003814697","","","","49","0,0,0","0","countryside","10","probe-117","0.5340839821307206","0.45470346981314025","0.12965717039016705","0","","","","","","","",""
"","do_trial","81","709402","0.0-57.0-0.0","344.8999996185303","","","","49","1,1,0","0","countryside","11","probe-23","0.49200972268635446","0.6555000658865363","0.12975943828450162","1","","","","","","","",""
"","do_trial","82","714202","0.0-58.0-0.0","89.19999980926514","","","","50","1,1,0","0","countryside","12","probe-34","0.5218310739910559","0.7219932263676373","0.1360871793108683","1","","","","","","","",""
"","do_trial","83","718891","0.0-59.0-0.0","0.2999992370605469","","","","50","1,0,0","0","countryside","13","probe-154","0.3930843876772096","0.8040668928361826","0.20299141693039793","0","","","","","","","",""
"","do_trial","84","724618","0.0-60.0-0.0","1054.6999998092651","","","","49","1,1,0","0","countryside","14","probe-111","0.44219054500109883","0.7829397143410486","0.08335007773769224","1","","","","","","","",""
"","do_trial","85","729792","0.0-61.0-0.0","496.9000005722046","","","","49","0,1,0","0","countryside","15","probe-169","0.445942030670077","0.733116392638082","0.13802536416426162","0","","","","","","","",""
"","do_trial","86","734670","0.0-62.0-0.0","137.9000005722046","","","","49","0,1,0","0","countryside","16","probe-92","0.5273682787317869","0.8753255915050591","0.3060881805772924","0","","","","","","","",""
"","do_trial","87","740192","0.0-63.0-0.0","817.1999998092651","","","","49","0,1,0","0","countryside","17","probe-225","0.5009260130188874","0.8931719360497382","0.3818994543406061","0","","","","","","","",""
"","do_trial","88","745549","0.0-64.0-0.0","636.1999998092651","","","","50","0,1,0","0","countryside","18","probe-30","0.35161242159828876","0.8824204266603769","0.2771604680334751","1","","","","","","","",""
"","do_trial","89","751202","0.0-65.0-0.0","932.2000007629395","","","","49","1,1,0","0","countryside","19","probe-182","0.30308242643026134","0.8892593086042321","0.31887007384335975","1","","","","","","","",""
"","do_trial","90","756389","0.0-66.0-0.0","471.8999996185303","","","","49","0,1,0","0","countryside","20","probe-223","0.21710405580011355","0.9004189056595843","0.2714544365019978","0","","","","","","","",""
"","do_trial","91","761096","0.0-67.0-0.0","0.5","","","","50","1,1,0","0","countryside","21","probe-175","0.353760064460715","0.9021873352565064","0.06951666477530818","1","","","","","","","",""
"","do_trial","92","766092","0.0-68.0-0.0","277.69999980926514","","","","49","0,1,0","0","countryside","22","probe-04","0.4593916579700679","0.9047568838227276","0.09104788964833979","0","","","","","","","",""
"","do_trial","93","770795","0.0-69.0-0.0","0.3000001907348633","","","","50","0,1,0","0","countryside","23","probe-178","0.3342240291060867","0.9424608264613802","0.06575930997071812","1","","","","","","","",""
"","do_trial","94","776424","0.0-70.0-0.0","948.1000003814697","","","","50","1,1,0","0","countryside","24","probe-214","0.42009362777780873","0.8559812550380028","0.09204825580902581","1","","","","","","","",""
"","do_trial","95","781132","0.0-71.0-0.0","0.39999961853027344","","","","51","1,1,1","0","countryside","25","probe-70","0.3512646901979312","0.8323114029917402","0.22599262250493726","1","","","","","","","",""
"","do_trial","96","786049","0.0-72.0-0.0","186.30000019073486","","","","51","1,1,1","0","countryside","26","probe-231","0.4053309244338309","0.834249030919454","0.18642262547844315","1","","","","","","","",""
"","do_trial","97","791305","0.0-73.0-0.0","574.6999998092651","","","","49","0,1,0","0","countryside","27","probe-69","0.36274861983367673","0.8494405535386552","0.057967061961687584","0","","","","","","","",""
"","do_trial","98","796072","0.0-74.0-0.0","82.80000019073486","","","","50","0,1,0","0","countryside","28","probe-49","0.34897549886414503","0.9020395593416335","0.16737794719499896","1","","","","","","","",""
"","do_trial","99","800748","0.0-75.0-0.0","0.40000057220458984","","","","51","1,1,0","0","countryside","29","probe-189","0.40898475994684347","0.9418308179653303","0.1297204418253119","0","","","","","","","",""
"","do_trial","100","806386","0.0-76.0-0.0","939.0999994277954","","","","50","0,1,0","0","countryside","30","probe-96","0.43599165378521","0.932049825859138","0.12604260381481605","1","","","","","","","",""
"","do_trial","101","811245","0.0-77.0-0.0","192.10000038146973","","","","49","0,1,0","0","countryside","31","probe-219","0.4301192156923519","0.8925536090750109","0.05038442126580669","0","","","","","","","",""
"","do_trial","102","815910","0.0-78.0-0.0","0.40000057220458984","","","","51","1,1,0","0","countryside","32","probe-184","0.40146168941106836","0.8983185993171778","0.16771044169912977","0","","","","","","","",""
"","do_trial","103","821787","0.0-79.0-0.0","1211","","","","49","0,1,0","0","countryside","33","probe-07","0.31739606964447614","0.8100827357890461","0.13174463064357528","0","","","","","","","",""
"","do_trial","104","826685","0.0-80.0-0.0","226.79999923706055","","","","50","0,1,0","0","countryside","34","probe-153","0.42251326324198624","0.8125241215142768","0.17024250330670454","1","","","","","","","",""
"","do_trial","105","831346","0.0-81.0-0.0","0.19999980926513672","","","","50","0,1,0","0","countryside","35","probe-147","0.43666537726121735","0.6377124963934998","0.23546606038010787","1","","","","","","","",""
"","do_trial","106","838765","0.0-82.0-0.0","2753.3999996185303","","","","50","0,0,0","0","countryside","36","probe-232","0.3900739832427918","0.619058637815221","0.2216198715534039","0","","","","","","","",""
"","do_trial","107","844301","0.0-83.0-0.0","867","","","","50","1,0,0","0","countryside","37","probe-129","0.4641947872716215","0.7030996075418635","0.29848003701182657","0","","","","","","","",""
"","do_trial","108","849747","0.0-84.0-0.0","778.8000001907349","","","","50","0,1,0","0","countryside","38","probe-62","0.5340584555549639","0.7013971403026734","0.3249073481751924","1","","","","","","","",""
"","do_trial","109","854697","0.0-85.0-0.0","234.9000005722046","","","","49","1,1,1","0","countryside","39","probe-196","0.42868626040695496","0.6843070093895953","0.21786113655590736","1","","","","","","","",""
"","do_bye","110","856216","0.0-86.0-0.0","null","","","","null","","","","","","","","","","","","","","","","",""
"","do_travel","111","862802","0.0-87.0-0.0","null","","","","null","","","","","","","","","","","","","","","","",""
"","do_welcome","112","864318","0.0-87.0-1.0","null","","","","null","","","","","","","","","","","","","","","","",""
"","do_trial","113","871403","0.0-88.0-0.0","2358.800000190735","","","","50","0,1,0","1","coast","40","probe-107","0.43957442657556817","1","0.1560210425858869","1","","","","","","","",""
"","do_trial","114","876111","0.0-89.0-0.0","8.5","","","","49","0,1,1","1","coast","41","probe-78","0.4153283524274747","1","0.12411416279823995","0","","","","","","","",""
"","do_trial","115","881259","0.0-90.0-0.0","456.69999980926514","","","","49","0,1,0","1","coast","42","probe-79","0.3521805701962748","1","0.13488608886321193","0","","","","","","","",""
"","do_trial","116","886604","0.0-91.0-0.0","646.0999994277954","","","","50","0,1,0","1","coast","43","probe-35","0.4903740475555597","1","0.17849337213728902","1","","","","","","","",""
"","do_trial","117","891289","0.0-92.0-0.0","0.3000001907348633","","","","49","0,1,0","1","coast","44","probe-43","0.5358467569063772","0.9421820066410209","0.15844486931219728","0","","","","","","","",""
"","do_trial","118","896011","0.0-93.0-0.0","41.79999923706055","","","","50","0,1,0","1","coast","45","probe-230","0.5664941006116684","0.8297683168019394","0.15485612252950437","1","","","","","","","",""
"","do_trial","119","901010","0.0-94.0-0.0","311.3999996185303","","","","49","0,1,1","1","coast","46","probe-61","0.6767487269555781","0.6668921760633031","0.1479863938689261","0","","","","","","","",""
"","do_trial","120","905750","0.0-95.0-0.0","0.3000001907348633","","","","50","0,1,0","1","coast","47","probe-186","0.4618704899326651","0.598533387927335","0.16840354728156123","1","","","","","","","",""
"","do_trial","121","910736","0.0-96.0-0.0","252.60000038146973","","","","50","0,1,0","1","coast","48","probe-16","0.46977913214380257","0.6310775411876709","0.1018011160410914","1","","","","","","","",""
"","do_trial","122","915786","0.0-97.0-0.0","345.0999994277954","","","","50","1,0,0","1","coast","49","probe-217","0.4572428394242069","0.6946372335817896","0.1440020341977994","0","","","","","","","",""
"","do_trial","123","920506","0.0-98.0-0.0","0.39999961853027344","","","","50","0,0,1","1","coast","50","probe-112","0.3665629379537534","0.3935893317303554","0.6087119131807365","0","","","","","","","",""
"","do_trial","124","927586","0.0-99.0-0.0","2396.5999994277954","","","","49","1,1,1","1","coast","51","probe-18","0.33484826350098446","0.3698183949690262","0.6401714001515015","1","","","","","","","",""
"","do_trial","125","932304","0.0-100.0-0.0","55.69999980926514","","","","50","0,0,0","1","coast","52","probe-135","0.43601656458248644","0.3221569359085267","0.6314535683892232","0","","","","","","","",""
"","do_trial","126","936967","0.0-101.0-0.0","0.3000001907348633","","","","49","1,0,1","1","coast","53","probe-181","0.5052921896286285","0.22106712611627913","0.8644909508821544","1","","","","","","","",""
"","do_trial","127","941633","0.0-102.0-0.0","4.299999237060547","","","","50","1,0,1","1","coast","54","probe-187","0.4240138960527437","0.19694072105022067","0.8232436700935973","0","","","","","","","",""
"","do_trial","128","946500","0.0-103.0-0.0","204.30000019073486","","","","50","1,0,0","1","coast","55","probe-106","0.36650774191075874","0.08475071121290131","0.8316925050169779","0","","","","","","","",""
"","do_trial","129","951171","0.0-104.0-0.0","0.3000001907348633","","","","50","0,0,1","1","coast","56","probe-237","0.2632250987269098","0.05890002692652036","0.9010352213590158","0","","","","","","","",""
"","do_trial","130","955851","0.0-105.0-0.0","0.3000001907348633","","","","50","1,0,1","1","coast","57","probe-51","0.2972639820718369","0.09465259498611421","0.8861406666286357","0","","","","","","","",""
"","do_trial","131","960787","0.0-106.0-0.0","270.5","","","","49","1,0,1","1","coast","58","probe-39","0.39730450579628923","0.1326957726663204","0.8319165709896692","1","","","","","","","",""
"","do_trial","132","965466","0.0-107.0-0.0","0.3000001907348633","","","","50","0,0,1","1","coast","59","probe-188","0.30654813476108833","0.05547922721888946","0.8356747174857608","0","","","","","","","",""
"","do_trial","133","972859","0.0-108.0-0.0","2635.5","","","","50","0,0,1","1","coast","60","probe-47","0.32587593238558404","0.05471785742732562","0.8693979115763001","0","","","","","","","",""
"","do_trial","134","977548","0.0-109.0-0.0","0.39999961853027344","","","","50","0,0,1","1","coast","61","probe-44","0.4610634827085964","0.055707284971821196","0.7693708867081884","0","","","","","","","",""
"","do_trial","135","982346","0.0-110.0-0.0","129.9000005722046","","","","49","1,0,1","1","coast","62","probe-76","0.3054299848134681","0.10787156180916178","0.8445494043180786","1","","","","","","","",""
"","do_trial","136","987066","0.0-111.0-0.0","0.3000001907348633","","","","50","1,0,1","1","coast","63","probe-45","0.3672398826686378","0.062878216193479","0.7417099239287613","0","","","","","","","",""
"","do_trial","137","991747","0.0-112.0-0.0","0.39999961853027344","","","","50","1,0,1","1","coast","64","probe-149","0.37209624152862625","0.05518774295457982","0.8214092817631441","0","","","","","","","",""
"","do_trial","138","996792","0.0-113.0-0.0","368.80000019073486","","","","50","0,1,1","1","coast","65","probe-218","0.3008561745768025","0.12877086584225395","0.8978945731277524","1","","","","","","","",""
"","do_trial","139","1002141","0.0-114.0-0.0","672.5","","","","50","0,0,1","1","coast","66","probe-08","0.22713695759095054","0.06062305487883884","0.8770323825545566","0","","","","","","","",""
"","do_trial","140","1007268","0.0-115.0-0.0","449.30000019073486","","","","50","0,0,0","1","coast","67","probe-114","0.3218276520339004","0.09591249503779105","0.8173349038426192","0","","","","","","","",""
"","do_trial","141","1011949","0.0-116.0-0.0","0.40000057220458984","","","","50","0,0,0","1","coast","68","probe-60","0.4051816455028737","0.17950786114864023","0.7145153509879184","0","","","","","","","",""
"","do_trial","142","1019130","0.0-117.0-0.0","2446.6000003814697","","","","49","0,0,1","1","coast","69","probe-89","0.3399266533136852","0.0896124735364256","0.786934249803968","0","","","","","","","",""
"","do_trial","143","1024359","0.0-118.0-0.0","518.3000001907349","","","","49","1,0,1","1","coast","70","probe-162","0.32622611316783257","0.14702435861025154","0.7587949842730838","1","","","","","","","",""
"","do_trial","144","1030234","0.0-119.0-0.0","1208.4000005722046","","","","50","0,0,1","1","coast","71","probe-130","0.3144890501883016","0.18595200104745055","0.7922255021048231","0","","","","","","","",""
"","do_trial","145","1034943","0.0-120.0-0.0","0.3000001907348633","","","","50","0,0,0","1","coast","72","probe-110","0.28800454636524686","0.10757538361358694","0.8373165170172664","0","","","","","","","",""
"","do_trial","146","1039612","0.0-121.0-0.0","0.39999961853027344","","","","50","0,0,1","1","coast","73","probe-104","0.27190553048276783","0.1047634419541809","0.8838040501707937","0","","","","","","","",""
"","do_trial","147","1044316","0.0-122.0-0.0","0.3000001907348633","","","","49","1,0,1","1","coast","74","probe-42","0.4019609007217325","0.13308266605046776","0.76850688398042","1","","","","","","","",""
"","do_trial","148","1049211","0.0-123.0-0.0","220.30000019073486","","","","50","1,0,1","1","coast","75","probe-120","0.46962903604859774","0.14675034340197637","0.7131249868383577","0","","","","","","","",""
"","do_trial","149","1055867","0.0-124.0-0.0","1965.7000007629395","","","","50","0,1,1","1","coast","76","probe-19","0.44017806400758924","0.23368647256501685","0.6294523569420633","1","","","","","","","",""
"","do_trial","150","1060565","0.0-125.0-0.0","35.69999980926514","","","","49","0,1,1","1","coast","77","probe-40","0.45885373603766644","0.2203518428213726","0.6737833278742065","0","","","","","","","",""
"","do_trial","151","1065564","0.0-126.0-0.0","324.30000019073486","","","","50","0,0,1","1","coast","78","probe-103","0.3193830096281432","0.057339532249478666","0.7015683131064586","0","","","","","","","",""
"","do_trial","152","1070244","0.0-127.0-0.0","17.40000057220459","","","","51","1,0,1","1","coast","79","probe-84","0.2941757373407497","0.22866191177191234","0.8273768620420988","1","","","","","","","",""
"","do_bye","153","1071755","0.0-128.0-0.0","null","","","","null","","","","","","","","","","","","","","","","",""
"","do_travel","154","1077760","0.0-129.0-0.0","null","","","","null","","","","","","","","","","","","","","","","",""
"","do_welcome","155","1079272","0.0-129.0-1.0","null","","","","null","","","","","","","","","","","","","","","","",""
"","do_trial","156","1086398","0.0-130.0-0.0","2411.9000005722046","","","","49","0,0,1","2","highway","80","probe-123","0.36114586901199397","0.08483252230470005","1","0","","","","","","","",""
"","do_trial","157","1091237","0.0-131.0-0.0","115.80000019073486","","","","50","0,0,1","2","highway","81","probe-105","0.3211470004216191","0.17741469989261688","1","0","","","","","","","",""
"","do_trial","158","1096496","0.0-132.0-0.0","487.30000019073486","","","","50","1,1,1","2","highway","82","probe-134","0.41333903108859793","0.11758513088808409","1","1","","","","","","","",""
"","do_trial","159","1101187","0.0-133.0-0.0","0.3000001907348633","","","","51","1,0,1","2","highway","83","probe-124","0.33841769498494634","0.14764666864925455","1","1","","","","","","","",""
"","do_trial","160","1108550","0.0-134.0-0.0","2691.5","","","","50","1,0,1","2","highway","84","probe-137","0.3717745378918799","0.17783008433608957","0.8868333530118946","0","","","","","","","",""
"","do_trial","161","1114765","0.0-135.0-0.0","null","","","","null","0,0,1","2","highway","85","probe-145","0.4187699427232376","0.20702402934089903","0.9477877351050144","","","","","","","","",""
"","do_trial","162","1120243","0.0-136.0-0.0","766.8999996185303","","","","50","0,1,1","2","highway","86","probe-192","0.49736569678850373","0.24169792805523876","0.9241466166112561","1","","","","","","","",""
"","do_trial","163","1125133","0.0-137.0-0.0","174.89999961853027","","","","51","0,0,0","2","highway","87","probe-215","0.43614885169865447","0.261143495864583","0.8248445693000269","0","","","","","","","",""
"","do_trial","164","1129811","0.0-138.0-0.0","0.40000057220458984","","","","50","0,0,1","2","highway","88","probe-220","0.24726372212048833","0.20632159722849439","0.9200348360677097","0","","","","","","","",""
"","do_trial","165","1134653","0.0-139.0-0.0","166.9000005722046","","","","49","0,0,1","2","highway","89","probe-228","0.27719698917518715","0.22665956604840776","0.8699728840884108","0","","","","","","","",""
"","do_trial","166","1139402","0.0-140.0-0.0","0.3000001907348633","","","","50","1,0,1","2","highway","90","probe-194","0.2079427751251417","0.48254749933849783","0.6505805159885507","0","","","","","","","",""
"","do_trial","167","1145270","0.0-141.0-0.0","1165.8999996185303","","","","49","0,1,1","2","highway","91","probe-15","0.18036805523467286","0.6767843932633899","0.5226786826373874","0","","","","","","","",""
"","do_trial","168","1150621","0.0-142.0-0.0","626.1999998092651","","","","50","0,1,1","2","highway","92","probe-207","0.09120423749921304","0.7285526965417809","0.43607228060146985","1","","","","","","","",""
"","do_trial","169","1156067","0.0-143.0-0.0","732.9000005722046","","","","50","0,0,1","2","highway","93","probe-193","0.05690913983177718","0.8493024686702749","0.48339165096981573","0","","","","","","","",""
"","do_trial","170","1160840","0.0-144.0-0.0","65","","","","49","0,1,1","2","highway","94","probe-133","0.075233838593967","0.7607400129707388","0.5616184986530155","0","","","","","","","",""
"","do_trial","171","1165788","0.0-145.0-0.0","286.19999980926514","","","","51","0,0,0","2","highway","95","probe-150","0.06567004735050612","0.5962026149247344","0.36317467435093803","0","","","","","","","",""
"","do_trial","172","1171447","0.0-146.0-0.0","987","","","","50","0,1,1","2","highway","96","probe-27","0.07059614616400911","0.8190749212254518","0.3133198919290635","1","","","","","","","",""
"","do_trial","173","1176112","0.0-147.0-0.0","0.39999961853027344","","","","50","0,1,0","2","highway","97","probe-161","0.05573356339425027","0.8619158417392313","0.340441008756161","1","","","","","","","",""
"","do_trial","174","1180783","0.0-148.0-0.0","0.19999980926513672","","","","50","0,1,1","2","highway","98","probe-33","0.1033341310299929","0.932246224599319","0.3521618331629746","1","","","","","","","",""
"","do_trial","175","1186018","0.0-149.0-0.0","505.4000005722046","","","","50","0,1,0","2","highway","99","probe-190","0.07524208830351382","0.8746682991866217","0.24094219110892554","1","","","","","","","",""
"","do_trial","176","1191148","0.0-150.0-0.0","466.9000005722046","","","","50","0,1,0","2","highway","100","probe-36","0.11660459662732219","0.8396355408290194","0.2841439698771223","1","","","","","","","",""
"","do_trial","177","1196189","0.0-151.0-0.0","363.5","","","","50","0,1,0","2","highway","101","probe-80","0.1490326038180506","0.7876668532696528","0.4036990887776623","1","","","","","","","",""
"","do_trial","178","1201128","0.0-152.0-0.0","257.80000019073486","","","","50","0,0,1","2","highway","102","probe-87","0.08119419552534474","0.7670100909830331","0.3811738366219152","0","","","","","","","",""
"","do_trial","179","1206049","0.0-153.0-0.0","253.80000019073486","","","","50","0,0,1","2","highway","103","probe-131","0.09491167127687108","0.7432440102628178","0.33946418220513486","0","","","","","","","",""
"","do_trial","180","1210810","0.0-154.0-0.0","0.39999961853027344","","","","50","0,1,0","2","highway","104","probe-171","0.1021550649078237","0.7545193732880506","0.36272397510063537","1","","","","","","","",""
"","do_trial","181","1215562","0.0-155.0-0.0","0.3000001907348633","","","","51","0,1,0","2","highway","105","probe-102","0.05642760464621147","0.6127801409282041","0.46678344558028884","0","","","","","","","",""
"","do_trial","182","1220841","0.0-156.0-0.0","545","","","","50","0,1,0","2","highway","106","probe-53","0.10216414257202722","0.7271541323596012","0.5599217723296129","1","","","","","","","",""
"","do_trial","183","1226151","0.0-157.0-0.0","591.1999998092651","","","","51","0,0,0","2","highway","107","probe-195","0.05850683600153433","0.7765881451681622","0.4570532016954047","0","","","","","","","",""
"","do_trial","184","1231420","0.0-158.0-0.0","534.3999996185303","","","","51","0,0,0","2","highway","108","probe-59","0.1820464467101094","0.7190878566218919","0.3281829828537346","0","","","","","","","",""
"","do_trial","185","1236642","0.0-159.0-0.0","503.8999996185303","","","","50","0,0,0","2","highway","109","probe-236","0.21286298069107518","0.6003574480021726","0.35005130594535794","0","","","","","","","",""
"","do_trial","186","1243358","0.0-160.0-0.0","1981.9000005722046","","","","50","0,1,0","2","highway","110","probe-203","0.17918160008384096","0.6152872472674361","0.36364145931781605","1","","","","","","","",""
"","do_trial","187","1248051","0.0-161.0-0.0","0.39999961853027344","","","","51","0,0,0","2","highway","111","probe-55","0.1757304276227539","0.6881486055091817","0.3435282876601704","0","","","","","","","",""
"","do_trial","188","1253570","0.0-162.0-0.0","846.8000001907349","","","","50","0,1,0","2","highway","112","probe-95","0.08304069271756287","0.697319258011068","0.36625747525250396","1","","","","","","","",""
"","do_trial","189","1258252","0.0-163.0-0.0","0.40000057220458984","","","","49","0,1,0","2","highway","113","probe-165","0.06196255911416422","0.8292958915697151","0.3586702222485233","0","","","","","","","",""
"","do_trial","190","1262963","0.0-164.0-0.0","0.3000001907348633","","","","50","0,0,1","2","highway","114","probe-94","0.104255281726599","0.7447916047638363","0.4917191110115479","0","","","","","","","",""
"","do_trial","191","1268405","0.0-165.0-0.0","759.3000001907349","","","","51","1,1,1","2","highway","115","probe-118","0.1892518101569116","0.8202724084908926","0.7342138002939916","1","","","","","","","",""
"","do_trial","192","1273101","0.0-166.0-0.0","0.39999961853027344","","","","51","0,0,0","2","highway","116","probe-146","0.1496036804959252","0.7099604741193095","0.6438334875836231","0","","","","","","","",""
"","do_trial","193","1277976","0.0-167.0-0.0","180.10000038146973","","","","50","1,1,0","2","highway","117","probe-01","0.2036409785225745","0.8835773676902949","0.5057621380824797","1","","","","","","","",""
"","do_trial","194","1283178","0.0-168.0-0.0","537.1999998092651","","","","50","0,1,1","2","highway","118","probe-200","0.14196946995905615","0.7988561036525929","0.46193006485179794","1","","","","","","","",""
"","do_trial","195","1287941","0.0-169.0-0.0","73.60000038146973","","","","49","0,1,1","2","highway","119","probe-132","0.17157631623694627","0.8109098702499568","0.5039242474197644","0","","","","","","","",""
"","do_bye","196","1289453","0.0-170.0-0.0","null","","","","null","","","","","","","","","","","","","","","","",""
"","do_travel","197","1295457","0.0-171.0-0.0","null","","","","null","","","","","","","","","","","","","","","","",""
"","do_welcome","198","1296971","0.0-171.0-1.0","null","","","","null","","","","","","","","","","","","","","","","",""
"","do_trial","199","1301678","0.0-172.0-0.0","0.39999961853027344","","","","51","1,1,0","3","forest","120","probe-13","0.1593909800375061","1","0.473359850579471","0","","","","","","","",""
"","do_trial","200","1306353","0.0-173.0-0.0","0.5","","","","50","0,1,0","3","forest","121","probe-26","0.17499064465782893","1","0.5645556617908362","1","","","","","","","",""
"","do_trial","201","1311054","0.0-174.0-0.0","16.700000762939453","","","","51","0,1,1","3","forest","122","probe-140","0.13490764330300717","1","0.5145283352350718","1","","","","","","","",""
"","do_trial","202","1316473","0.0-175.0-0.0","739.8000001907349","","","","51","0,1,0","3","forest","123","probe-67","0.0738692278150056","1","0.5574388941770914","0","","","","","","","",""
"","do_trial","203","1321139","0.0-176.0-0.0","0.3000001907348633","","","","51","0,1,0","3","forest","124","probe-210","0.09425879659878934","0.9090426092461772","0.45840900927296496","0","","","","","","","",""
"","do_trial","204","1326498","0.0-177.0-0.0","670.5","","","","51","0,1,1","3","forest","125","probe-179","0.15771902415843006","0.9304341098932153","0.431847801766994","1","","","","","","","",""
"","do_trial","205","1331640","0.0-178.0-0.0","401.1000003814697","","","","51","1,1,1","3","forest","126","probe-72","0.4414356926738636","0.9318509850163571","0.41657410126523436","1","","","","","","","",""
"","do_trial","206","1338877","0.0-179.0-0.0","2484.0999994277954","","","","51","0,1,1","3","forest","127","probe-09","0.25859578818449297","0.9485321936530287","0.45195411333544705","1","","","","","","","",""
"","do_trial","207","1344187","0.0-180.0-0.0","629.3000001907349","","","","51","0,1,1","3","forest","128","probe-46","0.15152929974580798","0.8448223894520208","0.3605528571494209","1","","","","","","","",""
"","do_trial","208","1349330","0.0-181.0-0.0","370.69999980926514","","","","51","0,1,0","3","forest","129","probe-209","0.05341874238568651","0.7138931191744348","0.29604148217602444","0","","","","","","","",""
"","do_trial","209","1354361","0.0-182.0-0.0","294","","","","51","0,0,1","3","forest","130","probe-170","0.3481039391440905","0.5417501543906009","0.4143419184279628","1","","","","","","","",""
"","do_trial","210","1361669","0.0-183.0-0.0","2560.8999996185303","","","","51","1,0,0","3","forest","131","probe-116","0.3274053954094386","0.4463100858124821","0.5584375381334591","0","","","","","","","",""
"","do_trial","211","1366383","0.0-184.0-0.0","15.100000381469727","","","","51","0,0,1","3","forest","132","probe-166","0.31457768282527854","0.39460356992589135","0.8315497867580055","1","","","","","","","",""
"","do_trial","212","1371225","0.0-185.0-0.0","161.39999961853027","","","","50","1,0,1","3","forest","133","probe-185","0.40878598109604286","0.1278374721818332","0.7867015589548281","0","","","","","","","",""
"","do_trial","213","1375958","0.0-186.0-0.0","0.6999998092651367","","","","50","0,0,1","3","forest","134","probe-101","0.40208496641681407","0.07293411629526711","0.7795806732130848","0","","","","","","","",""
"","do_trial","214","1380741","0.0-187.0-0.0","88","","","","51","1,0,1","3","forest","135","probe-155","0.37319136768437333","0.0645220602317568","0.8148289434887461","1","","","","","","","",""
"","do_trial","215","1385585","0.0-188.0-0.0","134.0999994277954","","","","50","1,0,1","3","forest","136","probe-75","0.49529699086306417","0.08301568151542886","0.9248098414707981","0","","","","","","","",""
"","do_trial","216","1390606","0.0-189.0-0.0","330","","","","49","0,0,1","3","forest","137","probe-03","0.35864301672916943","0.0590048248143555","0.754242088567047","0","","","","","","","",""
"","do_trial","217","1395370","0.0-190.0-0.0","78.80000019073486","","","","49","0,0,1","3","forest","138","probe-159","0.3555392614599443","0.08085991050671876","0.8145784796604743","0","","","","","","","",""
"","do_trial","218","1400068","0.0-191.0-0.0","0.2999992370605469","","","","50","0,0,1","3","forest","139","probe-128","0.446372155902472","0.08143471522038827","0.8298748962809325","0","","","","","","","",""
"","do_trial","219","1404806","0.0-192.0-0.0","39.69999980926514","","","","49","1,0,1","3","forest","140","probe-211","0.31416333620407555","0.09163785270826248","0.8327533336933283","1","","","","","","","",""
"","do_trial","220","1409539","0.0-193.0-0.0","54.60000038146973","","","","49","0,0,1","3","forest","141","probe-127","0.38983388511250655","0.07131192104469493","0.8299703431074965","0","","","","","","","",""
"","do_trial","221","1414212","0.0-194.0-0.0","7.300000190734863","","","","50","0,0,1","3","forest","142","probe-65","0.5484119194710728","0.11236966371945022","0.7774624380325549","0","","","","","","","",""
"","do_trial","222","1420083","0.0-195.0-0.0","1206.2999992370605","","","","50","0,0,1","3","forest","143","probe-172","0.43742696977472734","0.1019018954396022","0.7637811852684482","0","","","","","","","",""
"","do_trial","223","1425275","0.0-196.0-0.0","527.8999996185303","","","","50","1,0,1","3","forest","144","probe-238","0.342143736386567","0.12839229234523927","0.7283408209237294","0","","","","","","","",""
"","do_trial","224","1430048","0.0-197.0-0.0","111.70000076293945","","","","50","0,1,1","3","forest","145","probe-198","0.4251757248596178","0.2681669804246345","0.6608270351066068","1","","","","","","","",""
"","do_trial","225","1434712","0.0-198.0-0.0","0.39999961853027344","","","","51","0,0,1","3","forest","146","probe-157","0.4714628607195639","0.12134751595975893","0.5869460030981708","1","","","","","","","",""
"","do_trial","226","1439634","0.0-199.0-0.0","261.5","","","","50","0,0,1","3","forest","147","probe-82","0.3928277966302591","0.17816258899849602","0.6980584420160296","0","","","","","","","",""
"","do_trial","227","1444478","0.0-200.0-0.0","182.19999980926514","","","","49","0,1,1","3","forest","148","probe-71","0.4188609584213481","0.2017460509098678","0.8279436176210299","0","","","","","","","",""
"","do_trial","228","1449281","0.0-201.0-0.0","130.19999980926514","","","","50","0,0,1","3","forest","149","probe-206","0.4072392598747625","0.2633534852841658","0.7383154721068635","0","","","","","","","",""
"","do_trial","229","1454235","0.0-202.0-0.0","226.0999994277954","","","","49","0,0,1","3","forest","150","probe-176","0.47206610035514174","0.2226065261234933","0.6785200560778176","0","","","","","","","",""
"","do_trial","230","1459387","0.0-203.0-0.0","468","","","","50","0,1,1","3","forest","151","probe-28","0.3429110250411113","0.10802538521866742","0.7003652736842491","1","","","","","","","",""
"","do_trial","231","1464138","0.0-204.0-0.0","0.6000003814697266","","","","50","0,0,1","3","forest","152","probe-109","0.32234877907822906","0.06995844756726403","0.615520428355094","0","","","","","","","",""
"","do_trial","232","1468850","0.0-205.0-0.0","0.3000001907348633","","","","50","0,0,1","3","forest","153","probe-85","0.3830180083154801","0.10168519305317762","0.728018296628199","0","","","","","","","",""
"","do_trial","233","1474545","0.0-206.0-0.0","1025.5","","","","50","0,0,1","3","forest","154","probe-98","0.4435735375603377","0.15911893607656866","0.5977664022853901","0","","","","","","","",""
"","do_trial","234","1479280","0.0-207.0-0.0","0.3000001907348633","","","","50","1,0,1","3","forest","155","probe-93","0.31241194184650334","0.24899743958618686","0.7284340194581975","0","","","","","","","",""
"","do_trial","235","1484060","0.0-208.0-0.0","0.8000001907348633","","","","50","0,0,1","3","forest","156","probe-201","0.30477371877756865","0.1592586618513962","0.7163053587215739","0","","","","","","","",""
"","do_trial","236","1489315","0.0-209.0-0.0","469.6000003814697","","","","50","0,0,1","3","forest","157","probe-41","0.42114431005650155","0.16260576803822346","0.7916523566950298","0","","","","","","","",""
"","do_trial","237","1494011","0.0-210.0-0.0","0.3000001907348633","","","","50","1,0,1","3","forest","158","probe-64","0.5329282477021485","0.20668792261218358","0.7107856749244159","0","","","","","","","",""
"","do_trial","238","1498697","0.0-211.0-0.0","0.2999992370605469","","","","50","1,1,1","3","forest","159","probe-233","0.4534836593373738","0.3894051350499126","0.758376655365349","1","","","","","","","",""
"","do_bye","239","1500214","0.0-212.0-0.0","null","","","","null","","","","","","","","","","","","","","","","",""
"","do_travel","240","1506220","0.0-213.0-0.0","null","","","","null","","","","","","","","","","","","","","","","",""
"","do_welcome","241","1507740","0.0-213.0-1.0","null","","","","null","","","","","","","","","","","","","","","","",""
"","do_trial","242","1513959","0.0-214.0-0.0","null","","","","null","1,0,1","4","mountain","160","probe-100","0.6052182649490464","0.4128086823312347","1","","","","","","","","",""
"","do_trial","243","1518673","0.0-215.0-0.0","0.3000001907348633","","","","49","1,0,1","4","mountain","161","probe-148","0.5855561285906136","0.2645550854609159","1","1","","","","","","","",""
"","do_trial","244","1523687","0.0-216.0-0.0","331.19999980926514","","","","50","1,0,1","4","mountain","162","probe-158","0.587462024097392","0.2941288756135601","1","0","","","","","","","",""
"","do_trial","245","1528502","0.0-217.0-0.0","140.69999980926514","","","","50","1,0,1","4","mountain","163","probe-191","0.6349707982338704","0.15067575363669103","1","0","","","","","","","",""
"","do_trial","246","1533355","0.0-218.0-0.0","177.19999980926514","","","","50","0,0,1","4","mountain","164","probe-152","0.5904146589405026","0.08782005282204786","0.9214091443685719","0","","","","","","","",""
"","do_trial","247","1538017","0.0-219.0-0.0","0.19999980926513672","","","","50","0,1,1","4","mountain","165","probe-32","0.6103347183237013","0.1998642003599953","0.8480081157924046","1","","","","","","","",""
"","do_trial","248","1542894","0.0-220.0-0.0","212.69999980926514","","","","50","0,0,1","4","mountain","166","probe-136","0.3938638815103074","0.14543761859016552","0.7598730624728038","0","","","","","","","",""
"","do_trial","249","1547609","0.0-221.0-0.0","43","","","","50","1,0,1","4","mountain","167","probe-180","0.29041100452176827","0.186512370323169","0.6604489733438331","0","","","","","","","",""
"","do_trial","250","1552516","0.0-222.0-0.0","0.3000001907348633","","","","50","0,0,0","4","mountain","168","probe-12","0.30249307764434774","0.13357158987893597","0.7878909704699296","0","","","","","","","",""
"","do_trial","251","1557246","0.0-223.0-0.0","31.699999809265137","","","","50","1,0,1","4","mountain","169","probe-56","0.3904074727572759","0.16878178312897368","0.8935853110033243","0","","","","","","","",""
"","do_trial","252","1561937","0.0-224.0-0.0","0.20000076293945312","","","","50","1,1,1","4","mountain","170","probe-91","0.6502169778171014","0.27422768950704957","0.5406558795071049","1","","","","","","","",""
"","do_trial","253","1566885","0.0-225.0-0.0","274.5","","","","50","0,0,0","4","mountain","171","probe-163","0.6302284567938262","0.49000245188256786","0.29405355558663127","0","","","","","","","",""
"","do_trial","254","1572449","0.0-226.0-0.0","896","","","","51","0,0,0","4","mountain","172","probe-125","0.6201898945505575","0.43331178119422703","0.14614527169354666","0","","","","","","","",""
"","do_trial","255","1578072","0.0-227.0-0.0","956.6000003814697","","","","49","1,0,0","4","mountain","173","probe-63","0.6769634989510297","0.4043366705439138","0.16157401296015367","1","","","","","","","",""
"","do_trial","256","1582791","0.0-228.0-0.0","0.5","","","","50","1,0,0","4","mountain","174","probe-38","0.7567466962699281","0.3347331986884703","0.24698242170198106","0","","","","","","","",""
"","do_trial","257","1587470","0.0-229.0-0.0","0.5","","","","50","1,1,0","4","mountain","175","probe-156","0.9258664765494737","0.45265098233129464","0.21323476555524415","1","","","","","","","",""
"","do_trial","258","1592146","0.0-230.0-0.0","0.3000001907348633","","","","50","1,1,1","4","mountain","176","probe-174","0.9407529007483036","0.4039060444258712","0.3052323013011848","1","","","","","","","",""
"","do_trial","259","1596815","0.0-231.0-0.0","0.3000001907348633","","","","50","1,1,1","4","mountain","177","probe-02","0.8954458866659829","0.3925014285311844","0.3035436913095876","1","","","","","","","",""
"","do_trial","260","1601478","0.0-232.0-0.0","0.3000001907348633","","","","51","1,1,0","4","mountain","178","probe-177","0.8446075490698144","0.4443643315334003","0.22102719879444813","0","","","","","","","",""
"","do_trial","261","1606201","0.0-233.0-0.0","63.60000038146973","","","","49","1,0,0","4","mountain","179","probe-144","0.7171107378528854","0.5786027221497052","0.2448526683229151","1","","","","","","","",""
"","do_trial","262","1610954","0.0-234.0-0.0","90","","","","51","1,0,1","4","mountain","180","probe-86","0.7980807995833091","0.3049394106652495","0.26379086961981574","1","","","","","","","",""
"","do_trial","263","1616059","0.0-235.0-0.0","439.69999980926514","","","","50","1,0,0","4","mountain","181","probe-229","0.9337368348715193","0.26857085920753093","0.1380728842993419","0","","","","","","","",""
"","do_trial","264","1620945","0.0-236.0-0.0","176.5","","","","51","1,0,0","4","mountain","182","probe-224","0.9260477227835358","0.28236881926512797","0.14392824795764717","0","","","","","","","",""
"","do_trial","265","1625669","0.0-237.0-0.0","60.69999980926514","","","","50","1,0,0","4","mountain","183","probe-54","0.8684288051842829","0.33461199370764994","0.16011376390295362","0","","","","","","","",""
"","do_trial","266","1630535","0.0-238.0-0.0","132.30000019073486","","","","50","1,0,0","4","mountain","184","probe-10","0.9018956427158523","0.3613351002784531","0.18769412843907277","0","","","","","","","",""
"","do_trial","267","1635304","0.0-239.0-0.0","0.40000057220458984","","","","50","1,0,0","4","mountain","185","probe-25","0.7939424852959212","0.28188965276062017","0.2347817515897371","0","","","","","","","",""
"","do_trial","268","1640052","0.0-240.0-0.0","0.40000057220458984","","","","50","1,1,0","4","mountain","186","probe-83","0.7824684922121854","0.43200942931312925","0.2795248009825812","1","","","","","","","",""
"","do_trial","269","1644930","0.0-241.0-0.0","193.89999961853027","","","","50","0,0,1","4","mountain","187","probe-205","0.6637456977380571","0.3098018800859775","0.3673580935535273","0","","","","","","","",""
"","do_trial","270","1649604","0.0-242.0-0.0","0.20000076293945312","","","","51","1,0,1","4","mountain","188","probe-183","0.866498188024581","0.30191537066055196","0.35410665821575005","1","","","","","","","",""
"","do_trial","271","1654511","0.0-243.0-0.0","217.30000019073486","","","","50","1,1,0","4","mountain","189","probe-234","0.7472756581281748","0.44282540825303257","0.14913082894899776","1","","","","","","","",""
"","do_trial","272","1659199","0.0-244.0-0.0","0.39999961853027344","","","","49","0,1,1","4","mountain","190","probe-197","0.6538696365841952","0.341650361877912","0.11318007188369361","0","","","","","","","",""
"","do_trial","273","1663899","0.0-245.0-0.0","0.40000057220458984","","","","49","1,1,0","4","mountain","191","probe-90","0.7037555732233701","0.379781651451612","0.14736440884718705","1","","","","","","","",""
"","do_trial","274","1668611","0.0-246.0-0.0","0.3000001907348633","","","","50","0,1,0","4","mountain","192","probe-73","0.7144135097712814","0.32105476157610696","0.1272761821156383","1","","","","","","","",""
"","do_trial","275","1673346","0.0-247.0-0.0","0.39999961853027344","","","","50","1,1,0","4","mountain","193","probe-81","0.7388774102043724","0.3624264144664106","0.2106820042150912","1","","","","","","","",""
"","do_trial","276","1678034","0.0-248.0-0.0","0.39999961853027344","","","","51","1,0,0","4","mountain","194","probe-208","0.7773022497833227","0.3721033651548554","0.09710057186030803","0","","","","","","","",""
"","do_trial","277","1682708","0.0-249.0-0.0","0.19999980926513672","","","","51","1,0,1","4","mountain","195","probe-77","0.902761987727869","0.4774281012661136","0.22677430723444375","1","","","","","","","",""
"","do_trial","278","1688063","0.0-250.0-0.0","664.3999996185303","","","","51","1,1,0","4","mountain","196","probe-115","0.7028389082908999","0.5727517994380031","0.3113646519845411","0","","","","","","","",""
"","do_trial","279","1692812","0.0-251.0-0.0","76.5","","","","50","1,0,0","4","mountain","197","probe-139","0.7487674004813457","0.469181036601956","0.1799649123455708","0","","","","","","","",""
"","do_trial","280","1697504","0.0-252.0-0.0","0.39999961853027344","","","","49","1,0,1","4","mountain","198","probe-68","0.7482978070525418","0.5119032430633568","0.1491114878699301","1","","","","","","","",""
"","do_trial","281","1702532","0.0-253.0-0.0","363.29999923706055","","","","50","0,1,0","4","mountain","199","probe-57","0.6104473452478005","0.6099689685564692","0.20457347289738034","1","","","","","","","",""
"","do_bye","282","1704049","0.0-254.0-0.0","null","","","","null","","","","","","","","","","","","","","","","",""
"","do_travel","283","1710055","0.0-255.0-0.0","null","","","","null","","","","","","","","","","","","","","","","",""
"","do_welcome","284","1711571","0.0-255.0-1.0","null","","","","null","","","","","","","","","","","","","","","","",""
"","do_trial","285","1719091","0.0-256.0-0.0","2857.800000190735","","","","50","1,1,0","5","city","200","probe-226","1","0.5949011261197796","0.14266785409130578","1","","","","","","","",""
"","do_trial","286","1723802","0.0-257.0-0.0","0.6000003814697266","","","","49","1,1,0","5","city","201","probe-240","1","0.5649235935329354","0.07794079608344323","1","","","","","","","",""
"","do_trial","287","1728821","0.0-258.0-0.0","333.6000003814697","","","","50","1,1,0","5","city","202","probe-126","1","0.6125783583068225","0.08274379113063103","1","","","","","","","",""
"","do_trial","288","1733491","0.0-259.0-0.0","4.399999618530273","","","","50","1,0,0","5","city","203","probe-122","1","0.5382455987434308","0.15415931907902838","0","","","","","","","",""
"","do_trial","289","1738161","0.0-260.0-0.0","0.2999992370605469","","","","50","1,0,0","5","city","204","probe-204","0.8096576930056812","0.44821714902881","0.10829640359911619","0","","","","","","","",""
"","do_trial","290","1742882","0.0-261.0-0.0","19.600000381469727","","","","51","0,0,0","5","city","205","probe-48","0.6446046457209775","0.5213746825584217","0.05676709132129218","0","","","","","","","",""
"","do_trial","291","1748059","0.0-262.0-0.0","512.5","","","","50","1,1,0","5","city","206","probe-29","0.8575760523339594","0.3768774968673621","0.09118761276465982","1","","","","","","","",""
"","do_trial","292","1752945","0.0-263.0-0.0","143.10000038146973","","","","51","1,0,0","5","city","207","probe-50","0.9131128862480377","0.3266214757886464","0.06434504022353442","0","","","","","","","",""
"","do_trial","293","1757702","0.0-264.0-0.0","0.5","","","","51","1,1,0","5","city","208","probe-97","0.9173487197831438","0.3942602926761006","0.07151482834552594","0","","","","","","","",""
"","do_trial","294","1762383","0.0-265.0-0.0","0.3000001907348633","","","","50","1,1,0","5","city","209","probe-31","0.8018263197488236","0.3977788829724604","0.08511928623202582","1","","","","","","","",""
"","do_trial","295","1768126","0.0-266.0-0.0","1045","","","","50","0,1,1","5","city","210","probe-66","0.6372453924077675","0.6219706955922769","0.18973624697900401","1","","","","","","","",""
"","do_trial","296","1772872","0.0-267.0-0.0","59.89999961853027","","","","50","1,1,1","5","city","211","probe-74","0.41412012763077694","0.866644655878899","0.23236029674972908","1","","","","","","","",""
"","do_trial","297","1777561","0.0-268.0-0.0","0.6000003814697266","","","","50","0,1,0","5","city","212","probe-227","0.4206401627494317","0.8944278437508705","0.21358676503672147","1","","","","","","","",""
"","do_trial","298","1782397","0.0-269.0-0.0","138.39999961853027","","","","50","0,1,0","5","city","213","probe-99","0.2546895471828368","0.8588805521576097","0.4005421489802571","1","","","","","","","",""
"","do_trial","299","1787092","0.0-270.0-0.0","0.39999961853027344","","","","50","0,1,1","5","city","214","probe-58","0.3040136048704718","0.9164842662384127","0.35026885626160636","1","","","","","","","",""
"","do_trial","300","1791942","0.0-271.0-0.0","140.20000076293945","","","","51","0,1,0","5","city","215","probe-199","0.2564905993798406","0.8127159971426243","0.3705555942987486","0","","","","","","","",""
"","do_trial","301","1796634","0.0-272.0-0.0","0.3000001907348633","","","","50","0,1,0","5","city","216","probe-142","0.09020945253078176","0.7963885945659493","0.39930251839860303","1","","","","","","","",""
"","do_trial","302","1801315","0.0-273.0-0.0","0.40000057220458984","","","","50","0,1,0","5","city","217","probe-37","0.10185045761871302","0.7595939635115363","0.37094237918508993","1","","","","","","","",""
"","do_trial","303","1806009","0.0-274.0-0.0","0.3000001907348633","","","","50","0,1,0","5","city","218","probe-121","0.055755393663654125","0.8337811134850261","0.3560614145052909","1","","","","","","","",""
"","do_trial","304","1811203","0.0-275.0-0.0","498.5999994277954","","","","51","0,1,0","5","city","219","probe-52","0.05039397279006428","0.7654135907970746","0.39248726089020153","0","","","","","","","",""
"","do_trial","305","1815929","0.0-276.0-0.0","26.399999618530273","","","","51","0,1,0","5","city","220","probe-11","0.12135474082130612","0.8203779039115251","0.47943747232560446","0","","","","","","","",""
"","do_trial","306","1820638","0.0-277.0-0.0","0.5","","","","50","0,1,1","5","city","221","probe-216","0.05445040764630621","0.9207999016862631","0.4292290114515652","1","","","","","","","",""
"","do_trial","307","1825424","0.0-278.0-0.0","89.5","","","","51","0,1,1","5","city","222","probe-164","0.07413976333738714","0.9050555151237261","0.5110301969300773","1","","","","","","","",""
"","do_trial","308","1830092","0.0-279.0-0.0","0.20000076293945312","","","","50","0,0,1","5","city","223","probe-239","0.29248611202627284","0.7606632043804131","0.5056989028694407","0","","","","","","","",""
"","do_trial","309","1834763","0.0-280.0-0.0","0.39999961853027344","","","","50","0,1,1","5","city","224","probe-06","0.2508832209774697","0.753447956196831","0.3576218206554338","1","","","","","","","",""
"","do_trial","310","1839607","0.0-281.0-0.0","174","","","","50","0,1,1","5","city","225","probe-14","0.26594764714602404","0.7888254390889985","0.3571056930614687","1","","","","","","","",""
"","do_trial","311","1844355","0.0-282.0-0.0","77","","","","50","0,0,1","5","city","226","probe-108","0.250506689765114","0.8264567561052677","0.40086536669560263","0","","","","","","","",""
"","do_trial","312","1849018","0.0-283.0-0.0","0.3000001907348633","","","","51","1,0,0","5","city","227","probe-119","0.22952790123391242","0.682778192369245","0.49464930271385227","0","","","","","","","",""
"","do_trial","313","1854890","0.0-284.0-0.0","1207.5","","","","49","1,0,0","5","city","228","probe-168","0.3307558426889539","0.6907226319877","0.45042409506034087","1","","","","","","","",""
"","do_trial","314","1859555","0.0-285.0-0.0","0.3000001907348633","","","","50","1,1,1","5","city","229","probe-212","0.15547495953278445","0.6353592794372291","0.539407626722321","1","","","","","","","",""
"","do_trial","315","1864221","0.0-286.0-0.0","0.2999992370605469","","","","50","0,0,1","5","city","230","probe-213","0.17947770956232123","0.7633677340325588","0.5043042325210702","0","","","","","","","",""
"","do_trial","316","1868897","0.0-287.0-0.0","0.3000001907348633","","","","49","0,1,1","5","city","231","probe-221","0.07774466379217305","0.7447343255559454","0.47755021281612164","0","","","","","","","",""
"","do_trial","317","1874153","0.0-288.0-0.0","520","","","","50","0,1,0","5","city","232","probe-17","0.14525723274604588","0.870419861777937","0.5135273335960139","1","","","","","","","",""
"","do_trial","318","1878863","0.0-289.0-0.0","0.2999992370605469","","","","50","1,1,1","5","city","233","probe-167","0.10550670349091648","0.9451460019623978","0.3096954566248848","1","","","","","","","",""
"","do_trial","319","1883570","0.0-290.0-0.0","9.300000190734863","","","","50","0,1,1","5","city","234","probe-88","0.29903621197724617","0.948369917391779","0.295503454145539","1","","","","","","","",""
"","do_trial","320","1888496","0.0-291.0-0.0","220.5","","","","50","0,1,0","5","city","235","probe-138","0.10201836638565151","0.9197761216270551","0.4602884943935797","1","","","","","","","",""
"","do_trial","321","1893169","0.0-292.0-0.0","0.40000057220458984","","","","49","0,1,1","5","city","236","probe-24","0.06340539579782391","0.7802089731251265","0.4546822426948478","0","","","","","","","",""
"","do_trial","322","1898561","0.0-293.0-0.0","714.3999996185303","","","","50","0,1,0","5","city","237","probe-21","0.0919201004735855","0.7010816111351276","0.35010568816404614","1","","","","","","","",""
"","do_trial","323","1903352","0.0-294.0-0.0","70.10000038146973","","","","50","0,1,0","5","city","238","probe-113","0.08009238581782462","0.7077784835925474","0.18562573262762883","1","","","","","","","",""
"","do_trial","324","1908218","0.0-295.0-0.0","141.69999980926514","","","","50","0,0,0","5","city","239","probe-173","0.20405768235304678","0.7158752939284457","0.21127906494277338","0","","","","","","","",""
"","do_bye","325","1909730","0.0-296.0-0.0","null","","","","null","","","","","","","","","","","","","","","","",""
"","html-keyboard-response","326","1916402","0.0-296.0-1.0","6668.300000190735","<div class='center'>You are all done with the first part of the experiment! Thank you for participating. Tomorrow, you will recieve an invite to participate in the next phase of the experiment which you must complete by the end of the day. <p><b>[Press the space bar to end the experiment]</b></p></div>","32","","","","","","","","","","","","1,0,4,3,2,5","19,140,150,221,21,4,201,142,234,159,116,22,33,153,110,168,91,224,29,181,222,174,3,177,213,69,230,68,48,188,95,218,183,6,152,146,231,128,61,195,106,77,78,34,42,229,60,185,15,216,111,17,134,180,186,105,236,50,38,187,46,43,75,44,148,217,7,113,59,88,161,129,109,103,41,119,18,39,102,83,122,104,133,123,136,144,191,214,219,227,193,14,206,192,132,149,26,160,32,189,35,79,86,130,170,101,52,194,58,235,202,54,94,164,93,117,145,0,199,131,12,25,139,66,209,178,71,8,45,208,169,115,165,184,100,154,74,2,158,127,210,126,64,171,237,197,156,81,70,205,175,27,108,84,97,92,200,40,63,232,99,147,157,190,151,31,135,179,11,55,90,162,124,62,37,155,173,1,176,143,85,228,223,53,9,24,82,204,182,233,196,89,72,80,207,76,114,138,67,56,225,239,125,121,203,47,28,49,96,30,65,73,226,98,57,198,141,36,120,51,10,215,163,238,5,13,107,118,167,211,212,220,16,166,87,137,23,20,112,172","4,16,7,3,13,17,1,6,0,10,5,14,9,18,12,15,8,2,11","0.08215972331893219,0.16683061554869613,0.1986090527100689,0.18530400756102935,0.1304064514039583,0.16365204340238143,0.2525184123738238,0.20287672118540795,0.3517168316669082,0.17146630006387562,0.5568035658741421,0.7296390183931223,0.9459928623659203,0.8148138651697491,0.8579323483098807,0.8864342800363013,0.7676191669637626,0.7443810014114548,0.7511591882668048,0.7337720607796508,0.7822807020244786,0.9069518671830693,0.933990524642859,0.9092849119907096,0.8644080953450878,0.8606133558831889,0.7690443218572517,0.7278271558169318,0.7789641590143517,0.8638907337934413,1,0.9162521365240577,0.7755263629701038,0.7750670826604059,0.8110606211556438,0.8467222616617484,0.8055515477581912,0.6827870015486919,0.8405104987157117,0.892360123396,0.8810656438180041,0.8338650060058401,0.5864708063197713,0.648101172711515,0.44845141303610897,0.5345645627625173,0.49929842993329493,0.4741830317225714,0.4894178726137786,0.340779340008128,0.38694863034319094,0.4569331564578622,0.3511470003748178,0.36261198570158487,0.33410380672088236,0.49595446503458174,0.43977429296693243,0.40770207795283014,0.45512170163081667,0.5283952716965137,0.41941061625331705,0.6083669726156586,0.5823073360896833,0.4537508332315258,0.35029688716423024,0.32569080519558585,0.3436498008729702,0.42603535635948625,0.4089220028449582,0.45880840460927497,0.37248974081205033,0.21703888461823553,0.16996909009022537,0.2613460549753939,0.18811041168163128,0.18387965882262747,0.14900578879090234,0.2565690313981315,0.11342818210280346,0.11322852787784723,0.1437804635876349,0.2668040384130293,0.21239661479282784,0.1042569836441442,0.09773269621312829,0.14680526628121304,0.09666471969882279,0.06193686511520029,0.12379699062449667,0.18194046192057534,0.08707301367116412,0.18331934087013102,0.14672945396698603,0.26943868302150004,0.1749709511213977,0.10284100896349818,0.08756966495753829,0.13141389463198833,0.08081445185444647,0.21849744959053616,0.26851417601287186,0.25054260099556225,0.3921568417871854,0.4201949998348353,0.37258763908028114,0.30446872184008267,0.413438738373921,0.5602869623177228,0.4954845419656957,0.47774012585314957,0.3782330167886832,0.36765176312800735,0.34498624677392487,0.4495432340864482,0.422452551859625,0.5924123229638099,0.30625121158357127,0.43699841129266226,0.47546593082648736,0.581164886700499,0.5932409056110862,0.5542843765601677,0.6139820080483424,0.5457033999572135,0.45283475647977184,0.5100743903490603,0.4264535815032172,0.34456078686266833,0.4874015476936194,0.4438059983406879,0.48269605879895255,0.6444191636250828,0.6266751359941191,0.5407955108068422,0.553630567726647,0.5140908699363833,0.5284200639061915,0.3824316387818768,0.49718900153055173,0.5068540307294602,0.6385368823922951,0.5773056015314754,0.6696792770934522,0.8186809644666139,0.6992644344805593,0.6944673529835994,0.7047905821670473,0.7839181600628703,0.8683750660115038,0.8719067526516573,1,0.9319898689239636,0.9336786376196844,0.9077286948245913,0.9348621074072869,0.8910206712060323,0.8187097728166294,0.7315593323269068,0.6875465218307883,0.6893017335305539,0.6618988326922951,0.6973058444615002,0.6745880449413482,0.547565396871645,0.375578574400903,0.2670242280373136,0.26905051659699836,0.2852161998870499,0.43293719460135266,0.45573201742007685,0.2840636489300949,0.1874656221108186,0.32837724805088303,0.32152476822886283,0.3116385665527276,0.32740977877255495,0.3004580163697492,0.43674153932563153,0.3265223978566167,0.30651160843997877","1,0.8577698884914148,0.6882821452782893,0.7631710006103852,0.6553142755958191,0.7809632022937265,0.900320695252219,0.8331574110083073,0.8030886589382056,0.8753048910110903,0.5918268519561682,0.7529326403909974,0.6467365472935507,0.49571110486878284,0.4585292636374653,0.45936071592717803,0.4399692498649709,0.46939400091428085,0.5392978147389846,0.3807458958284843,0.441938381092758,0.519325772341634,0.4460319365410642,0.5494374060626794,0.42657593737777283,0.4970474733572434,0.5056402276708899,0.6092583865353508,0.5242347043265929,0.4846879512494221,0.40459561863212706,0.6251022929249815,0.5624201809005943,0.47398856687178575,0.3818247601549746,0.2744317169752993,0.4472915811499671,0.4637362194947261,0.4746235237404764,0.47979673263368816,0.538954734419319,0.5632993375103024,0.4944128448411468,0.47467320697599436,0.5126641794073236,0.4835242655370739,0.36242418549488337,0.4323261696645145,0.6375293848719926,0.7331547212692485,0.6413072826000155,0.6188483246468895,0.6459211315084668,0.5990952689637542,0.7688832761272174,0.63764819515281,0.5943240170215927,0.6655259527483406,0.6523392738157692,0.659325748263507,1,0.8659962482898915,0.8722442848371952,0.7342266094799659,0.7709356722972625,0.7664715836040119,0.7682850708448488,0.6213336561767044,0.6709446340829857,0.7305182300733517,0.4926521602308076,0.4403597425642214,0.4110366510359739,0.4390606740102727,0.45678247206594996,0.2727129821326313,0.38811654699511755,0.4175003962607229,0.402032617299505,0.2346557285242662,0.3787909213344537,0.48372245477981834,0.48333281168653475,0.43133716670705236,0.3972761029065199,0.3570156881740806,0.33938256293059865,0.17725085754883438,0.18455765229534649,0.2828958509626087,0.4895855837270234,0.27281762683382377,0.30910055888938337,0.32188057028824074,0.18602776030200135,0.19160360680471641,0.20460635734898067,0.5483493665020853,0.49942536701580026,0.2684470960638266,0.4100754719647243,0.5759213102163668,0.5854012967270458,0.6062163989293071,0.7318528025166455,0.7395762868762191,0.7967171151661379,0.6738768769681469,0.7277036722915348,0.6747318536297725,0.7811125648997387,0.7454803204967096,0.8604074125598888,0.8308575042505048,0.8489517289855699,0.8409850482790691,0.8523230082211822,0.6778532611997399,0.784687958490118,0.8301116834966595,1,0.8672821680798135,0.9384365053040266,0.7549407804718692,0.726266293827552,0.80451748239846,0.7765244489550746,0.9488835292472152,0.923319921346394,0.8484948513111138,0.8365732004880019,0.7690714590271124,0.71766231087643,0.857663998728237,0.7909005595112101,0.7844019558477859,0.7262411794482089,0.922379985327448,0.8833017846798689,0.5721588229796434,0.5458927212751669,0.6611685203064999,0.5715823212154879,0.5500639404815197,0.5713335069379224,0.5582853099984115,0.4962037513894786,0.4416991689898863,0.33422065172179777,0.49149318456161567,0.4828625452695041,0.2644762321819428,0.28788290859144633,0.28499138238325467,0.3512677511990663,0.2979603610668605,0.3618777910433332,0.39538491841350415,0.3467262468891419,0.5075547117472058,0.4482863511919424,0.5087155243553834,0.5985547874951752,0.8087493620978579,0.7130024327609771,0.7926741981216547,0.9423099066339703,0.8455609538489754,0.8215586545799258,0.7307672338529081,0.6694030566179187,0.7242269295520398,0.8512001499555619,0.7335441335903904,0.6798623787202098,0.6769551223059567,0.6798324752713841,0.6655370415326776,0.8462358849057077,0.8819361793031923","0.05843984389412839,0.20343263207287451,0.3431863083883514,0.22888175471984767,0.14542263908176428,0.22714464045293337,0.1900467653988252,0.14741318413152785,0.2634302908173014,0.14331024409172263,0.11361227305777874,0.11032636614525038,0.14374549801665898,0.15733677667803952,0.10392103256633327,0.0887040459036196,0.05437450704939432,0.19720889141844247,0.27500356382620994,0.18821944471659494,0.13573374352614548,0.15702325045269433,0.18370535652891312,0.1219705363734367,0.17317246250162957,0.1188457382757371,0.14695975320734886,0.10365205060184497,0.13967823240512467,0.15652666680151692,0.2054950433468207,0.2387689087084245,0.2110879676513438,0.17459388034679393,0.050783444651677424,0.05806103698346653,0.07663307646745555,0.07455763716442333,0.05424153815895992,0.18029995272811977,0.22756627150869466,0.18159891938127168,0.06273136838758221,0.05976622815548538,0.0728245325058054,0.08658869426606862,0.07737400172370762,0.07925393744459559,0.16089171157471643,0.07427656674798633,0.2615740770556918,0.2736894695833119,0.14479928002816822,0.1196196766336049,0.06066592237247395,0.09705637479790223,0.2590695079262988,0.21984102599179944,0.06539723190916107,0.05081107354229751,0.15919609319400002,0.09275000772807601,0.11401271770310144,0.17982333528634076,0.08610201311255257,0.10263491513066982,0.0756829581784493,0.1583770870769866,0.14703836403065831,0.18106583882268143,0.5697981436885183,0.5519081090904878,0.7321897167695939,0.802144952907744,0.6696568086540112,0.7405301078323078,0.7279361814784037,0.6592036791211748,0.7539017785580072,0.8979760488174552,0.8827398909565409,0.8223302561228286,0.8358820851600459,0.8145659379778212,0.9185383578124041,0.9441743532160533,0.7783821810215727,0.7841048104326471,0.8723295288075983,0.7996878077587605,1,0.8948302849092982,0.8840489578797667,0.9327475912876011,0.7971840466013685,0.8206649224939883,0.8413527692959193,0.717943635400329,0.818616576481766,0.7979989118762256,0.47837712832228013,0.36199649173810544,0.2918393980403718,0.13830326014733937,0.08585433490768038,0.193514139950857,0.18355559555538165,0.14300389985354092,0.058109961126705495,0.10921077949850803,0.19962161137449552,0.08522860730861898,0.05348562756037279,0.07745149068951852,0.1452735570074234,0.06113357171284391,0.13390771389466427,0.1823433712418827,0.10917953311519885,0.11063833783179691,0.07705247770438924,0.08954971791965731,0.07599792665965495,0.0841323244345805,0.05901659596621134,0.10562249870474684,0.12185290709285398,0.2057288737767704,0.10693823542166936,0.06804644064061555,0.06260062711406439,0.07911339887155769,0.08949576554062862,0.2855387878315827,0.05619651139355902,0.07728859416062493,0.07659555618579011,0.11885443118364838,0.2377145024281296,0.21289989685077262,0.20643067425910783,0.3171725179597779,0.2846441713090513,0.12367896925257943,0.08277483129169017,0.13468780950939466,0.061954232256352944,0.1468678371017176,0.3195262050095593,0.17755896664967188,0.11891441164946137,0.2017938280144476,0.1117549878114264,0.10173357214138454,0.14208292725933053,0.16139153011033702,0.05060793591830068,0.1716630515440772,0.1342094779788198,0.11919872521538195,0.2318604175059356,0.21939911737510953,0.1701792666773311,0.11391623545711851,0.17812942014196942,0.12986280385894425,0.06195631931273685,0.12573452787793543,0.15491743815839398,0.2763889616854916,0.16116860707248834,0.11551671696041366,0.05573371903782126,0.2143691516506928,0.07289755247818208,0.14983380787229425,0.09117189313820191,0.1615288244522175,0.07149849217979724,0.10772997093685518","122,129,89,125,203,42,207,128,167,126,164,84,209,123,206,86,81,47,43,83,162,163,41,48,168,204,80,44,45,40,124,166,121,87,169,49,165,201,200,205,82,127,208,120,46,202,161,88","1,5,3,1,4,1,1,5,1,4,1,5,2,1,5,1,1,1,1,1,1,6,4,1,1,1,1,3,5,1,1,3,1,2,1,1,1,1,1,4,1,1,1,6,3,1,1,1,1,1,1,4,5,1,2,1,1,1,1,1"
