"success","trial_type","trial_index","time_elapsed","internal_node_id","rt","stimulus","key_press","subject_id","response","choice_outcomes","context_n","context_img_id","trial_n","probe_img_id","pR_red","pR_white","pR_black","outcome","contextArray_ind","validImageProbes","invalidImageProbes","pRew_Red","pRew_White","pRew_Black","availableForMemProbe","choice_blocks"
"true","fullscreen","0","3584","0.0-0.0","","","","","","","","","","","","","","","","","","","","","",""
"","pavlovia","1","3591","0.0-1.0","","","","","","","","","","","","","","","","","","","","","",""
"","html-keyboard-response","2","15228","0.0-2.0","11636","<div class='center'><p>Welcome! This is the first day of the experiment which will last ~30 minutes. In this experiment, you are the head captain of a pirate ship traveling around the world to different places. You will complete several different tasks during this experiment. Here is an overview of these tasks:</p><br><p>Day 1</p><p>1. Tutorial and quiz</p><p>2. Pick a pirate game in 6 different places</p><br><p>Day 2</p><p>3. Pick a pirate game and memory game</p><p>4. Final questions and payment</p><br><p>If you complete the entire experiment, you will receive $15 and a possible bonus payment.</p><p><b>[Press the space bar to begin the tutorial]</b></p></div>","32","6143dabbacaecb3a83abd1f7","","","","","","","","","","","","","","","","","",""
"","html-keyboard-response","3","23255","0.0-3.0","8024.800000011921","<div class='center'><p>You are the head captain of a pirate ship.</p><p> Your pirates rob other ships as they leave the marketplace port.</p> These ships have just sold all their goods at the marketplace, so they have lots and lots of gold on them.</p><p><img src='run_exp/static/images/ship_center.png' height='400'></p><p><b>[Press the space bar to continue]</b></p></div>","32","","","","","","","","","","","","","","","","","","",""
"","html-keyboard-response","4","40653","0.0-4.0","17396.599999964237","<div class='center'><p>As the head captain, you do not have to rob any ships yourself.</p><p>You get to choose which pirate you want to rob the next ship. </p><p>If they are successful at robbing the ship, then you will get gold coins.</p><p> If they are not successful, then you will get no gold coins.</p><p> The more coins you collect, the more bonus money you will win. So, choose your pirate wisely.</p><p><img src='run_exp/static/images/goal.png' height='400'></p><p><b>[Press the space bar to continue]</b></p><div>","32","","","","","","","","","","","","","","","","","","",""
"","html-keyboard-response","5","59367","0.0-5.0","18713","<div class='center'><p>Even the most skilled pirate will not be able to rob EVERY ship.</p><p> Some ships will have very strong defenses against attacks.</p><p> For example, blue beard, here,  is very good at robbing ships.</p><p> You can press the <b>‘1’</b> button on the keyboard to choose him.</p><p> Try choosing him 10 times to see how often he is successful at robbing ships. </p><p><img src='run_exp/static/images/blue.png' height='500'></p></div>","49","","","","","","","","","","","","","","","","","","",""
"","html-keyboard-response","6","60870","0.0-6.0","null","<br><br><br><br><p><img src='run_exp/static/images/blue_win.png' height='500'></p>","null","","","","","","","","","","","","","","","","","","",""
"","html-keyboard-response","7","65594","0.0-7.0","4723.199999988079","<br><br><br><br><p><img src='run_exp/static/images/blue.png' height='500'></p>","49","","","","","","","","","","","","","","","","","","",""
"","html-keyboard-response","8","67099","0.0-8.0","null","<br><br><br><br><p><img src='run_exp/static/images/blue_win.png' height='500'></p>","null","","","","","","","","","","","","","","","","","","",""
"","html-keyboard-response","9","68139","0.0-9.0","1039.4000000357628","<br><br><br><br><p><img src='run_exp/static/images/blue.png' height='500'></p>","49","","","","","","","","","","","","","","","","","","",""
"","html-keyboard-response","10","69654","0.0-10.0","null","<br><br><br><br><p><img src='run_exp/static/images/blue_win.png' height='500'></p>","null","","","","","","","","","","","","","","","","","","",""
"","html-keyboard-response","11","70095","0.0-11.0","439","<br><br><br><br><p><img src='run_exp/static/images/blue.png' height='500'></p>","49","","","","","","","","","","","","","","","","","","",""
"","html-keyboard-response","12","71607","0.0-12.0","null","<br><br><br><br><p><img src='run_exp/static/images/blue_no_win.png' height='500'></p>","null","","","","","","","","","","","","","","","","","","",""
"","html-keyboard-response","13","72176","0.0-13.0","568.1000000238419","<br><br><br><br><p><img src='run_exp/static/images/blue.png' height='500'></p>","49","","","","","","","","","","","","","","","","","","",""
"","html-keyboard-response","14","73684","0.0-14.0","null","<br><br><br><br><p><img src='run_exp/static/images/blue_win.png' height='500'></p>","null","","","","","","","","","","","","","","","","","","",""
"","html-keyboard-response","15","74021","0.0-15.0","336.30000001192093","<br><br><br><br><p><img src='run_exp/static/images/blue.png' height='500'></p>","49","","","","","","","","","","","","","","","","","","",""
"","html-keyboard-response","16","75531","0.0-16.0","null","<br><br><br><br><p><img src='run_exp/static/images/blue_win.png' height='500'></p>","null","","","","","","","","","","","","","","","","","","",""
"","html-keyboard-response","17","75931","0.0-17.0","398.5","<br><br><br><br><p><img src='run_exp/static/images/blue.png' height='500'></p>","49","","","","","","","","","","","","","","","","","","",""
"","html-keyboard-response","18","77444","0.0-18.0","null","<br><br><br><br><p><img src='run_exp/static/images/blue_win.png' height='500'></p>","null","","","","","","","","","","","","","","","","","","",""
"","html-keyboard-response","19","77805","0.0-19.0","359.60000002384186","<br><br><br><br><p><img src='run_exp/static/images/blue.png' height='500'></p>","49","","","","","","","","","","","","","","","","","","",""
"","html-keyboard-response","20","79317","0.0-20.0","null","<br><br><br><br><p><img src='run_exp/static/images/blue_no_win.png' height='500'></p>","null","","","","","","","","","","","","","","","","","","",""
"","html-keyboard-response","21","79686","0.0-21.0","368.0999999642372","<br><br><br><br><p><img src='run_exp/static/images/blue.png' height='500'></p>","49","","","","","","","","","","","","","","","","","","",""
"","html-keyboard-response","22","81201","0.0-22.0","null","<br><br><br><br><p><img src='run_exp/static/images/blue_win.png' height='500'></p>","null","","","","","","","","","","","","","","","","","","",""
"","html-keyboard-response","23","81565","0.0-23.0","363.5","<br><br><br><br><p><img src='run_exp/static/images/blue.png' height='500'></p>","49","","","","","","","","","","","","","","","","","","",""
"","html-keyboard-response","24","83078","0.0-24.0","null","<br><br><br><br><p><img src='run_exp/static/images/blue_win.png' height='500'></p>","null","","","","","","","","","","","","","","","","","","",""
"","html-keyboard-response","25","85568","0.0-25.0","2489.2000000476837","<div class='center'><p> See, he was successful at robbing the ships most of the time but not every time. </p><p><b>[Press the space bar to continue]</b></p></div>","32","","","","","","","","","","","","","","","","","","",""
"","html-keyboard-response","26","104235","0.0-26.0","18665.5","<div class='center'><p>In the game, you will get to choose which of three pirates you want to rob the next ship. <p>Press the <b>‘1’</b> button on your keyboard to pick the pirate with the red beard.</p><p> Press <b>‘2’</b> to pick the pirate with the white beard.</p><p> Press <b>‘3’</b> to pick the pirate with the black beard.</p><p>Try picking a pirate now!</p><p><img src='run_exp/static/images/all_pirates.png' height='500'></p></div>","50","","","","","","","","","","","","","","","","","","",""
"","html-keyboard-response","27","106826","0.0-27.0-0.0","2588.199999988079","<div class='center'><p>This pirate was successful at robbing the ship!</p><p><img src='run_exp/static/images/white_win.png' height='500'></p><p><b>[Press the space bar to continue]</b></p></div>","32","","","","","","","","","","","","","","","","","","",""
"","html-keyboard-response","28","110247","0.0-27.0-1.0","3419.5","<div class='center'><p>Now try choosing another</p><p><img src='run_exp/static/images/all_pirates.png' height='500'></p></div>","49","","","","","","","","","","","","","","","","","","",""
"","html-keyboard-response","29","111482","0.0-28.0-0.0","1234.2999999523163","<div class='center'><p>This pirate was not successful at robbing the ship!</p><p><img src='run_exp/static/images/red_no_win.png' height='500'></p><p><b>[Press the space bar to continue]</b></p></div>","32","","","","","","","","","","","","","","","","","","",""
"","html-keyboard-response","30","115043","0.0-29.0-0.0","3560.2999999523163","<div class='center'><p>You’ll stop at these 6 places on your journey.</p><p><img src='run_exp/static/images/all_contexts.png' height='500'></p><p><b>[Press the space bar to continue]</b></p></div>","32","","","","","","","","","","","","","","","","","","",""
"","html-keyboard-response","31","121685","0.0-29.0-1.0","6641.300000011921","<div class='center'><p>How good a pirate is at robbing ships will depend on the current place.</p><p> Some pirates will have been to the place before, and will have more experience robbing ships there.</p><p>So, they will be more successful at stealing gold and bringing it back to you.</p><p><b>[Press the space bar to continue]</b></p></div>","32","","","","","","","","","","","","","","","","","","",""
"","html-keyboard-response","32","128758","0.0-29.0-2.0","7072.800000011921","<div class='center'><p>How successful a pirate is at robbing ships can also change in a place.<p> Ships may hear about the pirates coming and will improve their defenses. This may make it more difficult to rob them.</p><p> Ships may also grow lazy and lower their defenses. This may make it easier to rob them.</p><br><p>Things are always changing on the high seas! So, try your best to pay attention!</p><p><img src='run_exp/static/images/contingency.png' height='500'></p><p><b>[Press the space bar to continue]</b></p></div>","32","","","","","","","","","","","","","","","","","","",""
"","html-keyboard-response","33","148773","0.0-29.0-3.0","20014","<div class='center'><p>Once you choose a pirate to rob a ship, you’ll be shown the ship they are robbing.</p><p>The ship will have a picture of the item they sold at the marketplace.</p><p> Try your best to remember the ship and where you saw the ship.</p><p> You’ll have to remember this for later, and remembering this correctly will help you win more bonus money!</p><p>You can remember the ship by remembering the item they sold at the marketplace</p><p>A helpful strategy is to try to come up with a story of the chosen pirate and ship’s item interacting with the scene.</p><p> For example, a ship might have sold travel mugs and you could imagine red beard walking through the city with a travel mug. </p><p>Or imagine an apple falling from a tree into white beard's hands in the forest.</p><p><img src='run_exp/static/images/example_probe.png' height='500'></p><p><b>[Press the space bar to continue]</b></p></div>","32","","","","","","","","","","","","","","","","","","",""
"","html-keyboard-response","34","153405","0.0-29.0-4.0","4630.699999988079","<div class='center'><p>If you don’t make your choice fast enough, you’ll have to wait a few seconds before you can make another one. </p><p>You can’t win more gold. You just have to sit and wait.</p><p><img src='run_exp/static/images/hurry_up.png' height='500'></p><p><b>[Press the space bar to continue]</b></p></div>","32","","","","","","","","","","","","","","","","","","",""
"","html-keyboard-response","35","176360","0.0-29.0-5.0","22953.399999976158","<div class='center'><p>Again, you have two important things to do: </p><b><p> 1. Pick the pirate who you think will be most successful at robbing the next ship.</p></b><b><p> 2. Remember where a pirate robbed a ship.</p> </b><p>Both are important in determining how much bonus money you’ll win.</p><br><p>Let’s try a practice game. The game will start by showing you the pirates. First pick a pirate using the <b> 1, 2, 3 </b> buttons on your keyboard. When you are shown a ship, try to remember the place you’re in by making up a story.</p><p> You only have 3 seconds to pick a pirate, so please make a choice quickly! If you are too slow, you’ll have to wait a bit during the time out.</p><p> Don’t feel rushed, but please do try to make a choice every time.</p><p>How good a pirate is at robbing a ship will change depending on the place they are in and how good the defenses are of the ship.</p> <p>This is just a practice game, so you’re not playing for money. </p><p>You’ll receive a bag which may or may not contain gold coins.</p><p> In the real game, though, you’ll be able to see whether or not you received the gold coins.</p><p> Good luck, remember press <b>'1'</b> to choose red beard, <b>'2'</b> to choose white beard, and <b>'3'</b> to choose black beard</p><p><b>[Press the space bar to begin the practice game]</b></p></div>","32","","","","","","","","","","","","","","","","","","",""
"","do_trial_prac","36","183132","0.0-29.0-6.0","2258.400000035763","","","","51","","","","","","","","","","","","","","","","",""
"","do_trial_prac","37","189216","0.0-29.0-7.0","1571.699999988079","","","","49","","","","","","","","","","","","","","","","",""
"","do_trial_prac","38","194838","0.0-29.0-8.0","1105.199999988079","","","","50","","","","","","","","","","","","","","","","",""
"","do_trial_prac","39","201090","0.0-29.0-9.0","1734.3999999761581","","","","50","","","","","","","","","","","","","","","","",""
"","do_trial_prac","40","206892","0.0-29.0-10.0","1287.6000000238419","","","","51","","","","","","","","","","","","","","","","",""
"","html-keyboard-response","41","209775","0.0-29.0-11.0","2882.399999976158","<div class='center'><p>Great job on the practice game!</p><p> Now, you will be asked you some true or false questions to make sure you really understand the rules of the game.</p><p> Press <b>'1'</b> on the keyboard for true and press <b>'2'</b> for false.</p><p><b>[Press the space bar to begin the quiz]</b></p></div>","32","","","","","","","","","","","","","","","","","","",""
"","html-keyboard-response","42","216304","0.0-29.0-12.0","6527.5","<div class='center'><p>You win bonus money by making choices as fast as possible.</p><p>Press 1 for true and press  2 for false.</p></div>","49","","","","","","","","","","","","","","","","","","",""
"","html-keyboard-response","43","220091","0.0-30.0-0.0","3785.699999988079","<br><br><br><br><p>That’s incorrect! You win bonus money by collecting as many gold coins as possible!</p><p><b>[press the space bar to continue with the quiz]</b></p>","32","","","","","","","","","","","","","","","","","","",""
"","html-keyboard-response","44","227713","0.0-30.0-1.0","7620.300000011921","<div class='center'><p>You press the <b>‘3’</b> button on the keyboard to choose the red bearded pirate? </p><p>Press 1 for true and press  2 for false.</p></div>","50","","","","","","","","","","","","","","","","","","",""
"","html-keyboard-response","45","229103","0.0-31.0-0.0","1389.9000000357628","<br><br><br><br><p>That's correct!</p> <p><b>[press the space bar to continue with the quiz]</b></p>","32","","","","","","","","","","","","","","","","","","",""
"","html-keyboard-response","46","234888","0.0-31.0-1.0","5784.699999988079","<div class='center'><p>A pirate will always be equally successful at robbing ships in each place</p><p>Press 1 for true and press  2 for false.</p></div>","50","","","","","","","","","","","","","","","","","","",""
"","html-keyboard-response","47","235577","0.0-32.0-0.0","687.5999999642372","<br><br><br><br><p>That's correct!</p> <p><b>[press the space bar to continue with the quiz]</b></p>","32","","","","","","","","","","","","","","","","","","",""
"","html-keyboard-response","48","238997","0.0-32.0-1.0","3419","<div class='center'><p>You should remember the place where a pirate robbed a ship.</p><p>Press 1 for true and press  2 for false.</p></div>","49","","","","","","","","","","","","","","","","","","",""
"","html-keyboard-response","49","239615","0.0-33.0-0.0","617.3000000119209","<br><br><br><br><p>That's correct!</p> <p><b>[press the space bar to continue with the quiz]</b></p>","32","","","","","","","","","","","","","","","","","","",""
"","html-keyboard-response","50","244619","0.0-34.0-0.0","5002.600000023842","<br><br><br><br><p>Oops, you missed some questions. Now that you’ve heard the correct answers. Try the quiz again! If you fail the quiz too many times, you won’t be able to do the experiment. </p> <p><br>[press the space bar to repeat the quiz]</br></p>","32","","","","","","","","","","","","","","","","","","",""
"","html-keyboard-response","51","247772","0.0-34.0-1.0","3151.800000011921","<div class='center'><p>You win bonus money by making choices as fast as possible.</p><p>Press 1 for true and press  2 for false.</p></div>","50","","","","","","","","","","","","","","","","","","",""
"","html-keyboard-response","52","248369","0.0-35.0-0.0","595.8999999761581","<br><br><br><br><p>That's correct!</p> <p><b>[press the space bar to continue with the quiz]</b></p>","32","","","","","","","","","","","","","","","","","","",""
"","html-keyboard-response","53","251529","0.0-35.0-1.0","3159.400000035763","<div class='center'><p>You press the <b>‘3’</b> button on the keyboard to choose the red bearded pirate? </p><p>Press 1 for true and press  2 for false.</p></div>","50","","","","","","","","","","","","","","","","","","",""
"","html-keyboard-response","54","251979","0.0-36.0-0.0","449.5","<br><br><br><br><p>That's correct!</p> <p><b>[press the space bar to continue with the quiz]</b></p>","32","","","","","","","","","","","","","","","","","","",""
"","html-keyboard-response","55","254745","0.0-36.0-1.0","2764.5","<div class='center'><p>A pirate will always be equally successful at robbing ships in each place</p><p>Press 1 for true and press  2 for false.</p></div>","50","","","","","","","","","","","","","","","","","","",""
"","html-keyboard-response","56","255218","0.0-37.0-0.0","472.9000000357628","<br><br><br><br><p>That's correct!</p> <p><b>[press the space bar to continue with the quiz]</b></p>","32","","","","","","","","","","","","","","","","","","",""
"","html-keyboard-response","57","256793","0.0-37.0-1.0","1574.800000011921","<div class='center'><p>You should remember the place where a pirate robbed a ship.</p><p>Press 1 for true and press  2 for false.</p></div>","49","","","","","","","","","","","","","","","","","","",""
"","html-keyboard-response","58","257227","0.0-38.0-0.0","429.10000002384186","<br><br><br><br><p>That's correct!</p> <p><b>[press the space bar to continue with the quiz]</b></p>","32","","","","","","","","","","","","","","","","","","",""
"","html-keyboard-response","59","258242","0.0-39.0-0.0","1013.9000000357628","<br><br><br><br><p>Good job! You’re now ready to move on to the real game!</p> <p><br>[press the space bar to begin!]</br></p>","32","","","","","","","","","","","","","","","","","","",""
"","do_welcome","60","259753","0.0-40.0-0.0","null","","","","null","","","","","","","","","","","","","","","","",""
"","do_trial","61","266141","0.0-41.0-0.0","1841.2000000476837","","","","49","1,0,0","0","coast","0","probe-89","1","0.4","0.1","1","","","","","","","",""
"","do_trial","62","271722","0.0-42.0-0.0","1031.3999999761581","","","","50","1,0,0","0","coast","1","probe-160","1","0.2988053270806732","0.12833252087711894","0","","","","","","","",""
"","do_trial","63","277644","0.0-43.0-0.0","1377.800000011921","","","","51","1,0,1","0","coast","2","probe-228","1","0.49126034022065723","0.12482106970530243","1","","","","","","","",""
"","do_trial","64","282634","0.0-44.0-0.0","436.5","","","","49","1,1,0","0","coast","3","probe-226","1","0.39623001819600584","0.11591355782631813","1","","","","","","","",""
"","do_trial","65","287846","0.0-45.0-0.0","657.3999999761581","","","","50","0,0,0","0","coast","4","probe-72","0.7830756139287476","0.4242240426374565","0.11124932215183021","0","","","","","","","",""
"","do_trial","66","292697","0.0-46.0-0.0","310.30000001192093","","","","51","0,0,0","0","coast","5","probe-134","0.76365269294244","0.49280139963023417","0.22220684487626974","0","","","","","","","",""
"","do_trial","67","297641","0.0-47.0-0.0","395.4000000357628","","","","49","1,1,0","0","coast","6","probe-153","0.7870261121450182","0.42612516187685523","0.06526335719148368","1","","","","","","","",""
"","do_trial","68","302574","0.0-48.0-0.0","385","","","","50","0,0,0","0","coast","7","probe-58","0.6953096225757177","0.42249517916031293","0.06789694751701618","0","","","","","","","",""
"","do_trial","69","307817","0.0-49.0-0.0","687.8999999761581","","","","51","0,0,0","0","coast","8","probe-120","0.814661056827247","0.38064711575896215","0.07141252413091106","0","","","","","","","",""
"","do_trial","70","312882","0.0-50.0-0.0","524","","","","49","1,0,1","0","coast","9","probe-30","0.949141014458509","0.42602705756550713","0.16027120682192808","1","","","","","","","",""
"","do_trial","71","317939","0.0-51.0-0.0","501.0999999642372","","","","50","1,0,0","0","coast","10","probe-200","0.6055524865888907","0.37584269106025375","0.3139784745517612","0","","","","","","","",""
"","do_trial","72","322857","0.0-52.0-0.0","345.5","","","","51","0,0,0","0","coast","11","probe-99","0.49275858829715946","0.449254598410529","0.5420737683158593","0","","","","","","","",""
"","do_trial","73","327978","0.0-53.0-0.0","579.5","","","","49","1,1,0","0","coast","12","probe-119","0.35608612567732645","0.5417952194779555","0.7345938511502779","1","","","","","","","",""
"","do_trial","74","332956","0.0-54.0-0.0","429.80000001192093","","","","50","1,1,1","0","coast","13","probe-197","0.3584546320681532","0.41444178468895837","0.770583197140929","1","","","","","","","",""
"","do_trial","75","338373","0.0-55.0-0.0","848.3999999761581","","","","51","0,0,1","0","coast","14","probe-34","0.2531000507325029","0.19146192052473407","0.8281350442245534","1","","","","","","","",""
"","do_trial","76","343345","0.0-56.0-0.0","416","","","","49","0,0,1","0","coast","15","probe-224","0.13407092403403906","0.15383782345495037","0.8712150349959674","0","","","","","","","",""
"","do_trial","77","348437","0.0-57.0-0.0","541.3999999761581","","","","50","0,0,1","0","coast","16","probe-149","0.05269802955507096","0.3042547378382625","0.8282783455532904","0","","","","","","","",""
"","do_trial","78","353607","0.0-58.0-0.0","598.1999999880791","","","","51","0,1,1","0","coast","17","probe-87","0.15835956462397366","0.4098521580934991","0.9185352951268096","1","","","","","","","",""
"","do_trial","79","358697","0.0-59.0-0.0","545.9000000357628","","","","51","0,1,1","0","coast","18","probe-237","0.17833211142879477","0.4605404972218197","0.915042380891284","1","","","","","","","",""
"","do_trial","80","363732","0.0-60.0-0.0","484.80000001192093","","","","49","0,1,1","0","coast","19","probe-156","0.14216970513577906","0.48880116569140397","0.8048541932876876","0","","","","","","","",""
"","do_trial","81","368820","0.0-61.0-0.0","519.6000000238419","","","","50","0,1,1","0","coast","20","probe-93","0.10163757795870539","0.45308645338889364","0.9197823110086394","1","","","","","","","",""
"","do_trial","82","373916","0.0-62.0-0.0","551.5","","","","51","0,0,1","0","coast","21","probe-106","0.1010537468725022","0.49202472211340564","0.8107508007503472","1","","","","","","","",""
"","do_trial","83","378805","0.0-63.0-0.0","340.19999998807907","","","","49","0,0,1","0","coast","22","probe-55","0.16675379279311486","0.4217435883694449","0.8641023143018992","0","","","","","","","",""
"","do_trial","84","383759","0.0-64.0-0.0","409.60000002384186","","","","50","0,1,1","0","coast","23","probe-125","0.18718552681420925","0.5653945736673789","0.9335153670663627","1","","","","","","","",""
"","do_trial","85","388759","0.0-65.0-0.0","437.69999998807907","","","","51","0,0,1","0","coast","24","probe-09","0.0678704592495614","0.5966911889705497","0.8867462099223736","1","","","","","","","",""
"","do_trial","86","393783","0.0-66.0-0.0","482.39999997615814","","","","49","0,1,1","0","coast","25","probe-37","0.1020122143223024","0.5261261375726524","0.9260878442078749","0","","","","","","","",""
"","do_trial","87","398638","0.0-67.0-0.0","308.60000002384186","","","","50","0,0,1","0","coast","26","probe-148","0.3641425020998538","0.4978212207583679","0.9161721967335892","0","","","","","","","",""
"","do_trial","88","403564","0.0-68.0-0.0","370.5","","","","51","1,0,1","0","coast","27","probe-104","0.3181920387965313","0.4794440604087737","0.9129637138621968","1","","","","","","","",""
"","do_trial","89","408757","0.0-69.0-0.0","647.5","","","","49","0,1,1","0","coast","28","probe-202","0.17806863949914933","0.539217352741359","0.7975425019582391","0","","","","","","","",""
"","do_trial","90","413683","0.0-70.0-0.0","365.0999999642372","","","","50","0,1,0","0","coast","29","probe-17","0.10772576758381601","0.505232707873653","0.6359227801158717","1","","","","","","","",""
"","do_trial","91","418681","0.0-71.0-0.0","444.4000000357628","","","","51","0,1,1","0","coast","30","probe-01","0.22245227970300469","0.39333164492819117","0.7465300508308649","1","","","","","","","",""
"","do_trial","92","423700","0.0-72.0-0.0","444.5999999642372","","","","49","1,0,0","0","coast","31","probe-33","0.22662755702345116","0.4013290865740147","0.5834680242596717","1","","","","","","","",""
"","do_trial","93","428557","0.0-73.0-0.0","303.0999999642372","","","","50","0,0,1","0","coast","32","probe-239","0.2685833463275165","0.3101507881681084","0.7086542255818445","0","","","","","","","",""
"","do_trial","94","433466","0.0-74.0-0.0","359.69999998807907","","","","51","0,0,1","0","coast","33","probe-236","0.2793927827984681","0.21613174841188929","0.7684382878231856","1","","","","","","","",""
"","do_trial","95","438394","0.0-75.0-0.0","388.7000000476837","","","","49","0,1,1","0","coast","34","probe-92","0.24384409578764227","0.32468123350511485","0.653724478765326","0","","","","","","","",""
"","do_trial","96","443332","0.0-76.0-0.0","388","","","","50","0,1,1","0","coast","35","probe-38","0.33332118162057983","0.28873272004805856","0.7260403310599582","1","","","","","","","",""
"","do_trial","97","448422","0.0-77.0-0.0","548.1999999880791","","","","51","0,0,1","0","coast","36","probe-108","0.32165515417856627","0.23395862132529088","0.6739355265418857","1","","","","","","","",""
"","do_trial","98","453335","0.0-78.0-0.0","359.5","","","","49","0,0,0","0","coast","37","probe-74","0.301087018770996","0.20937491014414505","0.8305337326184585","0","","","","","","","",""
"","do_trial","99","458206","0.0-79.0-0.0","322.5","","","","50","0,0,0","0","coast","38","probe-43","0.15094192894813205","0.28427721061780686","0.7835044078616763","0","","","","","","","",""
"","do_trial","100","463048","0.0-80.0-0.0","301.80000001192093","","","","51","0,1,1","0","coast","39","probe-139","0.08921274696757163","0.31475058937040834","0.7867185696050477","1","","","","","","","",""
"","do_bye","101","464559","0.0-81.0-0.0","null","","","","null","","","","","","","","","","","","","","","","",""
"","do_travel","102","470566","0.0-82.0-0.0","null","","","","null","","","","","","","","","","","","","","","","",""
"","do_welcome","103","472074","0.0-82.0-1.0","null","","","","null","","","","","","","","","","","","","","","","",""
"","do_trial","104","478110","0.0-83.0-0.0","1492.800000011921","","","","49","0,0,1","1","highway","40","probe-79","0.06843496564269211","0.361739036067749","1","0","","","","","","","",""
"","do_trial","105","483138","0.0-84.0-0.0","480.19999998807907","","","","50","0,1,1","1","highway","41","probe-198","0.11920162357444157","0.3056379190352733","1","1","","","","","","","",""
"","do_trial","106","488146","0.0-85.0-0.0","464.69999998807907","","","","51","0,1,1","1","highway","42","probe-95","0.15094048927626333","0.33117216484546924","1","1","","","","","","","",""
"","do_trial","107","492999","0.0-86.0-0.0","300.19999998807907","","","","49","0,0,1","1","highway","43","probe-07","0.12325923866583956","0.28138308682104546","1","0","","","","","","","",""
"","do_trial","108","497870","0.0-87.0-0.0","295.89999997615814","","","","50","0,0,1","1","highway","44","probe-116","0.0616297037875737","0.24772628134835992","0.8692234716797633","0","","","","","","","",""
"","do_trial","109","502741","0.0-88.0-0.0","317.69999998807907","","","","51","0,1,0","1","highway","45","probe-215","0.0988757287423454","0.268122198301498","0.7232006252451464","0","","","","","","","",""
"","do_trial","110","507548","0.0-89.0-0.0","261.4000000357628","","","","49","0,1,1","1","highway","46","probe-205","0.16291975114682167","0.3801673145708276","0.7148451192219694","0","","","","","","","",""
"","do_trial","111","512435","0.0-90.0-0.0","331.5","","","","50","0,0,1","1","highway","47","probe-141","0.05233030943370554","0.35771085312979617","0.7294346957141252","0","","","","","","","",""
"","do_trial","112","517311","0.0-91.0-0.0","322.30000001192093","","","","51","0,1,0","1","highway","48","probe-19","0.0838676678314058","0.37784595314652436","0.6860227967891236","0","","","","","","","",""
"","do_trial","113","522121","0.0-92.0-0.0","258.30000001192093","","","","49","0,0,1","1","highway","49","probe-204","0.18631289273453278","0.35581163300598817","0.702416465111997","0","","","","","","","",""
"","do_trial","114","527017","0.0-93.0-0.0","352.80000001192093","","","","50","0,1,1","1","highway","50","probe-144","0.130039367617333","0.5886805825908639","0.6505188221937003","1","","","","","","","",""
"","do_trial","115","531863","0.0-94.0-0.0","289.5999999642372","","","","51","0,1,0","1","highway","51","probe-143","0.20545349976515084","0.599126951918517","0.5421926910589421","0","","","","","","","",""
"","do_trial","116","536958","0.0-95.0-0.0","550.8999999761581","","","","49","0,1,0","1","highway","52","probe-27","0.13570466734145256","0.8095888819085316","0.5646824697073327","0","","","","","","","",""
"","do_trial","117","541918","0.0-96.0-0.0","420.30000001192093","","","","50","1,1,1","1","highway","53","probe-186","0.31183937598498335","0.7634822891448478","0.3320938665514194","1","","","","","","","",""
"","do_trial","118","546924","0.0-97.0-0.0","442","","","","51","1,1,1","1","highway","54","probe-187","0.4478123022805734","0.865948430228686","0.3711082254247882","1","","","","","","","",""
"","do_trial","119","551884","0.0-98.0-0.0","385.30000001192093","","","","49","1,0,1","1","highway","55","probe-229","0.21509807575990894","0.7545565828609024","0.4190438106010181","1","","","","","","","",""
"","do_trial","120","556751","0.0-99.0-0.0","298.19999998807907","","","","50","1,0,1","1","highway","56","probe-56","0.18600892363898067","0.7577309377172435","0.5878468120143017","0","","","","","","","",""
"","do_trial","121","561609","0.0-100.0-0.0","316","","","","51","1,1,0","1","highway","57","probe-68","0.14480657240613237","0.8448265825473069","0.6244111450354922","0","","","","","","","",""
"","do_trial","122","566528","0.0-101.0-0.0","377.2000000476837","","","","49","0,1,1","1","highway","58","probe-98","0.17649761791299232","0.8640232359676615","0.56223393253629","0","","","","","","","",""
"","do_trial","123","571446","0.0-102.0-0.0","373","","","","50","1,0,1","1","highway","59","probe-234","0.1173600825932854","0.8268190335276734","0.5638823096583476","0","","","","","","","",""
"","do_trial","124","576548","0.0-103.0-0.0","557.5","","","","50","0,1,0","1","highway","60","probe-90","0.1262438556772024","0.8694370361387447","0.4583750952600143","1","","","","","","","",""
"","do_trial","125","582095","0.0-104.0-0.0","1007.0999999642372","","","","51","0,1,0","1","highway","61","probe-111","0.13405924713432066","0.9213087131402721","0.5844220839742361","0","","","","","","","",""
"","do_trial","126","586957","0.0-105.0-0.0","310.89999997615814","","","","49","0,1,0","1","highway","62","probe-67","0.11183611949103242","0.9285390211863085","0.5542062367195202","0","","","","","","","",""
"","do_trial","127","591901","0.0-106.0-0.0","391.60000002384186","","","","49","0,0,0","1","highway","63","probe-219","0.1718975494345895","0.8747927749698345","0.4928008281383852","0","","","","","","","",""
"","do_trial","128","596838","0.0-107.0-0.0","389.4000000357628","","","","50","0,1,0","1","highway","64","probe-145","0.07788202266634789","0.8551430998923859","0.5862878904393757","1","","","","","","","",""
"","do_trial","129","602007","0.0-108.0-0.0","614.5","","","","50","0,1,0","1","highway","65","probe-182","0.06156110307902157","0.8648282286196123","0.44672270781392515","1","","","","","","","",""
"","do_trial","130","606915","0.0-109.0-0.0","359.19999998807907","","","","50","0,1,1","1","highway","66","probe-39","0.09305469254056961","0.7824432457420509","0.4471740342487766","1","","","","","","","",""
"","do_trial","131","611907","0.0-110.0-0.0","439.80000001192093","","","","50","0,1,0","1","highway","67","probe-218","0.11037594706877146","0.9241027400258246","0.43554867937423475","1","","","","","","","",""
"","do_trial","132","616918","0.0-111.0-0.0","468.2999999523163","","","","50","0,0,0","1","highway","68","probe-31","0.07045839409834913","0.7989272363873461","0.3955470950742528","0","","","","","","","",""
"","do_trial","133","621789","0.0-112.0-0.0","318.69999998807907","","","","51","0,1,0","1","highway","69","probe-83","0.15575182082118524","0.8847538926907662","0.38512452080969817","0","","","","","","","",""
"","do_trial","134","626732","0.0-113.0-0.0","395.89999997615814","","","","49","0,1,1","1","highway","70","probe-150","0.060984196551535384","0.8402593840178758","0.36705623766834833","0","","","","","","","",""
"","do_trial","135","631657","0.0-114.0-0.0","376.30000001192093","","","","50","1,0,1","1","highway","71","probe-36","0.21060259941678527","0.8427499711030692","0.48847858740680145","0","","","","","","","",""
"","do_trial","136","636620","0.0-115.0-0.0","406.19999998807907","","","","51","0,1,1","1","highway","72","probe-151","0.13140632941346078","0.8448149663364407","0.38623995440344533","1","","","","","","","",""
"","do_trial","137","641757","0.0-116.0-0.0","595.1999999880791","","","","51","0,1,0","1","highway","73","probe-169","0.15931106182076862","0.9447830875655278","0.4643659201892271","0","","","","","","","",""
"","do_trial","138","646609","0.0-117.0-0.0","307.89999997615814","","","","49","1,1,0","1","highway","74","probe-04","0.3254630327735106","0.9459563049168239","0.41096142755324766","1","","","","","","","",""
"","do_trial","139","651493","0.0-118.0-0.0","329.2999999523163","","","","49","0,1,0","1","highway","75","probe-105","0.15769976796420465","0.8189880151223413","0.40915421103270033","0","","","","","","","",""
"","do_trial","140","656427","0.0-119.0-0.0","389.5","","","","49","0,0,0","1","highway","76","probe-50","0.13776490991107787","0.7172359956985638","0.4180722085525735","0","","","","","","","",""
"","do_trial","141","661243","0.0-120.0-0.0","264.89999997615814","","","","50","0,1,0","1","highway","77","probe-184","0.07987893823892721","0.7901943897380512","0.5457568728978969","1","","","","","","","",""
"","do_trial","142","666114","0.0-121.0-0.0","332.5","","","","50","0,1,0","1","highway","78","probe-03","0.07146008924697897","0.8716992358451542","0.32496921390847405","1","","","","","","","",""
"","do_trial","143","671105","0.0-122.0-0.0","417.69999998807907","","","","50","0,1,0","1","highway","79","probe-81","0.06585215621278827","0.9306161984995646","0.2704497035274707","1","","","","","","","",""
"","do_bye","144","672612","0.0-123.0-0.0","null","","","","null","","","","","","","","","","","","","","","","",""
"","do_travel","145","678616","0.0-124.0-0.0","null","","","","null","","","","","","","","","","","","","","","","",""
"","do_welcome","146","680128","0.0-124.0-1.0","null","","","","null","","","","","","","","","","","","","","","","",""
"","do_trial","147","686715","0.0-125.0-0.0","2008.9000000357628","","","","49","1,1,1","2","countryside","80","probe-109","0.0677143381811046","1","0.3679730804754294","1","","","","","","","",""
"","do_trial","148","691605","0.0-126.0-0.0","343.0999999642372","","","","49","1,1,1","2","countryside","81","probe-41","0.29021990724205377","1","0.3777381506701037","1","","","","","","","",""
"","do_trial","149","696438","0.0-127.0-0.0","291.30000001192093","","","","49","0,1,0","2","countryside","82","probe-128","0.09424118591979581","1","0.29349699662398154","0","","","","","","","",""
"","do_trial","150","701432","0.0-128.0-0.0","443.89999997615814","","","","50","0,1,0","2","countryside","83","probe-11","0.09753773616302697","1","0.27676431991279243","1","","","","","","","",""
"","do_trial","151","706283","0.0-129.0-0.0","302.19999998807907","","","","50","0,1,0","2","countryside","84","probe-84","0.0689309838917578","0.8666478783729044","0.38298520488566595","1","","","","","","","",""
"","do_trial","152","711116","0.0-130.0-0.0","290.19999998807907","","","","50","0,1,1","2","countryside","85","probe-88","0.13010105362217583","0.8316787424100223","0.17258705618689443","1","","","","","","","",""
"","do_trial","153","716286","0.0-131.0-0.0","621.8999999761581","","","","50","0,0,0","2","countryside","86","probe-63","0.21096015175627955","0.7023386527428168","0.3537207810136706","0","","","","","","","",""
"","do_trial","154","721184","0.0-132.0-0.0","325.0999999642372","","","","51","0,1,1","2","countryside","87","probe-194","0.10236688801178406","0.8740684599214075","0.3228209913224762","1","","","","","","","",""
"","do_trial","155","726523","0.0-133.0-0.0","786.3000000119209","","","","51","0,1,0","2","countryside","88","probe-45","0.20538336521938838","0.8048302901396268","0.21702950682382083","0","","","","","","","",""
"","do_trial","156","731344","0.0-134.0-0.0","248","","","","49","1,1,1","2","countryside","89","probe-20","0.1845441261797734","0.8836766153786694","0.19567959554880848","1","","","","","","","",""
"","do_trial","157","736305","0.0-135.0-0.0","419.0999999642372","","","","49","0,1,0","2","countryside","90","probe-49","0.3529520488762238","0.5338523836506127","0.21956601725498334","0","","","","","","","",""
"","do_trial","158","740877","0.0-136.0-0.0","5.400000035762787","","","","50","1,1,0","2","countryside","91","probe-73","0.5461440643440689","0.42225249467773934","0.1917084648332225","1","","","","","","","",""
"","do_trial","159","745761","0.0-137.0-0.0","329.89999997615814","","","","50","1,0,1","2","countryside","92","probe-136","0.5294450545738664","0.2947178461898649","0.23700551047429108","0","","","","","","","",""
"","do_trial","160","750599","0.0-138.0-0.0","296.5","","","","51","0,0,1","2","countryside","93","probe-107","0.6010030546802627","0.268976244344053","0.3606566055521821","1","","","","","","","",""
"","do_trial","161","755550","0.0-139.0-0.0","412.9000000357628","","","","51","1,0,0","2","countryside","94","probe-12","0.7217004039565742","0.13418595562236413","0.34869455573595903","0","","","","","","","",""
"","do_trial","162","760889","0.0-140.0-0.0","792.8999999761581","","","","49","1,1,1","2","countryside","95","probe-210","0.7910184911873127","0.1926268879159293","0.31594126832036545","1","","","","","","","",""
"","do_trial","163","765809","0.0-141.0-0.0","369.2000000476837","","","","49","1,0,0","2","countryside","96","probe-59","0.692670399592619","0.23638394180850378","0.40874402008669203","1","","","","","","","",""
"","do_trial","164","770701","0.0-142.0-0.0","347.5","","","","49","1,0,1","2","countryside","97","probe-29","0.7567837856130107","0.1256990781781489","0.3506853341491193","1","","","","","","","",""
"","do_trial","165","775838","0.0-143.0-0.0","591.8000000119209","","","","49","1,0,0","2","countryside","98","probe-140","0.780647044375814","0.11059220623549548","0.3633117371685309","1","","","","","","","",""
"","do_trial","166","780783","0.0-144.0-0.0","386.80000001192093","","","","49","1,0,1","2","countryside","99","probe-137","0.8456580350937729","0.14349982751463786","0.5039113061360494","1","","","","","","","",""
"","do_trial","167","785648","0.0-145.0-0.0","308.5","","","","49","0,1,1","2","countryside","100","probe-08","0.8953375981513141","0.2946839993221282","0.41958104176387445","0","","","","","","","",""
"","do_trial","168","790432","0.0-146.0-0.0","226.60000002384186","","","","50","1,0,0","2","countryside","101","probe-174","0.822884670256508","0.2719443498088537","0.5293210484603071","0","","","","","","","",""
"","do_trial","169","795236","0.0-147.0-0.0","252.19999998807907","","","","51","1,0,0","2","countryside","102","probe-47","0.8601533117001237","0.4100899447676828","0.34393370356049396","0","","","","","","","",""
"","do_trial","170","800486","0.0-148.0-0.0","711.8999999761581","","","","49","0,0,0","2","countryside","103","probe-175","0.8499880473282981","0.22702595116933186","0.4088998542022984","0","","","","","","","",""
"","do_trial","171","805340","0.0-149.0-0.0","277.80000001192093","","","","50","0,0,1","2","countryside","104","probe-231","0.7603434320027118","0.26997271488052405","0.47570344289619093","0","","","","","","","",""
"","do_trial","172","810107","0.0-150.0-0.0","195.5","","","","51","0,0,1","2","countryside","105","probe-61","0.8209508150567775","0.2848670369917421","0.5417584130920373","1","","","","","","","",""
"","do_trial","173","815108","0.0-151.0-0.0","449.2999999523163","","","","49","1,0,1","2","countryside","106","probe-133","0.7907111398048148","0.13630758886511576","0.5579594448230328","1","","","","","","","",""
"","do_trial","174","820004","0.0-152.0-0.0","349.89999997615814","","","","49","1,0,1","2","countryside","107","probe-179","0.8284168395775394","0.17259975897721083","0.6489973188566167","1","","","","","","","",""
"","do_trial","175","824856","0.0-153.0-0.0","289.0999999642372","","","","49","0,0,1","2","countryside","108","probe-121","0.7104980826653968","0.19625733957104616","0.5961195852185103","0","","","","","","","",""
"","do_trial","176","829728","0.0-154.0-0.0","328","","","","50","1,0,1","2","countryside","109","probe-177","0.7518035693605033","0.12719512880487233","0.43052675414561203","0","","","","","","","",""
"","do_trial","177","834628","0.0-155.0-0.0","344.80000001192093","","","","51","1,0,1","2","countryside","110","probe-135","0.8739802689813896","0.17882658250860423","0.6147577731341116","1","","","","","","","",""
"","do_trial","178","839462","0.0-156.0-0.0","292.69999998807907","","","","51","1,0,1","2","countryside","111","probe-113","0.8377307219418546","0.2769286156920988","0.48461516546930555","1","","","","","","","",""
"","do_trial","179","844618","0.0-157.0-0.0","580.6999999880791","","","","51","1,0,1","2","countryside","112","probe-203","0.8277655948652892","0.2093428190873613","0.42048306742004016","1","","","","","","","",""
"","do_trial","180","849462","0.0-158.0-0.0","304.30000001192093","","","","51","0,1,0","2","countryside","113","probe-02","0.8158391128511095","0.17538438001790493","0.16031186365163727","0","","","","","","","",""
"","do_trial","181","854357","0.0-159.0-0.0","347.69999998807907","","","","49","1,0,0","2","countryside","114","probe-230","0.8973108253340819","0.25270239551808826","0.2017031734578901","1","","","","","","","",""
"","do_trial","182","858902","0.0-160.0-0.0","0","","","","49","1,0,1","2","countryside","115","probe-165","0.8489049220632495","0.07686951327242962","0.34326008884035963","1","","","","","","","",""
"","do_trial","183","863875","0.0-161.0-0.0","422.4000000357628","","","","49","1,0,0","2","countryside","116","probe-64","0.8259356452256862","0.0971428589231815","0.35644299191629414","1","","","","","","","",""
"","do_trial","184","868845","0.0-162.0-0.0","420.9000000357628","","","","49","1,0,1","2","countryside","117","probe-170","0.8279302582162471","0.14903210644261705","0.29334798163340386","1","","","","","","","",""
"","do_trial","185","873676","0.0-163.0-0.0","266","","","","49","1,0,0","2","countryside","118","probe-171","0.7772715939567363","0.2276959855143345","0.2983779463576788","1","","","","","","","",""
"","do_trial","186","878533","0.0-164.0-0.0","309.19999998807907","","","","49","1,0,1","2","countryside","119","probe-117","0.7605854558261846","0.26060669216957555","0.4246137402393821","1","","","","","","","",""
"","do_bye","187","880048","0.0-165.0-0.0","null","","","","null","","","","","","","","","","","","","","","","",""
"","do_travel","188","886056","0.0-166.0-0.0","null","","","","null","","","","","","","","","","","","","","","","",""
"","do_welcome","189","887568","0.0-166.0-1.0","null","","","","null","","","","","","","","","","","","","","","","",""
"","do_trial","190","894233","0.0-167.0-0.0","2111.099999964237","","","","49","1,0,1","3","forest","120","probe-22","1","0.17351565763575558","0.47504959652660766","1","","","","","","","",""
"","do_trial","191","899161","0.0-168.0-0.0","373.89999997615814","","","","49","1,0,1","3","forest","121","probe-164","1","0.056076873272334654","0.522081484841418","1","","","","","","","",""
"","do_trial","192","904007","0.0-169.0-0.0","296.69999998807907","","","","49","1,0,0","3","forest","122","probe-222","1","0.06288148804533479","0.4362857663925702","1","","","","","","","",""
"","do_trial","193","908809","0.0-170.0-0.0","249.4000000357628","","","","49","1,1,0","3","forest","123","probe-28","1","0.22920437262337445","0.434723846213619","1","","","","","","","",""
"","do_trial","194","913724","0.0-171.0-0.0","363.19999998807907","","","","49","1,0,0","3","forest","124","probe-110","0.8722840096075638","0.22496569853150894","0.45055316018238095","1","","","","","","","",""
"","do_trial","195","918564","0.0-172.0-0.0","293.69999998807907","","","","49","1,0,0","3","forest","125","probe-21","0.7252253646505966","0.2424622534949489","0.3129576009964519","1","","","","","","","",""
"","do_trial","196","923478","0.0-173.0-0.0","367.19999998807907","","","","49","1,0,1","3","forest","126","probe-82","0.766187862152881","0.15774098740948675","0.4354733025906238","1","","","","","","","",""
"","do_trial","197","928550","0.0-174.0-0.0","522.5","","","","49","1,0,0","3","forest","127","probe-53","0.7539650335888517","0.1353270804824425","0.463623518156524","1","","","","","","","",""
"","do_trial","198","933404","0.0-175.0-0.0","315.0999999642372","","","","49","1,0,0","3","forest","128","probe-227","0.7559136434898197","0.12220063993485702","0.43164857817822566","1","","","","","","","",""
"","do_trial","199","938393","0.0-176.0-0.0","440.4000000357628","","","","49","1,1,0","3","forest","129","probe-207","0.8916996847104506","0.09963540033292181","0.37365334343882","1","","","","","","","",""
"","do_trial","200","943329","0.0-177.0-0.0","389.69999998807907","","","","49","1,0,1","3","forest","130","probe-146","0.773605803708777","0.2629836297646094","0.5420401723520721","1","","","","","","","",""
"","do_trial","201","948345","0.0-178.0-0.0","460.39999997615814","","","","49","1,0,1","3","forest","131","probe-69","0.7559521287987466","0.09345370512606511","0.5958734901811766","1","","","","","","","",""
"","do_trial","202","953688","0.0-179.0-0.0","795.6999999880791","","","","49","1,0,1","3","forest","132","probe-112","0.5678725268374559","0.10565408124563028","0.776654404210351","1","","","","","","","",""
"","do_trial","203","958601","0.0-180.0-0.0","366.5","","","","49","1,0,1","3","forest","133","probe-48","0.5512019893634597","0.06026422223307961","0.7173851380954466","1","","","","","","","",""
"","do_trial","204","963469","0.0-181.0-0.0","325.69999998807907","","","","49","0,0,1","3","forest","134","probe-191","0.5081942181373275","0.08804389571706635","0.7966532638729998","0","","","","","","","",""
"","do_trial","205","968338","0.0-182.0-0.0","316.89999997615814","","","","50","1,0,1","3","forest","135","probe-66","0.5092367541616738","0.17901023532895355","0.802534851403094","0","","","","","","","",""
"","do_trial","206","973179","0.0-183.0-0.0","277.30000001192093","","","","51","0,0,1","3","forest","136","probe-157","0.587505031523803","0.1297893517200523","0.7077453741667749","1","","","","","","","",""
"","do_trial","207","978213","0.0-184.0-0.0","482.69999998807907","","","","51","0,0,1","3","forest","137","probe-147","0.4335448169005503","0.14449310911372812","0.8465724169368539","1","","","","","","","",""
"","do_trial","208","983065","0.0-185.0-0.0","299.69999998807907","","","","51","0,0,0","3","forest","138","probe-232","0.33286763284134274","0.05598354967582097","0.9144979304599781","0","","","","","","","",""
"","do_trial","209","988083","0.0-186.0-0.0","475.39999997615814","","","","49","1,0,1","3","forest","139","probe-65","0.3514956960804684","0.07164476519021623","0.7674945946305589","1","","","","","","","",""
"","do_trial","210","992951","0.0-187.0-0.0","312.39999997615814","","","","49","1,0,1","3","forest","140","probe-54","0.4940747607871143","0.05678858381279557","0.5930312715088834","1","","","","","","","",""
"","do_trial","211","998018","0.0-188.0-0.0","511.60000002384186","","","","49","0,0,0","3","forest","141","probe-32","0.4517927216946139","0.08560993734178711","0.5690945976620202","0","","","","","","","",""
"","do_trial","212","1003116","0.0-189.0-0.0","526.3000000119209","","","","50","0,0,0","3","forest","142","probe-173","0.46568013721290963","0.11293146872881632","0.6099235567019343","0","","","","","","","",""
"","do_trial","213","1007764","0.0-190.0-0.0","87.30000001192093","","","","51","0,0,1","3","forest","143","probe-159","0.4691557185714703","0.22644713336610447","0.5562072475528732","1","","","","","","","",""
"","do_trial","214","1012736","0.0-191.0-0.0","400.39999997615814","","","","51","0,0,1","3","forest","144","probe-208","0.5239083266098121","0.23071519548051253","0.6309516955145298","1","","","","","","","",""
"","do_trial","215","1017818","0.0-192.0-0.0","537.1999999880791","","","","51","0,0,0","3","forest","145","probe-163","0.5076645835802837","0.21426877180334827","0.6197607150939713","0","","","","","","","",""
"","do_trial","216","1022671","0.0-193.0-0.0","292","","","","49","1,1,1","3","forest","146","probe-102","0.6467211720261442","0.22345437565459958","0.6171402526538456","1","","","","","","","",""
"","do_trial","217","1027746","0.0-194.0-0.0","527","","","","50","0,1,0","3","forest","147","probe-10","0.5415550432263785","0.2767287849873496","0.7327791849004001","1","","","","","","","",""
"","do_trial","218","1032601","0.0-195.0-0.0","315.80000001192093","","","","50","0,0,1","3","forest","148","probe-124","0.3550232967534122","0.1386142474043618","0.8425109211158326","0","","","","","","","",""
"","do_trial","219","1037256","0.0-196.0-0.0","104.10000002384186","","","","49","0,1,1","3","forest","149","probe-60","0.35803361227212505","0.08090430026896897","0.7554573560322868","0","","","","","","","",""
"","do_trial","220","1042179","0.0-197.0-0.0","359.39999997615814","","","","51","0,0,1","3","forest","150","probe-158","0.34367700954030733","0.09190404789615725","0.6990167807223392","1","","","","","","","",""
"","do_trial","221","1047314","0.0-198.0-0.0","587.4000000357628","","","","51","0,0,0","3","forest","151","probe-40","0.4106957053139597","0.0856570368052287","0.671643607533634","0","","","","","","","",""
"","do_trial","222","1052597","0.0-199.0-0.0","741.5999999642372","","","","51","1,0,0","3","forest","152","probe-167","0.42433496785173724","0.1041944011061621","0.6787683160500195","0","","","","","","","",""
"","do_trial","223","1057711","0.0-200.0-0.0","548","","","","51","0,0,1","3","forest","153","probe-18","0.33715506008309637","0.2478044509542337","0.6503339693374592","1","","","","","","","",""
"","do_trial","224","1062839","0.0-201.0-0.0","583.5999999642372","","","","51","1,1,1","3","forest","154","probe-44","0.22287428424856187","0.28072384591317795","0.8131237351994933","1","","","","","","","",""
"","do_trial","225","1067840","0.0-202.0-0.0","452.5","","","","51","0,0,1","3","forest","155","probe-154","0.3349580638783648","0.23073422099500765","0.7966137715190738","1","","","","","","","",""
"","do_trial","226","1073323","0.0-203.0-0.0","908.7000000476837","","","","51","0,0,1","3","forest","156","probe-214","0.5308671180643297","0.07577975514818547","0.7981700866573688","1","","","","","","","",""
"","do_trial","227","1078407","0.0-204.0-0.0","535.4000000357628","","","","51","0,0,0","3","forest","157","probe-94","0.4146123557297935","0.08110028693810299","0.7397205125381909","0","","","","","","","",""
"","do_trial","228","1083567","0.0-205.0-0.0","610.6999999880791","","","","51","1,0,1","3","forest","158","probe-190","0.18267375829552746","0.07875951258123826","0.7785346241317455","1","","","","","","","",""
"","do_trial","229","1089195","0.0-206.0-0.0","1088","","","","51","1,0,1","3","forest","159","probe-155","0.3948939616698291","0.1571296435082343","0.8376196040403784","1","","","","","","","",""
"","do_bye","230","1090708","0.0-207.0-0.0","null","","","","null","","","","","","","","","","","","","","","","",""
"","do_travel","231","1096713","0.0-208.0-0.0","null","","","","null","","","","","","","","","","","","","","","","",""
"","do_welcome","232","1098222","0.0-208.0-1.0","null","","","","null","","","","","","","","","","","","","","","","",""
"","do_trial","233","1104289","0.0-209.0-0.0","null","","","","null","0,1,1","4","city","160","probe-103","0.5707820875188341","0.20933619498117195","1","","","","","","","","",""
"","do_trial","234","1109534","0.0-210.0-0.0","700.0999999642372","","","","49","1,0,1","4","city","161","probe-96","0.58555870009859","0.2440405816071326","1","1","","","","","","","",""
"","do_trial","235","1114567","0.0-211.0-0.0","488.9000000357628","","","","50","1,1,1","4","city","162","probe-23","0.5564977893538913","0.163168241915336","1","1","","","","","","","",""
"","do_trial","236","1119573","0.0-212.0-0.0","455.89999997615814","","","","50","1,0,1","4","city","163","probe-192","0.6317568211967737","0.1461364527620405","1","0","","","","","","","",""
"","do_trial","237","1124577","0.0-213.0-0.0","461.80000001192093","","","","51","1,0,1","4","city","164","probe-26","0.6139160078313224","0.06726267280231912","0.8620688829842889","1","","","","","","","",""
"","do_trial","238","1129694","0.0-214.0-0.0","566.3999999761581","","","","51","1,0,1","4","city","165","probe-57","0.526218180154842","0.09447734564959202","0.8541579384459403","1","","","","","","","",""
"","do_trial","239","1134687","0.0-215.0-0.0","441.19999998807907","","","","51","0,0,1","4","city","166","probe-201","0.5119044477214929","0.09034995195976364","0.7282886070134873","1","","","","","","","",""
"","do_trial","240","1139849","0.0-216.0-0.0","614.3999999761581","","","","51","0,0,1","4","city","167","probe-77","0.4068988352485934","0.2769899929234376","0.7300293818597468","1","","","","","","","",""
"","do_trial","241","1144843","0.0-217.0-0.0","438","","","","51","1,0,1","4","city","168","probe-86","0.5596980767083113","0.14979851789310666","0.8457905001011105","1","","","","","","","",""
"","do_trial","242","1149971","0.0-218.0-0.0","556.6000000238419","","","","51","0,0,1","4","city","169","probe-195","0.543415224757052","0.1282588902565182","0.8769005856812254","1","","","","","","","",""
"","do_trial","243","1155118","0.0-219.0-0.0","572.8000000119209","","","","51","0,0,1","4","city","170","probe-138","0.2517844976423722","0.4778869204291742","0.843004770318738","1","","","","","","","",""
"","do_trial","244","1160300","0.0-220.0-0.0","638","","","","51","0,1,0","4","city","171","probe-129","0.16982036290039135","0.7056558665849206","0.5688803000267919","0","","","","","","","",""
"","do_trial","245","1165248","0.0-221.0-0.0","387.5","","","","49","0,1,1","4","city","172","probe-35","0.12685719214324867","0.7468759151346619","0.44020729014347","0","","","","","","","",""
"","do_trial","246","1170252","0.0-222.0-0.0","451.30000001192093","","","","50","0,1,0","4","city","173","probe-152","0.07199407292161555","0.8190371472325427","0.36704985134984697","1","","","","","","","",""
"","do_trial","247","1175150","0.0-223.0-0.0","354.7000000476837","","","","50","0,0,0","4","city","174","probe-80","0.07754384201409256","0.8355607558268336","0.2012500974077101","0","","","","","","","",""
"","do_trial","248","1180158","0.0-224.0-0.0","461.5","","","","51","0,1,0","4","city","175","probe-118","0.20093001068090516","0.9180558117144797","0.251782715353976","0","","","","","","","",""
"","do_trial","249","1185846","0.0-225.0-0.0","1133","","","","49","1,1,0","4","city","176","probe-221","0.2618832562786294","0.9342334994794179","0.24203374673725647","1","","","","","","","",""
"","do_trial","250","1191197","0.0-226.0-0.0","786.2000000476837","","","","49","0,1,0","4","city","177","probe-213","0.14113063486655436","0.8798570333607022","0.23910483383534323","0","","","","","","","",""
"","do_trial","251","1196223","0.0-227.0-0.0","480.39999997615814","","","","50","0,1,0","4","city","178","probe-193","0.051600810281655356","0.8365271356684667","0.3906483725145885","1","","","","","","","",""
"","do_trial","252","1201182","0.0-228.0-0.0","407.5","","","","50","0,1,0","4","city","179","probe-206","0.06115510992742635","0.7386387211675325","0.20515675257583685","1","","","","","","","",""
"","do_trial","253","1206089","0.0-229.0-0.0","357.39999997615814","","","","50","0,0,0","4","city","180","probe-216","0.13418794788699187","0.892420386519549","0.17830648880437636","0","","","","","","","",""
"","do_trial","254","1211187","0.0-230.0-0.0","531.9000000357628","","","","51","0,1,0","4","city","181","probe-188","0.1064507594184237","0.8505506817271007","0.10446350591777488","0","","","","","","","",""
"","do_trial","255","1216044","0.0-231.0-0.0","308.80000001192093","","","","49","0,1,1","4","city","182","probe-126","0.06953079409117253","0.8615730109759058","0.18376313567161404","0","","","","","","","",""
"","do_trial","256","1220869","0.0-232.0-0.0","272","","","","50","0,0,0","4","city","183","probe-211","0.06500593491475623","0.7297851527623082","0.2571526517104502","0","","","","","","","",""
"","do_trial","257","1225718","0.0-233.0-0.0","305.5999999642372","","","","51","0,1,0","4","city","184","probe-172","0.12487306865973669","0.6424471374501148","0.42477811686744615","0","","","","","","","",""
"","do_trial","258","1230614","0.0-234.0-0.0","352.69999998807907","","","","49","0,1,0","4","city","185","probe-176","0.052406524434117155","0.7898387970478673","0.45240769708616624","0","","","","","","","",""
"","do_trial","259","1235493","0.0-235.0-0.0","327.69999998807907","","","","50","0,1,0","4","city","186","probe-91","0.17364349289597542","0.8450272440594547","0.3333147050642134","1","","","","","","","",""
"","do_trial","260","1240351","0.0-236.0-0.0","309.60000002384186","","","","50","0,1,1","4","city","187","probe-220","0.18892293355298342","0.891422924412181","0.31658098850676064","1","","","","","","","",""
"","do_trial","261","1245623","0.0-237.0-0.0","720.9000000357628","","","","50","0,1,1","4","city","188","probe-127","0.07966972458739917","0.8627869336853915","0.24696176198193015","1","","","","","","","",""
"","do_trial","262","1250697","0.0-238.0-0.0","518.5999999642372","","","","50","0,1,1","4","city","189","probe-75","0.08845385304621224","0.9225422334948742","0.32736056700711585","1","","","","","","","",""
"","do_trial","263","1255918","0.0-239.0-0.0","667.1999999880791","","","","50","0,1,1","4","city","190","probe-15","0.23013446020530567","0.9072598393146951","0.3929453311762363","1","","","","","","","",""
"","do_trial","264","1260815","0.0-240.0-0.0","354.0999999642372","","","","50","0,0,1","4","city","191","probe-178","0.12665031452970046","0.6816170118010674","0.4626838062293054","0","","","","","","","",""
"","do_trial","265","1265694","0.0-241.0-0.0","332.2999999523163","","","","51","0,0,0","4","city","192","probe-161","0.1061576367079896","0.7582464263324036","0.45057792498089067","0","","","","","","","",""
"","do_trial","266","1270909","0.0-242.0-0.0","672.6000000238419","","","","49","0,0,1","4","city","193","probe-42","0.1732131042463866","0.7059893476150191","0.47693134552207495","0","","","","","","","",""
"","do_trial","267","1275933","0.0-243.0-0.0","463.5","","","","50","0,1,0","4","city","194","probe-209","0.13088323184511644","0.6181548967921751","0.44249317651170517","1","","","","","","","",""
"","do_trial","268","1280789","0.0-244.0-0.0","301.5","","","","50","0,1,0","4","city","195","probe-223","0.05351388561462679","0.8176943587022139","0.5218815898642418","1","","","","","","","",""
"","do_trial","269","1285782","0.0-245.0-0.0","442.5","","","","50","0,1,0","4","city","196","probe-114","0.08593163097847045","0.9306378141106965","0.4925261649427866","1","","","","","","","",""
"","do_trial","270","1290691","0.0-246.0-0.0","361.9000000357628","","","","50","0,1,0","4","city","197","probe-130","0.14917299102624856","0.8756710897621529","0.5532498922310699","1","","","","","","","",""
"","do_trial","271","1295340","0.0-247.0-0.0","75","","","","50","0,1,0","4","city","198","probe-189","0.11602968159056477","0.8463281153745246","0.4723460468407567","1","","","","","","","",""
"","do_trial","272","1300317","0.0-248.0-0.0","407.5","","","","50","1,1,1","4","city","199","probe-238","0.13792116656889333","0.8823199536411019","0.3849366032811688","1","","","","","","","",""
"","do_bye","273","1301830","0.0-249.0-0.0","null","","","","null","","","","","","","","","","","","","","","","",""
"","do_travel","274","1307842","0.0-250.0-0.0","null","","","","null","","","","","","","","","","","","","","","","",""
"","do_welcome","275","1309356","0.0-250.0-1.0","null","","","","null","","","","","","","","","","","","","","","","",""
"","do_trial","276","1315246","0.0-251.0-0.0","1342","","","","49","0,1,1","5","mountain","200","probe-168","0.10394225530497053","1","0.47786425280341005","0","","","","","","","",""
"","do_trial","277","1320181","0.0-252.0-0.0","374.39999997615814","","","","50","0,1,0","5","mountain","201","probe-97","0.050836070097434884","1","0.5541470297317129","1","","","","","","","",""
"","do_trial","278","1325060","0.0-253.0-0.0","318.5","","","","50","0,1,1","5","mountain","202","probe-162","0.12079214459122498","1","0.4667861911667927","1","","","","","","","",""
"","do_trial","279","1329981","0.0-254.0-0.0","375.5999999642372","","","","50","0,1,0","5","mountain","203","probe-212","0.0822401762503101","1","0.4689698375908732","1","","","","","","","",""
"","do_trial","280","1334854","0.0-255.0-0.0","327.60000002384186","","","","50","0,1,1","5","mountain","204","probe-225","0.11457127882803544","0.8604100558331859","0.430086848773081","1","","","","","","","",""
"","do_trial","281","1339739","0.0-256.0-0.0","342.39999997615814","","","","50","0,1,0","5","mountain","205","probe-76","0.1387256778990964","0.9244972998194819","0.3781663456442658","1","","","","","","","",""
"","do_trial","282","1344700","0.0-257.0-0.0","404.5","","","","50","0,1,1","5","mountain","206","probe-185","0.18856423011409093","0.880652631749536","0.41526756694303557","1","","","","","","","",""
"","do_trial","283","1349618","0.0-258.0-0.0","370.80000001192093","","","","50","0,1,1","5","mountain","207","probe-14","0.11305254545830164","0.8579121029501313","0.48268123044094197","1","","","","","","","",""
"","do_trial","284","1354631","0.0-259.0-0.0","464.69999998807907","","","","50","0,0,1","5","mountain","208","probe-24","0.07750933544389015","0.6150885062405358","0.366349501574003","0","","","","","","","",""
"","do_trial","285","1359508","0.0-260.0-0.0","335.89999997615814","","","","51","1,0,0","5","mountain","209","probe-181","0.17655816657568874","0.731584286256992","0.3564895762607212","0","","","","","","","",""
"","do_trial","286","1364321","0.0-261.0-0.0","263.39999997615814","","","","49","1,1,1","5","mountain","210","probe-06","0.2704759616805204","0.49200236785360835","0.43423107966734925","1","","","","","","","",""
"","do_trial","287","1369336","0.0-262.0-0.0","470.60000002384186","","","","49","0,0,0","5","mountain","211","probe-46","0.3788575982826741","0.3357182336576257","0.5645810681817267","0","","","","","","","",""
"","do_trial","288","1374180","0.0-263.0-0.0","295.39999997615814","","","","50","0,1,1","5","mountain","212","probe-123","0.5036022520108298","0.2788616895143733","0.5750595825842092","1","","","","","","","",""
"","do_trial","289","1379327","0.0-264.0-0.0","598.5","","","","50","0,0,0","5","mountain","213","probe-180","0.4140540422691177","0.18069926632464042","0.6528251757750735","0","","","","","","","",""
"","do_trial","290","1384328","0.0-265.0-0.0","449.80000001192093","","","","50","1,0,1","5","mountain","214","probe-100","0.2640865094069052","0.09041430759851338","0.6370065566581748","0","","","","","","","",""
"","do_trial","291","1389244","0.0-266.0-0.0","375.69999998807907","","","","51","0,0,1","5","mountain","215","probe-25","0.2977292441614595","0.10246277100705545","0.8253469038572785","1","","","","","","","",""
"","do_trial","292","1394147","0.0-267.0-0.0","349","","","","51","0,0,1","5","mountain","216","probe-62","0.2758476902764684","0.1427242763248656","0.88278500283942","1","","","","","","","",""
"","do_trial","293","1399152","0.0-268.0-0.0","454.7000000476837","","","","51","1,0,1","5","mountain","217","probe-132","0.4545515982016748","0.06591833257542477","0.8673358016104012","1","","","","","","","",""
"","do_trial","294","1404124","0.0-269.0-0.0","427.30000001192093","","","","51","0,0,1","5","mountain","218","probe-233","0.4638916078884723","0.07107489425325791","0.7253246937234832","1","","","","","","","",""
"","do_trial","295","1409172","0.0-270.0-0.0","499.2000000476837","","","","51","0,0,1","5","mountain","219","probe-131","0.406248656225078","0.08262700431662184","0.7435384985547325","1","","","","","","","",""
"","do_trial","296","1414064","0.0-271.0-0.0","335.89999997615814","","","","51","1,0,1","5","mountain","220","probe-199","0.4302344198762894","0.07280680684606006","0.7842018343369143","1","","","","","","","",""
"","do_trial","297","1419127","0.0-272.0-0.0","519.9000000357628","","","","51","0,0,1","5","mountain","221","probe-85","0.36940744386103114","0.24507437161512774","0.8358199159513919","1","","","","","","","",""
"","do_trial","298","1424311","0.0-273.0-0.0","633.3000000119209","","","","51","0,0,1","5","mountain","222","probe-78","0.5650566223114579","0.21020643542032097","0.7608769021525834","1","","","","","","","",""
"","do_trial","299","1429192","0.0-274.0-0.0","337","","","","51","0,0,0","5","mountain","223","probe-05","0.5867926803351307","0.10796732310577958","0.8016377132089091","0","","","","","","","",""
"","do_trial","300","1433997","0.0-275.0-0.0","252.10000002384186","","","","51","0,0,1","5","mountain","224","probe-183","0.4770362284455367","0.059225668788552184","0.7515505838334419","1","","","","","","","",""
"","do_trial","301","1438989","0.0-276.0-0.0","437.80000001192093","","","","51","0,1,0","5","mountain","225","probe-235","0.41777760414691273","0.1629826876339023","0.7742774458760799","0","","","","","","","",""
"","do_trial","302","1444151","0.0-277.0-0.0","613.3999999761581","","","","49","1,0,1","5","mountain","226","probe-52","0.5036517840663245","0.10859880562740229","0.7400640709287899","1","","","","","","","",""
"","do_trial","303","1449064","0.0-278.0-0.0","341.7000000476837","","","","49","0,0,1","5","mountain","227","probe-166","0.5709214153687064","0.05646723189789705","0.8027556340987636","0","","","","","","","",""
"","do_trial","304","1454056","0.0-279.0-0.0","448.19999998807907","","","","50","0,0,1","5","mountain","228","probe-217","0.47958744608009396","0.2330293751078021","0.8285222311250696","0","","","","","","","",""
"","do_trial","305","1458941","0.0-280.0-0.0","342.89999997615814","","","","50","0,1,0","5","mountain","229","probe-115","0.44739657940795885","0.29143230863916264","0.8271518796803293","1","","","","","","","",""
"","do_trial","306","1463905","0.0-281.0-0.0","406","","","","50","0,1,1","5","mountain","230","probe-13","0.39498360282802936","0.2779672794487797","0.846949929853232","1","","","","","","","",""
"","do_trial","307","1468890","0.0-282.0-0.0","441.10000002384186","","","","50","0,0,1","5","mountain","231","probe-16","0.2930694976597824","0.28020682253249296","0.9018323644290989","0","","","","","","","",""
"","do_trial","308","1473788","0.0-283.0-0.0","356.89999997615814","","","","51","0,0,1","5","mountain","232","probe-70","0.2932662450490809","0.2808114440691924","0.8392651014048278","1","","","","","","","",""
"","do_trial","309","1478642","0.0-284.0-0.0","311.19999998807907","","","","51","1,1,1","5","mountain","233","probe-71","0.2575342174591273","0.40954820843864254","0.8330210898196257","1","","","","","","","",""
"","do_trial","310","1483558","0.0-285.0-0.0","375.30000001192093","","","","51","0,0,0","5","mountain","234","probe-142","0.3266688106525875","0.2079951376224465","0.8296572991434721","0","","","","","","","",""
"","do_trial","311","1488507","0.0-286.0-0.0","406.5","","","","49","1,0,1","5","mountain","235","probe-101","0.5180199565293766","0.06030558047788974","0.8547020247611425","1","","","","","","","",""
"","do_trial","312","1493400","0.0-287.0-0.0","324","","","","49","1,0,1","5","mountain","236","probe-122","0.46888378098763744","0.1435216380101551","0.7429759491783626","1","","","","","","","",""
"","do_trial","313","1498273","0.0-288.0-0.0","317.2000000476837","","","","49","1,0,1","5","mountain","237","probe-240","0.37833493085569964","0.14429857857338033","0.7840451606524925","1","","","","","","","",""
"","do_trial","314","1503149","0.0-289.0-0.0","321.60000002384186","","","","49","1,0,1","5","mountain","238","probe-51","0.455933025764639","0.1176920172442409","0.7654438278390913","1","","","","","","","",""
"","do_trial","315","1507980","0.0-290.0-0.0","277","","","","49","0,0,1","5","mountain","239","probe-196","0.5119060333623202","0.1472839477566776","0.734078859046695","0","","","","","","","",""
"","do_bye","316","1509486","0.0-291.0-0.0","null","","","","null","","","","","","","","","","","","","","","","",""
"","html-keyboard-response","317","1516231","0.0-291.0-1.0","6743.599999964237","<div class='center'>You are all done with the first part of the experiment! Thank you for participating. Tomorrow, you will recieve an invite to participate in the next phase of the experiment which you must complete by the end of the day. <p><b>[Press the space bar to end the experiment]</b></p></div>","32","","","","","","","","","","","","0,4,1,3,5,2","88,159,227,225,71,133,152,57,119,29,199,98,118,196,33,223,148,86,236,155,92,105,54,124,8,36,147,103,201,16,0,32,238,235,91,37,107,73,42,138,78,197,94,6,115,214,204,140,18,203,143,142,26,185,186,228,55,67,97,233,89,110,66,218,144,181,38,217,30,82,149,35,150,168,3,104,49,183,2,80,108,40,127,10,83,87,62,193,44,19,48,72,135,106,11,209,58,28,139,136,7,173,46,174,230,60,132,178,120,176,134,112,202,1,229,164,63,169,170,116,21,163,221,27,109,20,81,52,226,206,145,68,111,47,190,65,156,146,231,64,53,31,172,158,207,162,101,9,123,59,157,39,166,17,43,153,213,93,189,154,102,95,22,191,25,56,200,76,85,194,137,128,34,151,79,117,220,212,192,205,215,187,125,210,171,175,90,219,126,74,14,177,160,41,208,222,113,129,188,237,167,96,161,211,224,75,184,13,23,180,5,45,122,179,99,24,61,131,232,130,198,84,77,4,182,234,51,165,216,114,12,15,69,70,141,100,121,239,50,195","16,4,18,0,14,13,8,15,1,12,3,6,9,10,17,7,5,2,11","0.507493264711197,0.4352597034749959,0.43116375028365356,0.42465684335209347,0.32674835654518797,0.2541294344635481,0.3549976006604929,0.3541567355657429,0.3862038082049217,0.43550160246345593,0.41694939939654135,0.2646620682389163,0.2326150336743575,0.2926221707939674,0.2727195420285348,0.38692848034256805,0.36064075386859146,0.4052829841028245,0.3577184530378231,0.3753357799780926,0.4044947021275859,0.3113451274927833,0.3785999813041625,0.5031253967893933,0.4970452278623401,0.4764581961137509,0.5110493257600939,0.4248322898960333,0.2739145358033403,0.3561305292036326,0.38613625515638583,0.35431826139945266,0.28895867426469835,0.35509756749484067,0.20596045002845662,0.1839819672863638,0.29847103126783775,0.36636130873307404,0.43108117632701193,0.5290431609830354,0.5920277707338931,0.5844287114586403,0.530272455554844,0.7254728770356575,0.6022919741755957,0.5182006637404745,0.5964278901286784,0.6198068582712415,0.7776836822214801,0.8763021020302734,0.8372817633547989,0.9420403850182,0.9443126341712254,0.7532578588362722,0.71097195127472,0.8593406072689795,0.8938863311101894,0.7923080375518257,0.868432368691856,0.782225332159496,1,0.833387781842886,0.8541426895597067,0.7924421576930877,0.8414528843179924,0.7420502048075176,0.6778250143574891,0.7231066931086134,0.7166233334764869,0.6818132634243874,0.6411087583563755,0.4814870754377141,0.5884394787225674,0.4542827520994297,0.39117908828776965,0.3850815358119281,0.3246671615289988,0.45569302797727723,0.30553321563960895,0.2686958176652622,0.34488232436198,0.34756437001146834,0.34920347292507614,0.4326376983502048,0.37438923509910027,0.25628641059244645,0.40660290323931764,0.39658850177428756,0.3597910335157418,0.37298136460925685,0.30669435448421534,0.3978492318439967,0.36065708545650005,0.3209045836788744,0.4582890634392725,0.3056765856050945,0.41938713862638927,0.3665696476352387,0.30654733196774386,0.3204517141729257,0.2491120372740019,0.27117736514159346,0.21271602154493616,0.21488666788948532,0.0566225937620576,0.14259924802751575,0.18965645270910209,0.05663475428297673,0.2117070179356027,0.18302597031161785,0.26647486994753394,0.1277493318940405,0.057293473730371226,0.11564089449808745,0.09311355634423193,0.15662371369473171,0.223168804087447,0.17934402499329216,0.1328774316604319,0.19849394193396017,0.24251472848742128,0.33736888997010034,0.1640424956997267,0.15967741952380443,0.06810444015216965,0.22797270218180152,0.14445458344654452,0.06072361508422381,0.05067537165629531,0.09039820762887248,0.06091646467972754,0.05956648119132518,0.08116260176493922,0.09847623302301854,0.12525859761466626,0.12550609296184426,0.17119997687812707,0.18483787514079794,0.09252362884861409,0.45388997122646935,0.4932334661849002,0.5606312106550563,0.6503579313803455,0.7481664563962147,0.7554655734176262,0.9463196421566792,0.9491910149577152,0.8456049740923516,0.8852283421820093,0.837244078738986,1,0.8494351963093001,0.8665233791648959,0.8959160844029175,0.9142262950333699,0.8027726661072424,0.7819479881474649,0.769746425964352,0.8286293123947697,0.7195058486391257,0.5543062406515866,0.4641002602903349,0.5814792367202892,0.4506301958843647,0.5359061053970469,0.4466235236361382,0.44690080845293817,0.3474252941747423,0.31883236214409183,0.40546967592101696,0.3996017847980561,0.3639232150756975,0.42216720527099205,0.4948609656060593,0.4919791785592747,0.3384018677984291,0.371534484201595,0.3710834598980342,0.40992675165902515,0.40791179568121566","0.13074427338308106,0.1055873965450478,0.15261706021158802,0.20087333373518795,0.24108834767119255,0.2276834667051342,0.07349391840309819,0.07052047811968297,0.11081555121944117,0.09579890823594368,0.38917032271149893,0.3445827644638601,0.6248966727928787,0.7808259470091405,0.8045896746140235,0.9248179515722423,0.9399856223864252,0.9032312249264287,0.9141001000927159,0.8881130655366338,0.9089214193274847,0.8500265215073727,0.7975681194530861,0.8241217287617605,0.7831005192835686,0.8029800536279411,0.6520503673083016,0.7460022639246212,0.7078622480543271,0.7434868918269095,1,0.7944845134708618,0.8160865284889707,0.788574991625554,0.8750038126605323,0.8110475397747711,0.8384359998917414,0.9438804561808588,0.8905927930980644,0.8304224779788755,0.7133532621471881,0.5963514339111587,0.4424417285191061,0.38177502209676917,0.325661653119857,0.08535292208279233,0.09765547413811737,0.14356539968728776,0.2980359951813204,0.0952544484184141,0.21325401917524972,0.05611612653427235,0.14429217945316097,0.17291218526600702,0.13880675605215714,0.2780217700009291,0.1669308684805595,0.12928519238993594,0.05626752310758714,0.07973300988208586,0.16410150027228057,0.11498881593972274,0.18810529683358218,0.11159594408299338,0.12749829092788492,0.15747561573361002,0.17877696860456838,0.08423652999364256,0.1375890020906285,0.2509612736011287,0.5298289697955423,0.6417730076859114,0.6160179354019502,0.6358883780015411,0.713111317262869,0.8124226539905617,0.9470053366467102,0.8490932427280297,0.847199257602435,0.7402972444415775,0.6909235596813936,0.8054874903775749,0.7848565754890495,0.858679717574186,0.8248928610721715,0.8948341734603207,0.846476670187068,0.8571293812094425,0.8632510883911506,0.726740905770026,1,0.9498260866953725,0.9461701127984102,0.7997065225239125,0.8345402837032354,0.8761430555002787,0.7808042029641454,0.8009318262445985,0.867989769356423,0.8052531973994256,0.6104164707889075,0.532458647179289,0.473601781190753,0.602758668142085,0.5225881802731777,0.3704585966010477,0.4042968839432927,0.4272641743560552,0.5113677372391261,0.4571925371159924,0.511954785180546,0.5097928491727551,0.40461153934029326,0.4169624357005495,0.3581412028530517,0.39333280522471575,0.45108699926256374,0.41618052755077645,0.3794392424400468,0.364333647518278,0.27031969559196023,0.40510592227887754,0.4767853979570812,0.48378258091480475,0.37057244552581436,0.35547072203320385,0.5220812658941177,0.4298387201036729,0.3484425583654776,0.38651533491150847,0.2881515549449225,0.2809696419809982,0.5247581511774534,0.3505239967929223,0.36898302958501555,0.21039930499190984,0.26441458448106775,0.3179867740660239,0.452373031014676,0.29057542525647007,0.18688004164064378,0.08550071680868011,0.19370008235579994,0.1337459582191429,0.08578403727995795,0.16736928593101436,0.10650287807427017,0.11144758439474778,0.09980346399148732,0.12020431513268097,0.09138739086762258,0.12486973417874926,0.09178537768156264,0.0928762118571087,0.12513479582940612,0.08005642484213127,0.09136252074697368,0.14400824409766227,0.08454277754659927,0.0640088733085517,0.06826040196451431,0.28784151061050817,0.39463529980748946,0.629329017238274,0.8202269178665411,0.7876460885568747,0.7442572882900028,0.7774016271483056,0.7872142685594945,0.8640828430795178,0.8405207514518371,0.8007961295510603,0.739745524656807,0.6892946794321886,0.7182024901829784,0.6783910923295845,0.8491420658138563,0.8343656264221531,0.7348076130764467,0.7626100117187931","1,0.8691997691157514,0.8803102837106892,0.7627759964819079,0.7850213170301042,0.8593483170553833,0.7836544349150673,0.7692647903540991,0.6879887126511024,0.6704032154964294,0.41468154750789415,0.20257579272174078,0.1847956203215603,0.16008937035865312,0.22214009801851775,0.1256100679889274,0.1201112359839437,0.15577018214224947,0.23240995631786646,0.12057225300803015,0.09272555410817727,0.09907068571349,0.07153445518981963,0.12263071872377257,0.07061261392416666,0.22533748595313696,0.28897372945364186,0.1995148685392621,0.12512473503017285,0.09420586340674207,0.16617531759465937,0.153878423361739,0.10367016372276573,0.07673190875254987,0.08980714323281275,0.1935125059399738,0.2136265379305738,0.21643051296571542,0.15049331946637026,0.1608413698916595,0.16357550191184766,0.1998669232793823,0.18344062239792946,0.33262747561786193,0.25185150596477274,0.3635281347430958,0.33788993673227313,0.36213128786810067,0.2704556126132979,0.29523249767352117,0.24097213651783794,0.18848046098257912,0.3459987057943342,0.3620354586260396,0.31874110020669333,0.3750028607957292,0.315698163636441,0.3339540794402009,0.16556101941438328,0.28896236409128423,0.22262824429375555,0.19320775091007492,0.24638251102749428,0.4436219002571904,0.36049927634229423,0.39841722499420784,0.44087032611719773,0.36162837447245766,0.2517351209681935,0.24874075776213483,0.19927867122011603,0.26106639921661734,0.2544287989406628,0.27968619627539254,0.20687399166128922,0.35044814877386005,0.23165804583673713,0.07199603279910469,0.08049349806323795,0.18497122096131022,0.15521816373431205,0.19021306646455918,0.14100645021926506,0.09167943199244995,0.09610003530830356,0.07620638262290115,0.11833647559945278,0.22517763326788928,0.1283819313139044,0.12824822249321582,0.08475967157441067,0.08002963547897045,0.17454919298373203,0.0832544000894887,0.08428442033515836,0.19025731320238887,0.26346284915980567,0.09044051033747799,0.07290903517222591,0.06787246747969691,0.5167762754506413,0.7440312753082331,0.7216441449960945,0.6881558474893014,0.9095196109967344,0.9191738741130183,0.8844182665128806,0.8659514699051534,0.7148315476659844,0.7767865383307024,0.8622672394930463,0.9024753274470437,0.8335788366110743,0.8264234321834661,0.9221617533884617,0.8568526181079854,0.9296585691453112,0.9461301469997304,0.8194134912621985,0.822938364137854,1,0.9107283472699308,0.7879870176856595,0.7652023199261704,0.815110326959918,0.5580151186059089,0.5559211815389705,0.6823076728059669,0.6553081834328025,0.8311153861937265,0.7486573299399091,0.7647636519637093,0.7266825971658457,0.6453285769302353,0.6278155135925382,0.6034318597915358,0.6881720253822318,0.7778275782129412,0.8911419546973456,0.6129565706763226,0.5104864559040531,0.45300144764992,0.3337361014869781,0.37856130938732896,0.43838766470100005,0.3693118511909949,0.39611458789751147,0.4374156521253032,0.37374484656132195,0.3059020013936646,0.3910683256049892,0.4704289673988754,0.4836721196571172,0.4112878256204377,0.4257635656444063,0.29785214960658585,0.4004097119157231,0.44378907941812273,0.5562768437011365,0.4744529288836018,0.40538041367778777,0.31326083863071974,0.21030352102229175,0.10044491700387004,0.07285561622202463,0.16678034949725223,0.10109277482149948,0.0938547940484,0.11316178211488559,0.07424618573539124,0.1786581429229347,0.17455363237826363,0.13210957535992326,0.10211744256640248,0.11528393408305654,0.05089011170069684,0.12582632028831886,0.1508495323161981,0.2698842037874252,0.12338283057648732","49,163,40,120,88,161,41,209,208,164,129,128,201,43,124,87,89,165,204,85,200,80,121,207,81,122,42,168,162,206,203,48,125,169,126,83,123,202,84,47,127,167,44,86,166,205,46,45,82","1,1,1,1,3,5,1,5,1,1,2,1,1,2,1,6,1,1,1,4,1,1,1,2,1,5,5,5,1,1,1,2,4,1,1,3,4,1,1,4,1,1,1,2,1,1,1,6,2,5,4,1,1,1,1,1,1,2,1,1"
