success,trial_type,trial_index,time_elapsed,internal_node_id,interactions,blur_events,focus_events,fullscreenenter_events,fullscreenexit_events,rt,stimulus,key_press,subject_id,participant_id,age,gender,prompt,response,choice_outcomes,context_n,context_img_id,trial_n,probe_img_id,pR_red,pR_white,pR_black,outcome,contextArray_ind,validImageProbes,invalidImageProbes,pRew_Red,pRew_White,pRew_Black,availableForMemProbe,choice_blocks
TRUE,fullscreen,0,4586,0.0-0.0,"""event"",""trial"",""time""
""fullscreenenter"",""0"",""3611""
","
","
","""event"",""trial"",""time""
""fullscreenenter"",""0"",""3611""
","
",,,,,,,,,,,,,,,,,,,,,,,,,,
,pavlovia,1,4591,0.0-1.0,"""event"",""trial"",""time""
""fullscreenenter"",""0"",""3611""
","
","
","""event"",""trial"",""time""
""fullscreenenter"",""0"",""3611""
","
",,,,,,,,,,,,,,,,,,,,,,,,,,
,instruc1,2,49729,0.0-2.0,"""event"",""trial"",""time""
""fullscreenenter"",""0"",""3611""
","
","
","""event"",""trial"",""time""
""fullscreenenter"",""0"",""3611""
","
",null,run_exp/static/audio/clip_1_welcome.m4a,null,319,392,18,Female,"<div class='center'><p>Welcome! This is the first part of the study. It will last ~30 minutes. In part 1 and part 2 of the study, you are the head captain of a pirate ship traveling around the world to different islands. You will play a few different games throughout these two parts. Here is an overview of them:</p><br><p>Part 1 (today)</p><p>1. Instructions, practice game, and quiz</p><p>2. Pick a pirate game on 6 different islands</p><br><p>Part 2 (tomorrow)</p><p>3. Pick a pirate game and memory game</p><p>4. Where did you see this ship? </p></div>",,,,,,,,,,,,,,,,,,
,html-keyboard-response,3,63278,0.0-3.0,"""event"",""trial"",""time""
""fullscreenenter"",""0"",""3611""
","
","
","""event"",""trial"",""time""
""fullscreenenter"",""0"",""3611""
","
",13547.4,"<div class='center'><p>Welcome! This is the first part of the study. It will last ~30 minutes. In part 1 and part 2 of the study, you are the head captain of a pirate ship traveling around the world to different islands. You will play a few different games throughout these two parts. Here is an overview of them:</p><br><p>Part 1 (today)</p><p>1. Instructions, practice game, and quiz</p><p>2. Pick a pirate game on 6 different islands</p><br><p>Part 2 (tomorrow)</p><p>3. Pick a pirate game and memory game</p><p>4. Where did you see this ship? </p><p><b>[Press the space bar to continue]</b></p></div>",32,,,,,,,,,,,,,,,,,,,,,,,
,instruc2,4,68624,0.0-4.0,"""event"",""trial"",""time""
""fullscreenenter"",""0"",""3611""
","
","
","""event"",""trial"",""time""
""fullscreenenter"",""0"",""3611""
","
",null,run_exp/static/audio/clip_2_different_places.m4a,null,,,,,"<div class='center'><p>Today, you’ll visit these 6 islands on your journey. You'll be able to see these islands from your ship.</p><p><img src='run_exp/static/images/contexts/all_contexts.png' height='500'></p></div>",,,,,,,,,,,,,,,,,,
,html-keyboard-response,5,70335,0.0-5.0,"""event"",""trial"",""time""
""fullscreenenter"",""0"",""3611""
","
","
","""event"",""trial"",""time""
""fullscreenenter"",""0"",""3611""
","
",1709.1,"<div class='center'><p>Today, you’ll visit these 6 islands on your journey. You'll be able to see these islands from your ship.</p><p><img src='run_exp/static/images/contexts/all_contexts.png' height='500'></p><p><b>[Press the space bar to continue]</b></p></div>",32,,,,,,,,,,,,,,,,,,,,,,,
,instruc3,6,80016,0.0-6.0,"""event"",""trial"",""time""
""fullscreenenter"",""0"",""3611""
","
","
","""event"",""trial"",""time""
""fullscreenenter"",""0"",""3611""
","
",null,run_exp/static/audio/clip_3_goal_of_game_1.m4a,null,,,,,"<div class='center'><p> The pirates on your ship will rob other ships as they leave the island.</p> These ships have just sold their goods to the islanders, so they will be filled with lots and lots of gold.</p><p><img src='run_exp/static/images/tutorial/ship_center.png' height='400'></p></div>",,,,,,,,,,,,,,,,,,
,html-keyboard-response,7,80634,0.0-7.0,"""event"",""trial"",""time""
""fullscreenenter"",""0"",""3611""
","
","
","""event"",""trial"",""time""
""fullscreenenter"",""0"",""3611""
","
",616.3,"<div class='center'><p> The pirates on your ship will rob other ships as they leave the island.</p> These ships have just sold their goods to the islanders, so they will be filled with lots and lots of gold.</p><p><img src='run_exp/static/images/tutorial/ship_center.png' height='400'></p><p><b>[Press the space bar to continue]</b></p></div>",32,,,,,,,,,,,,,,,,,,,,,,,
,instruc4,8,108645,0.0-8.0,"""event"",""trial"",""time""
""fullscreenenter"",""0"",""3611""
","
","
","""event"",""trial"",""time""
""fullscreenenter"",""0"",""3611""
","
",null,run_exp/static/audio/clip_4_goal_of_game_2.m4a,null,,,,,"<div class='center'><p>As the head captain, you do not have to rob any ships yourself. Another pirate will be doing the robbing for you. First, you will choose a pirate to rob the next ship.</p><p><img src='run_exp/static/images/tutorial/pirates_all_crop.png' height='200'></p><p>Then, you'll see if the pirate successfully robbed the ship of their gold. If they were successful, then you'll get a stack of gold coins like this:</p><p><img src='run_exp/static/images/tutorial/reward.png' height='150'></p><p> If they were <b>not</b> successful, then you'll get no gold coins, and you'll see a big red x like this: </p><p><img src='run_exp/static/images/tutorial/reward_no.png' height='150'></p><p> How much bonus money you make is based on how many gold coins you collect.</p><div>",,,,,,,,,,,,,,,,,,
,html-keyboard-response,9,109320,0.0-9.0,"""event"",""trial"",""time""
""fullscreenenter"",""0"",""3611""
","
","
","""event"",""trial"",""time""
""fullscreenenter"",""0"",""3611""
","
",673.2,"<div class='center'><p>As the head captain, you do not have to rob any ships yourself. Another pirate will be doing the robbing for you. First, you will choose a pirate to rob the next ship.</p><p><img src='run_exp/static/images/tutorial/pirates_all_crop.png' height='200'></p><p>Then, you'll see if the pirate successfully robbed the ship of their gold. If they were successful, then you'll get a stack of gold coins like this:</p><p><img src='run_exp/static/images/tutorial/reward.png' height='150'></p><p> If they were <b>not</b> successful, then you'll get no gold coins, and you'll see a big red x like this: </p><p><img src='run_exp/static/images/tutorial/reward_no.png' height='150'></p><p> How much bonus money you make is based on how many gold coins you collect.</p<p><b>[Press the space bar to continue]</b></p></div>",32,,,,,,,,,,,,,,,,,,,,,,,
,instruc5,10,130796,0.0-10.0,"""event"",""trial"",""time""
""fullscreenenter"",""0"",""3611""
","
","
","""event"",""trial"",""time""
""fullscreenenter"",""0"",""3611""
","
",21474.9,run_exp/static/audio/clip_5_probabilistic.m4a,49,,,,,"<div class='center'><p>Even the most skilled pirate can not rob EVERY ship.</p><p> Some ships will have very strong protections against pirate attacks.</p><p> Blue beard, here, is very, very good at robbing ships, but he won't be successful every time he tries to rob one.</p><p> You can press the <b>‘1’</b> key on the keyboard to choose him.</p><p> Try choosing him 10 times to see how often he succeeds at robbing a ship. </p><p><img src='run_exp/static/images/tutorial/blue.png' height='500'></p></div>",,,,,,,,,,,,,,,,,,
,html-keyboard-response,11,132302,0.0-11.0,"""event"",""trial"",""time""
""fullscreenenter"",""0"",""3611""
","
","
","""event"",""trial"",""time""
""fullscreenenter"",""0"",""3611""
","
",null,<div class='center'><p><img src='run_exp/static/images/tutorial/blue_win.png' height='500'></p></div>,null,,,,,,,,,,,,,,,,,,,,,,,
,html-keyboard-response,12,133799,0.0-12.0,"""event"",""trial"",""time""
""fullscreenenter"",""0"",""3611""
","
","
","""event"",""trial"",""time""
""fullscreenenter"",""0"",""3611""
","
",1495.4,<div class='center'><img src='run_exp/static/images/tutorial/blue.png' height='500'></p></div>,49,,,,,,,,,,,,,,,,,,,,,,,
,html-keyboard-response,13,135304,0.0-13.0,"""event"",""trial"",""time""
""fullscreenenter"",""0"",""3611""
","
","
","""event"",""trial"",""time""
""fullscreenenter"",""0"",""3611""
","
",null,<div class='center'><p><img src='run_exp/static/images/tutorial/blue_win.png' height='500'></p></div>,null,,,,,,,,,,,,,,,,,,,,,,,
,html-keyboard-response,14,136073,0.0-14.0,"""event"",""trial"",""time""
""fullscreenenter"",""0"",""3611""
","
","
","""event"",""trial"",""time""
""fullscreenenter"",""0"",""3611""
","
",767,<div class='center'><img src='run_exp/static/images/tutorial/blue.png' height='500'></p></div>,49,,,,,,,,,,,,,,,,,,,,,,,
,html-keyboard-response,15,137579,0.0-15.0,"""event"",""trial"",""time""
""fullscreenenter"",""0"",""3611""
","
","
","""event"",""trial"",""time""
""fullscreenenter"",""0"",""3611""
","
",null,<div class='center'><p><img src='run_exp/static/images/tutorial/blue_win.png' height='500'></p></div>,null,,,,,,,,,,,,,,,,,,,,,,,
,html-keyboard-response,16,138239,0.0-16.0,"""event"",""trial"",""time""
""fullscreenenter"",""0"",""3611""
","
","
","""event"",""trial"",""time""
""fullscreenenter"",""0"",""3611""
","
",658.9,<div class='center'><img src='run_exp/static/images/tutorial/blue.png' height='500'></p></div>,49,,,,,,,,,,,,,,,,,,,,,,,
,html-keyboard-response,17,139745,0.0-17.0,"""event"",""trial"",""time""
""fullscreenenter"",""0"",""3611""
","
","
","""event"",""trial"",""time""
""fullscreenenter"",""0"",""3611""
","
",null,<div class='center'><p><img src='run_exp/static/images/tutorial/blue_no_win.png' height='500'></p></div>,null,,,,,,,,,,,,,,,,,,,,,,,
,html-keyboard-response,18,140930,0.0-18.0,"""event"",""trial"",""time""
""fullscreenenter"",""0"",""3611""
","
","
","""event"",""trial"",""time""
""fullscreenenter"",""0"",""3611""
","
",1183.6,<div class='center'><img src='run_exp/static/images/tutorial/blue.png' height='500'></p></div>,49,,,,,,,,,,,,,,,,,,,,,,,
,html-keyboard-response,19,142437,0.0-19.0,"""event"",""trial"",""time""
""fullscreenenter"",""0"",""3611""
","
","
","""event"",""trial"",""time""
""fullscreenenter"",""0"",""3611""
","
",null,<div class='center'><p><img src='run_exp/static/images/tutorial/blue_win.png' height='500'></p></div>,null,,,,,,,,,,,,,,,,,,,,,,,
,html-keyboard-response,20,143106,0.0-20.0,"""event"",""trial"",""time""
""fullscreenenter"",""0"",""3611""
","
","
","""event"",""trial"",""time""
""fullscreenenter"",""0"",""3611""
","
",666.6,<div class='center'><img src='run_exp/static/images/tutorial/blue.png' height='500'></p></div>,49,,,,,,,,,,,,,,,,,,,,,,,
,html-keyboard-response,21,144608,0.0-21.0,"""event"",""trial"",""time""
""fullscreenenter"",""0"",""3611""
","
","
","""event"",""trial"",""time""
""fullscreenenter"",""0"",""3611""
","
",null,<div class='center'><p><img src='run_exp/static/images/tutorial/blue_win.png' height='500'></p></div>,null,,,,,,,,,,,,,,,,,,,,,,,
,html-keyboard-response,22,145620,0.0-22.0,"""event"",""trial"",""time""
""fullscreenenter"",""0"",""3611""
","
","
","""event"",""trial"",""time""
""fullscreenenter"",""0"",""3611""
","
",1010.4,<div class='center'><img src='run_exp/static/images/tutorial/blue.png' height='500'></p></div>,49,,,,,,,,,,,,,,,,,,,,,,,
,html-keyboard-response,23,147126,0.0-23.0,"""event"",""trial"",""time""
""fullscreenenter"",""0"",""3611""
","
","
","""event"",""trial"",""time""
""fullscreenenter"",""0"",""3611""
","
",null,<div class='center'><p><img src='run_exp/static/images/tutorial/blue_win.png' height='500'></p></div>,null,,,,,,,,,,,,,,,,,,,,,,,
,html-keyboard-response,24,148050,0.0-24.0,"""event"",""trial"",""time""
""fullscreenenter"",""0"",""3611""
","
","
","""event"",""trial"",""time""
""fullscreenenter"",""0"",""3611""
","
",923.1,<div class='center'><img src='run_exp/static/images/tutorial/blue.png' height='500'></p></div>,49,,,,,,,,,,,,,,,,,,,,,,,
,html-keyboard-response,25,149554,0.0-25.0,"""event"",""trial"",""time""
""fullscreenenter"",""0"",""3611""
","
","
","""event"",""trial"",""time""
""fullscreenenter"",""0"",""3611""
","
",null,<div class='center'><p><img src='run_exp/static/images/tutorial/blue_no_win.png' height='500'></p></div>,null,,,,,,,,,,,,,,,,,,,,,,,
,html-keyboard-response,26,150454,0.0-26.0,"""event"",""trial"",""time""
""fullscreenenter"",""0"",""3611""
","
","
","""event"",""trial"",""time""
""fullscreenenter"",""0"",""3611""
","
",899,<div class='center'><img src='run_exp/static/images/tutorial/blue.png' height='500'></p></div>,49,,,,,,,,,,,,,,,,,,,,,,,
,html-keyboard-response,27,151957,0.0-27.0,"""event"",""trial"",""time""
""fullscreenenter"",""0"",""3611""
","
","
","""event"",""trial"",""time""
""fullscreenenter"",""0"",""3611""
","
",null,<div class='center'><p><img src='run_exp/static/images/tutorial/blue_win.png' height='500'></p></div>,null,,,,,,,,,,,,,,,,,,,,,,,
,html-keyboard-response,28,152577,0.0-28.0,"""event"",""trial"",""time""
""fullscreenenter"",""0"",""3611""
","
","
","""event"",""trial"",""time""
""fullscreenenter"",""0"",""3611""
","
",617.7,<div class='center'><img src='run_exp/static/images/tutorial/blue.png' height='500'></p></div>,49,,,,,,,,,,,,,,,,,,,,,,,
,html-keyboard-response,29,154078,0.0-29.0,"""event"",""trial"",""time""
""fullscreenenter"",""0"",""3611""
","
","
","""event"",""trial"",""time""
""fullscreenenter"",""0"",""3611""
","
",null,<div class='center'><p><img src='run_exp/static/images/tutorial/blue_win.png' height='500'></p></div>,null,,,,,,,,,,,,,,,,,,,,,,,
,instruc6,30,159512,0.0-30.0,"""event"",""trial"",""time""
""fullscreenenter"",""0"",""3611""
","
","
","""event"",""trial"",""time""
""fullscreenenter"",""0"",""3611""
","
",null,run_exp/static/audio/clip_6_blue_beard_outcome.m4a,null,,,,,"<div class='center'><p> See, he succeeded in robbing the ships most of the time but not every time. </p></div>",,,,,,,,,,,,,,,,,,
,html-keyboard-response,31,160143,0.0-31.0,"""event"",""trial"",""time""
""fullscreenenter"",""0"",""3611""
","
","
","""event"",""trial"",""time""
""fullscreenenter"",""0"",""3611""
","
",629.2,"<div class='center'><p> See, he succeeded in robbing the ships most of the time but not every time. </p><p><b>[Press the space bar to continue]</b></p></div>",32,,,,,,,,,,,,,,,,,,,,,,,
,audio-keyboard-response,32,177179,0.0-32.0,"""event"",""trial"",""time""
""fullscreenenter"",""0"",""3611""
","
","
","""event"",""trial"",""time""
""fullscreenenter"",""0"",""3611""
","
",17035,run_exp/static/audio/clip_7_pick_pirate.m4a,49,,,,,,,,,,,,,,,,,,,,,,,
,audio-keyboard-response,33,182451,0.0-33.0-0.0,"""event"",""trial"",""time""
""fullscreenenter"",""0"",""3611""
","
","
","""event"",""trial"",""time""
""fullscreenenter"",""0"",""3611""
","
",5270.1,run_exp/static/audio/clip_8_chosen_pirate_win.m4a,32,,,,,,,,,,,,,,,,,,,,,,,
,audio-keyboard-response,34,186009,0.0-33.0-1.0,"""event"",""trial"",""time""
""fullscreenenter"",""0"",""3611""
","
","
","""event"",""trial"",""time""
""fullscreenenter"",""0"",""3611""
","
",3556.1,run_exp/static/audio/clip_9_pick_a_pirate_again.m4a,50,,,,,,,,,,,,,,,,,,,,,,,
,audio-keyboard-response,35,190078,0.0-34.0-0.0,"""event"",""trial"",""time""
""fullscreenenter"",""0"",""3611""
","
","
","""event"",""trial"",""time""
""fullscreenenter"",""0"",""3611""
","
",4067.2,run_exp/static/audio/clip_10_chosen_pirate_loss.m4a,32,,,,,,,,,,,,,,,,,,,,,,,
,instruc9,36,195565,0.0-35.0-0.0,"""event"",""trial"",""time""
""fullscreenenter"",""0"",""3611""
","
","
","""event"",""trial"",""time""
""fullscreenenter"",""0"",""3611""
","
",null,run_exp/static/audio/clip_11_time_out.m4a,null,,,,,"<div class='center'><p>If you don’t make your choice fast enough, you’ll have to wait a few seconds before you can make another one. </p><p><img src='run_exp/static/images/miscellaneous/hurry_up.png' height='500'></p></div>",,,,,,,,,,,,,,,,,,
,html-keyboard-response,37,196817,0.0-35.0-1.0,"""event"",""trial"",""time""
""fullscreenenter"",""0"",""3611""
","
","
","""event"",""trial"",""time""
""fullscreenenter"",""0"",""3611""
","
",1250.6,"<div class='center'><p>If you don’t make your choice fast enough, you’ll have to wait a few seconds before you can make another one. </p><p><img src='run_exp/static/images/miscellaneous/hurry_up.png' height='500'></p><p><b>[Press the space bar to continue]</b></p></div>",32,,,,,,,,,,,,,,,,,,,,,,,
,instruc10,38,235905,0.0-35.0-2.0,"""event"",""trial"",""time""
""fullscreenenter"",""0"",""3611""
","
","
","""event"",""trial"",""time""
""fullscreenenter"",""0"",""3611""
","
",null,run_exp/static/audio/clip_12_probe.m4a,null,,,,,"<div class='center'><p>Once you've chosen a pirate, you’ll be shown the ship they are robbing. You will never rob the same ship twice. Ships can be told apart from one another by the image on them. These are the goods that they sell. See, this ship has a travel mug on it. </p><p> You’ll have to remember which island you saw each ship on. You will win more gold coins and hence more bonus money if you remember correctly! To help you remember, you can imagine a story. For example, here, you could imagine a mug full of water in the desert. Or, as another example, if on the forest island, your pirate robbed a ship with an apple on it, you could imagine an apple falling from a tree in the forest. </p><p><img src='run_exp/static/images/tutorial/example_probe.png' height='500'></p></div>",,,,,,,,,,,,,,,,,,
,html-keyboard-response,39,236855,0.0-35.0-3.0,"""event"",""trial"",""time""
""fullscreenenter"",""0"",""3611""
","
","
","""event"",""trial"",""time""
""fullscreenenter"",""0"",""3611""
","
",946.1,"<div class='center'><p>Once you've chosen a pirate, you’ll be shown the ship they are robbing. You will never rob the same ship twice. Ships can be told apart from one another by the image on them. These are the goods that they sell. See, this ship has a travel mug on it. </p><p> You’ll have to remember which island you saw each ship on. You will win more gold coins and hence more bonus money if you remember correctly! To help you remember, you can imagine a story. For example, here, you could imagine a mug full of water in the desert. Or, as another example, if on the forest island, your pirate robbed a ship with an apple on it, you could imagine an apple falling from a tree in the forest. </p><p><img src='run_exp/static/images/tutorial/example_probe.png' height='500'></p><p><b>[Press the space bar to continue]</b></p></div>",32,,,,,,,,,,,,,,,,,,,,,,,
,instruc11,40,253270,0.0-35.0-4.0,"""event"",""trial"",""time""
""fullscreenenter"",""0"",""3611""
","
","
","""event"",""trial"",""time""
""fullscreenenter"",""0"",""3611""
","
",null,run_exp/static/audio/clip_13_changepoint.m4a,null,,,,,"<div class='center'><p>How successful a pirate is at robbing ships will depend on the island you’re on.</p><p> A pirate may have visited this island many times before and gained a lot of practice robbing ships there.</p><p>So, they’re more likely to be successful than a pirate who has never visited the island before.</p></div>",,,,,,,,,,,,,,,,,,
,html-keyboard-response,41,256417,0.0-35.0-5.0,"""event"",""trial"",""time""
""fullscreenenter"",""0"",""3611""
","
","
","""event"",""trial"",""time""
""fullscreenenter"",""0"",""3611""
","
",3145.3,"<div class='center'><p>How successful a pirate is at robbing ships will depend on the island you’re on.</p><p> A pirate may have visited this island many times before and gained a lot of practice robbing ships there.</p><p>So, they’re more likely to be successful than a pirate who has never visited the island before.</p><p><b>[Press the space bar to continue]</b></p></div>",32,,,,,,,,,,,,,,,,,,,,,,,
,instruc12,42,297514,0.0-35.0-6.0,"""event"",""trial"",""time""
""fullscreenenter"",""0"",""3611""
","
","
","""event"",""trial"",""time""
""fullscreenenter"",""0"",""3611""
","
",null,run_exp/static/audio/clip_14_drift.m4a,null,,,,,"<div class='center'><p>How successful a pirate is at robbing ships can also change over the time spent on the island. </p><p> Ships may hear from islanders about the pirates coming and will improve their protections against the attack. This may make it harder to rob them.</p><p> Ships may also become lazy and weaken the strength of their protections. This may make it easier to rob them.</p><br><p>Things are always changing on the high seas! So, try your best to pay attention!</p><p><img src='run_exp/static/images/tutorial/contingency.png' height='500'></p></div>",,,,,,,,,,,,,,,,,,
,html-keyboard-response,43,299627,0.0-35.0-7.0,"""event"",""trial"",""time""
""fullscreenenter"",""0"",""3611""
","
","
","""event"",""trial"",""time""
""fullscreenenter"",""0"",""3611""
","
",2111,"<div class='center'><p>How successful a pirate is at robbing ships can also change over the time spent on the island. </p><p> Ships may hear from islanders about the pirates coming and will improve their protections against the attack. This may make it harder to rob them.</p><p> Ships may also become lazy and weaken the strength of their protections. This may make it easier to rob them.</p><br><p>Things are always changing on the high seas! So, try your best to pay attention!</p><p><img src='run_exp/static/images/tutorial/contingency.png' height='500'></p><p><b>[Press the space bar to continue]</b></p></div>",32,,,,,,,,,,,,,,,,,,,,,,,
,instruc13,44,334804,0.0-35.0-8.0,"""event"",""trial"",""time""
""fullscreenenter"",""0"",""3611""
","
","
","""event"",""trial"",""time""
""fullscreenenter"",""0"",""3611""
","
",null,run_exp/static/audio/clip_15_summary.m4a,null,,,,,"<div class='center'><p>Let's go over the instructions quickly again. You have two important things to do: </p><b><p> 1. Pick the pirate who is the best at robbing ships on the current island. </p></b><b><p> 2. Remember on which island a ship was robbed.</p> </b><p>The amount of bonus money you can win depends on both.</p><p><br><p>Let’s try a practice game. The game will start by showing you the pirates. First, pick a pirate using the <b> 1, 2, 3 </b> keys on your keyboard. When you are shown a ship, try to remember which island you’re on by making up a story.</p><p>This is just a practice game, so you’re not playing for money. </p><p> Good luck! This game will be very difficult but try your best!</p></div>",,,,,,,,,,,,,,,,,,
,html-keyboard-response,45,338560,0.0-35.0-9.0,"""event"",""trial"",""time""
""fullscreenenter"",""0"",""3611""
","
","
","""event"",""trial"",""time""
""fullscreenenter"",""0"",""3611""
","
",3755.3,"<div class='center'><p>Let's go over the instructions quickly again. You have two important things to do: </p><b><p> 1. Pick the pirate who is the best at robbing ships on the current island. </p></b><b><p> 2. Remember on which island a ship was robbed.</p> </b><p>The amount of bonus money you can win depends on both.</p><p><br><p>Let’s try a practice game. The game will start by showing you the pirates. First, pick a pirate using the <b> 1, 2, 3 </b> keys on your keyboard. When you are shown a ship, try to remember which island you’re on by making up a story.</p><p>This is just a practice game, so you’re not playing for money. </p><p> Good luck! This game will be very difficult but try your best!</p><p><b>[Press the space bar to continue]</b></p></div>",32,,,,,,,,,,,,,,,,,,,,,,,
,do_welcome,46,342572,0.0-35.0-10.0,"""event"",""trial"",""time""
""fullscreenenter"",""0"",""3611""
","
","
","""event"",""trial"",""time""
""fullscreenenter"",""0"",""3611""
","
",null,,,,,,,,null,,,,,,,,,,,,,,,,,
,do_trial,47,348047,0.0-35.0-11.0,"""event"",""trial"",""time""
""fullscreenenter"",""0"",""3611""
","
","
","""event"",""trial"",""time""
""fullscreenenter"",""0"",""3611""
","
",964.1,,,,,,,,49,"1,0,0",,,,,,,,,,,,,,,,
,html-keyboard-response,48,349053,0.0-36.0-0.0,"""event"",""trial"",""time""
""fullscreenenter"",""0"",""3611""
","
","
","""event"",""trial"",""time""
""fullscreenenter"",""0"",""3611""
","
",null,<p></p>,null,,,,,,,,,,,,,,,,,,,,,,,
,do_trial,49,354896,0.0-36.0-1.0,"""event"",""trial"",""time""
""fullscreenenter"",""0"",""3611""
","
","
","""event"",""trial"",""time""
""fullscreenenter"",""0"",""3611""
","
",1331.1,,,,,,,,49,"1,1,0",,,,,,,,,,,,,,,,
,html-keyboard-response,50,355899,0.0-37.0-0.0,"""event"",""trial"",""time""
""fullscreenenter"",""0"",""3611""
","
","
","""event"",""trial"",""time""
""fullscreenenter"",""0"",""3611""
","
",null,<p></p>,null,,,,,,,,,,,,,,,,,,,,,,,
,do_trial,51,361130,0.0-37.0-1.0,"""event"",""trial"",""time""
""fullscreenenter"",""0"",""3611""
","
","
","""event"",""trial"",""time""
""fullscreenenter"",""0"",""3611""
","
",718.9,,,,,,,,49,"1,0,1",,,,,,,,,,,,,,,,
,html-keyboard-response,52,362136,0.0-38.0-0.0,"""event"",""trial"",""time""
""fullscreenenter"",""0"",""3611""
","
","
","""event"",""trial"",""time""
""fullscreenenter"",""0"",""3611""
","
",null,<p></p>,null,,,,,,,,,,,,,,,,,,,,,,,
,do_trial,53,368149,0.0-38.0-1.0,"""event"",""trial"",""time""
""fullscreenenter"",""0"",""3611""
","
","
","""event"",""trial"",""time""
""fullscreenenter"",""0"",""3611""
","
",null,,,,,,,,null,"0,1,0",,,,,,,,,,,,,,,,
,html-keyboard-response,54,369155,0.0-39.0-0.0,"""event"",""trial"",""time""
""fullscreenenter"",""0"",""3611""
","
","
","""event"",""trial"",""time""
""fullscreenenter"",""0"",""3611""
","
",null,<p></p>,null,,,,,,,,,,,,,,,,,,,,,,,
,do_trial,55,374096,0.0-39.0-1.0,"""event"",""trial"",""time""
""fullscreenenter"",""0"",""3611""
","
","
","""event"",""trial"",""time""
""fullscreenenter"",""0"",""3611""
","
",433.1,,,,,,,,50,"0,1,0",,,,,,,,,,,,,,,,
,html-keyboard-response,56,375098,0.0-40.0-0.0,"""event"",""trial"",""time""
""fullscreenenter"",""0"",""3611""
","
","
","""event"",""trial"",""time""
""fullscreenenter"",""0"",""3611""
","
",null,<p></p>,null,,,,,,,,,,,,,,,,,,,,,,,
,do_trial,57,379967,0.0-40.0-1.0,"""event"",""trial"",""time""
""fullscreenenter"",""0"",""3611""
","
","
","""event"",""trial"",""time""
""fullscreenenter"",""0"",""3611""
","
",355.8,,,,,,,,51,"1,0,0",,,,,,,,,,,,,,,,
,do_bye,58,381478,0.0-41.0-0.0,"""event"",""trial"",""time""
""fullscreenenter"",""0"",""3611""
","
","
","""event"",""trial"",""time""
""fullscreenenter"",""0"",""3611""
","
",null,,,,,,,,null,,,,,,,,,,,,,,,,,
,do_travel,59,390487,0.0-41.0-1.0,"""event"",""trial"",""time""
""fullscreenenter"",""0"",""3611""
","
","
","""event"",""trial"",""time""
""fullscreenenter"",""0"",""3611""
","
",null,,,,,,,,null,,,,,,,,,,,,,,,,,
,do_welcome,60,394498,0.0-41.0-2.0,"""event"",""trial"",""time""
""fullscreenenter"",""0"",""3611""
","
","
","""event"",""trial"",""time""
""fullscreenenter"",""0"",""3611""
","
",null,,,,,,,,null,,,,,,,,,,,,,,,,,
,do_trial,61,399587,0.0-41.0-3.0,"""event"",""trial"",""time""
""fullscreenenter"",""0"",""3611""
","
","
","""event"",""trial"",""time""
""fullscreenenter"",""0"",""3611""
","
",577.1,,,,,,,,49,"1,0,0",,,,,,,,,,,,,,,,
,html-keyboard-response,62,400589,0.0-42.0-0.0,"""event"",""trial"",""time""
""fullscreenenter"",""0"",""3611""
","
","
","""event"",""trial"",""time""
""fullscreenenter"",""0"",""3611""
","
",null,<p></p>,null,,,,,,,,,,,,,,,,,,,,,,,
,do_trial,63,405414,0.0-42.0-1.0,"""event"",""trial"",""time""
""fullscreenenter"",""0"",""3611""
","
","
","""event"",""trial"",""time""
""fullscreenenter"",""0"",""3611""
","
",316.8,,,,,,,,51,"1,0,1",,,,,,,,,,,,,,,,
,html-keyboard-response,64,406419,0.0-43.0-0.0,"""event"",""trial"",""time""
""fullscreenenter"",""0"",""3611""
","
","
","""event"",""trial"",""time""
""fullscreenenter"",""0"",""3611""
","
",null,<p></p>,null,,,,,,,,,,,,,,,,,,,,,,,
,do_trial,65,411225,0.0-43.0-1.0,"""event"",""trial"",""time""
""fullscreenenter"",""0"",""3611""
","
","
","""event"",""trial"",""time""
""fullscreenenter"",""0"",""3611""
","
",293.9,,,,,,,,49,"1,1,0",,,,,,,,,,,,,,,,
,html-keyboard-response,66,412231,0.0-44.0-0.0,"""event"",""trial"",""time""
""fullscreenenter"",""0"",""3611""
","
","
","""event"",""trial"",""time""
""fullscreenenter"",""0"",""3611""
","
",null,<p></p>,null,,,,,,,,,,,,,,,,,,,,,,,
,do_trial,67,417193,0.0-44.0-1.0,"""event"",""trial"",""time""
""fullscreenenter"",""0"",""3611""
","
","
","""event"",""trial"",""time""
""fullscreenenter"",""0"",""3611""
","
",453.9,,,,,,,,49,"0,0,1",,,,,,,,,,,,,,,,
,html-keyboard-response,68,418197,0.0-45.0-0.0,"""event"",""trial"",""time""
""fullscreenenter"",""0"",""3611""
","
","
","""event"",""trial"",""time""
""fullscreenenter"",""0"",""3611""
","
",null,<p></p>,null,,,,,,,,,,,,,,,,,,,,,,,
,do_trial,69,423051,0.0-45.0-1.0,"""event"",""trial"",""time""
""fullscreenenter"",""0"",""3611""
","
","
","""event"",""trial"",""time""
""fullscreenenter"",""0"",""3611""
","
",343.5,,,,,,,,51,"1,0,1",,,,,,,,,,,,,,,,
,html-keyboard-response,70,427481,0.0-46.0-0.0,"""event"",""trial"",""time""
""fullscreenenter"",""0"",""3611""
","
","
","""event"",""trial"",""time""
""fullscreenenter"",""0"",""3611""
","
",4427.4,<div class='center'><p><img src='run_exp/static/images/tutorial/prac_best_pirate.png'  height='500'></p></div>,49,,,,,,,,,,,,,,,,,,,,,,,
,html-keyboard-response,71,429963,0.0-47.0-0.0,"""event"",""trial"",""time""
""fullscreenenter"",""0"",""3611""
","
","
","""event"",""trial"",""time""
""fullscreenenter"",""0"",""3611""
","
",2481.6,<div class='center'><p>That's correct! Red beard was the best.</p><p><b>[Press the space bar to continue]</b></p></div>,32,,,,,,,,,,,,,,,,,,,,,,,
,html-keyboard-response,72,432744,0.0-47.0-1.0,"""event"",""trial"",""time""
""fullscreenenter"",""0"",""3611""
","
","
","""event"",""trial"",""time""
""fullscreenenter"",""0"",""3611""
","
",2779.4,<div class='center'><p><img src='run_exp/static/images/tutorial/prac_source.png'  height='500'></p></div>,50,,,,,,,,,,,,,,,,,,,,,,,
,html-keyboard-response,73,434508,0.0-48.0-0.0,"""event"",""trial"",""time""
""fullscreenenter"",""0"",""3611""
","
","
","""event"",""trial"",""time""
""fullscreenenter"",""0"",""3611""
","
",1763.7,<div class='center'><p>That's correct! You saw this ship on the cavern island.</p><p><b>[Press the space bar to continue]</b></p></div>,32,,,,,,,,,,,,,,,,,,,,,,,
,quiz_beginning,74,445743,0.0-48.0-1.0,"""event"",""trial"",""time""
""fullscreenenter"",""0"",""3611""
","
","
","""event"",""trial"",""time""
""fullscreenenter"",""0"",""3611""
","
",null,run_exp/static/audio/clip_16_quiz_intro.m4a,null,,,,,"<div class='center'><p>Good job on the practice game! Now, you will be asked some true or false questions to make sure you really understand the rules of the game.</p><p> Press <b>'1'</b> on the keyboard for true and press <b>'2'</b> for false.</p></div>",,,,,,,,,,,,,,,,,,
,audio-keyboard-response,75,451868,0.0-48.0-2.0,"""event"",""trial"",""time""
""fullscreenenter"",""0"",""3611""
","
","
","""event"",""trial"",""time""
""fullscreenenter"",""0"",""3611""
","
",6123.2,run_exp/static/audio/clip_17_q1.m4a,49,,,,,,,,,,,,,,,,,,,,,,,
,correct,76,454276,0.0-49.0-0.0,"""event"",""trial"",""time""
""fullscreenenter"",""0"",""3611""
","
","
","""event"",""trial"",""time""
""fullscreenenter"",""0"",""3611""
","
",null,run_exp/static/audio/clip_18_correct.m4a,null,,,,,<div class='center'><p>That's correct!</p></div>,,,,,,,,,,,,,,,,,,
,html-keyboard-response,77,455240,0.0-49.0-1.0,"""event"",""trial"",""time""
""fullscreenenter"",""0"",""3611""
","
","
","""event"",""trial"",""time""
""fullscreenenter"",""0"",""3611""
","
",962.8,<div class='center'><p>That's correct!</p><p><b>[Press the space bar to continue]</b></p></div>,32,,,,,,,,,,,,,,,,,,,,,,,
,audio-keyboard-response,78,463063,0.0-49.0-2.0,"""event"",""trial"",""time""
""fullscreenenter"",""0"",""3611""
","
","
","""event"",""trial"",""time""
""fullscreenenter"",""0"",""3611""
","
",7822.5,run_exp/static/audio/clip_20_q2.m4a,50,,,,,,,,,,,,,,,,,,,,,,,
,correct,79,465476,0.0-50.0-0.0,"""event"",""trial"",""time""
""fullscreenenter"",""0"",""3611""
","
","
","""event"",""trial"",""time""
""fullscreenenter"",""0"",""3611""
","
",null,run_exp/static/audio/clip_18_correct.m4a,null,,,,,<div class='center'><p>That's correct!</p></div>,,,,,,,,,,,,,,,,,,
,html-keyboard-response,80,466343,0.0-50.0-1.0,"""event"",""trial"",""time""
""fullscreenenter"",""0"",""3611""
","
","
","""event"",""trial"",""time""
""fullscreenenter"",""0"",""3611""
","
",866.7,<div class='center'><p>That's correct!</p><p><b>[Press the space bar to continue]</b></p></div>,32,,,,,,,,,,,,,,,,,,,,,,,
,audio-keyboard-response,81,473946,0.0-50.0-2.0,"""event"",""trial"",""time""
""fullscreenenter"",""0"",""3611""
","
","
","""event"",""trial"",""time""
""fullscreenenter"",""0"",""3611""
","
",7601.9,run_exp/static/audio/clip_22_q3.m4a,50,,,,,,,,,,,,,,,,,,,,,,,
,correct,82,476355,0.0-51.0-0.0,"""event"",""trial"",""time""
""fullscreenenter"",""0"",""3611""
","
","
","""event"",""trial"",""time""
""fullscreenenter"",""0"",""3611""
","
",null,run_exp/static/audio/clip_18_correct.m4a,null,,,,,<div class='center'><p>That's correct!</p></div>,,,,,,,,,,,,,,,,,,
,html-keyboard-response,83,477186,0.0-51.0-1.0,"""event"",""trial"",""time""
""fullscreenenter"",""0"",""3611""
","
","
","""event"",""trial"",""time""
""fullscreenenter"",""0"",""3611""
","
",829.5,<div class='center'><p>That's correct!</p><p><b>[Press the space bar to continue]</b></p></div>,32,,,,,,,,,,,,,,,,,,,,,,,
,audio-keyboard-response,84,482020,0.0-51.0-2.0,"""event"",""trial"",""time""
""fullscreenenter"",""0"",""3611""
","
","
","""event"",""trial"",""time""
""fullscreenenter"",""0"",""3611""
","
",4833.3,run_exp/static/audio/clip_24_q4.m4a,49,,,,,,,,,,,,,,,,,,,,,,,
,correct,85,484462,0.0-52.0-0.0,"""event"",""trial"",""time""
""fullscreenenter"",""0"",""3611""
","
","
","""event"",""trial"",""time""
""fullscreenenter"",""0"",""3611""
","
",null,run_exp/static/audio/clip_18_correct.m4a,null,,,,,<div class='center'><p>That's correct!</p></div>,,,,,,,,,,,,,,,,,,
,html-keyboard-response,86,485310,0.0-52.0-1.0,"""event"",""trial"",""time""
""fullscreenenter"",""0"",""3611""
","
","
","""event"",""trial"",""time""
""fullscreenenter"",""0"",""3611""
","
",846.8,<div class='center'><p>That's correct!</p><p><b>[Press the space bar to continue]</b></p></div>,32,,,,,,,,,,,,,,,,,,,,,,,
,q_all_corr,87,493806,0.0-53.0-0.0,"""event"",""trial"",""time""
""fullscreenenter"",""0"",""3611""
","
","
","""event"",""trial"",""time""
""fullscreenenter"",""0"",""3611""
","
",null,run_exp/static/audio/clip_27_quiz_all_correct.m4a,null,,,,,<div class='center'><p>Good job! You’re now ready to move on to the real game! Remember this game will be difficult but don't get discouraged and try your best!</p></div>,,,,,,,,,,,,,,,,,,
,html-keyboard-response,88,494510,0.0-53.0-1.0,"""event"",""trial"",""time""
""fullscreenenter"",""0"",""3611""
","
","
","""event"",""trial"",""time""
""fullscreenenter"",""0"",""3611""
","
",703.1,<div class='center'><p>Good job! You’re now ready to move on to the real game! Remember this game will be difficult but don't get discouraged and try your best!</p><p><b>[Press the space bar to continue]</b></p></div>,32,,,,,,,,,,,,,,,,,,,,,,,
,do_welcome,89,498520,0.0-54.0-0.0,"""event"",""trial"",""time""
""fullscreenenter"",""0"",""3611""
","
","
","""event"",""trial"",""time""
""fullscreenenter"",""0"",""3611""
","
",null,,,,,,,,null,,,,,,,,,,,,,,,,,
,do_trial,90,503866,0.0-55.0-0.0,"""event"",""trial"",""time""
""fullscreenenter"",""0"",""3611""
","
","
","""event"",""trial"",""time""
""fullscreenenter"",""0"",""3611""
","
",804.4,,,,,,,,49,"1,1,0",0,countryside,0,probe-28,0.6,0.3,0.1,1,,,,,,,,
,html-keyboard-response,91,504871,0.0-55.0-1.0,"""event"",""trial"",""time""
""fullscreenenter"",""0"",""3611""
","
","
","""event"",""trial"",""time""
""fullscreenenter"",""0"",""3611""
","
",null,<p></p>,null,,,,,,,,,,,,,,,,,,,,,,,
,do_trial,92,509791,0.0-56.0-0.0,"""event"",""trial"",""time""
""fullscreenenter"",""0"",""3611""
","
","
","""event"",""trial"",""time""
""fullscreenenter"",""0"",""3611""
","
",374.4,,,,,,,,50,"1,0,0",0,countryside,1,probe-101,0.590618446,0.136310407,0.114952164,0,,,,,,,,
,html-keyboard-response,93,510796,0.0-56.0-1.0,"""event"",""trial"",""time""
""fullscreenenter"",""0"",""3611""
","
","
","""event"",""trial"",""time""
""fullscreenenter"",""0"",""3611""
","
",null,<p></p>,null,,,,,,,,,,,,,,,,,,,,,,,
,do_trial,94,515722,0.0-57.0-0.0,"""event"",""trial"",""time""
""fullscreenenter"",""0"",""3611""
","
","
","""event"",""trial"",""time""
""fullscreenenter"",""0"",""3611""
","
",385.4,,,,,,,,51,"0,0,0",0,countryside,2,probe-200,0.48991291,0.152494126,0.101216343,0,,,,,,,,
,html-keyboard-response,95,516729,0.0-57.0-1.0,"""event"",""trial"",""time""
""fullscreenenter"",""0"",""3611""
","
","
","""event"",""trial"",""time""
""fullscreenenter"",""0"",""3611""
","
",null,<p></p>,null,,,,,,,,,,,,,,,,,,,,,,,
,do_trial,96,521667,0.0-58.0-0.0,"""event"",""trial"",""time""
""fullscreenenter"",""0"",""3611""
","
","
","""event"",""trial"",""time""
""fullscreenenter"",""0"",""3611""
","
",397.6,,,,,,,,49,"1,0,0",0,countryside,3,probe-211,0.391284497,0.169126753,0.074466675,1,,,,,,,,
,html-keyboard-response,97,522672,0.0-58.0-1.0,"""event"",""trial"",""time""
""fullscreenenter"",""0"",""3611""
","
","
","""event"",""trial"",""time""
""fullscreenenter"",""0"",""3611""
","
",null,<p></p>,null,,,,,,,,,,,,,,,,,,,,,,,
,do_trial,98,527603,0.0-59.0-0.0,"""event"",""trial"",""time""
""fullscreenenter"",""0"",""3611""
","
","
","""event"",""trial"",""time""
""fullscreenenter"",""0"",""3611""
","
",387.1,,,,,,,,49,"0,0,0",0,countryside,4,probe-16,0.61286858,0.166619006,0.089368226,0,,,,,,,,
,html-keyboard-response,99,528608,0.0-59.0-1.0,"""event"",""trial"",""time""
""fullscreenenter"",""0"",""3611""
","
","
","""event"",""trial"",""time""
""fullscreenenter"",""0"",""3611""
","
",null,<p></p>,null,,,,,,,,,,,,,,,,,,,,,,,
,do_trial,100,533428,0.0-60.0-0.0,"""event"",""trial"",""time""
""fullscreenenter"",""0"",""3611""
","
","
","""event"",""trial"",""time""
""fullscreenenter"",""0"",""3611""
","
",280.3,,,,,,,,50,"1,0,0",0,countryside,5,probe-188,0.560124444,0.288079618,0.272486562,0,,,,,,,,
,html-keyboard-response,101,534433,0.0-60.0-1.0,"""event"",""trial"",""time""
""fullscreenenter"",""0"",""3611""
","
","
","""event"",""trial"",""time""
""fullscreenenter"",""0"",""3611""
","
",null,<p></p>,null,,,,,,,,,,,,,,,,,,,,,,,
,do_trial,102,539306,0.0-61.0-0.0,"""event"",""trial"",""time""
""fullscreenenter"",""0"",""3611""
","
","
","""event"",""trial"",""time""
""fullscreenenter"",""0"",""3611""
","
",328.7,,,,,,,,49,"1,0,1",0,countryside,6,probe-137,0.528345161,0.330359041,0.378126171,1,,,,,,,,
,html-keyboard-response,103,540313,0.0-61.0-1.0,"""event"",""trial"",""time""
""fullscreenenter"",""0"",""3611""
","
","
","""event"",""trial"",""time""
""fullscreenenter"",""0"",""3611""
","
",null,<p></p>,null,,,,,,,,,,,,,,,,,,,,,,,
,do_trial,104,545174,0.0-62.0-0.0,"""event"",""trial"",""time""
""fullscreenenter"",""0"",""3611""
","
","
","""event"",""trial"",""time""
""fullscreenenter"",""0"",""3611""
","
",320.2,,,,,,,,49,"0,0,0",0,countryside,7,probe-91,0.657068079,0.168787912,0.27397481,0,,,,,,,,
,html-keyboard-response,105,546176,0.0-62.0-1.0,"""event"",""trial"",""time""
""fullscreenenter"",""0"",""3611""
","
","
","""event"",""trial"",""time""
""fullscreenenter"",""0"",""3611""
","
",null,<p></p>,null,,,,,,,,,,,,,,,,,,,,,,,
,do_trial,106,551087,0.0-63.0-0.0,"""event"",""trial"",""time""
""fullscreenenter"",""0"",""3611""
","
","
","""event"",""trial"",""time""
""fullscreenenter"",""0"",""3611""
","
",367.8,,,,,,,,51,"0,0,0",0,countryside,8,probe-116,0.617206019,0.132047757,0.451286201,0,,,,,,,,
,html-keyboard-response,107,552093,0.0-63.0-1.0,"""event"",""trial"",""time""
""fullscreenenter"",""0"",""3611""
","
","
","""event"",""trial"",""time""
""fullscreenenter"",""0"",""3611""
","
",null,<p></p>,null,,,,,,,,,,,,,,,,,,,,,,,
,do_trial,108,557012,0.0-64.0-0.0,"""event"",""trial"",""time""
""fullscreenenter"",""0"",""3611""
","
","
","""event"",""trial"",""time""
""fullscreenenter"",""0"",""3611""
","
",379.3,,,,,,,,49,"0,0,0",0,countryside,9,probe-69,0.589148565,0.169910849,0.26134633,0,,,,,,,,
,html-keyboard-response,109,558017,0.0-64.0-1.0,"""event"",""trial"",""time""
""fullscreenenter"",""0"",""3611""
","
","
","""event"",""trial"",""time""
""fullscreenenter"",""0"",""3611""
","
",null,<p></p>,null,,,,,,,,,,,,,,,,,,,,,,,
,do_trial,110,562971,0.0-65.0-0.0,"""event"",""trial"",""time""
""fullscreenenter"",""0"",""3611""
","
","
","""event"",""trial"",""time""
""fullscreenenter"",""0"",""3611""
","
",410.9,,,,,,,,51,"1,0,1",0,countryside,10,probe-203,0.602980163,0.304545256,0.234116162,1,,,,,,,,
,html-keyboard-response,111,563977,0.0-65.0-1.0,"""event"",""trial"",""time""
""fullscreenenter"",""0"",""3611""
","
","
","""event"",""trial"",""time""
""fullscreenenter"",""0"",""3611""
","
",null,<p></p>,null,,,,,,,,,,,,,,,,,,,,,,,
,do_trial,112,569145,0.0-66.0-0.0,"""event"",""trial"",""time""
""fullscreenenter"",""0"",""3611""
","
","
","""event"",""trial"",""time""
""fullscreenenter"",""0"",""3611""
","
",624.4,,,,,,,,51,"0,1,1",0,countryside,11,probe-102,0.617141229,0.365740503,0.200675709,1,,,,,,,,
,html-keyboard-response,113,570149,0.0-66.0-1.0,"""event"",""trial"",""time""
""fullscreenenter"",""0"",""3611""
","
","
","""event"",""trial"",""time""
""fullscreenenter"",""0"",""3611""
","
",null,<p></p>,null,,,,,,,,,,,,,,,,,,,,,,,
,do_trial,114,575044,0.0-67.0-0.0,"""event"",""trial"",""time""
""fullscreenenter"",""0"",""3611""
","
","
","""event"",""trial"",""time""
""fullscreenenter"",""0"",""3611""
","
",354.2,,,,,,,,51,"0,0,0",0,countryside,12,probe-44,0.475531501,0.4650194,0.158276429,0,,,,,,,,
,html-keyboard-response,115,576048,0.0-67.0-1.0,"""event"",""trial"",""time""
""fullscreenenter"",""0"",""3611""
","
","
","""event"",""trial"",""time""
""fullscreenenter"",""0"",""3611""
","
",null,<p></p>,null,,,,,,,,,,,,,,,,,,,,,,,
,do_trial,116,580869,0.0-68.0-0.0,"""event"",""trial"",""time""
""fullscreenenter"",""0"",""3611""
","
","
","""event"",""trial"",""time""
""fullscreenenter"",""0"",""3611""
","
",279,,,,,,,,49,"0,1,0",0,countryside,13,probe-106,0.61395829,0.47799813,0.05960519,0,,,,,,,,
,html-keyboard-response,117,581874,0.0-68.0-1.0,"""event"",""trial"",""time""
""fullscreenenter"",""0"",""3611""
","
","
","""event"",""trial"",""time""
""fullscreenenter"",""0"",""3611""
","
",null,<p></p>,null,,,,,,,,,,,,,,,,,,,,,,,
,do_trial,118,586773,0.0-69.0-0.0,"""event"",""trial"",""time""
""fullscreenenter"",""0"",""3611""
","
","
","""event"",""trial"",""time""
""fullscreenenter"",""0"",""3611""
","
",355.2,,,,,,,,50,"0,1,0",0,countryside,14,probe-35,0.574271995,0.275265015,0.060706373,1,,,,,,,,
,html-keyboard-response,119,587778,0.0-69.0-1.0,"""event"",""trial"",""time""
""fullscreenenter"",""0"",""3611""
","
","
","""event"",""trial"",""time""
""fullscreenenter"",""0"",""3611""
","
",null,<p></p>,null,,,,,,,,,,,,,,,,,,,,,,,
,do_trial,120,592660,0.0-70.0-0.0,"""event"",""trial"",""time""
""fullscreenenter"",""0"",""3611""
","
","
","""event"",""trial"",""time""
""fullscreenenter"",""0"",""3611""
","
",338.7,,,,,,,,50,"0,1,0",0,countryside,15,probe-17,0.59753223,0.45849417,0.075656754,1,,,,,,,,
,html-keyboard-response,121,593666,0.0-70.0-1.0,"""event"",""trial"",""time""
""fullscreenenter"",""0"",""3611""
","
","
","""event"",""trial"",""time""
""fullscreenenter"",""0"",""3611""
","
",null,<p></p>,null,,,,,,,,,,,,,,,,,,,,,,,
,do_trial,122,598516,0.0-71.0-0.0,"""event"",""trial"",""time""
""fullscreenenter"",""0"",""3611""
","
","
","""event"",""trial"",""time""
""fullscreenenter"",""0"",""3611""
","
",308.8,,,,,,,,50,"0,1,0",0,countryside,16,probe-119,0.623478258,0.546514585,0.084917084,1,,,,,,,,
,html-keyboard-response,123,599521,0.0-71.0-1.0,"""event"",""trial"",""time""
""fullscreenenter"",""0"",""3611""
","
","
","""event"",""trial"",""time""
""fullscreenenter"",""0"",""3611""
","
",null,<p></p>,null,,,,,,,,,,,,,,,,,,,,,,,
,do_trial,124,604530,0.0-72.0-0.0,"""event"",""trial"",""time""
""fullscreenenter"",""0"",""3611""
","
","
","""event"",""trial"",""time""
""fullscreenenter"",""0"",""3611""
","
",471.3,,,,,,,,50,"1,0,0",0,countryside,17,probe-166,0.725716056,0.321188564,0.124443553,0,,,,,,,,
,html-keyboard-response,125,605536,0.0-72.0-1.0,"""event"",""trial"",""time""
""fullscreenenter"",""0"",""3611""
","
","
","""event"",""trial"",""time""
""fullscreenenter"",""0"",""3611""
","
",null,<p></p>,null,,,,,,,,,,,,,,,,,,,,,,,
,do_trial,126,610565,0.0-73.0-0.0,"""event"",""trial"",""time""
""fullscreenenter"",""0"",""3611""
","
","
","""event"",""trial"",""time""
""fullscreenenter"",""0"",""3611""
","
",490.5,,,,,,,,50,"1,1,0",0,countryside,18,probe-63,0.565384325,0.355060258,0.068303418,1,,,,,,,,
,html-keyboard-response,127,611572,0.0-73.0-1.0,"""event"",""trial"",""time""
""fullscreenenter"",""0"",""3611""
","
","
","""event"",""trial"",""time""
""fullscreenenter"",""0"",""3611""
","
",null,<p></p>,null,,,,,,,,,,,,,,,,,,,,,,,
,do_trial,128,616625,0.0-74.0-0.0,"""event"",""trial"",""time""
""fullscreenenter"",""0"",""3611""
","
","
","""event"",""trial"",""time""
""fullscreenenter"",""0"",""3611""
","
",509.5,,,,,,,,50,"1,0,0",0,countryside,19,probe-158,0.490571509,0.30019557,0.104333589,0,,,,,,,,
,html-keyboard-response,129,617632,0.0-74.0-1.0,"""event"",""trial"",""time""
""fullscreenenter"",""0"",""3611""
","
","
","""event"",""trial"",""time""
""fullscreenenter"",""0"",""3611""
","
",null,<p></p>,null,,,,,,,,,,,,,,,,,,,,,,,
,do_trial,130,622175,0.0-75.0-0.0,"""event"",""trial"",""time""
""fullscreenenter"",""0"",""3611""
","
","
","""event"",""trial"",""time""
""fullscreenenter"",""0"",""3611""
","
",0.099999994,,,,,,,,51,"0,0,0",0,countryside,20,probe-183,0.45602071,0.324503134,0.134585475,0,,,,,,,,
,html-keyboard-response,131,623180,0.0-75.0-1.0,"""event"",""trial"",""time""
""fullscreenenter"",""0"",""3611""
","
","
","""event"",""trial"",""time""
""fullscreenenter"",""0"",""3611""
","
",null,<p></p>,null,,,,,,,,,,,,,,,,,,,,,,,
,do_trial,132,628060,0.0-76.0-0.0,"""event"",""trial"",""time""
""fullscreenenter"",""0"",""3611""
","
","
","""event"",""trial"",""time""
""fullscreenenter"",""0"",""3611""
","
",338.4,,,,,,,,49,"1,0,0",0,countryside,21,probe-156,0.507380544,0.32929652,0.163471542,1,,,,,,,,
,html-keyboard-response,133,629064,0.0-76.0-1.0,"""event"",""trial"",""time""
""fullscreenenter"",""0"",""3611""
","
","
","""event"",""trial"",""time""
""fullscreenenter"",""0"",""3611""
","
",null,<p></p>,null,,,,,,,,,,,,,,,,,,,,,,,
,do_trial,134,633982,0.0-77.0-0.0,"""event"",""trial"",""time""
""fullscreenenter"",""0"",""3611""
","
","
","""event"",""trial"",""time""
""fullscreenenter"",""0"",""3611""
","
",373.1,,,,,,,,49,"0,1,1",0,countryside,22,probe-172,0.647598591,0.256407426,0.211085314,0,,,,,,,,
,html-keyboard-response,135,634987,0.0-77.0-1.0,"""event"",""trial"",""time""
""fullscreenenter"",""0"",""3611""
","
","
","""event"",""trial"",""time""
""fullscreenenter"",""0"",""3611""
","
",null,<p></p>,null,,,,,,,,,,,,,,,,,,,,,,,
,do_trial,136,639837,0.0-78.0-0.0,"""event"",""trial"",""time""
""fullscreenenter"",""0"",""3611""
","
","
","""event"",""trial"",""time""
""fullscreenenter"",""0"",""3611""
","
",311.5,,,,,,,,49,"0,0,0",0,countryside,23,probe-174,0.534241017,0.299609705,0.122049361,0,,,,,,,,
,html-keyboard-response,137,640843,0.0-78.0-1.0,"""event"",""trial"",""time""
""fullscreenenter"",""0"",""3611""
","
","
","""event"",""trial"",""time""
""fullscreenenter"",""0"",""3611""
","
",null,<p></p>,null,,,,,,,,,,,,,,,,,,,,,,,
,do_trial,138,645737,0.0-79.0-0.0,"""event"",""trial"",""time""
""fullscreenenter"",""0"",""3611""
","
","
","""event"",""trial"",""time""
""fullscreenenter"",""0"",""3611""
","
",350,,,,,,,,50,"0,0,0",0,countryside,24,probe-04,0.546624526,0.370604782,0.060097219,0,,,,,,,,
,html-keyboard-response,139,646742,0.0-79.0-1.0,"""event"",""trial"",""time""
""fullscreenenter"",""0"",""3611""
","
","
","""event"",""trial"",""time""
""fullscreenenter"",""0"",""3611""
","
",null,<p></p>,null,,,,,,,,,,,,,,,,,,,,,,,
,do_trial,140,651709,0.0-80.0-0.0,"""event"",""trial"",""time""
""fullscreenenter"",""0"",""3611""
","
","
","""event"",""trial"",""time""
""fullscreenenter"",""0"",""3611""
","
",426.4,,,,,,,,50,"1,0,0",0,countryside,25,probe-186,0.868288562,0.413970784,0.065576925,0,,,,,,,,
,html-keyboard-response,141,652716,0.0-80.0-1.0,"""event"",""trial"",""time""
""fullscreenenter"",""0"",""3611""
","
","
","""event"",""trial"",""time""
""fullscreenenter"",""0"",""3611""
","
",null,<p></p>,null,,,,,,,,,,,,,,,,,,,,,,,
,do_trial,142,658216,0.0-81.0-0.0,"""event"",""trial"",""time""
""fullscreenenter"",""0"",""3611""
","
","
","""event"",""trial"",""time""
""fullscreenenter"",""0"",""3611""
","
",957.4,,,,,,,,50,"1,0,0",0,countryside,26,probe-171,0.695683089,0.302148787,0.119366642,0,,,,,,,,
,html-keyboard-response,143,659221,0.0-81.0-1.0,"""event"",""trial"",""time""
""fullscreenenter"",""0"",""3611""
","
","
","""event"",""trial"",""time""
""fullscreenenter"",""0"",""3611""
","
",null,<p></p>,null,,,,,,,,,,,,,,,,,,,,,,,
,do_trial,144,664228,0.0-82.0-0.0,"""event"",""trial"",""time""
""fullscreenenter"",""0"",""3611""
","
","
","""event"",""trial"",""time""
""fullscreenenter"",""0"",""3611""
","
",461.6,,,,,,,,51,"1,1,0",0,countryside,27,probe-78,0.740245098,0.271647553,0.345853091,0,,,,,,,,
,html-keyboard-response,145,665232,0.0-82.0-1.0,"""event"",""trial"",""time""
""fullscreenenter"",""0"",""3611""
","
","
","""event"",""trial"",""time""
""fullscreenenter"",""0"",""3611""
","
",null,<p></p>,null,,,,,,,,,,,,,,,,,,,,,,,
,do_trial,146,670202,0.0-83.0-0.0,"""event"",""trial"",""time""
""fullscreenenter"",""0"",""3611""
","
","
","""event"",""trial"",""time""
""fullscreenenter"",""0"",""3611""
","
",426.4,,,,,,,,51,"1,1,0",0,countryside,28,probe-121,0.683843059,0.365466873,0.221268633,0,,,,,,,,
,html-keyboard-response,147,671207,0.0-83.0-1.0,"""event"",""trial"",""time""
""fullscreenenter"",""0"",""3611""
","
","
","""event"",""trial"",""time""
""fullscreenenter"",""0"",""3611""
","
",null,<p></p>,null,,,,,,,,,,,,,,,,,,,,,,,
,do_trial,148,676153,0.0-84.0-0.0,"""event"",""trial"",""time""
""fullscreenenter"",""0"",""3611""
","
","
","""event"",""trial"",""time""
""fullscreenenter"",""0"",""3611""
","
",401.7,,,,,,,,51,"1,0,0",0,countryside,29,probe-42,0.574880472,0.348578404,0.206183754,0,,,,,,,,
,html-keyboard-response,149,677158,0.0-84.0-1.0,"""event"",""trial"",""time""
""fullscreenenter"",""0"",""3611""
","
","
","""event"",""trial"",""time""
""fullscreenenter"",""0"",""3611""
","
",null,<p></p>,null,,,,,,,,,,,,,,,,,,,,,,,
,do_bye,150,678664,0.0-85.0-0.0,"""event"",""trial"",""time""
""fullscreenenter"",""0"",""3611""
","
","
","""event"",""trial"",""time""
""fullscreenenter"",""0"",""3611""
","
",null,,,,,,,,null,,,,,,,,,,,,,,,,,
,break,151,681333,0.0-85.0-1.0,"""event"",""trial"",""time""
""fullscreenenter"",""0"",""3611""
","
","
","""event"",""trial"",""time""
""fullscreenenter"",""0"",""3611""
","
",2667.4,"<div class='center'><p>Time to take a quick break! You have 2 minutes to rest, but you can move on sooner if you'd like.</p><p> Press the <b>space bar</b> to continue.</p></div>",32,,,,,,,,,,,,,,,,,,,,,,,
,do_travel,152,690340,0.0-86.0-0.0,"""event"",""trial"",""time""
""fullscreenenter"",""0"",""3611""
","
","
","""event"",""trial"",""time""
""fullscreenenter"",""0"",""3611""
","
",null,,,,,,,,null,,,,,,,,,,,,,,,,,
,do_welcome,153,694352,0.0-86.0-1.0,"""event"",""trial"",""time""
""fullscreenenter"",""0"",""3611""
","
","
","""event"",""trial"",""time""
""fullscreenenter"",""0"",""3611""
","
",null,,,,,,,,null,,,,,,,,,,,,,,,,,
,do_trial,154,699558,0.0-87.0-0.0,"""event"",""trial"",""time""
""fullscreenenter"",""0"",""3611""
","
","
","""event"",""trial"",""time""
""fullscreenenter"",""0"",""3611""
","
",669,,,,,,,,49,"1,1,0",1,highway,30,probe-99,1,0.21116719,0.140749054,1,,,,,,,,
,html-keyboard-response,155,700562,0.0-87.0-1.0,"""event"",""trial"",""time""
""fullscreenenter"",""0"",""3611""
","
","
","""event"",""trial"",""time""
""fullscreenenter"",""0"",""3611""
","
",null,<p></p>,null,,,,,,,,,,,,,,,,,,,,,,,
,do_trial,156,705769,0.0-88.0-0.0,"""event"",""trial"",""time""
""fullscreenenter"",""0"",""3611""
","
","
","""event"",""trial"",""time""
""fullscreenenter"",""0"",""3611""
","
",665.5,,,,,,,,51,"1,0,0",1,highway,31,probe-126,1,0.064117557,0.154401897,0,,,,,,,,
,html-keyboard-response,157,706774,0.0-88.0-1.0,"""event"",""trial"",""time""
""fullscreenenter"",""0"",""3611""
","
","
","""event"",""trial"",""time""
""fullscreenenter"",""0"",""3611""
","
",null,<p></p>,null,,,,,,,,,,,,,,,,,,,,,,,
,do_trial,158,711708,0.0-89.0-0.0,"""event"",""trial"",""time""
""fullscreenenter"",""0"",""3611""
","
","
","""event"",""trial"",""time""
""fullscreenenter"",""0"",""3611""
","
",390.4,,,,,,,,50,"1,1,0",1,highway,32,probe-190,1,0.101923944,0.156535593,1,,,,,,,,
,html-keyboard-response,159,712713,0.0-89.0-1.0,"""event"",""trial"",""time""
""fullscreenenter"",""0"",""3611""
","
","
","""event"",""trial"",""time""
""fullscreenenter"",""0"",""3611""
","
",null,<p></p>,null,,,,,,,,,,,,,,,,,,,,,,,
,do_trial,160,717624,0.0-90.0-0.0,"""event"",""trial"",""time""
""fullscreenenter"",""0"",""3611""
","
","
","""event"",""trial"",""time""
""fullscreenenter"",""0"",""3611""
","
",367.4,,,,,,,,50,"1,1,1",1,highway,33,probe-104,0.888064759,0.173448906,0.130012152,1,,,,,,,,
,html-keyboard-response,161,718629,0.0-90.0-1.0,"""event"",""trial"",""time""
""fullscreenenter"",""0"",""3611""
","
","
","""event"",""trial"",""time""
""fullscreenenter"",""0"",""3611""
","
",null,<p></p>,null,,,,,,,,,,,,,,,,,,,,,,,
,do_trial,162,723839,0.0-91.0-0.0,"""event"",""trial"",""time""
""fullscreenenter"",""0"",""3611""
","
","
","""event"",""trial"",""time""
""fullscreenenter"",""0"",""3611""
","
",666.7,,,,,,,,49,"1,0,0",1,highway,34,probe-135,0.896219057,0.148857628,0.102253687,1,,,,,,,,
,html-keyboard-response,163,724844,0.0-91.0-1.0,"""event"",""trial"",""time""
""fullscreenenter"",""0"",""3611""
","
","
","""event"",""trial"",""time""
""fullscreenenter"",""0"",""3611""
","
",null,<p></p>,null,,,,,,,,,,,,,,,,,,,,,,,
,do_trial,164,729910,0.0-92.0-0.0,"""event"",""trial"",""time""
""fullscreenenter"",""0"",""3611""
","
","
","""event"",""trial"",""time""
""fullscreenenter"",""0"",""3611""
","
",520.3,,,,,,,,50,"1,0,1",1,highway,35,probe-152,0.73770142,0.180173194,0.103659906,0,,,,,,,,
,html-keyboard-response,165,730911,0.0-92.0-1.0,"""event"",""trial"",""time""
""fullscreenenter"",""0"",""3611""
","
","
","""event"",""trial"",""time""
""fullscreenenter"",""0"",""3611""
","
",null,<p></p>,null,,,,,,,,,,,,,,,,,,,,,,,
,do_trial,166,735850,0.0-93.0-0.0,"""event"",""trial"",""time""
""fullscreenenter"",""0"",""3611""
","
","
","""event"",""trial"",""time""
""fullscreenenter"",""0"",""3611""
","
",399.5,,,,,,,,49,"1,0,0",1,highway,36,probe-229,0.825375056,0.151735299,0.210960692,1,,,,,,,,
,html-keyboard-response,167,736857,0.0-93.0-1.0,"""event"",""trial"",""time""
""fullscreenenter"",""0"",""3611""
","
","
","""event"",""trial"",""time""
""fullscreenenter"",""0"",""3611""
","
",null,<p></p>,null,,,,,,,,,,,,,,,,,,,,,,,
,do_trial,168,741807,0.0-94.0-0.0,"""event"",""trial"",""time""
""fullscreenenter"",""0"",""3611""
","
","
","""event"",""trial"",""time""
""fullscreenenter"",""0"",""3611""
","
",408.1,,,,,,,,49,"0,0,1",1,highway,37,probe-146,0.644604339,0.283087179,0.138822048,0,,,,,,,,
,html-keyboard-response,169,742812,0.0-94.0-1.0,"""event"",""trial"",""time""
""fullscreenenter"",""0"",""3611""
","
","
","""event"",""trial"",""time""
""fullscreenenter"",""0"",""3611""
","
",null,<p></p>,null,,,,,,,,,,,,,,,,,,,,,,,
,do_trial,170,747790,0.0-95.0-0.0,"""event"",""trial"",""time""
""fullscreenenter"",""0"",""3611""
","
","
","""event"",""trial"",""time""
""fullscreenenter"",""0"",""3611""
","
",437.8,,,,,,,,51,"0,1,0",1,highway,38,probe-109,0.56533568,0.264416102,0.053686523,0,,,,,,,,
,html-keyboard-response,171,748795,0.0-95.0-1.0,"""event"",""trial"",""time""
""fullscreenenter"",""0"",""3611""
","
","
","""event"",""trial"",""time""
""fullscreenenter"",""0"",""3611""
","
",null,<p></p>,null,,,,,,,,,,,,,,,,,,,,,,,
,do_trial,172,753692,0.0-96.0-0.0,"""event"",""trial"",""time""
""fullscreenenter"",""0"",""3611""
","
","
","""event"",""trial"",""time""
""fullscreenenter"",""0"",""3611""
","
",357.9,,,,,,,,50,"0,0,0",1,highway,39,probe-193,0.485708496,0.293812465,0.20128923,0,,,,,,,,
,html-keyboard-response,173,754698,0.0-96.0-1.0,"""event"",""trial"",""time""
""fullscreenenter"",""0"",""3611""
","
","
","""event"",""trial"",""time""
""fullscreenenter"",""0"",""3611""
","
",null,<p></p>,null,,,,,,,,,,,,,,,,,,,,,,,
,do_trial,174,760759,0.0-97.0-0.0,"""event"",""trial"",""time""
""fullscreenenter"",""0"",""3611""
","
","
","""event"",""trial"",""time""
""fullscreenenter"",""0"",""3611""
","
",1518,,,,,,,,51,"0,0,0",1,highway,40,probe-20,0.478023427,0.247135727,0.243637341,0,,,,,,,,
,html-keyboard-response,175,761763,0.0-97.0-1.0,"""event"",""trial"",""time""
""fullscreenenter"",""0"",""3611""
","
","
","""event"",""trial"",""time""
""fullscreenenter"",""0"",""3611""
","
",null,<p></p>,null,,,,,,,,,,,,,,,,,,,,,,,
,do_trial,176,767783,0.0-98.0-0.0,"""event"",""trial"",""time""
""fullscreenenter"",""0"",""3611""
","
","
","""event"",""trial"",""time""
""fullscreenenter"",""0"",""3611""
","
",1478,,,,,,,,51,"1,0,0",1,highway,41,probe-222,0.348905213,0.094934104,0.195186233,0,,,,,,,,
,html-keyboard-response,177,768787,0.0-98.0-1.0,"""event"",""trial"",""time""
""fullscreenenter"",""0"",""3611""
","
","
","""event"",""trial"",""time""
""fullscreenenter"",""0"",""3611""
","
",null,<p></p>,null,,,,,,,,,,,,,,,,,,,,,,,
,do_trial,178,773801,0.0-99.0-0.0,"""event"",""trial"",""time""
""fullscreenenter"",""0"",""3611""
","
","
","""event"",""trial"",""time""
""fullscreenenter"",""0"",""3611""
","
",472.5,,,,,,,,49,"0,0,0",1,highway,42,probe-111,0.351730855,0.182989234,0.371326735,0,,,,,,,,
,html-keyboard-response,179,774806,0.0-99.0-1.0,"""event"",""trial"",""time""
""fullscreenenter"",""0"",""3611""
","
","
","""event"",""trial"",""time""
""fullscreenenter"",""0"",""3611""
","
",null,<p></p>,null,,,,,,,,,,,,,,,,,,,,,,,
,do_trial,180,779938,0.0-100.0-0.0,"""event"",""trial"",""time""
""fullscreenenter"",""0"",""3611""
","
","
","""event"",""trial"",""time""
""fullscreenenter"",""0"",""3611""
","
",589.4,,,,,,,,49,"0,0,1",1,highway,43,probe-90,0.344185956,0.48399461,0.406601859,0,,,,,,,,
,html-keyboard-response,181,780944,0.0-100.0-1.0,"""event"",""trial"",""time""
""fullscreenenter"",""0"",""3611""
","
","
","""event"",""trial"",""time""
""fullscreenenter"",""0"",""3611""
","
",null,<p></p>,null,,,,,,,,,,,,,,,,,,,,,,,
,do_trial,182,786054,0.0-101.0-0.0,"""event"",""trial"",""time""
""fullscreenenter"",""0"",""3611""
","
","
","""event"",""trial"",""time""
""fullscreenenter"",""0"",""3611""
","
",566.2,,,,,,,,50,"1,0,1",1,highway,44,probe-95,0.317126537,0.416050981,0.472309836,0,,,,,,,,
,html-keyboard-response,183,787056,0.0-101.0-1.0,"""event"",""trial"",""time""
""fullscreenenter"",""0"",""3611""
","
","
","""event"",""trial"",""time""
""fullscreenenter"",""0"",""3611""
","
",null,<p></p>,null,,,,,,,,,,,,,,,,,,,,,,,
,do_trial,184,791912,0.0-102.0-0.0,"""event"",""trial"",""time""
""fullscreenenter"",""0"",""3611""
","
","
","""event"",""trial"",""time""
""fullscreenenter"",""0"",""3611""
","
",315.6,,,,,,,,50,"0,0,1",1,highway,45,probe-195,0.246250431,0.495574886,0.448860228,0,,,,,,,,
,html-keyboard-response,185,792916,0.0-102.0-1.0,"""event"",""trial"",""time""
""fullscreenenter"",""0"",""3611""
","
","
","""event"",""trial"",""time""
""fullscreenenter"",""0"",""3611""
","
",null,<p></p>,null,,,,,,,,,,,,,,,,,,,,,,,
,do_trial,186,797479,0.0-103.0-0.0,"""event"",""trial"",""time""
""fullscreenenter"",""0"",""3611""
","
","
","""event"",""trial"",""time""
""fullscreenenter"",""0"",""3611""
","
",28,,,,,,,,50,"1,1,0",1,highway,46,probe-33,0.187315063,0.366639073,0.604750021,1,,,,,,,,
,html-keyboard-response,187,798484,0.0-103.0-1.0,"""event"",""trial"",""time""
""fullscreenenter"",""0"",""3611""
","
","
","""event"",""trial"",""time""
""fullscreenenter"",""0"",""3611""
","
",null,<p></p>,null,,,,,,,,,,,,,,,,,,,,,,,
,do_trial,188,803384,0.0-104.0-0.0,"""event"",""trial"",""time""
""fullscreenenter"",""0"",""3611""
","
","
","""event"",""trial"",""time""
""fullscreenenter"",""0"",""3611""
","
",358.6,,,,,,,,50,"0,1,0",1,highway,47,probe-53,0.183340324,0.399401905,0.594754805,1,,,,,,,,
,html-keyboard-response,189,804388,0.0-104.0-1.0,"""event"",""trial"",""time""
""fullscreenenter"",""0"",""3611""
","
","
","""event"",""trial"",""time""
""fullscreenenter"",""0"",""3611""
","
",null,<p></p>,null,,,,,,,,,,,,,,,,,,,,,,,
,do_trial,190,809288,0.0-105.0-0.0,"""event"",""trial"",""time""
""fullscreenenter"",""0"",""3611""
","
","
","""event"",""trial"",""time""
""fullscreenenter"",""0"",""3611""
","
",355.9,,,,,,,,50,"0,0,1",1,highway,48,probe-167,0.070654158,0.348325722,0.642729212,0,,,,,,,,
,html-keyboard-response,191,810295,0.0-105.0-1.0,"""event"",""trial"",""time""
""fullscreenenter"",""0"",""3611""
","
","
","""event"",""trial"",""time""
""fullscreenenter"",""0"",""3611""
","
",null,<p></p>,null,,,,,,,,,,,,,,,,,,,,,,,
,do_trial,192,814872,0.0-106.0-0.0,"""event"",""trial"",""time""
""fullscreenenter"",""0"",""3611""
","
","
","""event"",""trial"",""time""
""fullscreenenter"",""0"",""3611""
","
",36.3,,,,,,,,51,"0,0,1",1,highway,49,probe-98,0.051353678,0.349036838,0.637412826,1,,,,,,,,
,html-keyboard-response,193,815874,0.0-106.0-1.0,"""event"",""trial"",""time""
""fullscreenenter"",""0"",""3611""
","
","
","""event"",""trial"",""time""
""fullscreenenter"",""0"",""3611""
","
",null,<p></p>,null,,,,,,,,,,,,,,,,,,,,,,,
,do_trial,194,820848,0.0-107.0-0.0,"""event"",""trial"",""time""
""fullscreenenter"",""0"",""3611""
","
","
","""event"",""trial"",""time""
""fullscreenenter"",""0"",""3611""
","
",431.1,,,,,,,,51,"0,0,0",1,highway,50,probe-155,0.051966452,0.249107906,0.653797122,0,,,,,,,,
,html-keyboard-response,195,821855,0.0-107.0-1.0,"""event"",""trial"",""time""
""fullscreenenter"",""0"",""3611""
","
","
","""event"",""trial"",""time""
""fullscreenenter"",""0"",""3611""
","
",null,<p></p>,null,,,,,,,,,,,,,,,,,,,,,,,
,do_trial,196,826777,0.0-108.0-0.0,"""event"",""trial"",""time""
""fullscreenenter"",""0"",""3611""
","
","
","""event"",""trial"",""time""
""fullscreenenter"",""0"",""3611""
","
",378.7,,,,,,,,49,"0,0,0",1,highway,51,probe-142,0.060597688,0.265216914,0.55428072,0,,,,,,,,
,html-keyboard-response,197,827779,0.0-108.0-1.0,"""event"",""trial"",""time""
""fullscreenenter"",""0"",""3611""
","
","
","""event"",""trial"",""time""
""fullscreenenter"",""0"",""3611""
","
",null,<p></p>,null,,,,,,,,,,,,,,,,,,,,,,,
,do_trial,198,832749,0.0-109.0-0.0,"""event"",""trial"",""time""
""fullscreenenter"",""0"",""3611""
","
","
","""event"",""trial"",""time""
""fullscreenenter"",""0"",""3611""
","
",426.9,,,,,,,,51,"0,0,1",1,highway,52,probe-197,0.053218909,0.156668232,0.667502148,1,,,,,,,,
,html-keyboard-response,199,833754,0.0-109.0-1.0,"""event"",""trial"",""time""
""fullscreenenter"",""0"",""3611""
","
","
","""event"",""trial"",""time""
""fullscreenenter"",""0"",""3611""
","
",null,<p></p>,null,,,,,,,,,,,,,,,,,,,,,,,
,do_trial,200,838704,0.0-110.0-0.0,"""event"",""trial"",""time""
""fullscreenenter"",""0"",""3611""
","
","
","""event"",""trial"",""time""
""fullscreenenter"",""0"",""3611""
","
",406.4,,,,,,,,50,"0,0,1",1,highway,53,probe-205,0.097791856,0.271709737,0.758171323,0,,,,,,,,
,html-keyboard-response,201,839710,0.0-110.0-1.0,"""event"",""trial"",""time""
""fullscreenenter"",""0"",""3611""
","
","
","""event"",""trial"",""time""
""fullscreenenter"",""0"",""3611""
","
",null,<p></p>,null,,,,,,,,,,,,,,,,,,,,,,,
,do_trial,202,844743,0.0-111.0-0.0,"""event"",""trial"",""time""
""fullscreenenter"",""0"",""3611""
","
","
","""event"",""trial"",""time""
""fullscreenenter"",""0"",""3611""
","
",492.3,,,,,,,,50,"1,1,1",1,highway,54,probe-189,0.05486344,0.28313313,0.650302207,1,,,,,,,,
,html-keyboard-response,203,845749,0.0-111.0-1.0,"""event"",""trial"",""time""
""fullscreenenter"",""0"",""3611""
","
","
","""event"",""trial"",""time""
""fullscreenenter"",""0"",""3611""
","
",null,<p></p>,null,,,,,,,,,,,,,,,,,,,,,,,
,do_trial,204,850745,0.0-112.0-0.0,"""event"",""trial"",""time""
""fullscreenenter"",""0"",""3611""
","
","
","""event"",""trial"",""time""
""fullscreenenter"",""0"",""3611""
","
",454.9,,,,,,,,50,"0,0,1",1,highway,55,probe-213,0.095421446,0.411944193,0.707550308,0,,,,,,,,
,html-keyboard-response,205,851751,0.0-112.0-1.0,"""event"",""trial"",""time""
""fullscreenenter"",""0"",""3611""
","
","
","""event"",""trial"",""time""
""fullscreenenter"",""0"",""3611""
","
",null,<p></p>,null,,,,,,,,,,,,,,,,,,,,,,,
,do_trial,206,856658,0.0-113.0-0.0,"""event"",""trial"",""time""
""fullscreenenter"",""0"",""3611""
","
","
","""event"",""trial"",""time""
""fullscreenenter"",""0"",""3611""
","
",363.8,,,,,,,,51,"0,1,1",1,highway,56,probe-134,0.070967106,0.366976545,0.671492697,1,,,,,,,,
,html-keyboard-response,207,857663,0.0-113.0-1.0,"""event"",""trial"",""time""
""fullscreenenter"",""0"",""3611""
","
","
","""event"",""trial"",""time""
""fullscreenenter"",""0"",""3611""
","
",null,<p></p>,null,,,,,,,,,,,,,,,,,,,,,,,
,do_trial,208,862567,0.0-114.0-0.0,"""event"",""trial"",""time""
""fullscreenenter"",""0"",""3611""
","
","
","""event"",""trial"",""time""
""fullscreenenter"",""0"",""3611""
","
",363.4,,,,,,,,51,"0,1,1",1,highway,57,probe-107,0.178308574,0.28626529,0.559473215,1,,,,,,,,
,html-keyboard-response,209,863572,0.0-114.0-1.0,"""event"",""trial"",""time""
""fullscreenenter"",""0"",""3611""
","
","
","""event"",""trial"",""time""
""fullscreenenter"",""0"",""3611""
","
",null,<p></p>,null,,,,,,,,,,,,,,,,,,,,,,,
,do_trial,210,868736,0.0-115.0-0.0,"""event"",""trial"",""time""
""fullscreenenter"",""0"",""3611""
","
","
","""event"",""trial"",""time""
""fullscreenenter"",""0"",""3611""
","
",621.5,,,,,,,,51,"0,1,0",1,highway,58,probe-05,0.160948588,0.359520706,0.575064792,0,,,,,,,,
,html-keyboard-response,211,869741,0.0-115.0-1.0,"""event"",""trial"",""time""
""fullscreenenter"",""0"",""3611""
","
","
","""event"",""trial"",""time""
""fullscreenenter"",""0"",""3611""
","
",null,<p></p>,null,,,,,,,,,,,,,,,,,,,,,,,
,do_trial,212,874669,0.0-116.0-0.0,"""event"",""trial"",""time""
""fullscreenenter"",""0"",""3611""
","
","
","""event"",""trial"",""time""
""fullscreenenter"",""0"",""3611""
","
",381.4,,,,,,,,50,"0,0,1",1,highway,59,probe-110,0.123331122,0.286838776,0.62375671,0,,,,,,,,
,html-keyboard-response,213,875675,0.0-116.0-1.0,"""event"",""trial"",""time""
""fullscreenenter"",""0"",""3611""
","
","
","""event"",""trial"",""time""
""fullscreenenter"",""0"",""3611""
","
",null,<p></p>,null,,,,,,,,,,,,,,,,,,,,,,,
,do_trial,214,880870,0.0-117.0-0.0,"""event"",""trial"",""time""
""fullscreenenter"",""0"",""3611""
","
","
","""event"",""trial"",""time""
""fullscreenenter"",""0"",""3611""
","
",654,,,,,,,,49,"0,0,1",1,highway,60,probe-47,0.150887553,0.265664128,0.54377155,0,,,,,,,,
,html-keyboard-response,215,881874,0.0-117.0-1.0,"""event"",""trial"",""time""
""fullscreenenter"",""0"",""3611""
","
","
","""event"",""trial"",""time""
""fullscreenenter"",""0"",""3611""
","
",null,<p></p>,null,,,,,,,,,,,,,,,,,,,,,,,
,do_trial,216,886980,0.0-118.0-0.0,"""event"",""trial"",""time""
""fullscreenenter"",""0"",""3611""
","
","
","""event"",""trial"",""time""
""fullscreenenter"",""0"",""3611""
","
",562.3,,,,,,,,50,"0,1,1",1,highway,61,probe-219,0.120733839,0.246754502,0.475922823,1,,,,,,,,
,html-keyboard-response,217,887985,0.0-118.0-1.0,"""event"",""trial"",""time""
""fullscreenenter"",""0"",""3611""
","
","
","""event"",""trial"",""time""
""fullscreenenter"",""0"",""3611""
","
",null,<p></p>,null,,,,,,,,,,,,,,,,,,,,,,,
,do_trial,218,892853,0.0-119.0-0.0,"""event"",""trial"",""time""
""fullscreenenter"",""0"",""3611""
","
","
","""event"",""trial"",""time""
""fullscreenenter"",""0"",""3611""
","
",328.2,,,,,,,,50,"1,0,0",1,highway,62,probe-60,0.156344158,0.3394015,0.51801737,0,,,,,,,,
,html-keyboard-response,219,893858,0.0-119.0-1.0,"""event"",""trial"",""time""
""fullscreenenter"",""0"",""3611""
","
","
","""event"",""trial"",""time""
""fullscreenenter"",""0"",""3611""
","
",null,<p></p>,null,,,,,,,,,,,,,,,,,,,,,,,
,do_trial,220,898554,0.0-120.0-0.0,"""event"",""trial"",""time""
""fullscreenenter"",""0"",""3611""
","
","
","""event"",""trial"",""time""
""fullscreenenter"",""0"",""3611""
","
",153.6,,,,,,,,51,"0,1,1",1,highway,63,probe-07,0.107775643,0.467912433,0.560927169,1,,,,,,,,
,html-keyboard-response,221,899559,0.0-120.0-1.0,"""event"",""trial"",""time""
""fullscreenenter"",""0"",""3611""
","
","
","""event"",""trial"",""time""
""fullscreenenter"",""0"",""3611""
","
",null,<p></p>,null,,,,,,,,,,,,,,,,,,,,,,,
,do_trial,222,904470,0.0-121.0-0.0,"""event"",""trial"",""time""
""fullscreenenter"",""0"",""3611""
","
","
","""event"",""trial"",""time""
""fullscreenenter"",""0"",""3611""
","
",371.8,,,,,,,,51,"0,0,1",1,highway,64,probe-56,0.19933954,0.443082808,0.58120815,1,,,,,,,,
,html-keyboard-response,223,905475,0.0-121.0-1.0,"""event"",""trial"",""time""
""fullscreenenter"",""0"",""3611""
","
","
","""event"",""trial"",""time""
""fullscreenenter"",""0"",""3611""
","
",null,<p></p>,null,,,,,,,,,,,,,,,,,,,,,,,
,do_trial,224,910644,0.0-122.0-0.0,"""event"",""trial"",""time""
""fullscreenenter"",""0"",""3611""
","
","
","""event"",""trial"",""time""
""fullscreenenter"",""0"",""3611""
","
",629.2,,,,,,,,51,"0,0,0",1,highway,65,probe-208,0.193054446,0.290663432,0.585197918,0,,,,,,,,
,html-keyboard-response,225,911651,0.0-122.0-1.0,"""event"",""trial"",""time""
""fullscreenenter"",""0"",""3611""
","
","
","""event"",""trial"",""time""
""fullscreenenter"",""0"",""3611""
","
",null,<p></p>,null,,,,,,,,,,,,,,,,,,,,,,,
,do_trial,226,916572,0.0-123.0-0.0,"""event"",""trial"",""time""
""fullscreenenter"",""0"",""3611""
","
","
","""event"",""trial"",""time""
""fullscreenenter"",""0"",""3611""
","
",377,,,,,,,,50,"1,0,0",1,highway,66,probe-181,0.208002218,0.279383218,0.631969017,0,,,,,,,,
,html-keyboard-response,227,917577,0.0-123.0-1.0,"""event"",""trial"",""time""
""fullscreenenter"",""0"",""3611""
","
","
","""event"",""trial"",""time""
""fullscreenenter"",""0"",""3611""
","
",null,<p></p>,null,,,,,,,,,,,,,,,,,,,,,,,
,do_trial,228,922435,0.0-124.0-0.0,"""event"",""trial"",""time""
""fullscreenenter"",""0"",""3611""
","
","
","""event"",""trial"",""time""
""fullscreenenter"",""0"",""3611""
","
",314.4,,,,,,,,50,"0,1,1",1,highway,67,probe-184,0.242987939,0.293148634,0.639730593,1,,,,,,,,
,html-keyboard-response,229,923437,0.0-124.0-1.0,"""event"",""trial"",""time""
""fullscreenenter"",""0"",""3611""
","
","
","""event"",""trial"",""time""
""fullscreenenter"",""0"",""3611""
","
",null,<p></p>,null,,,,,,,,,,,,,,,,,,,,,,,
,do_trial,230,928852,0.0-125.0-0.0,"""event"",""trial"",""time""
""fullscreenenter"",""0"",""3611""
","
","
","""event"",""trial"",""time""
""fullscreenenter"",""0"",""3611""
","
",876,,,,,,,,51,"0,1,0",1,highway,68,probe-32,0.185479758,0.353496959,0.487353005,0,,,,,,,,
,html-keyboard-response,231,929858,0.0-125.0-1.0,"""event"",""trial"",""time""
""fullscreenenter"",""0"",""3611""
","
","
","""event"",""trial"",""time""
""fullscreenenter"",""0"",""3611""
","
",null,<p></p>,null,,,,,,,,,,,,,,,,,,,,,,,
,do_trial,232,934728,0.0-126.0-0.0,"""event"",""trial"",""time""
""fullscreenenter"",""0"",""3611""
","
","
","""event"",""trial"",""time""
""fullscreenenter"",""0"",""3611""
","
",328.3,,,,,,,,49,"0,1,1",1,highway,69,probe-94,0.329644908,0.397261904,0.490335506,0,,,,,,,,
,html-keyboard-response,233,935733,0.0-126.0-1.0,"""event"",""trial"",""time""
""fullscreenenter"",""0"",""3611""
","
","
","""event"",""trial"",""time""
""fullscreenenter"",""0"",""3611""
","
",null,<p></p>,null,,,,,,,,,,,,,,,,,,,,,,,
,do_bye,234,937240,0.0-127.0-0.0,"""event"",""trial"",""time""
""fullscreenenter"",""0"",""3611""
","
","
","""event"",""trial"",""time""
""fullscreenenter"",""0"",""3611""
","
",null,,,,,,,,null,,,,,,,,,,,,,,,,,
,break,235,960250,0.0-127.0-1.0,"""event"",""trial"",""time""
""fullscreenenter"",""0"",""3611""
","
","
","""event"",""trial"",""time""
""fullscreenenter"",""0"",""3611""
","
",23009.1,"<div class='center'><p>Time to take a quick break! You have 2 minutes to rest, but you can move on sooner if you'd like.</p><p> Press the <b>space bar</b> to continue.</p></div>",32,,,,,,,,,,,,,,,,,,,,,,,
,do_travel,236,969256,0.0-128.0-0.0,"""event"",""trial"",""time""
""fullscreenenter"",""0"",""3611""
","
","
","""event"",""trial"",""time""
""fullscreenenter"",""0"",""3611""
","
",null,,,,,,,,null,,,,,,,,,,,,,,,,,
,do_welcome,237,973262,0.0-128.0-1.0,"""event"",""trial"",""time""
""fullscreenenter"",""0"",""3611""
","
","
","""event"",""trial"",""time""
""fullscreenenter"",""0"",""3611""
","
",null,,,,,,,,null,,,,,,,,,,,,,,,,,
,do_trial,238,978668,0.0-129.0-0.0,"""event"",""trial"",""time""
""fullscreenenter"",""0"",""3611""
","
","
","""event"",""trial"",""time""
""fullscreenenter"",""0"",""3611""
","
",865.2,,,,,,,,49,"0,0,1",2,mountain,70,probe-170,0.079721637,0.210533405,1,0,,,,,,,,
,html-keyboard-response,239,979673,0.0-129.0-1.0,"""event"",""trial"",""time""
""fullscreenenter"",""0"",""3611""
","
","
","""event"",""trial"",""time""
""fullscreenenter"",""0"",""3611""
","
",null,<p></p>,null,,,,,,,,,,,,,,,,,,,,,,,
,do_trial,240,984593,0.0-130.0-0.0,"""event"",""trial"",""time""
""fullscreenenter"",""0"",""3611""
","
","
","""event"",""trial"",""time""
""fullscreenenter"",""0"",""3611""
","
",377.5,,,,,,,,50,"0,0,1",2,mountain,71,probe-74,0.068269849,0.272485098,1,0,,,,,,,,
,html-keyboard-response,241,985598,0.0-130.0-1.0,"""event"",""trial"",""time""
""fullscreenenter"",""0"",""3611""
","
","
","""event"",""trial"",""time""
""fullscreenenter"",""0"",""3611""
","
",null,<p></p>,null,,,,,,,,,,,,,,,,,,,,,,,
,do_trial,242,990493,0.0-131.0-0.0,"""event"",""trial"",""time""
""fullscreenenter"",""0"",""3611""
","
","
","""event"",""trial"",""time""
""fullscreenenter"",""0"",""3611""
","
",351.9,,,,,,,,51,"0,0,1",2,mountain,72,probe-81,0.109590723,0.29234788,0.849499069,1,,,,,,,,
,html-keyboard-response,243,991499,0.0-131.0-1.0,"""event"",""trial"",""time""
""fullscreenenter"",""0"",""3611""
","
","
","""event"",""trial"",""time""
""fullscreenenter"",""0"",""3611""
","
",null,<p></p>,null,,,,,,,,,,,,,,,,,,,,,,,
,do_trial,244,996355,0.0-132.0-0.0,"""event"",""trial"",""time""
""fullscreenenter"",""0"",""3611""
","
","
","""event"",""trial"",""time""
""fullscreenenter"",""0"",""3611""
","
",313.5,,,,,,,,51,"0,0,1",2,mountain,73,probe-85,0.074536153,0.22983043,0.815383159,1,,,,,,,,
,html-keyboard-response,245,997361,0.0-132.0-1.0,"""event"",""trial"",""time""
""fullscreenenter"",""0"",""3611""
","
","
","""event"",""trial"",""time""
""fullscreenenter"",""0"",""3611""
","
",null,<p></p>,null,,,,,,,,,,,,,,,,,,,,,,,
,do_trial,246,1002550,0.0-133.0-0.0,"""event"",""trial"",""time""
""fullscreenenter"",""0"",""3611""
","
","
","""event"",""trial"",""time""
""fullscreenenter"",""0"",""3611""
","
",650.3,,,,,,,,51,"0,0,1",2,mountain,74,probe-228,0.065260602,0.191807599,0.70739811,1,,,,,,,,
,html-keyboard-response,247,1003554,0.0-133.0-1.0,"""event"",""trial"",""time""
""fullscreenenter"",""0"",""3611""
","
","
","""event"",""trial"",""time""
""fullscreenenter"",""0"",""3611""
","
",null,<p></p>,null,,,,,,,,,,,,,,,,,,,,,,,
,do_trial,248,1008724,0.0-134.0-0.0,"""event"",""trial"",""time""
""fullscreenenter"",""0"",""3611""
","
","
","""event"",""trial"",""time""
""fullscreenenter"",""0"",""3611""
","
",625,,,,,,,,50,"0,0,1",2,mountain,75,probe-77,0.084908768,0.400960471,0.545169905,0,,,,,,,,
,html-keyboard-response,249,1009730,0.0-134.0-1.0,"""event"",""trial"",""time""
""fullscreenenter"",""0"",""3611""
","
","
","""event"",""trial"",""time""
""fullscreenenter"",""0"",""3611""
","
",null,<p></p>,null,,,,,,,,,,,,,,,,,,,,,,,
,do_trial,250,1014843,0.0-135.0-0.0,"""event"",""trial"",""time""
""fullscreenenter"",""0"",""3611""
","
","
","""event"",""trial"",""time""
""fullscreenenter"",""0"",""3611""
","
",568.5,,,,,,,,51,"0,1,1",2,mountain,76,probe-187,0.195830737,0.41957774,0.490654822,1,,,,,,,,
,html-keyboard-response,251,1015850,0.0-135.0-1.0,"""event"",""trial"",""time""
""fullscreenenter"",""0"",""3611""
","
","
","""event"",""trial"",""time""
""fullscreenenter"",""0"",""3611""
","
",null,<p></p>,null,,,,,,,,,,,,,,,,,,,,,,,
,do_trial,252,1021958,0.0-136.0-0.0,"""event"",""trial"",""time""
""fullscreenenter"",""0"",""3611""
","
","
","""event"",""trial"",""time""
""fullscreenenter"",""0"",""3611""
","
",1565.3,,,,,,,,51,"0,0,0",2,mountain,77,probe-58,0.053601605,0.382853908,0.407240942,0,,,,,,,,
,html-keyboard-response,253,1022963,0.0-136.0-1.0,"""event"",""trial"",""time""
""fullscreenenter"",""0"",""3611""
","
","
","""event"",""trial"",""time""
""fullscreenenter"",""0"",""3611""
","
",null,<p></p>,null,,,,,,,,,,,,,,,,,,,,,,,
,do_trial,254,1027939,0.0-137.0-0.0,"""event"",""trial"",""time""
""fullscreenenter"",""0"",""3611""
","
","
","""event"",""trial"",""time""
""fullscreenenter"",""0"",""3611""
","
",436.9,,,,,,,,50,"0,0,0",2,mountain,78,probe-31,0.179245774,0.425390954,0.455490051,0,,,,,,,,
,html-keyboard-response,255,1028944,0.0-137.0-1.0,"""event"",""trial"",""time""
""fullscreenenter"",""0"",""3611""
","
","
","""event"",""trial"",""time""
""fullscreenenter"",""0"",""3611""
","
",null,<p></p>,null,,,,,,,,,,,,,,,,,,,,,,,
,do_trial,256,1033767,0.0-138.0-0.0,"""event"",""trial"",""time""
""fullscreenenter"",""0"",""3611""
","
","
","""event"",""trial"",""time""
""fullscreenenter"",""0"",""3611""
","
",283.7,,,,,,,,49,"0,0,1",2,mountain,79,probe-39,0.334450574,0.343652424,0.486977925,0,,,,,,,,
,html-keyboard-response,257,1034773,0.0-138.0-1.0,"""event"",""trial"",""time""
""fullscreenenter"",""0"",""3611""
","
","
","""event"",""trial"",""time""
""fullscreenenter"",""0"",""3611""
","
",null,<p></p>,null,,,,,,,,,,,,,,,,,,,,,,,
,do_trial,258,1039854,0.0-139.0-0.0,"""event"",""trial"",""time""
""fullscreenenter"",""0"",""3611""
","
","
","""event"",""trial"",""time""
""fullscreenenter"",""0"",""3611""
","
",538.8,,,,,,,,51,"0,0,1",2,mountain,80,probe-13,0.329523823,0.434338584,0.517530287,1,,,,,,,,
,html-keyboard-response,259,1040856,0.0-139.0-1.0,"""event"",""trial"",""time""
""fullscreenenter"",""0"",""3611""
","
","
","""event"",""trial"",""time""
""fullscreenenter"",""0"",""3611""
","
",null,<p></p>,null,,,,,,,,,,,,,,,,,,,,,,,
,do_trial,260,1045814,0.0-140.0-0.0,"""event"",""trial"",""time""
""fullscreenenter"",""0"",""3611""
","
","
","""event"",""trial"",""time""
""fullscreenenter"",""0"",""3611""
","
",415.2,,,,,,,,49,"0,0,1",2,mountain,81,probe-163,0.271144888,0.411765486,0.421348299,0,,,,,,,,
,html-keyboard-response,261,1046819,0.0-140.0-1.0,"""event"",""trial"",""time""
""fullscreenenter"",""0"",""3611""
","
","
","""event"",""trial"",""time""
""fullscreenenter"",""0"",""3611""
","
",null,<p></p>,null,,,,,,,,,,,,,,,,,,,,,,,
,do_trial,262,1051661,0.0-141.0-0.0,"""event"",""trial"",""time""
""fullscreenenter"",""0"",""3611""
","
","
","""event"",""trial"",""time""
""fullscreenenter"",""0"",""3611""
","
",298.9,,,,,,,,51,"1,1,0",2,mountain,82,probe-03,0.38674336,0.588793929,0.095403867,0,,,,,,,,
,html-keyboard-response,263,1052666,0.0-141.0-1.0,"""event"",""trial"",""time""
""fullscreenenter"",""0"",""3611""
","
","
","""event"",""trial"",""time""
""fullscreenenter"",""0"",""3611""
","
",null,<p></p>,null,,,,,,,,,,,,,,,,,,,,,,,
,do_trial,264,1057549,0.0-142.0-0.0,"""event"",""trial"",""time""
""fullscreenenter"",""0"",""3611""
","
","
","""event"",""trial"",""time""
""fullscreenenter"",""0"",""3611""
","
",339.4,,,,,,,,51,"1,1,0",2,mountain,83,probe-180,0.209861613,0.51264844,0.102205029,0,,,,,,,,
,html-keyboard-response,265,1058555,0.0-142.0-1.0,"""event"",""trial"",""time""
""fullscreenenter"",""0"",""3611""
","
","
","""event"",""trial"",""time""
""fullscreenenter"",""0"",""3611""
","
",null,<p></p>,null,,,,,,,,,,,,,,,,,,,,,,,
,do_trial,266,1063482,0.0-143.0-0.0,"""event"",""trial"",""time""
""fullscreenenter"",""0"",""3611""
","
","
","""event"",""trial"",""time""
""fullscreenenter"",""0"",""3611""
","
",382.3,,,,,,,,50,"0,0,0",2,mountain,84,probe-157,0.405841519,0.537776632,0.079468322,0,,,,,,,,
,html-keyboard-response,267,1064487,0.0-143.0-1.0,"""event"",""trial"",""time""
""fullscreenenter"",""0"",""3611""
","
","
","""event"",""trial"",""time""
""fullscreenenter"",""0"",""3611""
","
",null,<p></p>,null,,,,,,,,,,,,,,,,,,,,,,,
,do_trial,268,1069349,0.0-144.0-0.0,"""event"",""trial"",""time""
""fullscreenenter"",""0"",""3611""
","
","
","""event"",""trial"",""time""
""fullscreenenter"",""0"",""3611""
","
",323.3,,,,,,,,50,"1,1,0",2,mountain,85,probe-84,0.315668023,0.747872624,0.185482887,1,,,,,,,,
,html-keyboard-response,269,1070354,0.0-144.0-1.0,"""event"",""trial"",""time""
""fullscreenenter"",""0"",""3611""
","
","
","""event"",""trial"",""time""
""fullscreenenter"",""0"",""3611""
","
",null,<p></p>,null,,,,,,,,,,,,,,,,,,,,,,,
,do_trial,270,1075289,0.0-145.0-0.0,"""event"",""trial"",""time""
""fullscreenenter"",""0"",""3611""
","
","
","""event"",""trial"",""time""
""fullscreenenter"",""0"",""3611""
","
",393.2,,,,,,,,50,"0,0,0",2,mountain,86,probe-67,0.336187917,0.55497299,0.156011632,0,,,,,,,,
,html-keyboard-response,271,1076295,0.0-145.0-1.0,"""event"",""trial"",""time""
""fullscreenenter"",""0"",""3611""
","
","
","""event"",""trial"",""time""
""fullscreenenter"",""0"",""3611""
","
",null,<p></p>,null,,,,,,,,,,,,,,,,,,,,,,,
,do_trial,272,1081157,0.0-146.0-0.0,"""event"",""trial"",""time""
""fullscreenenter"",""0"",""3611""
","
","
","""event"",""trial"",""time""
""fullscreenenter"",""0"",""3611""
","
",321.7,,,,,,,,50,"0,0,0",2,mountain,87,probe-23,0.350798482,0.730927258,0.205574009,0,,,,,,,,
,html-keyboard-response,273,1082161,0.0-146.0-1.0,"""event"",""trial"",""time""
""fullscreenenter"",""0"",""3611""
","
","
","""event"",""trial"",""time""
""fullscreenenter"",""0"",""3611""
","
",null,<p></p>,null,,,,,,,,,,,,,,,,,,,,,,,
,do_trial,274,1087223,0.0-147.0-0.0,"""event"",""trial"",""time""
""fullscreenenter"",""0"",""3611""
","
","
","""event"",""trial"",""time""
""fullscreenenter"",""0"",""3611""
","
",518.5,,,,,,,,51,"1,1,1",2,mountain,88,probe-117,0.431129261,0.593559692,0.266505601,1,,,,,,,,
,html-keyboard-response,275,1088228,0.0-147.0-1.0,"""event"",""trial"",""time""
""fullscreenenter"",""0"",""3611""
","
","
","""event"",""trial"",""time""
""fullscreenenter"",""0"",""3611""
","
",null,<p></p>,null,,,,,,,,,,,,,,,,,,,,,,,
,do_trial,276,1093295,0.0-148.0-0.0,"""event"",""trial"",""time""
""fullscreenenter"",""0"",""3611""
","
","
","""event"",""trial"",""time""
""fullscreenenter"",""0"",""3611""
","
",520.9,,,,,,,,51,"1,1,1",2,mountain,89,probe-124,0.305257742,0.573380172,0.217316065,1,,,,,,,,
,html-keyboard-response,277,1094299,0.0-148.0-1.0,"""event"",""trial"",""time""
""fullscreenenter"",""0"",""3611""
","
","
","""event"",""trial"",""time""
""fullscreenenter"",""0"",""3611""
","
",null,<p></p>,null,,,,,,,,,,,,,,,,,,,,,,,
,do_trial,278,1099166,0.0-149.0-0.0,"""event"",""trial"",""time""
""fullscreenenter"",""0"",""3611""
","
","
","""event"",""trial"",""time""
""fullscreenenter"",""0"",""3611""
","
",326.4,,,,,,,,51,"1,1,0",2,mountain,90,probe-161,0.36776807,0.504175751,0.196450065,0,,,,,,,,
,html-keyboard-response,279,1100171,0.0-149.0-1.0,"""event"",""trial"",""time""
""fullscreenenter"",""0"",""3611""
","
","
","""event"",""trial"",""time""
""fullscreenenter"",""0"",""3611""
","
",null,<p></p>,null,,,,,,,,,,,,,,,,,,,,,,,
,do_trial,280,1105184,0.0-150.0-0.0,"""event"",""trial"",""time""
""fullscreenenter"",""0"",""3611""
","
","
","""event"",""trial"",""time""
""fullscreenenter"",""0"",""3611""
","
",460.5,,,,,,,,50,"1,1,0",2,mountain,91,probe-149,0.310473813,0.513257058,0.19866012,1,,,,,,,,
,html-keyboard-response,281,1106189,0.0-150.0-1.0,"""event"",""trial"",""time""
""fullscreenenter"",""0"",""3611""
","
","
","""event"",""trial"",""time""
""fullscreenenter"",""0"",""3611""
","
",null,<p></p>,null,,,,,,,,,,,,,,,,,,,,,,,
,do_trial,282,1111202,0.0-151.0-0.0,"""event"",""trial"",""time""
""fullscreenenter"",""0"",""3611""
","
","
","""event"",""trial"",""time""
""fullscreenenter"",""0"",""3611""
","
",469.5,,,,,,,,50,"0,0,0",2,mountain,92,probe-128,0.264403685,0.456209544,0.175576255,0,,,,,,,,
,html-keyboard-response,283,1112207,0.0-151.0-1.0,"""event"",""trial"",""time""
""fullscreenenter"",""0"",""3611""
","
","
","""event"",""trial"",""time""
""fullscreenenter"",""0"",""3611""
","
",null,<p></p>,null,,,,,,,,,,,,,,,,,,,,,,,
,do_trial,284,1117089,0.0-152.0-0.0,"""event"",""trial"",""time""
""fullscreenenter"",""0"",""3611""
","
","
","""event"",""trial"",""time""
""fullscreenenter"",""0"",""3611""
","
",343.1,,,,,,,,49,"0,1,0",2,mountain,93,probe-160,0.297851509,0.427852634,0.311026789,0,,,,,,,,
,html-keyboard-response,285,1118093,0.0-152.0-1.0,"""event"",""trial"",""time""
""fullscreenenter"",""0"",""3611""
","
","
","""event"",""trial"",""time""
""fullscreenenter"",""0"",""3611""
","
",null,<p></p>,null,,,,,,,,,,,,,,,,,,,,,,,
,do_trial,286,1123388,0.0-153.0-0.0,"""event"",""trial"",""time""
""fullscreenenter"",""0"",""3611""
","
","
","""event"",""trial"",""time""
""fullscreenenter"",""0"",""3611""
","
",755.4,,,,,,,,51,"0,0,0",2,mountain,94,probe-62,0.414200823,0.516423779,0.180580467,0,,,,,,,,
,html-keyboard-response,287,1124393,0.0-153.0-1.0,"""event"",""trial"",""time""
""fullscreenenter"",""0"",""3611""
","
","
","""event"",""trial"",""time""
""fullscreenenter"",""0"",""3611""
","
",null,<p></p>,null,,,,,,,,,,,,,,,,,,,,,,,
,do_trial,288,1129542,0.0-154.0-0.0,"""event"",""trial"",""time""
""fullscreenenter"",""0"",""3611""
","
","
","""event"",""trial"",""time""
""fullscreenenter"",""0"",""3611""
","
",607.8,,,,,,,,51,"0,0,0",2,mountain,95,probe-138,0.42533979,0.625033533,0.134754634,0,,,,,,,,
,html-keyboard-response,289,1130547,0.0-154.0-1.0,"""event"",""trial"",""time""
""fullscreenenter"",""0"",""3611""
","
","
","""event"",""trial"",""time""
""fullscreenenter"",""0"",""3611""
","
",null,<p></p>,null,,,,,,,,,,,,,,,,,,,,,,,
,do_trial,290,1135696,0.0-155.0-0.0,"""event"",""trial"",""time""
""fullscreenenter"",""0"",""3611""
","
","
","""event"",""trial"",""time""
""fullscreenenter"",""0"",""3611""
","
",606.1,,,,,,,,50,"1,1,0",2,mountain,96,probe-115,0.467516244,0.588857377,0.167818256,1,,,,,,,,
,html-keyboard-response,291,1136701,0.0-155.0-1.0,"""event"",""trial"",""time""
""fullscreenenter"",""0"",""3611""
","
","
","""event"",""trial"",""time""
""fullscreenenter"",""0"",""3611""
","
",null,<p></p>,null,,,,,,,,,,,,,,,,,,,,,,,
,do_trial,292,1141639,0.0-156.0-0.0,"""event"",""trial"",""time""
""fullscreenenter"",""0"",""3611""
","
","
","""event"",""trial"",""time""
""fullscreenenter"",""0"",""3611""
","
",394.3,,,,,,,,50,"1,0,0",2,mountain,97,probe-02,0.430774858,0.649308655,0.090203864,0,,,,,,,,
,html-keyboard-response,293,1142644,0.0-156.0-1.0,"""event"",""trial"",""time""
""fullscreenenter"",""0"",""3611""
","
","
","""event"",""trial"",""time""
""fullscreenenter"",""0"",""3611""
","
",null,<p></p>,null,,,,,,,,,,,,,,,,,,,,,,,
,do_trial,294,1147719,0.0-157.0-0.0,"""event"",""trial"",""time""
""fullscreenenter"",""0"",""3611""
","
","
","""event"",""trial"",""time""
""fullscreenenter"",""0"",""3611""
","
",536.7,,,,,,,,50,"0,1,1",2,mountain,98,probe-72,0.285581988,0.700169988,0.050882959,1,,,,,,,,
,html-keyboard-response,295,1148724,0.0-157.0-1.0,"""event"",""trial"",""time""
""fullscreenenter"",""0"",""3611""
","
","
","""event"",""trial"",""time""
""fullscreenenter"",""0"",""3611""
","
",null,<p></p>,null,,,,,,,,,,,,,,,,,,,,,,,
,do_trial,296,1153630,0.0-158.0-0.0,"""event"",""trial"",""time""
""fullscreenenter"",""0"",""3611""
","
","
","""event"",""trial"",""time""
""fullscreenenter"",""0"",""3611""
","
",361.9,,,,,,,,50,"0,1,0",2,mountain,99,probe-136,0.285999636,0.614699752,0.14337696,1,,,,,,,,
,html-keyboard-response,297,1154637,0.0-158.0-1.0,"""event"",""trial"",""time""
""fullscreenenter"",""0"",""3611""
","
","
","""event"",""trial"",""time""
""fullscreenenter"",""0"",""3611""
","
",null,<p></p>,null,,,,,,,,,,,,,,,,,,,,,,,
,do_trial,298,1159667,0.0-159.0-0.0,"""event"",""trial"",""time""
""fullscreenenter"",""0"",""3611""
","
","
","""event"",""trial"",""time""
""fullscreenenter"",""0"",""3611""
","
",486.1,,,,,,,,50,"1,1,0",2,mountain,100,probe-27,0.272157098,0.63465971,0.079155778,1,,,,,,,,
,html-keyboard-response,299,1160672,0.0-159.0-1.0,"""event"",""trial"",""time""
""fullscreenenter"",""0"",""3611""
","
","
","""event"",""trial"",""time""
""fullscreenenter"",""0"",""3611""
","
",null,<p></p>,null,,,,,,,,,,,,,,,,,,,,,,,
,do_trial,300,1165639,0.0-160.0-0.0,"""event"",""trial"",""time""
""fullscreenenter"",""0"",""3611""
","
","
","""event"",""trial"",""time""
""fullscreenenter"",""0"",""3611""
","
",427.6,,,,,,,,50,"0,1,0",2,mountain,101,probe-210,0.250845417,0.729850536,0.180992863,1,,,,,,,,
,html-keyboard-response,301,1166644,0.0-160.0-1.0,"""event"",""trial"",""time""
""fullscreenenter"",""0"",""3611""
","
","
","""event"",""trial"",""time""
""fullscreenenter"",""0"",""3611""
","
",null,<p></p>,null,,,,,,,,,,,,,,,,,,,,,,,
,do_trial,302,1171562,0.0-161.0-0.0,"""event"",""trial"",""time""
""fullscreenenter"",""0"",""3611""
","
","
","""event"",""trial"",""time""
""fullscreenenter"",""0"",""3611""
","
",374.3,,,,,,,,50,"0,1,1",2,mountain,102,probe-30,0.264158807,0.609331845,0.244144645,1,,,,,,,,
,html-keyboard-response,303,1172567,0.0-161.0-1.0,"""event"",""trial"",""time""
""fullscreenenter"",""0"",""3611""
","
","
","""event"",""trial"",""time""
""fullscreenenter"",""0"",""3611""
","
",null,<p></p>,null,,,,,,,,,,,,,,,,,,,,,,,
,do_trial,304,1177563,0.0-162.0-0.0,"""event"",""trial"",""time""
""fullscreenenter"",""0"",""3611""
","
","
","""event"",""trial"",""time""
""fullscreenenter"",""0"",""3611""
","
",452.5,,,,,,,,50,"1,1,0",2,mountain,103,probe-148,0.29189322,0.545409783,0.225780372,1,,,,,,,,
,html-keyboard-response,305,1178569,0.0-162.0-1.0,"""event"",""trial"",""time""
""fullscreenenter"",""0"",""3611""
","
","
","""event"",""trial"",""time""
""fullscreenenter"",""0"",""3611""
","
",null,<p></p>,null,,,,,,,,,,,,,,,,,,,,,,,
,do_trial,306,1183450,0.0-163.0-0.0,"""event"",""trial"",""time""
""fullscreenenter"",""0"",""3611""
","
","
","""event"",""trial"",""time""
""fullscreenenter"",""0"",""3611""
","
",338,,,,,,,,50,"0,0,0",2,mountain,104,probe-73,0.271065741,0.594865215,0.226814278,0,,,,,,,,
,html-keyboard-response,307,1184455,0.0-163.0-1.0,"""event"",""trial"",""time""
""fullscreenenter"",""0"",""3611""
","
","
","""event"",""trial"",""time""
""fullscreenenter"",""0"",""3611""
","
",null,<p></p>,null,,,,,,,,,,,,,,,,,,,,,,,
,do_trial,308,1189427,0.0-164.0-0.0,"""event"",""trial"",""time""
""fullscreenenter"",""0"",""3611""
","
","
","""event"",""trial"",""time""
""fullscreenenter"",""0"",""3611""
","
",431.4,,,,,,,,50,"0,1,0",2,mountain,105,probe-64,0.359128777,0.607096807,0.178614667,1,,,,,,,,
,html-keyboard-response,309,1190434,0.0-164.0-1.0,"""event"",""trial"",""time""
""fullscreenenter"",""0"",""3611""
","
","
","""event"",""trial"",""time""
""fullscreenenter"",""0"",""3611""
","
",null,<p></p>,null,,,,,,,,,,,,,,,,,,,,,,,
,do_trial,310,1195780,0.0-165.0-0.0,"""event"",""trial"",""time""
""fullscreenenter"",""0"",""3611""
","
","
","""event"",""trial"",""time""
""fullscreenenter"",""0"",""3611""
","
",803.5,,,,,,,,50,"1,1,0",2,mountain,106,probe-51,0.252414512,0.836913977,0.085762895,1,,,,,,,,
,html-keyboard-response,311,1196785,0.0-165.0-1.0,"""event"",""trial"",""time""
""fullscreenenter"",""0"",""3611""
","
","
","""event"",""trial"",""time""
""fullscreenenter"",""0"",""3611""
","
",null,<p></p>,null,,,,,,,,,,,,,,,,,,,,,,,
,do_trial,312,1202498,0.0-166.0-0.0,"""event"",""trial"",""time""
""fullscreenenter"",""0"",""3611""
","
","
","""event"",""trial"",""time""
""fullscreenenter"",""0"",""3611""
","
",1167.7,,,,,,,,50,"0,1,0",2,mountain,107,probe-192,0.194250458,0.77223034,0.088219651,1,,,,,,,,
,html-keyboard-response,313,1203503,0.0-166.0-1.0,"""event"",""trial"",""time""
""fullscreenenter"",""0"",""3611""
","
","
","""event"",""trial"",""time""
""fullscreenenter"",""0"",""3611""
","
",null,<p></p>,null,,,,,,,,,,,,,,,,,,,,,,,
,do_trial,314,1209775,0.0-167.0-0.0,"""event"",""trial"",""time""
""fullscreenenter"",""0"",""3611""
","
","
","""event"",""trial"",""time""
""fullscreenenter"",""0"",""3611""
","
",1733.3,,,,,,,,50,"0,0,0",2,mountain,108,probe-198,0.157765492,0.625557518,0.114977532,0,,,,,,,,
,html-keyboard-response,315,1210780,0.0-167.0-1.0,"""event"",""trial"",""time""
""fullscreenenter"",""0"",""3611""
","
","
","""event"",""trial"",""time""
""fullscreenenter"",""0"",""3611""
","
",null,<p></p>,null,,,,,,,,,,,,,,,,,,,,,,,
,do_trial,316,1215670,0.0-168.0-0.0,"""event"",""trial"",""time""
""fullscreenenter"",""0"",""3611""
","
","
","""event"",""trial"",""time""
""fullscreenenter"",""0"",""3611""
","
",343.4,,,,,,,,50,"0,1,0",2,mountain,109,probe-100,0.266122652,0.562596713,0.133414724,1,,,,,,,,
,html-keyboard-response,317,1216671,0.0-168.0-1.0,"""event"",""trial"",""time""
""fullscreenenter"",""0"",""3611""
","
","
","""event"",""trial"",""time""
""fullscreenenter"",""0"",""3611""
","
",null,<p></p>,null,,,,,,,,,,,,,,,,,,,,,,,
,do_bye,318,1218182,0.0-169.0-0.0,"""event"",""trial"",""time""
""fullscreenenter"",""0"",""3611""
","
","
","""event"",""trial"",""time""
""fullscreenenter"",""0"",""3611""
","
",null,,,,,,,,null,,,,,,,,,,,,,,,,,
,break,319,1247652,0.0-169.0-1.0,"""event"",""trial"",""time""
""fullscreenenter"",""0"",""3611""
","
","
","""event"",""trial"",""time""
""fullscreenenter"",""0"",""3611""
","
",29468.6,"<div class='center'><p>Time to take a quick break! You have 2 minutes to rest, but you can move on sooner if you'd like.</p><p> Press the <b>space bar</b> to continue.</p></div>",32,,,,,,,,,,,,,,,,,,,,,,,
,do_travel,320,1256656,0.0-170.0-0.0,"""event"",""trial"",""time""
""fullscreenenter"",""0"",""3611""
","
","
","""event"",""trial"",""time""
""fullscreenenter"",""0"",""3611""
","
",null,,,,,,,,null,,,,,,,,,,,,,,,,,
,do_welcome,321,1260663,0.0-170.0-1.0,"""event"",""trial"",""time""
""fullscreenenter"",""0"",""3611""
","
","
","""event"",""trial"",""time""
""fullscreenenter"",""0"",""3611""
","
",null,,,,,,,,null,,,,,,,,,,,,,,,,,
,do_trial,322,1266245,0.0-171.0-0.0,"""event"",""trial"",""time""
""fullscreenenter"",""0"",""3611""
","
","
","""event"",""trial"",""time""
""fullscreenenter"",""0"",""3611""
","
",1041.2,,,,,,,,49,"0,1,1",3,forest,110,probe-48,0.177872419,1,0.157953483,0,,,,,,,,
,html-keyboard-response,323,1267246,0.0-171.0-1.0,"""event"",""trial"",""time""
""fullscreenenter"",""0"",""3611""
","
","
","""event"",""trial"",""time""
""fullscreenenter"",""0"",""3611""
","
",null,<p></p>,null,,,,,,,,,,,,,,,,,,,,,,,
,do_trial,324,1272172,0.0-172.0-0.0,"""event"",""trial"",""time""
""fullscreenenter"",""0"",""3611""
","
","
","""event"",""trial"",""time""
""fullscreenenter"",""0"",""3611""
","
",386.6,,,,,,,,51,"0,1,0",3,forest,111,probe-37,0.259547188,1,0.074860825,0,,,,,,,,
,html-keyboard-response,325,1273177,0.0-172.0-1.0,"""event"",""trial"",""time""
""fullscreenenter"",""0"",""3611""
","
","
","""event"",""trial"",""time""
""fullscreenenter"",""0"",""3611""
","
",null,<p></p>,null,,,,,,,,,,,,,,,,,,,,,,,
,do_trial,326,1277878,0.0-173.0-0.0,"""event"",""trial"",""time""
""fullscreenenter"",""0"",""3611""
","
","
","""event"",""trial"",""time""
""fullscreenenter"",""0"",""3611""
","
",161.1,,,,,,,,50,"0,1,0",3,forest,112,probe-225,0.233518723,0.847412696,0.077347064,1,,,,,,,,
,html-keyboard-response,327,1278883,0.0-173.0-1.0,"""event"",""trial"",""time""
""fullscreenenter"",""0"",""3611""
","
","
","""event"",""trial"",""time""
""fullscreenenter"",""0"",""3611""
","
",null,<p></p>,null,,,,,,,,,,,,,,,,,,,,,,,
,do_trial,328,1283767,0.0-174.0-0.0,"""event"",""trial"",""time""
""fullscreenenter"",""0"",""3611""
","
","
","""event"",""trial"",""time""
""fullscreenenter"",""0"",""3611""
","
",340.7,,,,,,,,50,"0,0,0",3,forest,113,probe-43,0.223724591,0.832490238,0.057863188,0,,,,,,,,
,html-keyboard-response,329,1284773,0.0-174.0-1.0,"""event"",""trial"",""time""
""fullscreenenter"",""0"",""3611""
","
","
","""event"",""trial"",""time""
""fullscreenenter"",""0"",""3611""
","
",null,<p></p>,null,,,,,,,,,,,,,,,,,,,,,,,
,do_trial,330,1289608,0.0-175.0-0.0,"""event"",""trial"",""time""
""fullscreenenter"",""0"",""3611""
","
","
","""event"",""trial"",""time""
""fullscreenenter"",""0"",""3611""
","
",292.3,,,,,,,,49,"0,0,0",3,forest,114,probe-133,0.204151359,0.722709338,0.059606485,0,,,,,,,,
,html-keyboard-response,331,1290610,0.0-175.0-1.0,"""event"",""trial"",""time""
""fullscreenenter"",""0"",""3611""
","
","
","""event"",""trial"",""time""
""fullscreenenter"",""0"",""3611""
","
",null,<p></p>,null,,,,,,,,,,,,,,,,,,,,,,,
,do_trial,332,1295554,0.0-176.0-0.0,"""event"",""trial"",""time""
""fullscreenenter"",""0"",""3611""
","
","
","""event"",""trial"",""time""
""fullscreenenter"",""0"",""3611""
","
",397.6,,,,,,,,51,"0,1,0",3,forest,115,probe-06,0.180995879,0.687557883,0.050771439,0,,,,,,,,
,html-keyboard-response,333,1296559,0.0-176.0-1.0,"""event"",""trial"",""time""
""fullscreenenter"",""0"",""3611""
","
","
","""event"",""trial"",""time""
""fullscreenenter"",""0"",""3611""
","
