"success","trial_type","trial_index","time_elapsed","internal_node_id","interactions","blur_events","focus_events","fullscreenenter_events","fullscreenexit_events","rt","stimulus","key_press","subject_id","participant_id","age","gender","prompt","response","choice_outcomes","context_n","context_img_id","trial_n","probe_img_id","pR_red","pR_white","pR_black","outcome","contextArray_ind","validImageProbes","invalidImageProbes","pRew_Red","pRew_White","pRew_Black","availableForMemProbe","choice_blocks"
"true","fullscreen","0","5206","0.0-0.0","""event"",""trial"",""time""
""focus"",""0"",""0""
""fullscreenenter"",""0"",""4441""
","
","""event"",""trial"",""time""
""focus"",""0"",""0""
","""event"",""trial"",""time""
""fullscreenenter"",""0"",""4441""
","
","","","","","","","","","","","","","","","","","","","","","","","","","",""
"","pavlovia","1","5209","0.0-1.0","""event"",""trial"",""time""
""focus"",""0"",""0""
""fullscreenenter"",""0"",""4441""
","
","""event"",""trial"",""time""
""focus"",""0"",""0""
","""event"",""trial"",""time""
""fullscreenenter"",""0"",""4441""
","
","","","","","","","","","","","","","","","","","","","","","","","","","",""
"","instruc1","2","50347","0.0-2.0","""event"",""trial"",""time""
""focus"",""0"",""0""
""fullscreenenter"",""0"",""4441""
","
","""event"",""trial"",""time""
""focus"",""0"",""0""
","""event"",""trial"",""time""
""fullscreenenter"",""0"",""4441""
","
","null","run_exp/static/audio/clip_1_welcome.m4a","null","283","150","15","Male","<div class='center'><p>Welcome! This is the first part of the study. It will last ~30 minutes. In part 1 and part 2 of the study, you are the head captain of a pirate ship traveling around the world to different islands. You will play a few different games throughout these two parts. Here is an overview of them:</p><br><p>Part 1 (today)</p><p>1. Instructions, practice game, and quiz</p><p>2. Pick a pirate game on 6 different islands</p><br><p>Part 2 (tomorrow)</p><p>3. Pick a pirate game and memory game</p><p>4. Where did you see this ship? </p></div>","","","","","","","","","","","","","","","","","",""
"","html-keyboard-response","3","50818","0.0-3.0","""event"",""trial"",""time""
""focus"",""0"",""0""
""fullscreenenter"",""0"",""4441""
","
","""event"",""trial"",""time""
""focus"",""0"",""0""
","""event"",""trial"",""time""
""fullscreenenter"",""0"",""4441""
","
","468","<div class='center'><p>Welcome! This is the first part of the study. It will last ~30 minutes. In part 1 and part 2 of the study, you are the head captain of a pirate ship traveling around the world to different islands. You will play a few different games throughout these two parts. Here is an overview of them:</p><br><p>Part 1 (today)</p><p>1. Instructions, practice game, and quiz</p><p>2. Pick a pirate game on 6 different islands</p><br><p>Part 2 (tomorrow)</p><p>3. Pick a pirate game and memory game</p><p>4. Where did you see this ship? </p><p><b>[Press the space bar to continue]</b></p></div>","32","","","","","","","","","","","","","","","","","","","","","","",""
"","instruc2","4","56140","0.0-4.0","""event"",""trial"",""time""
""focus"",""0"",""0""
""fullscreenenter"",""0"",""4441""
","
","""event"",""trial"",""time""
""focus"",""0"",""0""
","""event"",""trial"",""time""
""fullscreenenter"",""0"",""4441""
","
","null","run_exp/static/audio/clip_2_different_places.m4a","null","","","","","<div class='center'><p>Today, you’ll visit these 6 islands on your journey. You'll be able to see these islands from your ship.</p><p><img src='run_exp/static/images/contexts/all_contexts.png' height='500'></p></div>","","","","","","","","","","","","","","","","","",""
"","html-keyboard-response","5","58420","0.0-5.0","""event"",""trial"",""time""
""focus"",""0"",""0""
""fullscreenenter"",""0"",""4441""
","
","""event"",""trial"",""time""
""focus"",""0"",""0""
","""event"",""trial"",""time""
""fullscreenenter"",""0"",""4441""
","
","2277","<div class='center'><p>Today, you’ll visit these 6 islands on your journey. You'll be able to see these islands from your ship.</p><p><img src='run_exp/static/images/contexts/all_contexts.png' height='500'></p><p><b>[Press the space bar to continue]</b></p></div>","32","","","","","","","","","","","","","","","","","","","","","","",""
"","instruc3","6","68119","0.0-6.0","""event"",""trial"",""time""
""focus"",""0"",""0""
""fullscreenenter"",""0"",""4441""
","
","""event"",""trial"",""time""
""focus"",""0"",""0""
","""event"",""trial"",""time""
""fullscreenenter"",""0"",""4441""
","
","null","run_exp/static/audio/clip_3_goal_of_game_1.m4a","null","","","","","<div class='center'><p> The pirates on your ship will rob other ships as they leave the island.</p> These ships have just sold their goods to the islanders, so they will be filled with lots and lots of gold.</p><p><img src='run_exp/static/images/tutorial/ship_center.png' height='400'></p></div>","","","","","","","","","","","","","","","","","",""
"","html-keyboard-response","7","69515","0.0-7.0","""event"",""trial"",""time""
""focus"",""0"",""0""
""fullscreenenter"",""0"",""4441""
","
","""event"",""trial"",""time""
""focus"",""0"",""0""
","""event"",""trial"",""time""
""fullscreenenter"",""0"",""4441""
","
","1394","<div class='center'><p> The pirates on your ship will rob other ships as they leave the island.</p> These ships have just sold their goods to the islanders, so they will be filled with lots and lots of gold.</p><p><img src='run_exp/static/images/tutorial/ship_center.png' height='400'></p><p><b>[Press the space bar to continue]</b></p></div>","32","","","","","","","","","","","","","","","","","","","","","","",""
"","instruc4","8","97520","0.0-8.0","""event"",""trial"",""time""
""focus"",""0"",""0""
""fullscreenenter"",""0"",""4441""
","
","""event"",""trial"",""time""
""focus"",""0"",""0""
","""event"",""trial"",""time""
""fullscreenenter"",""0"",""4441""
","
","null","run_exp/static/audio/clip_4_goal_of_game_2.m4a","null","","","","","<div class='center'><p>As the head captain, you do not have to rob any ships yourself. Another pirate will be doing the robbing for you. First, you will choose a pirate to rob the next ship.</p><p><img src='run_exp/static/images/tutorial/pirates_all_crop.png' height='200'></p><p>Then, you'll see if the pirate successfully robbed the ship of their gold. If they were successful, then you'll get a stack of gold coins like this:</p><p><img src='run_exp/static/images/tutorial/reward.png' height='150'></p><p> If they were <b>not</b> successful, then you'll get no gold coins, and you'll see a big red x like this: </p><p><img src='run_exp/static/images/tutorial/reward_no.png' height='150'></p><p> How much bonus money you make is based on how many gold coins you collect.</p><div>","","","","","","","","","","","","","","","","","",""
"","html-keyboard-response","9","99930","0.0-9.0","""event"",""trial"",""time""
""focus"",""0"",""0""
""fullscreenenter"",""0"",""4441""
","
","""event"",""trial"",""time""
""focus"",""0"",""0""
","""event"",""trial"",""time""
""fullscreenenter"",""0"",""4441""
","
","2406","<div class='center'><p>As the head captain, you do not have to rob any ships yourself. Another pirate will be doing the robbing for you. First, you will choose a pirate to rob the next ship.</p><p><img src='run_exp/static/images/tutorial/pirates_all_crop.png' height='200'></p><p>Then, you'll see if the pirate successfully robbed the ship of their gold. If they were successful, then you'll get a stack of gold coins like this:</p><p><img src='run_exp/static/images/tutorial/reward.png' height='150'></p><p> If they were <b>not</b> successful, then you'll get no gold coins, and you'll see a big red x like this: </p><p><img src='run_exp/static/images/tutorial/reward_no.png' height='150'></p><p> How much bonus money you make is based on how many gold coins you collect.</p<p><b>[Press the space bar to continue]</b></p></div>","32","","","","","","","","","","","","","","","","","","","","","","",""
"","instruc5","10","117609","0.0-10.0","""event"",""trial"",""time""
""focus"",""0"",""0""
""fullscreenenter"",""0"",""4441""
","
","""event"",""trial"",""time""
""focus"",""0"",""0""
","""event"",""trial"",""time""
""fullscreenenter"",""0"",""4441""
","
","17677","run_exp/static/audio/clip_5_probabilistic.m4a","49","","","","","<div class='center'><p>Even the most skilled pirate can not rob EVERY ship.</p><p> Some ships will have very strong protections against pirate attacks.</p><p> Blue beard, here, is very, very good at robbing ships, but he won't be successful every time he tries to rob one.</p><p> You can press the <b>‘1’</b> key on the keyboard to choose him.</p><p> Try choosing him 10 times to see how often he succeeds at robbing a ship. </p><p><img src='run_exp/static/images/tutorial/blue.png' height='500'></p></div>","","","","","","","","","","","","","","","","","",""
"","html-keyboard-response","11","119123","0.0-11.0","""event"",""trial"",""time""
""focus"",""0"",""0""
""fullscreenenter"",""0"",""4441""
","
","""event"",""trial"",""time""
""focus"",""0"",""0""
","""event"",""trial"",""time""
""fullscreenenter"",""0"",""4441""
","
","null","<div class='center'><p><img src='run_exp/static/images/tutorial/blue_win.png' height='500'></p></div>","null","","","","","","","","","","","","","","","","","","","","","","",""
"","html-keyboard-response","12","120271","0.0-12.0","""event"",""trial"",""time""
""focus"",""0"",""0""
""fullscreenenter"",""0"",""4441""
","
","""event"",""trial"",""time""
""focus"",""0"",""0""
","""event"",""trial"",""time""
""fullscreenenter"",""0"",""4441""
","
","1145","<div class='center'><img src='run_exp/static/images/tutorial/blue.png' height='500'></p></div>","49","","","","","","","","","","","","","","","","","","","","","","",""
"","html-keyboard-response","13","121773","0.0-13.0","""event"",""trial"",""time""
""focus"",""0"",""0""
""fullscreenenter"",""0"",""4441""
","
","""event"",""trial"",""time""
""focus"",""0"",""0""
","""event"",""trial"",""time""
""fullscreenenter"",""0"",""4441""
","
","null","<div class='center'><p><img src='run_exp/static/images/tutorial/blue_win.png' height='500'></p></div>","null","","","","","","","","","","","","","","","","","","","","","","",""
"","html-keyboard-response","14","121910","0.0-14.0","""event"",""trial"",""time""
""focus"",""0"",""0""
""fullscreenenter"",""0"",""4441""
","
","""event"",""trial"",""time""
""focus"",""0"",""0""
","""event"",""trial"",""time""
""fullscreenenter"",""0"",""4441""
","
","135","<div class='center'><img src='run_exp/static/images/tutorial/blue.png' height='500'></p></div>","49","","","","","","","","","","","","","","","","","","","","","","",""
"","html-keyboard-response","15","123413","0.0-15.0","""event"",""trial"",""time""
""focus"",""0"",""0""
""fullscreenenter"",""0"",""4441""
","
","""event"",""trial"",""time""
""focus"",""0"",""0""
","""event"",""trial"",""time""
""fullscreenenter"",""0"",""4441""
","
","null","<div class='center'><p><img src='run_exp/static/images/tutorial/blue_win.png' height='500'></p></div>","null","","","","","","","","","","","","","","","","","","","","","","",""
"","html-keyboard-response","16","123576","0.0-16.0","""event"",""trial"",""time""
""focus"",""0"",""0""
""fullscreenenter"",""0"",""4441""
","
","""event"",""trial"",""time""
""focus"",""0"",""0""
","""event"",""trial"",""time""
""fullscreenenter"",""0"",""4441""
","
","162","<div class='center'><img src='run_exp/static/images/tutorial/blue.png' height='500'></p></div>","49","","","","","","","","","","","","","","","","","","","","","","",""
"","html-keyboard-response","17","125093","0.0-17.0","""event"",""trial"",""time""
""focus"",""0"",""0""
""fullscreenenter"",""0"",""4441""
","
","""event"",""trial"",""time""
""focus"",""0"",""0""
","""event"",""trial"",""time""
""fullscreenenter"",""0"",""4441""
","
","null","<div class='center'><p><img src='run_exp/static/images/tutorial/blue_no_win.png' height='500'></p></div>","null","","","","","","","","","","","","","","","","","","","","","","",""
"","html-keyboard-response","18","125367","0.0-18.0","""event"",""trial"",""time""
""focus"",""0"",""0""
""fullscreenenter"",""0"",""4441""
","
","""event"",""trial"",""time""
""focus"",""0"",""0""
","""event"",""trial"",""time""
""fullscreenenter"",""0"",""4441""
","
","272","<div class='center'><img src='run_exp/static/images/tutorial/blue.png' height='500'></p></div>","49","","","","","","","","","","","","","","","","","","","","","","",""
"","html-keyboard-response","19","126883","0.0-19.0","""event"",""trial"",""time""
""focus"",""0"",""0""
""fullscreenenter"",""0"",""4441""
","
","""event"",""trial"",""time""
""focus"",""0"",""0""
","""event"",""trial"",""time""
""fullscreenenter"",""0"",""4441""
","
","null","<div class='center'><p><img src='run_exp/static/images/tutorial/blue_win.png' height='500'></p></div>","null","","","","","","","","","","","","","","","","","","","","","","",""
"","html-keyboard-response","20","127139","0.0-20.0","""event"",""trial"",""time""
""focus"",""0"",""0""
""fullscreenenter"",""0"",""4441""
","
","""event"",""trial"",""time""
""focus"",""0"",""0""
","""event"",""trial"",""time""
""fullscreenenter"",""0"",""4441""
","
","255","<div class='center'><img src='run_exp/static/images/tutorial/blue.png' height='500'></p></div>","49","","","","","","","","","","","","","","","","","","","","","","",""
"","html-keyboard-response","21","128642","0.0-21.0","""event"",""trial"",""time""
""focus"",""0"",""0""
""fullscreenenter"",""0"",""4441""
","
","""event"",""trial"",""time""
""focus"",""0"",""0""
","""event"",""trial"",""time""
""fullscreenenter"",""0"",""4441""
","
","null","<div class='center'><p><img src='run_exp/static/images/tutorial/blue_win.png' height='500'></p></div>","null","","","","","","","","","","","","","","","","","","","","","","",""
"","html-keyboard-response","22","128723","0.0-22.0","""event"",""trial"",""time""
""focus"",""0"",""0""
""fullscreenenter"",""0"",""4441""
","
","""event"",""trial"",""time""
""focus"",""0"",""0""
","""event"",""trial"",""time""
""fullscreenenter"",""0"",""4441""
","
","79","<div class='center'><img src='run_exp/static/images/tutorial/blue.png' height='500'></p></div>","49","","","","","","","","","","","","","","","","","","","","","","",""
"","html-keyboard-response","23","130243","0.0-23.0","""event"",""trial"",""time""
""focus"",""0"",""0""
""fullscreenenter"",""0"",""4441""
","
","""event"",""trial"",""time""
""focus"",""0"",""0""
","""event"",""trial"",""time""
""fullscreenenter"",""0"",""4441""
","
","null","<div class='center'><p><img src='run_exp/static/images/tutorial/blue_win.png' height='500'></p></div>","null","","","","","","","","","","","","","","","","","","","","","","",""
"","html-keyboard-response","24","130467","0.0-24.0","""event"",""trial"",""time""
""focus"",""0"",""0""
""fullscreenenter"",""0"",""4441""
","
","""event"",""trial"",""time""
""focus"",""0"",""0""
","""event"",""trial"",""time""
""fullscreenenter"",""0"",""4441""
","
","223","<div class='center'><img src='run_exp/static/images/tutorial/blue.png' height='500'></p></div>","49","","","","","","","","","","","","","","","","","","","","","","",""
"","html-keyboard-response","25","131973","0.0-25.0","""event"",""trial"",""time""
""focus"",""0"",""0""
""fullscreenenter"",""0"",""4441""
","
","""event"",""trial"",""time""
""focus"",""0"",""0""
","""event"",""trial"",""time""
""fullscreenenter"",""0"",""4441""
","
","null","<div class='center'><p><img src='run_exp/static/images/tutorial/blue_no_win.png' height='500'></p></div>","null","","","","","","","","","","","","","","","","","","","","","","",""
"","html-keyboard-response","26","132197","0.0-26.0","""event"",""trial"",""time""
""focus"",""0"",""0""
""fullscreenenter"",""0"",""4441""
","
","""event"",""trial"",""time""
""focus"",""0"",""0""
","""event"",""trial"",""time""
""fullscreenenter"",""0"",""4441""
","
","223","<div class='center'><img src='run_exp/static/images/tutorial/blue.png' height='500'></p></div>","49","","","","","","","","","","","","","","","","","","","","","","",""
"","html-keyboard-response","27","133712","0.0-27.0","""event"",""trial"",""time""
""focus"",""0"",""0""
""fullscreenenter"",""0"",""4441""
","
","""event"",""trial"",""time""
""focus"",""0"",""0""
","""event"",""trial"",""time""
""fullscreenenter"",""0"",""4441""
","
","null","<div class='center'><p><img src='run_exp/static/images/tutorial/blue_win.png' height='500'></p></div>","null","","","","","","","","","","","","","","","","","","","","","","",""
"","html-keyboard-response","28","133922","0.0-28.0","""event"",""trial"",""time""
""focus"",""0"",""0""
""fullscreenenter"",""0"",""4441""
","
","""event"",""trial"",""time""
""focus"",""0"",""0""
","""event"",""trial"",""time""
""fullscreenenter"",""0"",""4441""
","
","209","<div class='center'><img src='run_exp/static/images/tutorial/blue.png' height='500'></p></div>","49","","","","","","","","","","","","","","","","","","","","","","",""
"","html-keyboard-response","29","135443","0.0-29.0","""event"",""trial"",""time""
""focus"",""0"",""0""
""fullscreenenter"",""0"",""4441""
","
","""event"",""trial"",""time""
""focus"",""0"",""0""
","""event"",""trial"",""time""
""fullscreenenter"",""0"",""4441""
","
","null","<div class='center'><p><img src='run_exp/static/images/tutorial/blue_win.png' height='500'></p></div>","null","","","","","","","","","","","","","","","","","","","","","","",""
"","instruc6","30","140868","0.0-30.0","""event"",""trial"",""time""
""focus"",""0"",""0""
""fullscreenenter"",""0"",""4441""
","
","""event"",""trial"",""time""
""focus"",""0"",""0""
","""event"",""trial"",""time""
""fullscreenenter"",""0"",""4441""
","
","null","run_exp/static/audio/clip_6_blue_beard_outcome.m4a","null","","","","","<div class='center'><p> See, he succeeded in robbing the ships most of the time but not every time. </p></div>","","","","","","","","","","","","","","","","","",""
"","html-keyboard-response","31","142144","0.0-31.0","""event"",""trial"",""time""
""focus"",""0"",""0""
""fullscreenenter"",""0"",""4441""
","
","""event"",""trial"",""time""
""focus"",""0"",""0""
","""event"",""trial"",""time""
""fullscreenenter"",""0"",""4441""
","
","1275","<div class='center'><p> See, he succeeded in robbing the ships most of the time but not every time. </p><p><b>[Press the space bar to continue]</b></p></div>","32","","","","","","","","","","","","","","","","","","","","","","",""
"","audio-keyboard-response","32","158424","0.0-32.0","""event"",""trial"",""time""
""focus"",""0"",""0""
""fullscreenenter"",""0"",""4441""
","
","""event"",""trial"",""time""
""focus"",""0"",""0""
","""event"",""trial"",""time""
""fullscreenenter"",""0"",""4441""
","
","16277","run_exp/static/audio/clip_7_pick_pirate.m4a","51","","","","","","","","","","","","","","","","","","","","","","",""
"","audio-keyboard-response","33","161647","0.0-33.0-0.0","""event"",""trial"",""time""
""focus"",""0"",""0""
""fullscreenenter"",""0"",""4441""
","
","""event"",""trial"",""time""
""focus"",""0"",""0""
","""event"",""trial"",""time""
""fullscreenenter"",""0"",""4441""
","
","3219","run_exp/static/audio/clip_8_chosen_pirate_win.m4a","32","","","","","","","","","","","","","","","","","","","","","","",""
"","audio-keyboard-response","34","165334","0.0-33.0-1.0","""event"",""trial"",""time""
""focus"",""0"",""0""
""fullscreenenter"",""0"",""4441""
","
","""event"",""trial"",""time""
""focus"",""0"",""0""
","""event"",""trial"",""time""
""fullscreenenter"",""0"",""4441""
","
","3686","run_exp/static/audio/clip_9_pick_a_pirate_again.m4a","51","","","","","","","","","","","","","","","","","","","","","","",""
"","audio-keyboard-response","35","167471","0.0-34.0-0.0","""event"",""trial"",""time""
""focus"",""0"",""0""
""fullscreenenter"",""0"",""4441""
","
","""event"",""trial"",""time""
""focus"",""0"",""0""
","""event"",""trial"",""time""
""fullscreenenter"",""0"",""4441""
","
","2134","run_exp/static/audio/clip_10_chosen_pirate_loss.m4a","32","","","","","","","","","","","","","","","","","","","","","","",""
"","instruc9","36","172976","0.0-35.0-0.0","""event"",""trial"",""time""
""focus"",""0"",""0""
""fullscreenenter"",""0"",""4441""
","
","""event"",""trial"",""time""
""focus"",""0"",""0""
","""event"",""trial"",""time""
""fullscreenenter"",""0"",""4441""
","
","null","run_exp/static/audio/clip_11_time_out.m4a","null","","","","","<div class='center'><p>If you don’t make your choice fast enough, you’ll have to wait a few seconds before you can make another one. </p><p><img src='run_exp/static/images/miscellaneous/hurry_up.png' height='500'></p></div>","","","","","","","","","","","","","","","","","",""
"","html-keyboard-response","37","174080","0.0-35.0-1.0","""event"",""trial"",""time""
""focus"",""0"",""0""
""fullscreenenter"",""0"",""4441""
","
","""event"",""trial"",""time""
""focus"",""0"",""0""
","""event"",""trial"",""time""
""fullscreenenter"",""0"",""4441""
","
","1104","<div class='center'><p>If you don’t make your choice fast enough, you’ll have to wait a few seconds before you can make another one. </p><p><img src='run_exp/static/images/miscellaneous/hurry_up.png' height='500'></p><p><b>[Press the space bar to continue]</b></p></div>","32","","","","","","","","","","","","","","","","","","","","","","",""
"","instruc10","38","213179","0.0-35.0-2.0","""event"",""trial"",""time""
""focus"",""0"",""0""
""fullscreenenter"",""0"",""4441""
","
","""event"",""trial"",""time""
""focus"",""0"",""0""
","""event"",""trial"",""time""
""fullscreenenter"",""0"",""4441""
","
","null","run_exp/static/audio/clip_12_probe.m4a","null","","","","","<div class='center'><p>Once you've chosen a pirate, you’ll be shown the ship they are robbing. You will never rob the same ship twice. Ships can be told apart from one another by the image on them. These are the goods that they sell. See, this ship has a travel mug on it. </p><p> You’ll have to remember which island you saw each ship on. You will win more gold coins and hence more bonus money if you remember correctly! To help you remember, you can imagine a story. For example, here, you could imagine a mug full of water in the desert. Or, as another example, if on the forest island, your pirate robbed a ship with an apple on it, you could imagine an apple falling from a tree in the forest. </p><p><img src='run_exp/static/images/tutorial/example_probe.png' height='500'></p></div>","","","","","","","","","","","","","","","","","",""
"","html-keyboard-response","39","214837","0.0-35.0-3.0","""event"",""trial"",""time""
""focus"",""0"",""0""
""fullscreenenter"",""0"",""4441""
","
","""event"",""trial"",""time""
""focus"",""0"",""0""
","""event"",""trial"",""time""
""fullscreenenter"",""0"",""4441""
","
","1657","<div class='center'><p>Once you've chosen a pirate, you’ll be shown the ship they are robbing. You will never rob the same ship twice. Ships can be told apart from one another by the image on them. These are the goods that they sell. See, this ship has a travel mug on it. </p><p> You’ll have to remember which island you saw each ship on. You will win more gold coins and hence more bonus money if you remember correctly! To help you remember, you can imagine a story. For example, here, you could imagine a mug full of water in the desert. Or, as another example, if on the forest island, your pirate robbed a ship with an apple on it, you could imagine an apple falling from a tree in the forest. </p><p><img src='run_exp/static/images/tutorial/example_probe.png' height='500'></p><p><b>[Press the space bar to continue]</b></p></div>","32","","","","","","","","","","","","","","","","","","","","","","",""
"","instruc11","40","231255","0.0-35.0-4.0","""event"",""trial"",""time""
""focus"",""0"",""0""
""fullscreenenter"",""0"",""4441""
","
","""event"",""trial"",""time""
""focus"",""0"",""0""
","""event"",""trial"",""time""
""fullscreenenter"",""0"",""4441""
","
","null","run_exp/static/audio/clip_13_changepoint.m4a","null","","","","","<div class='center'><p>How successful a pirate is at robbing ships will depend on the island you’re on.</p><p> A pirate may have visited this island many times before and gained a lot of practice robbing ships there.</p><p>So, they’re more likely to be successful than a pirate who has never visited the island before.</p></div>","","","","","","","","","","","","","","","","","",""
"","html-keyboard-response","41","232670","0.0-35.0-5.0","""event"",""trial"",""time""
""focus"",""0"",""0""
""fullscreenenter"",""0"",""4441""
","
","""event"",""trial"",""time""
""focus"",""0"",""0""
","""event"",""trial"",""time""
""fullscreenenter"",""0"",""4441""
","
","1414","<div class='center'><p>How successful a pirate is at robbing ships will depend on the island you’re on.</p><p> A pirate may have visited this island many times before and gained a lot of practice robbing ships there.</p><p>So, they’re more likely to be successful than a pirate who has never visited the island before.</p><p><b>[Press the space bar to continue]</b></p></div>","32","","","","","","","","","","","","","","","","","","","","","","",""
"","instruc12","42","273768","0.0-35.0-6.0","""event"",""trial"",""time""
""focus"",""0"",""0""
""fullscreenenter"",""0"",""4441""
","
","""event"",""trial"",""time""
""focus"",""0"",""0""
","""event"",""trial"",""time""
""fullscreenenter"",""0"",""4441""
","
","null","run_exp/static/audio/clip_14_drift.m4a","null","","","","","<div class='center'><p>How successful a pirate is at robbing ships can also change over the time spent on the island. </p><p> Ships may hear from islanders about the pirates coming and will improve their protections against the attack. This may make it harder to rob them.</p><p> Ships may also become lazy and weaken the strength of their protections. This may make it easier to rob them.</p><br><p>Things are always changing on the high seas! So, try your best to pay attention!</p><p><img src='run_exp/static/images/tutorial/contingency.png' height='500'></p></div>","","","","","","","","","","","","","","","","","",""
"","html-keyboard-response","43","276137","0.0-35.0-7.0","""event"",""trial"",""time""
""focus"",""0"",""0""
""fullscreenenter"",""0"",""4441""
","
","""event"",""trial"",""time""
""focus"",""0"",""0""
","""event"",""trial"",""time""
""fullscreenenter"",""0"",""4441""
","
","2367","<div class='center'><p>How successful a pirate is at robbing ships can also change over the time spent on the island. </p><p> Ships may hear from islanders about the pirates coming and will improve their protections against the attack. This may make it harder to rob them.</p><p> Ships may also become lazy and weaken the strength of their protections. This may make it easier to rob them.</p><br><p>Things are always changing on the high seas! So, try your best to pay attention!</p><p><img src='run_exp/static/images/tutorial/contingency.png' height='500'></p><p><b>[Press the space bar to continue]</b></p></div>","32","","","","","","","","","","","","","","","","","","","","","","",""
"","instruc13","44","311339","0.0-35.0-8.0","""event"",""trial"",""time""
""focus"",""0"",""0""
""fullscreenenter"",""0"",""4441""
","
","""event"",""trial"",""time""
""focus"",""0"",""0""
","""event"",""trial"",""time""
""fullscreenenter"",""0"",""4441""
","
","null","run_exp/static/audio/clip_15_summary.m4a","null","","","","","<div class='center'><p>Let's go over the instructions quickly again. You have two important things to do: </p><b><p> 1. Pick the pirate who is the best at robbing ships on the current island. </p></b><b><p> 2. Remember on which island a ship was robbed.</p> </b><p>The amount of bonus money you can win depends on both.</p><p><br><p>Let’s try a practice game. The game will start by showing you the pirates. First, pick a pirate using the <b> 1, 2, 3 </b> keys on your keyboard. When you are shown a ship, try to remember which island you’re on by making up a story.</p><p>This is just a practice game, so you’re not playing for money. </p><p> Good luck! This game will be very difficult but try your best!</p></div>","","","","","","","","","","","","","","","","","",""
"","html-keyboard-response","45","312448","0.0-35.0-9.0","""event"",""trial"",""time""
""focus"",""0"",""0""
""fullscreenenter"",""0"",""4441""
","
","""event"",""trial"",""time""
""focus"",""0"",""0""
","""event"",""trial"",""time""
""fullscreenenter"",""0"",""4441""
","
","1109","<div class='center'><p>Let's go over the instructions quickly again. You have two important things to do: </p><b><p> 1. Pick the pirate who is the best at robbing ships on the current island. </p></b><b><p> 2. Remember on which island a ship was robbed.</p> </b><p>The amount of bonus money you can win depends on both.</p><p><br><p>Let’s try a practice game. The game will start by showing you the pirates. First, pick a pirate using the <b> 1, 2, 3 </b> keys on your keyboard. When you are shown a ship, try to remember which island you’re on by making up a story.</p><p>This is just a practice game, so you’re not playing for money. </p><p> Good luck! This game will be very difficult but try your best!</p><p><b>[Press the space bar to continue]</b></p></div>","32","","","","","","","","","","","","","","","","","","","","","","",""
"","do_welcome","46","316483","0.0-35.0-10.0","""event"",""trial"",""time""
""focus"",""0"",""0""
""fullscreenenter"",""0"",""4441""
","
","""event"",""trial"",""time""
""focus"",""0"",""0""
","""event"",""trial"",""time""
""fullscreenenter"",""0"",""4441""
","
","null","","","","","","","","null","","","","","","","","","","","","","","","","",""
"","do_trial","47","322512","0.0-35.0-11.0","""event"",""trial"",""time""
""focus"",""0"",""0""
""fullscreenenter"",""0"",""4441""
","
","""event"",""trial"",""time""
""focus"",""0"",""0""
","""event"",""trial"",""time""
""fullscreenenter"",""0"",""4441""
","
","null","","","","","","","","null","1,0,0","","","","","","","","","","","","","","","",""
"","html-keyboard-response","48","323533","0.0-36.0-0.0","""event"",""trial"",""time""
""focus"",""0"",""0""
""fullscreenenter"",""0"",""4441""
","
","""event"",""trial"",""time""
""focus"",""0"",""0""
","""event"",""trial"",""time""
""fullscreenenter"",""0"",""4441""
","
","null","<p></p>","null","","","","","","","","","","","","","","","","","","","","","","",""
"","do_trial","49","328842","0.0-36.0-1.0","""event"",""trial"",""time""
""focus"",""0"",""0""
""fullscreenenter"",""0"",""4441""
","
","""event"",""trial"",""time""
""focus"",""0"",""0""
","""event"",""trial"",""time""
""fullscreenenter"",""0"",""4441""
","
","797","","","","","","","","49","1,0,0","","","","","","","","","","","","","","","",""
"","html-keyboard-response","50","329862","0.0-37.0-0.0","""event"",""trial"",""time""
""focus"",""0"",""0""
""fullscreenenter"",""0"",""4441""
","
","""event"",""trial"",""time""
""focus"",""0"",""0""
","""event"",""trial"",""time""
""fullscreenenter"",""0"",""4441""
","
","null","<p></p>","null","","","","","","","","","","","","","","","","","","","","","","",""
"","do_trial","51","335603","0.0-37.0-1.0","""event"",""trial"",""time""
""focus"",""0"",""0""
""fullscreenenter"",""0"",""4441""
","
","""event"",""trial"",""time""
""focus"",""0"",""0""
","""event"",""trial"",""time""
""fullscreenenter"",""0"",""4441""
","
","1229","","","","","","","","49","1,1,0","","","","","","","","","","","","","","","",""
"","html-keyboard-response","52","336622","0.0-38.0-0.0","""event"",""trial"",""time""
""focus"",""0"",""0""
""fullscreenenter"",""0"",""4441""
","
","""event"",""trial"",""time""
""focus"",""0"",""0""
","""event"",""trial"",""time""
""fullscreenenter"",""0"",""4441""
","
","null","<p></p>","null","","","","","","","","","","","","","","","","","","","","","","",""
"","do_trial","53","341792","0.0-38.0-1.0","""event"",""trial"",""time""
""focus"",""0"",""0""
""fullscreenenter"",""0"",""4441""
","
","""event"",""trial"",""time""
""focus"",""0"",""0""
","""event"",""trial"",""time""
""fullscreenenter"",""0"",""4441""
","
","661","","","","","","","","49","1,0,1","","","","","","","","","","","","","","","",""
"","html-keyboard-response","54","342813","0.0-39.0-0.0","""event"",""trial"",""time""
""focus"",""0"",""0""
""fullscreenenter"",""0"",""4441""
","
","""event"",""trial"",""time""
""focus"",""0"",""0""
","""event"",""trial"",""time""
""fullscreenenter"",""0"",""4441""
","
","null","<p></p>","null","","","","","","","","","","","","","","","","","","","","","","",""
"","do_trial","55","347823","0.0-39.0-1.0","""event"",""trial"",""time""
""focus"",""0"",""0""
""fullscreenenter"",""0"",""4441""
","
","""event"",""trial"",""time""
""focus"",""0"",""0""
","""event"",""trial"",""time""
""fullscreenenter"",""0"",""4441""
","
","501","","","","","","","","49","0,1,0","","","","","","","","","","","","","","","",""
"","html-keyboard-response","56","348843","0.0-40.0-0.0","""event"",""trial"",""time""
""focus"",""0"",""0""
""fullscreenenter"",""0"",""4441""
","
","""event"",""trial"",""time""
""focus"",""0"",""0""
","""event"",""trial"",""time""
""fullscreenenter"",""0"",""4441""
","
","null","<p></p>","null","","","","","","","","","","","","","","","","","","","","","","",""
"","do_trial","57","354522","0.0-40.0-1.0","""event"",""trial"",""time""
""focus"",""0"",""0""
""fullscreenenter"",""0"",""4441""
","
","""event"",""trial"",""time""
""focus"",""0"",""0""
","""event"",""trial"",""time""
""fullscreenenter"",""0"",""4441""
","
","1163","","","","","","","","49","1,0,0","","","","","","","","","","","","","","","",""
"","do_bye","58","356043","0.0-41.0-0.0","""event"",""trial"",""time""
""focus"",""0"",""0""
""fullscreenenter"",""0"",""4441""
","
","""event"",""trial"",""time""
""focus"",""0"",""0""
","""event"",""trial"",""time""
""fullscreenenter"",""0"",""4441""
","
","null","","","","","","","","null","","","","","","","","","","","","","","","","",""
"","do_travel","59","365052","0.0-41.0-1.0","""event"",""trial"",""time""
""focus"",""0"",""0""
""fullscreenenter"",""0"",""4441""
","
","""event"",""trial"",""time""
""focus"",""0"",""0""
","""event"",""trial"",""time""
""fullscreenenter"",""0"",""4441""
","
","null","","","","","","","","null","","","","","","","","","","","","","","","","",""
"","do_welcome","60","369072","0.0-41.0-2.0","""event"",""trial"",""time""
""focus"",""0"",""0""
""fullscreenenter"",""0"",""4441""
","
","""event"",""trial"",""time""
""focus"",""0"",""0""
","""event"",""trial"",""time""
""fullscreenenter"",""0"",""4441""
","
","null","","","","","","","","null","","","","","","","","","","","","","","","","",""
"","do_trial","61","374752","0.0-41.0-3.0","""event"",""trial"",""time""
""focus"",""0"",""0""
""fullscreenenter"",""0"",""4441""
","
","""event"",""trial"",""time""
""focus"",""0"",""0""
","""event"",""trial"",""time""
""fullscreenenter"",""0"",""4441""
","
","1171","","","","","","","","51","1,0,0","","","","","","","","","","","","","","","",""
"","html-keyboard-response","62","375772","0.0-42.0-0.0","""event"",""trial"",""time""
""focus"",""0"",""0""
""fullscreenenter"",""0"",""4441""
","
","""event"",""trial"",""time""
""focus"",""0"",""0""
","""event"",""trial"",""time""
""fullscreenenter"",""0"",""4441""
","
","null","<p></p>","null","","","","","","","","","","","","","","","","","","","","","","",""
"","do_trial","63","380323","0.0-42.0-1.0","""event"",""trial"",""time""
""focus"",""0"",""0""
""fullscreenenter"",""0"",""4441""
","
","""event"",""trial"",""time""
""focus"",""0"",""0""
","""event"",""trial"",""time""
""fullscreenenter"",""0"",""4441""
","
","26","","","","","","","","51","1,0,1","","","","","","","","","","","","","","","",""
"","html-keyboard-response","64","381342","0.0-43.0-0.0","""event"",""trial"",""time""
""focus"",""0"",""0""
""fullscreenenter"",""0"",""4441""
","
","""event"",""trial"",""time""
""focus"",""0"",""0""
","""event"",""trial"",""time""
""fullscreenenter"",""0"",""4441""
","
","null","<p></p>","null","","","","","","","","","","","","","","","","","","","","","","",""
"","do_trial","65","387362","0.0-43.0-1.0","""event"",""trial"",""time""
""focus"",""0"",""0""
""fullscreenenter"",""0"",""4441""
","
","""event"",""trial"",""time""
""focus"",""0"",""0""
","""event"",""trial"",""time""
""fullscreenenter"",""0"",""4441""
","
","null","","","","","","","","null","1,1,0","","","","","","","","","","","","","","","",""
"","html-keyboard-response","66","388381","0.0-44.0-0.0","""event"",""trial"",""time""
""focus"",""0"",""0""
""fullscreenenter"",""0"",""4441""
","
","""event"",""trial"",""time""
""focus"",""0"",""0""
","""event"",""trial"",""time""
""fullscreenenter"",""0"",""4441""
","
","null","<p></p>","null","","","","","","","","","","","","","","","","","","","","","","",""
"","do_trial","67","393552","0.0-44.0-1.0","""event"",""trial"",""time""
""focus"",""0"",""0""
""fullscreenenter"",""0"",""4441""
","
","""event"",""trial"",""time""
""focus"",""0"",""0""
","""event"",""trial"",""time""
""fullscreenenter"",""0"",""4441""
","
","660","","","","","","","","51","1,1,0","","","","","","","","","","","","","","","",""
"","html-keyboard-response","68","394571","0.0-45.0-0.0","""event"",""trial"",""time""
""focus"",""0"",""0""
""fullscreenenter"",""0"",""4441""
","
","""event"",""trial"",""time""
""focus"",""0"",""0""
","""event"",""trial"",""time""
""fullscreenenter"",""0"",""4441""
","
","null","<p></p>","null","","","","","","","","","","","","","","","","","","","","","","",""
"","do_trial","69","399532","0.0-45.0-1.0","""event"",""trial"",""time""
""focus"",""0"",""0""
""fullscreenenter"",""0"",""4441""
","
","""event"",""trial"",""time""
""focus"",""0"",""0""
","""event"",""trial"",""time""
""fullscreenenter"",""0"",""4441""
","
","441","","","","","","","","50","0,0,1","","","","","","","","","","","","","","","",""
"","html-keyboard-response","70","400542","0.0-46.0-0.0","""event"",""trial"",""time""
""focus"",""0"",""0""
""fullscreenenter"",""0"",""4441""
","
","""event"",""trial"",""time""
""focus"",""0"",""0""
","""event"",""trial"",""time""
""fullscreenenter"",""0"",""4441""
","
","null","<p></p>","null","","","","","","","","","","","","","","","","","","","","","","",""
"","do_trial","71","406723","0.0-46.0-1.0","""event"",""trial"",""time""
""focus"",""0"",""0""
""fullscreenenter"",""0"",""4441""
","
","""event"",""trial"",""time""
""focus"",""0"",""0""
","""event"",""trial"",""time""
""fullscreenenter"",""0"",""4441""
","
","1669","","","","","","","","49","1,0,1","","","","","","","","","","","","","","","",""
"","html-keyboard-response","72","408518","0.0-47.0-0.0","""event"",""trial"",""time""
""focus"",""0"",""0""
""fullscreenenter"",""0"",""4441""
","
","""event"",""trial"",""time""
""focus"",""0"",""0""
","""event"",""trial"",""time""
""fullscreenenter"",""0"",""4441""
","
","1794","<div class='center'><p><img src='run_exp/static/images/tutorial/prac_best_pirate.png'  height='500'></p></div>","49","","","","","","","","","","","","","","","","","","","","","","",""
"","html-keyboard-response","73","409801","0.0-48.0-0.0","""event"",""trial"",""time""
""focus"",""0"",""0""
""fullscreenenter"",""0"",""4441""
","
","""event"",""trial"",""time""
""focus"",""0"",""0""
","""event"",""trial"",""time""
""fullscreenenter"",""0"",""4441""
","
","1281","<div class='center'><p>That's correct! Red beard was the best.</p><p><b>[Press the space bar to continue]</b></p></div>","32","","","","","","","","","","","","","","","","","","","","","","",""
"","html-keyboard-response","74","412665","0.0-48.0-1.0","""event"",""trial"",""time""
""focus"",""0"",""0""
""fullscreenenter"",""0"",""4441""
","
","""event"",""trial"",""time""
""focus"",""0"",""0""
","""event"",""trial"",""time""
""fullscreenenter"",""0"",""4441""
","
","2862","<div class='center'><p><img src='run_exp/static/images/tutorial/prac_source.png'  height='500'></p></div>","50","","","","","","","","","","","","","","","","","","","","","","",""
"","html-keyboard-response","75","413532","0.0-49.0-0.0","""event"",""trial"",""time""
""focus"",""0"",""0""
""fullscreenenter"",""0"",""4441""
","
","""event"",""trial"",""time""
""focus"",""0"",""0""
","""event"",""trial"",""time""
""fullscreenenter"",""0"",""4441""
","
","866","<div class='center'><p>That's correct! You saw this ship on the cavern island.</p><p><b>[Press the space bar to continue]</b></p></div>","32","","","","","","","","","","","","","","","","","","","","","","",""
"","quiz_beginning","76","424738","0.0-49.0-1.0","""event"",""trial"",""time""
""focus"",""0"",""0""
""fullscreenenter"",""0"",""4441""
""fullscreenexit"",""77"",""424824""
""blur"",""77"",""426273""
""focus"",""77"",""433301""
""blur"",""77"",""451898""
""focus"",""77"",""467417""
""blur"",""77"",""481313""
""focus"",""77"",""484179""
""blur"",""77"",""485628""
""focus"",""77"",""485683""
","""event"",""trial"",""time""
""blur"",""77"",""426273""
""blur"",""77"",""451898""
""blur"",""77"",""481313""
""blur"",""77"",""485628""
","""event"",""trial"",""time""
""focus"",""0"",""0""
""focus"",""77"",""433301""
""focus"",""77"",""467417""
""focus"",""77"",""484179""
""focus"",""77"",""485683""
","""event"",""trial"",""time""
""fullscreenenter"",""0"",""4441""
","""event"",""trial"",""time""
""fullscreenexit"",""77"",""424824""
","null","run_exp/static/audio/clip_16_quiz_intro.m4a","null","","","","","<div class='center'><p>Good job on the practice game! Now, you will be asked some true or false questions to make sure you really understand the rules of the game.</p><p> Press <b>'1'</b> on the keyboard for true and press <b>'2'</b> for false.</p></div>","","","","","","","","","","","","","","","","","",""
"","audio-keyboard-response","77","527255","0.0-49.0-2.0","""event"",""trial"",""time""
""focus"",""0"",""0""
""fullscreenenter"",""0"",""4441""
""fullscreenexit"",""77"",""424824""
""blur"",""77"",""426273""
""focus"",""77"",""433301""
""blur"",""77"",""451898""
""focus"",""77"",""467417""
""blur"",""77"",""481313""
""focus"",""77"",""484179""
""blur"",""77"",""485628""
""focus"",""77"",""485683""
","""event"",""trial"",""time""
""blur"",""77"",""426273""
""blur"",""77"",""451898""
""blur"",""77"",""481313""
""blur"",""77"",""485628""
","""event"",""trial"",""time""
""focus"",""0"",""0""
""focus"",""77"",""433301""
""focus"",""77"",""467417""
""focus"",""77"",""484179""
""focus"",""77"",""485683""
","""event"",""trial"",""time""
""fullscreenenter"",""0"",""4441""
","""event"",""trial"",""time""
""fullscreenexit"",""77"",""424824""
","102516","run_exp/static/audio/clip_17_q1.m4a","49","","","","","","","","","","","","","","","","","","","","","","",""
"","correct","78","529668","0.0-50.0-0.0","""event"",""trial"",""time""
""focus"",""0"",""0""
""fullscreenenter"",""0"",""4441""
""fullscreenexit"",""77"",""424824""
""blur"",""77"",""426273""
""focus"",""77"",""433301""
""blur"",""77"",""451898""
""focus"",""77"",""467417""
""blur"",""77"",""481313""
""focus"",""77"",""484179""
""blur"",""77"",""485628""
""focus"",""77"",""485683""
","""event"",""trial"",""time""
""blur"",""77"",""426273""
""blur"",""77"",""451898""
""blur"",""77"",""481313""
""blur"",""77"",""485628""
","""event"",""trial"",""time""
""focus"",""0"",""0""
""focus"",""77"",""433301""
""focus"",""77"",""467417""
""focus"",""77"",""484179""
""focus"",""77"",""485683""
","""event"",""trial"",""time""
""fullscreenenter"",""0"",""4441""
","""event"",""trial"",""time""
""fullscreenexit"",""77"",""424824""
","null","run_exp/static/audio/clip_18_correct.m4a","null","","","","","<div class='center'><p>That's correct!</p></div>","","","","","","","","","","","","","","","","","",""
"","html-keyboard-response","79","533083","0.0-50.0-1.0","""event"",""trial"",""time""
""focus"",""0"",""0""
""fullscreenenter"",""0"",""4441""
""fullscreenexit"",""77"",""424824""
""blur"",""77"",""426273""
""focus"",""77"",""433301""
""blur"",""77"",""451898""
""focus"",""77"",""467417""
""blur"",""77"",""481313""
""focus"",""77"",""484179""
""blur"",""77"",""485628""
""focus"",""77"",""485683""
","""event"",""trial"",""time""
""blur"",""77"",""426273""
""blur"",""77"",""451898""
""blur"",""77"",""481313""
""blur"",""77"",""485628""
","""event"",""trial"",""time""
""focus"",""0"",""0""
""focus"",""77"",""433301""
""focus"",""77"",""467417""
""focus"",""77"",""484179""
""focus"",""77"",""485683""
","""event"",""trial"",""time""
""fullscreenenter"",""0"",""4441""
","""event"",""trial"",""time""
""fullscreenexit"",""77"",""424824""
","3414","<div class='center'><p>That's correct!</p><p><b>[Press the space bar to continue]</b></p></div>","32","","","","","","","","","","","","","","","","","","","","","","",""
"","audio-keyboard-response","80","543319","0.0-50.0-2.0","""event"",""trial"",""time""
""focus"",""0"",""0""
""fullscreenenter"",""0"",""4441""
""fullscreenexit"",""77"",""424824""
""blur"",""77"",""426273""
""focus"",""77"",""433301""
""blur"",""77"",""451898""
""focus"",""77"",""467417""
""blur"",""77"",""481313""
""focus"",""77"",""484179""
""blur"",""77"",""485628""
""focus"",""77"",""485683""
","""event"",""trial"",""time""
""blur"",""77"",""426273""
""blur"",""77"",""451898""
""blur"",""77"",""481313""
""blur"",""77"",""485628""
","""event"",""trial"",""time""
""focus"",""0"",""0""
""focus"",""77"",""433301""
""focus"",""77"",""467417""
""focus"",""77"",""484179""
""focus"",""77"",""485683""
","""event"",""trial"",""time""
""fullscreenenter"",""0"",""4441""
","""event"",""trial"",""time""
""fullscreenexit"",""77"",""424824""
","10234","run_exp/static/audio/clip_20_q2.m4a","50","","","","","","","","","","","","","","","","","","","","","","",""
"","correct","81","545726","0.0-51.0-0.0","""event"",""trial"",""time""
""focus"",""0"",""0""
""fullscreenenter"",""0"",""4441""
""fullscreenexit"",""77"",""424824""
""blur"",""77"",""426273""
""focus"",""77"",""433301""
""blur"",""77"",""451898""
""focus"",""77"",""467417""
""blur"",""77"",""481313""
""focus"",""77"",""484179""
""blur"",""77"",""485628""
""focus"",""77"",""485683""
","""event"",""trial"",""time""
""blur"",""77"",""426273""
""blur"",""77"",""451898""
""blur"",""77"",""481313""
""blur"",""77"",""485628""
","""event"",""trial"",""time""
""focus"",""0"",""0""
""focus"",""77"",""433301""
""focus"",""77"",""467417""
""focus"",""77"",""484179""
""focus"",""77"",""485683""
","""event"",""trial"",""time""
""fullscreenenter"",""0"",""4441""
","""event"",""trial"",""time""
""fullscreenexit"",""77"",""424824""
","null","run_exp/static/audio/clip_18_correct.m4a","null","","","","","<div class='center'><p>That's correct!</p></div>","","","","","","","","","","","","","","","","","",""
"","html-keyboard-response","82","546410","0.0-51.0-1.0","""event"",""trial"",""time""
""focus"",""0"",""0""
""fullscreenenter"",""0"",""4441""
""fullscreenexit"",""77"",""424824""
""blur"",""77"",""426273""
""focus"",""77"",""433301""
""blur"",""77"",""451898""
""focus"",""77"",""467417""
""blur"",""77"",""481313""
""focus"",""77"",""484179""
""blur"",""77"",""485628""
""focus"",""77"",""485683""
","""event"",""trial"",""time""
""blur"",""77"",""426273""
""blur"",""77"",""451898""
""blur"",""77"",""481313""
""blur"",""77"",""485628""
","""event"",""trial"",""time""
""focus"",""0"",""0""
""focus"",""77"",""433301""
""focus"",""77"",""467417""
""focus"",""77"",""484179""
""focus"",""77"",""485683""
","""event"",""trial"",""time""
""fullscreenenter"",""0"",""4441""
","""event"",""trial"",""time""
""fullscreenexit"",""77"",""424824""
","684","<div class='center'><p>That's correct!</p><p><b>[Press the space bar to continue]</b></p></div>","32","","","","","","","","","","","","","","","","","","","","","","",""
"","audio-keyboard-response","83","554500","0.0-51.0-2.0","""event"",""trial"",""time""
""focus"",""0"",""0""
""fullscreenenter"",""0"",""4441""
""fullscreenexit"",""77"",""424824""
""blur"",""77"",""426273""
""focus"",""77"",""433301""
""blur"",""77"",""451898""
""focus"",""77"",""467417""
""blur"",""77"",""481313""
""focus"",""77"",""484179""
""blur"",""77"",""485628""
""focus"",""77"",""485683""
","""event"",""trial"",""time""
""blur"",""77"",""426273""
""blur"",""77"",""451898""
""blur"",""77"",""481313""
""blur"",""77"",""485628""
","""event"",""trial"",""time""
""focus"",""0"",""0""
""focus"",""77"",""433301""
""focus"",""77"",""467417""
""focus"",""77"",""484179""
""focus"",""77"",""485683""
","""event"",""trial"",""time""
""fullscreenenter"",""0"",""4441""
","""event"",""trial"",""time""
""fullscreenexit"",""77"",""424824""
","8088","run_exp/static/audio/clip_22_q3.m4a","50","","","","","","","","","","","","","","","","","","","","","","",""
"","correct","84","556929","0.0-52.0-0.0","""event"",""trial"",""time""
""focus"",""0"",""0""
""fullscreenenter"",""0"",""4441""
""fullscreenexit"",""77"",""424824""
""blur"",""77"",""426273""
""focus"",""77"",""433301""
""blur"",""77"",""451898""
""focus"",""77"",""467417""
""blur"",""77"",""481313""
""focus"",""77"",""484179""
""blur"",""77"",""485628""
""focus"",""77"",""485683""
","""event"",""trial"",""time""
""blur"",""77"",""426273""
""blur"",""77"",""451898""
""blur"",""77"",""481313""
""blur"",""77"",""485628""
","""event"",""trial"",""time""
""focus"",""0"",""0""
""focus"",""77"",""433301""
""focus"",""77"",""467417""
""focus"",""77"",""484179""
""focus"",""77"",""485683""
","""event"",""trial"",""time""
""fullscreenenter"",""0"",""4441""
","""event"",""trial"",""time""
""fullscreenexit"",""77"",""424824""
","null","run_exp/static/audio/clip_18_correct.m4a","null","","","","","<div class='center'><p>That's correct!</p></div>","","","","","","","","","","","","","","","","","",""
"","html-keyboard-response","85","557393","0.0-52.0-1.0","""event"",""trial"",""time""
""focus"",""0"",""0""
""fullscreenenter"",""0"",""4441""
""fullscreenexit"",""77"",""424824""
""blur"",""77"",""426273""
""focus"",""77"",""433301""
""blur"",""77"",""451898""
""focus"",""77"",""467417""
""blur"",""77"",""481313""
""focus"",""77"",""484179""
""blur"",""77"",""485628""
""focus"",""77"",""485683""
","""event"",""trial"",""time""
""blur"",""77"",""426273""
""blur"",""77"",""451898""
""blur"",""77"",""481313""
""blur"",""77"",""485628""
","""event"",""trial"",""time""
""focus"",""0"",""0""
""focus"",""77"",""433301""
""focus"",""77"",""467417""
""focus"",""77"",""484179""
""focus"",""77"",""485683""
","""event"",""trial"",""time""
""fullscreenenter"",""0"",""4441""
","""event"",""trial"",""time""
""fullscreenexit"",""77"",""424824""
","463","<div class='center'><p>That's correct!</p><p><b>[Press the space bar to continue]</b></p></div>","32","","","","","","","","","","","","","","","","","","","","","","",""
"","audio-keyboard-response","86","559308","0.0-52.0-2.0","""event"",""trial"",""time""
""focus"",""0"",""0""
""fullscreenenter"",""0"",""4441""
""fullscreenexit"",""77"",""424824""
""blur"",""77"",""426273""
""focus"",""77"",""433301""
""blur"",""77"",""451898""
""focus"",""77"",""467417""
""blur"",""77"",""481313""
""focus"",""77"",""484179""
""blur"",""77"",""485628""
""focus"",""77"",""485683""
","""event"",""trial"",""time""
""blur"",""77"",""426273""
""blur"",""77"",""451898""
""blur"",""77"",""481313""
""blur"",""77"",""485628""
","""event"",""trial"",""time""
""focus"",""0"",""0""
""focus"",""77"",""433301""
""focus"",""77"",""467417""
""focus"",""77"",""484179""
""focus"",""77"",""485683""
","""event"",""trial"",""time""
""fullscreenenter"",""0"",""4441""
","""event"",""trial"",""time""
""fullscreenexit"",""77"",""424824""
","1913","run_exp/static/audio/clip_24_q4.m4a","49","","","","","","","","","","","","","","","","","","","","","","",""
"","correct","87","561766","0.0-53.0-0.0","""event"",""trial"",""time""
""focus"",""0"",""0""
""fullscreenenter"",""0"",""4441""
""fullscreenexit"",""77"",""424824""
""blur"",""77"",""426273""
""focus"",""77"",""433301""
""blur"",""77"",""451898""
""focus"",""77"",""467417""
""blur"",""77"",""481313""
""focus"",""77"",""484179""
""blur"",""77"",""485628""
""focus"",""77"",""485683""
","""event"",""trial"",""time""
""blur"",""77"",""426273""
""blur"",""77"",""451898""
""blur"",""77"",""481313""
""blur"",""77"",""485628""
","""event"",""trial"",""time""
""focus"",""0"",""0""
""focus"",""77"",""433301""
""focus"",""77"",""467417""
""focus"",""77"",""484179""
""focus"",""77"",""485683""
","""event"",""trial"",""time""
""fullscreenenter"",""0"",""4441""
","""event"",""trial"",""time""
""fullscreenexit"",""77"",""424824""
","null","run_exp/static/audio/clip_18_correct.m4a","null","","","","","<div class='center'><p>That's correct!</p></div>","","","","","","","","","","","","","","","","","",""
"","html-keyboard-response","88","562022","0.0-53.0-1.0","""event"",""trial"",""time""
""focus"",""0"",""0""
""fullscreenenter"",""0"",""4441""
""fullscreenexit"",""77"",""424824""
""blur"",""77"",""426273""
""focus"",""77"",""433301""
""blur"",""77"",""451898""
""focus"",""77"",""467417""
""blur"",""77"",""481313""
""focus"",""77"",""484179""
""blur"",""77"",""485628""
""focus"",""77"",""485683""
","""event"",""trial"",""time""
""blur"",""77"",""426273""
""blur"",""77"",""451898""
""blur"",""77"",""481313""
""blur"",""77"",""485628""
","""event"",""trial"",""time""
""focus"",""0"",""0""
""focus"",""77"",""433301""
""focus"",""77"",""467417""
""focus"",""77"",""484179""
""focus"",""77"",""485683""
","""event"",""trial"",""time""
""fullscreenenter"",""0"",""4441""
","""event"",""trial"",""time""
""fullscreenexit"",""77"",""424824""
","254","<div class='center'><p>That's correct!</p><p><b>[Press the space bar to continue]</b></p></div>","32","","","","","","","","","","","","","","","","","","","","","","",""
"","q_all_corr","89","570539","0.0-54.0-0.0","""event"",""trial"",""time""
""focus"",""0"",""0""
""fullscreenenter"",""0"",""4441""
""fullscreenexit"",""77"",""424824""
""blur"",""77"",""426273""
""focus"",""77"",""433301""
""blur"",""77"",""451898""
""focus"",""77"",""467417""
""blur"",""77"",""481313""
""focus"",""77"",""484179""
""blur"",""77"",""485628""
""focus"",""77"",""485683""
","""event"",""trial"",""time""
""blur"",""77"",""426273""
""blur"",""77"",""451898""
""blur"",""77"",""481313""
""blur"",""77"",""485628""
","""event"",""trial"",""time""
""focus"",""0"",""0""
""focus"",""77"",""433301""
""focus"",""77"",""467417""
""focus"",""77"",""484179""
""focus"",""77"",""485683""
","""event"",""trial"",""time""
""fullscreenenter"",""0"",""4441""
","""event"",""trial"",""time""
""fullscreenexit"",""77"",""424824""
","null","run_exp/static/audio/clip_27_quiz_all_correct.m4a","null","","","","","<div class='center'><p>Good job! You’re now ready to move on to the real game! Remember this game will be difficult but don't get discouraged and try your best!</p></div>","","","","","","","","","","","","","","","","","",""
"","html-keyboard-response","90","571386","0.0-54.0-1.0","""event"",""trial"",""time""
""focus"",""0"",""0""
""fullscreenenter"",""0"",""4441""
""fullscreenexit"",""77"",""424824""
""blur"",""77"",""426273""
""focus"",""77"",""433301""
""blur"",""77"",""451898""
""focus"",""77"",""467417""
""blur"",""77"",""481313""
""focus"",""77"",""484179""
""blur"",""77"",""485628""
""focus"",""77"",""485683""
","""event"",""trial"",""time""
""blur"",""77"",""426273""
""blur"",""77"",""451898""
""blur"",""77"",""481313""
""blur"",""77"",""485628""
","""event"",""trial"",""time""
""focus"",""0"",""0""
""focus"",""77"",""433301""
""focus"",""77"",""467417""
""focus"",""77"",""484179""
""focus"",""77"",""485683""
","""event"",""trial"",""time""
""fullscreenenter"",""0"",""4441""
","""event"",""trial"",""time""
""fullscreenexit"",""77"",""424824""
","845","<div class='center'><p>Good job! You’re now ready to move on to the real game! Remember this game will be difficult but don't get discouraged and try your best!</p><p><b>[Press the space bar to continue]</b></p></div>","32","","","","","","","","","","","","","","","","","","","","","","",""
"","do_welcome","91","575412","0.0-55.0-0.0","""event"",""trial"",""time""
""focus"",""0"",""0""
""fullscreenenter"",""0"",""4441""
""fullscreenexit"",""77"",""424824""
""blur"",""77"",""426273""
""focus"",""77"",""433301""
""blur"",""77"",""451898""
""focus"",""77"",""467417""
""blur"",""77"",""481313""
""focus"",""77"",""484179""
""blur"",""77"",""485628""
""focus"",""77"",""485683""
","""event"",""trial"",""time""
""blur"",""77"",""426273""
""blur"",""77"",""451898""
""blur"",""77"",""481313""
""blur"",""77"",""485628""
","""event"",""trial"",""time""
""focus"",""0"",""0""
""focus"",""77"",""433301""
""focus"",""77"",""467417""
""focus"",""77"",""484179""
""focus"",""77"",""485683""
","""event"",""trial"",""time""
""fullscreenenter"",""0"",""4441""
","""event"",""trial"",""time""
""fullscreenexit"",""77"",""424824""
","null","","","","","","","","null","","","","","","","","","","","","","","","","",""
"","do_trial","92","580962","0.0-56.0-0.0","""event"",""trial"",""time""
""focus"",""0"",""0""
""fullscreenenter"",""0"",""4441""
""fullscreenexit"",""77"",""424824""
""blur"",""77"",""426273""
""focus"",""77"",""433301""
""blur"",""77"",""451898""
""focus"",""77"",""467417""
""blur"",""77"",""481313""
""focus"",""77"",""484179""
""blur"",""77"",""485628""
""focus"",""77"",""485683""
","""event"",""trial"",""time""
""blur"",""77"",""426273""
""blur"",""77"",""451898""
""blur"",""77"",""481313""
""blur"",""77"",""485628""
","""event"",""trial"",""time""
""focus"",""0"",""0""
""focus"",""77"",""433301""
""focus"",""77"",""467417""
""focus"",""77"",""484179""
""focus"",""77"",""485683""
","""event"",""trial"",""time""
""fullscreenenter"",""0"",""4441""
","""event"",""trial"",""time""
""fullscreenexit"",""77"",""424824""
","998","","","","","","","","49","1,0,0","0","highway","0","probe-206","0.6","0.3","0.1","1","","","","","","","",""
"","html-keyboard-response","93","581983","0.0-56.0-1.0","""event"",""trial"",""time""
""focus"",""0"",""0""
""fullscreenenter"",""0"",""4441""
""fullscreenexit"",""77"",""424824""
""blur"",""77"",""426273""
""focus"",""77"",""433301""
""blur"",""77"",""451898""
""focus"",""77"",""467417""
""blur"",""77"",""481313""
""focus"",""77"",""484179""
""blur"",""77"",""485628""
""focus"",""77"",""485683""
","""event"",""trial"",""time""
""blur"",""77"",""426273""
""blur"",""77"",""451898""
""blur"",""77"",""481313""
""blur"",""77"",""485628""
","""event"",""trial"",""time""
""focus"",""0"",""0""
""focus"",""77"",""433301""
""focus"",""77"",""467417""
""focus"",""77"",""484179""
""focus"",""77"",""485683""
","""event"",""trial"",""time""
""fullscreenenter"",""0"",""4441""
","""event"",""trial"",""time""
""fullscreenexit"",""77"",""424824""
","null","<p></p>","null","","","","","","","","","","","","","","","","","","","","","","",""
"","do_trial","94","586793","0.0-57.0-0.0","""event"",""trial"",""time""
""focus"",""0"",""0""
""fullscreenenter"",""0"",""4441""
""fullscreenexit"",""77"",""424824""
""blur"",""77"",""426273""
""focus"",""77"",""433301""
""blur"",""77"",""451898""
""focus"",""77"",""467417""
""blur"",""77"",""481313""
""focus"",""77"",""484179""
""blur"",""77"",""485628""
""focus"",""77"",""485683""
","""event"",""trial"",""time""
""blur"",""77"",""426273""
""blur"",""77"",""451898""
""blur"",""77"",""481313""
""blur"",""77"",""485628""
","""event"",""trial"",""time""
""focus"",""0"",""0""
""focus"",""77"",""433301""
""focus"",""77"",""467417""
""focus"",""77"",""484179""
""focus"",""77"",""485683""
","""event"",""trial"",""time""
""fullscreenenter"",""0"",""4441""
","""event"",""trial"",""time""
""fullscreenexit"",""77"",""424824""
","263","","","","","","","","49","0,0,0","0","highway","1","probe-24","0.6274481616371864","0.3254111775146868","0.29227942190217066","0","","","","","","","",""
"","html-keyboard-response","95","587812","0.0-57.0-1.0","""event"",""trial"",""time""
""focus"",""0"",""0""
""fullscreenenter"",""0"",""4441""
""fullscreenexit"",""77"",""424824""
""blur"",""77"",""426273""
""focus"",""77"",""433301""
""blur"",""77"",""451898""
""focus"",""77"",""467417""
""blur"",""77"",""481313""
""focus"",""77"",""484179""
""blur"",""77"",""485628""
""focus"",""77"",""485683""
","""event"",""trial"",""time""
""blur"",""77"",""426273""
""blur"",""77"",""451898""
""blur"",""77"",""481313""
""blur"",""77"",""485628""
","""event"",""trial"",""time""
""focus"",""0"",""0""
""focus"",""77"",""433301""
""focus"",""77"",""467417""
""focus"",""77"",""484179""
""focus"",""77"",""485683""
","""event"",""trial"",""time""
""fullscreenenter"",""0"",""4441""
","""event"",""trial"",""time""
""fullscreenexit"",""77"",""424824""
","null","<p></p>","null","","","","","","","","","","","","","","","","","","","","","","",""
"","do_trial","96","592622","0.0-58.0-0.0","""event"",""trial"",""time""
""focus"",""0"",""0""
""fullscreenenter"",""0"",""4441""
""fullscreenexit"",""77"",""424824""
""blur"",""77"",""426273""
""focus"",""77"",""433301""
""blur"",""77"",""451898""
""focus"",""77"",""467417""
""blur"",""77"",""481313""
""focus"",""77"",""484179""
""blur"",""77"",""485628""
""focus"",""77"",""485683""
","""event"",""trial"",""time""
""blur"",""77"",""426273""
""blur"",""77"",""451898""
""blur"",""77"",""481313""
""blur"",""77"",""485628""
","""event"",""trial"",""time""
""focus"",""0"",""0""
""focus"",""77"",""433301""
""focus"",""77"",""467417""
""focus"",""77"",""484179""
""focus"",""77"",""485683""
","""event"",""trial"",""time""
""fullscreenenter"",""0"",""4441""
","""event"",""trial"",""time""
""fullscreenexit"",""77"",""424824""
","279","","","","","","","","50","0,0,0","0","highway","2","probe-130","0.5935759931197706","0.41317889037045674","0.20563541550289308","0","","","","","","","",""
"","html-keyboard-response","97","593643","0.0-58.0-1.0","""event"",""trial"",""time""
""focus"",""0"",""0""
""fullscreenenter"",""0"",""4441""
""fullscreenexit"",""77"",""424824""
""blur"",""77"",""426273""
""focus"",""77"",""433301""
""blur"",""77"",""451898""
""focus"",""77"",""467417""
""blur"",""77"",""481313""
""focus"",""77"",""484179""
""blur"",""77"",""485628""
""focus"",""77"",""485683""
","""event"",""trial"",""time""
""blur"",""77"",""426273""
""blur"",""77"",""451898""
""blur"",""77"",""481313""
""blur"",""77"",""485628""
","""event"",""trial"",""time""
""focus"",""0"",""0""
""focus"",""77"",""433301""
""focus"",""77"",""467417""
""focus"",""77"",""484179""
""focus"",""77"",""485683""
","""event"",""trial"",""time""
""fullscreenenter"",""0"",""4441""
","""event"",""trial"",""time""
""fullscreenexit"",""77"",""424824""
","null","<p></p>","null","","","","","","","","","","","","","","","","","","","","","","",""
"","do_trial","98","598473","0.0-59.0-0.0","""event"",""trial"",""time""
""focus"",""0"",""0""
""fullscreenenter"",""0"",""4441""
""fullscreenexit"",""77"",""424824""
""blur"",""77"",""426273""
""focus"",""77"",""433301""
""blur"",""77"",""451898""
""focus"",""77"",""467417""
""blur"",""77"",""481313""
""focus"",""77"",""484179""
""blur"",""77"",""485628""
""focus"",""77"",""485683""
","""event"",""trial"",""time""
""blur"",""77"",""426273""
""blur"",""77"",""451898""
""blur"",""77"",""481313""
""blur"",""77"",""485628""
","""event"",""trial"",""time""
""focus"",""0"",""0""
""focus"",""77"",""433301""
""focus"",""77"",""467417""
""focus"",""77"",""484179""
""focus"",""77"",""485683""
","""event"",""trial"",""time""
""fullscreenenter"",""0"",""4441""
","""event"",""trial"",""time""
""fullscreenexit"",""77"",""424824""
","277","","","","","","","","50","0,1,0","0","highway","3","probe-132","0.501840910023916","0.3818521334481541","0.167361398602329","1","","","","","","","",""
"","html-keyboard-response","99","599493","0.0-59.0-1.0","""event"",""trial"",""time""
""focus"",""0"",""0""
""fullscreenenter"",""0"",""4441""
""fullscreenexit"",""77"",""424824""
""blur"",""77"",""426273""
""focus"",""77"",""433301""
""blur"",""77"",""451898""
""focus"",""77"",""467417""
""blur"",""77"",""481313""
""focus"",""77"",""484179""
""blur"",""77"",""485628""
""focus"",""77"",""485683""
","""event"",""trial"",""time""
""blur"",""77"",""426273""
""blur"",""77"",""451898""
""blur"",""77"",""481313""
""blur"",""77"",""485628""
","""event"",""trial"",""time""
""focus"",""0"",""0""
""focus"",""77"",""433301""
""focus"",""77"",""467417""
""focus"",""77"",""484179""
""focus"",""77"",""485683""
","""event"",""trial"",""time""
""fullscreenenter"",""0"",""4441""
","""event"",""trial"",""time""
""fullscreenexit"",""77"",""424824""
","null","<p></p>","null","","","","","","","","","","","","","","","","","","","","","","",""
"","do_trial","100","604343","0.0-60.0-0.0","""event"",""trial"",""time""
""focus"",""0"",""0""
""fullscreenenter"",""0"",""4441""
""fullscreenexit"",""77"",""424824""
""blur"",""77"",""426273""
""focus"",""77"",""433301""
""blur"",""77"",""451898""
""focus"",""77"",""467417""
""blur"",""77"",""481313""
""focus"",""77"",""484179""
""blur"",""77"",""485628""
""focus"",""77"",""485683""
","""event"",""trial"",""time""
""blur"",""77"",""426273""
""blur"",""77"",""451898""
""blur"",""77"",""481313""
""blur"",""77"",""485628""
","""event"",""trial"",""time""
""focus"",""0"",""0""
""focus"",""77"",""433301""
""focus"",""77"",""467417""
""focus"",""77"",""484179""
""focus"",""77"",""485683""
","""event"",""trial"",""time""
""fullscreenenter"",""0"",""4441""
","""event"",""trial"",""time""
""fullscreenexit"",""77"",""424824""
","309","","","","","","","","51","0,0,0","0","highway","4","probe-85","0.5659162912411252","0.24290941600639365","0.09631884556028279","0","","","","","","","",""
"","html-keyboard-response","101","605362","0.0-60.0-1.0","""event"",""trial"",""time""
""focus"",""0"",""0""
""fullscreenenter"",""0"",""4441""
""fullscreenexit"",""77"",""424824""
""blur"",""77"",""426273""
""focus"",""77"",""433301""
""blur"",""77"",""451898""
""focus"",""77"",""467417""
""blur"",""77"",""481313""
""focus"",""77"",""484179""
""blur"",""77"",""485628""
""focus"",""77"",""485683""
","""event"",""trial"",""time""
""blur"",""77"",""426273""
""blur"",""77"",""451898""
""blur"",""77"",""481313""
""blur"",""77"",""485628""
","""event"",""trial"",""time""
""focus"",""0"",""0""
""focus"",""77"",""433301""
""focus"",""77"",""467417""
""focus"",""77"",""484179""
""focus"",""77"",""485683""
","""event"",""trial"",""time""
""fullscreenenter"",""0"",""4441""
","""event"",""trial"",""time""
""fullscreenexit"",""77"",""424824""
","null","<p></p>","null","","","","","","","","","","","","","","","","","","","","","","",""
"","do_trial","102","610152","0.0-61.0-0.0","""event"",""trial"",""time""
""focus"",""0"",""0""
""fullscreenenter"",""0"",""4441""
""fullscreenexit"",""77"",""424824""
""blur"",""77"",""426273""
""focus"",""77"",""433301""
""blur"",""77"",""451898""
""focus"",""77"",""467417""
""blur"",""77"",""481313""
""focus"",""77"",""484179""
""blur"",""77"",""485628""
""focus"",""77"",""485683""
","""event"",""trial"",""time""
""blur"",""77"",""426273""
""blur"",""77"",""451898""
""blur"",""77"",""481313""
""blur"",""77"",""485628""
","""event"",""trial"",""time""
""focus"",""0"",""0""
""focus"",""77"",""433301""
""focus"",""77"",""467417""
""focus"",""77"",""484179""
""focus"",""77"",""485683""
","""event"",""trial"",""time""
""fullscreenenter"",""0"",""4441""
","""event"",""trial"",""time""
""fullscreenexit"",""77"",""424824""
","255","","","","","","","","51","1,0,0","0","highway","5","probe-02","0.6286385579070884","0.18450470036544175","0.14043694056121428","0","","","","","","","",""
"","html-keyboard-response","103","611172","0.0-61.0-1.0","""event"",""trial"",""time""
""focus"",""0"",""0""
""fullscreenenter"",""0"",""4441""
""fullscreenexit"",""77"",""424824""
""blur"",""77"",""426273""
""focus"",""77"",""433301""
""blur"",""77"",""451898""
""focus"",""77"",""467417""
""blur"",""77"",""481313""
""focus"",""77"",""484179""
""blur"",""77"",""485628""
""focus"",""77"",""485683""
","""event"",""trial"",""time""
""blur"",""77"",""426273""
""blur"",""77"",""451898""
""blur"",""77"",""481313""
""blur"",""77"",""485628""
","""event"",""trial"",""time""
""focus"",""0"",""0""
""focus"",""77"",""433301""
""focus"",""77"",""467417""
""focus"",""77"",""484179""
""focus"",""77"",""485683""
","""event"",""trial"",""time""
""fullscreenenter"",""0"",""4441""
","""event"",""trial"",""time""
""fullscreenexit"",""77"",""424824""
","null","<p></p>","null","","","","","","","","","","","","","","","","","","","","","","",""
"","do_trial","104","615982","0.0-62.0-0.0","""event"",""trial"",""time""
""focus"",""0"",""0""
""fullscreenenter"",""0"",""4441""
""fullscreenexit"",""77"",""424824""
""blur"",""77"",""426273""
""focus"",""77"",""433301""
""blur"",""77"",""451898""
""focus"",""77"",""467417""
""blur"",""77"",""481313""
""focus"",""77"",""484179""
""blur"",""77"",""485628""
""focus"",""77"",""485683""
","""event"",""trial"",""time""
""blur"",""77"",""426273""
""blur"",""77"",""451898""
""blur"",""77"",""481313""
""blur"",""77"",""485628""
","""event"",""trial"",""time""
""focus"",""0"",""0""
""focus"",""77"",""433301""
""focus"",""77"",""467417""
""focus"",""77"",""484179""
""focus"",""77"",""485683""
","""event"",""trial"",""time""
""fullscreenenter"",""0"",""4441""
","""event"",""trial"",""time""
""fullscreenexit"",""77"",""424824""
","270","","","","","","","","49","0,0,0","0","highway","6","probe-45","0.5113877583814511","0.22685215152988458","0.09762107513587281","0","","","","","","","",""
"","html-keyboard-response","105","616992","0.0-62.0-1.0","""event"",""trial"",""time""
""focus"",""0"",""0""
""fullscreenenter"",""0"",""4441""
""fullscreenexit"",""77"",""424824""
""blur"",""77"",""426273""
""focus"",""77"",""433301""
""blur"",""77"",""451898""
""focus"",""77"",""467417""
""blur"",""77"",""481313""
""focus"",""77"",""484179""
""blur"",""77"",""485628""
""focus"",""77"",""485683""
","""event"",""trial"",""time""
""blur"",""77"",""426273""
""blur"",""77"",""451898""
""blur"",""77"",""481313""
""blur"",""77"",""485628""
","""event"",""trial"",""time""
""focus"",""0"",""0""
""focus"",""77"",""433301""
""focus"",""77"",""467417""
""focus"",""77"",""484179""
""focus"",""77"",""485683""
","""event"",""trial"",""time""
""fullscreenenter"",""0"",""4441""
","""event"",""trial"",""time""
""fullscreenexit"",""77"",""424824""
","null","<p></p>","null","","","","","","","","","","","","","","","","","","","","","","",""
"","do_trial","106","621813","0.0-63.0-0.0","""event"",""trial"",""time""
""focus"",""0"",""0""
""fullscreenenter"",""0"",""4441""
""fullscreenexit"",""77"",""424824""
""blur"",""77"",""426273""
""focus"",""77"",""433301""
""blur"",""77"",""451898""
""focus"",""77"",""467417""
""blur"",""77"",""481313""
""focus"",""77"",""484179""
""blur"",""77"",""485628""
""focus"",""77"",""485683""
","""event"",""trial"",""time""
""blur"",""77"",""426273""
""blur"",""77"",""451898""
""blur"",""77"",""481313""
""blur"",""77"",""485628""
","""event"",""trial"",""time""
""focus"",""0"",""0""
""focus"",""77"",""433301""
""focus"",""77"",""467417""
""focus"",""77"",""484179""
""focus"",""77"",""485683""
","""event"",""trial"",""time""
""fullscreenenter"",""0"",""4441""
","""event"",""trial"",""time""
""fullscreenexit"",""77"",""424824""
","287","","","","","","","","50","1,0,0","0","highway","7","probe-229","0.6770380271280113","0.06022607975222783","0.061307890422531576","0","","","","","","","",""
"","html-keyboard-response","107","622832","0.0-63.0-1.0","""event"",""trial"",""time""
""focus"",""0"",""0""
""fullscreenenter"",""0"",""4441""
""fullscreenexit"",""77"",""424824""
""blur"",""77"",""426273""
""focus"",""77"",""433301""
""blur"",""77"",""451898""
""focus"",""77"",""467417""
""blur"",""77"",""481313""
""focus"",""77"",""484179""
""blur"",""77"",""485628""
""focus"",""77"",""485683""
","""event"",""trial"",""time""
""blur"",""77"",""426273""
""blur"",""77"",""451898""
""blur"",""77"",""481313""
""blur"",""77"",""485628""
","""event"",""trial"",""time""
""focus"",""0"",""0""
""focus"",""77"",""433301""
""focus"",""77"",""467417""
""focus"",""77"",""484179""
""focus"",""77"",""485683""
","""event"",""trial"",""time""
""fullscreenenter"",""0"",""4441""
","""event"",""trial"",""time""
""fullscreenexit"",""77"",""424824""
","null","<p></p>","null","","","","","","","","","","","","","","","","","","","","","","",""
"","do_trial","108","627663","0.0-64.0-0.0","""event"",""trial"",""time""
""focus"",""0"",""0""
""fullscreenenter"",""0"",""4441""
""fullscreenexit"",""77"",""424824""
""blur"",""77"",""426273""
""focus"",""77"",""433301""
""blur"",""77"",""451898""
""focus"",""77"",""467417""
""blur"",""77"",""481313""
""focus"",""77"",""484179""
""blur"",""77"",""485628""
""focus"",""77"",""485683""
","""event"",""trial"",""time""
""blur"",""77"",""426273""
""blur"",""77"",""451898""
""blur"",""77"",""481313""
""blur"",""77"",""485628""
","""event"",""trial"",""time""
""focus"",""0"",""0""
""focus"",""77"",""433301""
""focus"",""77"",""467417""
""focus"",""77"",""484179""
""focus"",""77"",""485683""
","""event"",""trial"",""time""
""fullscreenenter"",""0"",""4441""
","""event"",""trial"",""time""
""fullscreenexit"",""77"",""424824""
","272","","","","","","","","49","1,0,0","0","highway","8","probe-57","0.6809317335713864","0.12049653783519673","0.10491582447574672","1","","","","","","","",""
"","html-keyboard-response","109","628672","0.0-64.0-1.0","""event"",""trial"",""time""
""focus"",""0"",""0""
""fullscreenenter"",""0"",""4441""
""fullscreenexit"",""77"",""424824""
""blur"",""77"",""426273""
""focus"",""77"",""433301""
""blur"",""77"",""451898""
""focus"",""77"",""467417""
""blur"",""77"",""481313""
""focus"",""77"",""484179""
""blur"",""77"",""485628""
""focus"",""77"",""485683""
","""event"",""trial"",""time""
""blur"",""77"",""426273""
""blur"",""77"",""451898""
""blur"",""77"",""481313""
""blur"",""77"",""485628""
","""event"",""trial"",""time""
""focus"",""0"",""0""
""focus"",""77"",""433301""
""focus"",""77"",""467417""
""focus"",""77"",""484179""
""focus"",""77"",""485683""
","""event"",""trial"",""time""
""fullscreenenter"",""0"",""4441""
","""event"",""trial"",""time""
""fullscreenexit"",""77"",""424824""
","null","<p></p>","null","","","","","","","","","","","","","","","","","","","","","","",""
"","do_trial","110","633523","0.0-65.0-0.0","""event"",""trial"",""time""
""focus"",""0"",""0""
""fullscreenenter"",""0"",""4441""
""fullscreenexit"",""77"",""424824""
""blur"",""77"",""426273""
""focus"",""77"",""433301""
""blur"",""77"",""451898""
""focus"",""77"",""467417""
""blur"",""77"",""481313""
""focus"",""77"",""484179""
""blur"",""77"",""485628""
""focus"",""77"",""485683""
","""event"",""trial"",""time""
""blur"",""77"",""426273""
""blur"",""77"",""451898""
""blur"",""77"",""481313""
""blur"",""77"",""485628""
","""event"",""trial"",""time""
""focus"",""0"",""0""
""focus"",""77"",""433301""
""focus"",""77"",""467417""
""focus"",""77"",""484179""
""focus"",""77"",""485683""
","""event"",""trial"",""time""
""fullscreenenter"",""0"",""4441""
","""event"",""trial"",""time""
""fullscreenexit"",""77"",""424824""
","304","","","","","","","","49","1,0,0","0","highway","9","probe-66","0.5594610370782201","0.10016962759692995","0.09038975022210838","1","","","","","","","",""
"","html-keyboard-response","111","634532","0.0-65.0-1.0","""event"",""trial"",""time""
""focus"",""0"",""0""
""fullscreenenter"",""0"",""4441""
""fullscreenexit"",""77"",""424824""
""blur"",""77"",""426273""
""focus"",""77"",""433301""
""blur"",""77"",""451898""
""focus"",""77"",""467417""
""blur"",""77"",""481313""
""focus"",""77"",""484179""
""blur"",""77"",""485628""
""focus"",""77"",""485683""
","""event"",""trial"",""time""
""blur"",""77"",""426273""
""blur"",""77"",""451898""
""blur"",""77"",""481313""
""blur"",""77"",""485628""
","""event"",""trial"",""time""
""focus"",""0"",""0""
""focus"",""77"",""433301""
""focus"",""77"",""467417""
""focus"",""77"",""484179""
""focus"",""77"",""485683""
","""event"",""trial"",""time""
""fullscreenenter"",""0"",""4441""
","""event"",""trial"",""time""
""fullscreenexit"",""77"",""424824""
","null","<p></p>","null","","","","","","","","","","","","","","","","","","","","","","",""
"","do_trial","112","639333","0.0-66.0-0.0","""event"",""trial"",""time""
""focus"",""0"",""0""
""fullscreenenter"",""0"",""4441""
""fullscreenexit"",""77"",""424824""
""blur"",""77"",""426273""
""focus"",""77"",""433301""
""blur"",""77"",""451898""
""focus"",""77"",""467417""
""blur"",""77"",""481313""
""focus"",""77"",""484179""
""blur"",""77"",""485628""
""focus"",""77"",""485683""
","""event"",""trial"",""time""
""blur"",""77"",""426273""
""blur"",""77"",""451898""
""blur"",""77"",""481313""
""blur"",""77"",""485628""
","""event"",""trial"",""time""
""focus"",""0"",""0""
""focus"",""77"",""433301""
""focus"",""77"",""467417""
""focus"",""77"",""484179""
""focus"",""77"",""485683""
","""event"",""trial"",""time""
""fullscreenenter"",""0"",""4441""
","""event"",""trial"",""time""
""fullscreenexit"",""77"",""424824""
","259","","","","","","","","49","0,0,0","0","highway","10","probe-225","0.6491294850527729","0.193562225643647","0.2167398183628376","0","","","","","","","",""
"","html-keyboard-response","113","640353","0.0-66.0-1.0","""event"",""trial"",""time""
""focus"",""0"",""0""
""fullscreenenter"",""0"",""4441""
""fullscreenexit"",""77"",""424824""
""blur"",""77"",""426273""
""focus"",""77"",""433301""
""blur"",""77"",""451898""
""focus"",""77"",""467417""
""blur"",""77"",""481313""
""focus"",""77"",""484179""
""blur"",""77"",""485628""
""focus"",""77"",""485683""
","""event"",""trial"",""time""
""blur"",""77"",""426273""
""blur"",""77"",""451898""
""blur"",""77"",""481313""
""blur"",""77"",""485628""
","""event"",""trial"",""time""
""focus"",""0"",""0""
""focus"",""77"",""433301""
""focus"",""77"",""467417""
""focus"",""77"",""484179""
""focus"",""77"",""485683""
","""event"",""trial"",""time""
""fullscreenenter"",""0"",""4441""
","""event"",""trial"",""time""
""fullscreenexit"",""77"",""424824""
","null","<p></p>","null","","","","","","","","","","","","","","","","","","","","","","",""
"","do_trial","114","645182","0.0-67.0-0.0","""event"",""trial"",""time""
""focus"",""0"",""0""
""fullscreenenter"",""0"",""4441""
""fullscreenexit"",""77"",""424824""
""blur"",""77"",""426273""
""focus"",""77"",""433301""
""blur"",""77"",""451898""
""focus"",""77"",""467417""
""blur"",""77"",""481313""
""focus"",""77"",""484179""
""blur"",""77"",""485628""
""focus"",""77"",""485683""
","""event"",""trial"",""time""
""blur"",""77"",""426273""
""blur"",""77"",""451898""
""blur"",""77"",""481313""
""blur"",""77"",""485628""
","""event"",""trial"",""time""
""focus"",""0"",""0""
""focus"",""77"",""433301""
""focus"",""77"",""467417""
""focus"",""77"",""484179""
""focus"",""77"",""485683""
","""event"",""trial"",""time""
""fullscreenenter"",""0"",""4441""
","""event"",""trial"",""time""
""fullscreenexit"",""77"",""424824""
","290","","","","","","","","49","1,0,0","0","highway","11","probe-61","0.6252699117027958","0.2627866064777249","0.11572317857676226","1","","","","","","","",""
"","html-keyboard-response","115","646203","0.0-67.0-1.0","""event"",""trial"",""time""
""focus"",""0"",""0""
""fullscreenenter"",""0"",""4441""
""fullscreenexit"",""77"",""424824""
""blur"",""77"",""426273""
""focus"",""77"",""433301""
""blur"",""77"",""451898""
""focus"",""77"",""467417""
""blur"",""77"",""481313""
""focus"",""77"",""484179""
""blur"",""77"",""485628""
""focus"",""77"",""485683""
","""event"",""trial"",""time""
""blur"",""77"",""426273""
""blur"",""77"",""451898""
""blur"",""77"",""481313""
""blur"",""77"",""485628""
","""event"",""trial"",""time""
""focus"",""0"",""0""
""focus"",""77"",""433301""
""focus"",""77"",""467417""
""focus"",""77"",""484179""
""focus"",""77"",""485683""
","""event"",""trial"",""time""
""fullscreenenter"",""0"",""4441""
","""event"",""trial"",""time""
""fullscreenexit"",""77"",""424824""
","null","<p></p>","null","","","","","","","","","","","","","","","","","","","","","","",""
"","do_trial","116","650993","0.0-68.0-0.0","""event"",""trial"",""time""
""focus"",""0"",""0""
""fullscreenenter"",""0"",""4441""
""fullscreenexit"",""77"",""424824""
""blur"",""77"",""426273""
""focus"",""77"",""433301""
""blur"",""77"",""451898""
""focus"",""77"",""467417""
""blur"",""77"",""481313""
""focus"",""77"",""484179""
""blur"",""77"",""485628""
""focus"",""77"",""485683""
","""event"",""trial"",""time""
""blur"",""77"",""426273""
""blur"",""77"",""451898""
""blur"",""77"",""481313""
""blur"",""77"",""485628""
","""event"",""trial"",""time""
""focus"",""0"",""0""
""focus"",""77"",""433301""
""focus"",""77"",""467417""
""focus"",""77"",""484179""
""focus"",""77"",""485683""
","""event"",""trial"",""time""
""fullscreenenter"",""0"",""4441""
","""event"",""trial"",""time""
""fullscreenexit"",""77"",""424824""
","248","","","","","","","","49","1,0,0","0","highway","12","probe-212","0.6573537575743343","0.32289122145609056","0.1591515080060346","1","","","","","","","",""
"","html-keyboard-response","117","652012","0.0-68.0-1.0","""event"",""trial"",""time""
""focus"",""0"",""0""
""fullscreenenter"",""0"",""4441""
""fullscreenexit"",""77"",""424824""
""blur"",""77"",""426273""
""focus"",""77"",""433301""
""blur"",""77"",""451898""
""focus"",""77"",""467417""
""blur"",""77"",""481313""
""focus"",""77"",""484179""
""blur"",""77"",""485628""
""focus"",""77"",""485683""
","""event"",""trial"",""time""
""blur"",""77"",""426273""
""blur"",""77"",""451898""
""blur"",""77"",""481313""
""blur"",""77"",""485628""
","""event"",""trial"",""time""
""focus"",""0"",""0""
""focus"",""77"",""433301""
""focus"",""77"",""467417""
""focus"",""77"",""484179""
""focus"",""77"",""485683""
","""event"",""trial"",""time""
""fullscreenenter"",""0"",""4441""
","""event"",""trial"",""time""
""fullscreenexit"",""77"",""424824""
","null","<p></p>","null","","","","","","","","","","","","","","","","","","","","","","",""
"","do_trial","118","656822","0.0-69.0-0.0","""event"",""trial"",""time""
""focus"",""0"",""0""
""fullscreenenter"",""0"",""4441""
""fullscreenexit"",""77"",""424824""
""blur"",""77"",""426273""
""focus"",""77"",""433301""
""blur"",""77"",""451898""
""focus"",""77"",""467417""
""blur"",""77"",""481313""
""focus"",""77"",""484179""
""blur"",""77"",""485628""
""focus"",""77"",""485683""
","""event"",""trial"",""time""
""blur"",""77"",""426273""
""blur"",""77"",""451898""
""blur"",""77"",""481313""
""blur"",""77"",""485628""
","""event"",""trial"",""time""
""focus"",""0"",""0""
""focus"",""77"",""433301""
""focus"",""77"",""467417""
""focus"",""77"",""484179""
""focus"",""77"",""485683""
","""event"",""trial"",""time""
""fullscreenenter"",""0"",""4441""
","""event"",""trial"",""time""
""fullscreenexit"",""77"",""424824""
","288","","","","","","","","49","1,0,0","0","highway","13","probe-95","0.6500460576400299","0.17983886483772324","0.2856939940219125","1","","","","","","","",""
"","html-keyboard-response","119","657832","0.0-69.0-1.0","""event"",""trial"",""time""
""focus"",""0"",""0""
""fullscreenenter"",""0"",""4441""
""fullscreenexit"",""77"",""424824""
""blur"",""77"",""426273""
""focus"",""77"",""433301""
""blur"",""77"",""451898""
""focus"",""77"",""467417""
""blur"",""77"",""481313""
""focus"",""77"",""484179""
""blur"",""77"",""485628""
""focus"",""77"",""485683""
","""event"",""trial"",""time""
""blur"",""77"",""426273""
""blur"",""77"",""451898""
""blur"",""77"",""481313""
""blur"",""77"",""485628""
","""event"",""trial"",""time""
""focus"",""0"",""0""
""focus"",""77"",""433301""
""focus"",""77"",""467417""
""focus"",""77"",""484179""
""focus"",""77"",""485683""
","""event"",""trial"",""time""
""fullscreenenter"",""0"",""4441""
","""event"",""trial"",""time""
""fullscreenexit"",""77"",""424824""
","null","<p></p>","null","","","","","","","","","","","","","","","","","","","","","","",""
"","do_trial","120","662683","0.0-70.0-0.0","""event"",""trial"",""time""
""focus"",""0"",""0""
""fullscreenenter"",""0"",""4441""
""fullscreenexit"",""77"",""424824""
""blur"",""77"",""426273""
""focus"",""77"",""433301""
""blur"",""77"",""451898""
""focus"",""77"",""467417""
""blur"",""77"",""481313""
""focus"",""77"",""484179""
""blur"",""77"",""485628""
""focus"",""77"",""485683""
","""event"",""trial"",""time""
""blur"",""77"",""426273""
""blur"",""77"",""451898""
""blur"",""77"",""481313""
""blur"",""77"",""485628""
","""event"",""trial"",""time""
""focus"",""0"",""0""
""focus"",""77"",""433301""
""focus"",""77"",""467417""
""focus"",""77"",""484179""
""focus"",""77"",""485683""
","""event"",""trial"",""time""
""fullscreenenter"",""0"",""4441""
","""event"",""trial"",""time""
""fullscreenexit"",""77"",""424824""
","310","","","","","","","","49","0,0,0","0","highway","14","probe-42","0.6564063690380704","0.2536630610539753","0.25759675179251224","0","","","","","","","",""
"","html-keyboard-response","121","663702","0.0-70.0-1.0","""event"",""trial"",""time""
""focus"",""0"",""0""
""fullscreenenter"",""0"",""4441""
""fullscreenexit"",""77"",""424824""
""blur"",""77"",""426273""
""focus"",""77"",""433301""
""blur"",""77"",""451898""
""focus"",""77"",""467417""
""blur"",""77"",""481313""
""focus"",""77"",""484179""
""blur"",""77"",""485628""
""focus"",""77"",""485683""
","""event"",""trial"",""time""
""blur"",""77"",""426273""
""blur"",""77"",""451898""
""blur"",""77"",""481313""
""blur"",""77"",""485628""
","""event"",""trial"",""time""
""focus"",""0"",""0""
""focus"",""77"",""433301""
""focus"",""77"",""467417""
""focus"",""77"",""484179""
""focus"",""77"",""485683""
","""event"",""trial"",""time""
""fullscreenenter"",""0"",""4441""
","""event"",""trial"",""time""
""fullscreenexit"",""77"",""424824""
","null","<p></p>","null","","","","","","","","","","","","","","","","","","","","","","",""
"","do_trial","122","668532","0.0-71.0-0.0","""event"",""trial"",""time""
""focus"",""0"",""0""
""fullscreenenter"",""0"",""4441""
""fullscreenexit"",""77"",""424824""
""blur"",""77"",""426273""
""focus"",""77"",""433301""
""blur"",""77"",""451898""
""focus"",""77"",""467417""
""blur"",""77"",""481313""
""focus"",""77"",""484179""
""blur"",""77"",""485628""
""focus"",""77"",""485683""
","""event"",""trial"",""time""
""blur"",""77"",""426273""
""blur"",""77"",""451898""
""blur"",""77"",""481313""
""blur"",""77"",""485628""
","""event"",""trial"",""time""
""focus"",""0"",""0""
""focus"",""77"",""433301""
""focus"",""77"",""467417""
""focus"",""77"",""484179""
""focus"",""77"",""485683""
","""event"",""trial"",""time""
""fullscreenenter"",""0"",""4441""
","""event"",""trial"",""time""
""fullscreenexit"",""77"",""424824""
","299","","","","","","","","49","1,1,0","0","highway","15","probe-198","0.6101083004414123","0.39546663902383566","0.12802788118385705","1","","","","","","","",""
"","html-keyboard-response","123","669553","0.0-71.0-1.0","""event"",""trial"",""time""
""focus"",""0"",""0""
""fullscreenenter"",""0"",""4441""
""fullscreenexit"",""77"",""424824""
""blur"",""77"",""426273""
""focus"",""77"",""433301""
""blur"",""77"",""451898""
""focus"",""77"",""467417""
""blur"",""77"",""481313""
""focus"",""77"",""484179""
""blur"",""77"",""485628""
""focus"",""77"",""485683""
","""event"",""trial"",""time""
""blur"",""77"",""426273""
""blur"",""77"",""451898""
""blur"",""77"",""481313""
""blur"",""77"",""485628""
","""event"",""trial"",""time""
""focus"",""0"",""0""
""focus"",""77"",""433301""
""focus"",""77"",""467417""
""focus"",""77"",""484179""
""focus"",""77"",""485683""
","""event"",""trial"",""time""
""fullscreenenter"",""0"",""4441""
","""event"",""trial"",""time""
""fullscreenexit"",""77"",""424824""
","null","<p></p>","null","","","","","","","","","","","","","","","","","","","","","","",""
"","do_trial","124","674442","0.0-72.0-0.0","""event"",""trial"",""time""
""focus"",""0"",""0""
""fullscreenenter"",""0"",""4441""
""fullscreenexit"",""77"",""424824""
""blur"",""77"",""426273""
""focus"",""77"",""433301""
""blur"",""77"",""451898""
""focus"",""77"",""467417""
""blur"",""77"",""481313""
""focus"",""77"",""484179""
""blur"",""77"",""485628""
""focus"",""77"",""485683""
","""event"",""trial"",""time""
""blur"",""77"",""426273""
""blur"",""77"",""451898""
""blur"",""77"",""481313""
""blur"",""77"",""485628""
","""event"",""trial"",""time""
""focus"",""0"",""0""
""focus"",""77"",""433301""
""focus"",""77"",""467417""
""focus"",""77"",""484179""
""focus"",""77"",""485683""
","""event"",""trial"",""time""
""fullscreenenter"",""0"",""4441""
","""event"",""trial"",""time""
""fullscreenexit"",""77"",""424824""
","364","","","","","","","","49","0,1,0","0","highway","16","probe-164","0.6338475927263033","0.4757262597051388","0.14180579187848438","0","","","","","","","",""
"","html-keyboard-response","125","675462","0.0-72.0-1.0","""event"",""trial"",""time""
""focus"",""0"",""0""
""fullscreenenter"",""0"",""4441""
""fullscreenexit"",""77"",""424824""
""blur"",""77"",""426273""
""focus"",""77"",""433301""
""blur"",""77"",""451898""
""focus"",""77"",""467417""
""blur"",""77"",""481313""
""focus"",""77"",""484179""
""blur"",""77"",""485628""
""focus"",""77"",""485683""
","""event"",""trial"",""time""
""blur"",""77"",""426273""
""blur"",""77"",""451898""
""blur"",""77"",""481313""
""blur"",""77"",""485628""
","""event"",""trial"",""time""
""focus"",""0"",""0""
""focus"",""77"",""433301""
""focus"",""77"",""467417""
""focus"",""77"",""484179""
""focus"",""77"",""485683""
","""event"",""trial"",""time""
""fullscreenenter"",""0"",""4441""
","""event"",""trial"",""time""
""fullscreenexit"",""77"",""424824""
","null","<p></p>","null","","","","","","","","","","","","","","","","","","","","","","",""
"","do_trial","126","680673","0.0-73.0-0.0","""event"",""trial"",""time""
""focus"",""0"",""0""
""fullscreenenter"",""0"",""4441""
""fullscreenexit"",""77"",""424824""
""blur"",""77"",""426273""
""focus"",""77"",""433301""
""blur"",""77"",""451898""
""focus"",""77"",""467417""
""blur"",""77"",""481313""
""focus"",""77"",""484179""
""blur"",""77"",""485628""
""focus"",""77"",""485683""
","""event"",""trial"",""time""
""blur"",""77"",""426273""
""blur"",""77"",""451898""
""blur"",""77"",""481313""
""blur"",""77"",""485628""
","""event"",""trial"",""time""
""focus"",""0"",""0""
""focus"",""77"",""433301""
""focus"",""77"",""467417""
""focus"",""77"",""484179""
""focus"",""77"",""485683""
","""event"",""trial"",""time""
""fullscreenenter"",""0"",""4441""
","""event"",""trial"",""time""
""fullscreenexit"",""77"",""424824""
","682","","","","","","","","49","1,0,0","0","highway","17","probe-87","0.7201368394141051","0.4179254792913554","0.11006013354600881","1","","","","","","","",""
"","html-keyboard-response","127","681692","0.0-73.0-1.0","""event"",""trial"",""time""
""focus"",""0"",""0""
""fullscreenenter"",""0"",""4441""
""fullscreenexit"",""77"",""424824""
""blur"",""77"",""426273""
""focus"",""77"",""433301""
""blur"",""77"",""451898""
""focus"",""77"",""467417""
""blur"",""77"",""481313""
""focus"",""77"",""484179""
""blur"",""77"",""485628""
""focus"",""77"",""485683""
","""event"",""trial"",""time""
""blur"",""77"",""426273""
""blur"",""77"",""451898""
""blur"",""77"",""481313""
""blur"",""77"",""485628""
","""event"",""trial"",""time""
""focus"",""0"",""0""
""focus"",""77"",""433301""
""focus"",""77"",""467417""
""focus"",""77"",""484179""
""focus"",""77"",""485683""
","""event"",""trial"",""time""
""fullscreenenter"",""0"",""4441""
","""event"",""trial"",""time""
""fullscreenexit"",""77"",""424824""
","null","<p></p>","null","","","","","","","","","","","","","","","","","","","","","","",""
"","do_trial","128","686312","0.0-74.0-0.0","""event"",""trial"",""time""
""focus"",""0"",""0""
""fullscreenenter"",""0"",""4441""
""fullscreenexit"",""77"",""424824""
""blur"",""77"",""426273""
""focus"",""77"",""433301""
""blur"",""77"",""451898""
""focus"",""77"",""467417""
""blur"",""77"",""481313""
""focus"",""77"",""484179""
""blur"",""77"",""485628""
""focus"",""77"",""485683""
","""event"",""trial"",""time""
""blur"",""77"",""426273""
""blur"",""77"",""451898""
""blur"",""77"",""481313""
""blur"",""77"",""485628""
","""event"",""trial"",""time""
""focus"",""0"",""0""
""focus"",""77"",""433301""
""focus"",""77"",""467417""
""focus"",""77"",""484179""
""focus"",""77"",""485683""
","""event"",""trial"",""time""
""fullscreenenter"",""0"",""4441""
","""event"",""trial"",""time""
""fullscreenexit"",""77"",""424824""
","85","","","","","","","","49","0,1,0","0","highway","18","probe-157","0.6204309576718798","0.4535432076988017","0.08729488476152637","0","","","","","","","",""
"","html-keyboard-response","129","687332","0.0-74.0-1.0","""event"",""trial"",""time""
""focus"",""0"",""0""
""fullscreenenter"",""0"",""4441""
""fullscreenexit"",""77"",""424824""
""blur"",""77"",""426273""
""focus"",""77"",""433301""
""blur"",""77"",""451898""
""focus"",""77"",""467417""
""blur"",""77"",""481313""
""focus"",""77"",""484179""
""blur"",""77"",""485628""
""focus"",""77"",""485683""
","""event"",""trial"",""time""
""blur"",""77"",""426273""
""blur"",""77"",""451898""
""blur"",""77"",""481313""
""blur"",""77"",""485628""
","""event"",""trial"",""time""
""focus"",""0"",""0""
""focus"",""77"",""433301""
""focus"",""77"",""467417""
""focus"",""77"",""484179""
""focus"",""77"",""485683""
","""event"",""trial"",""time""
""fullscreenenter"",""0"",""4441""
","""event"",""trial"",""time""
""fullscreenexit"",""77"",""424824""
","null","<p></p>","null","","","","","","","","","","","","","","","","","","","","","","",""
"","do_trial","130","692182","0.0-75.0-0.0","""event"",""trial"",""time""
""focus"",""0"",""0""
""fullscreenenter"",""0"",""4441""
""fullscreenexit"",""77"",""424824""
""blur"",""77"",""426273""
""focus"",""77"",""433301""
""blur"",""77"",""451898""
""focus"",""77"",""467417""
""blur"",""77"",""481313""
""focus"",""77"",""484179""
""blur"",""77"",""485628""
""focus"",""77"",""485683""
","""event"",""trial"",""time""
""blur"",""77"",""426273""
""blur"",""77"",""451898""
""blur"",""77"",""481313""
""blur"",""77"",""485628""
","""event"",""trial"",""time""
""focus"",""0"",""0""
""focus"",""77"",""433301""
""focus"",""77"",""467417""
""focus"",""77"",""484179""
""focus"",""77"",""485683""
","""event"",""trial"",""time""
""fullscreenenter"",""0"",""4441""
","""event"",""trial"",""time""
""fullscreenexit"",""77"",""424824""
","308","","","","","","","","49","1,0,0","0","highway","19","probe-155","0.5237315293425214","0.3420716417151504","0.11516021010810121","1","","","","","","","",""
"","html-keyboard-response","131","693202","0.0-75.0-1.0","""event"",""trial"",""time""
""focus"",""0"",""0""
""fullscreenenter"",""0"",""4441""
""fullscreenexit"",""77"",""424824""
""blur"",""77"",""426273""
""focus"",""77"",""433301""
""blur"",""77"",""451898""
""focus"",""77"",""467417""
""blur"",""77"",""481313""
""focus"",""77"",""484179""
""blur"",""77"",""485628""
""focus"",""77"",""485683""
","""event"",""trial"",""time""
""blur"",""77"",""426273""
""blur"",""77"",""451898""
""blur"",""77"",""481313""
""blur"",""77"",""485628""
","""event"",""trial"",""time""
""focus"",""0"",""0""
""focus"",""77"",""433301""
""focus"",""77"",""467417""
""focus"",""77"",""484179""
""focus"",""77"",""485683""
","""event"",""trial"",""time""
""fullscreenenter"",""0"",""4441""
","""event"",""trial"",""time""
""fullscreenexit"",""77"",""424824""
","null","<p></p>","null","","","","","","","","","","","","","","","","","","","","","","",""
"","do_trial","132","698012","0.0-76.0-0.0","""event"",""trial"",""time""
""focus"",""0"",""0""
""fullscreenenter"",""0"",""4441""
""fullscreenexit"",""77"",""424824""
""blur"",""77"",""426273""
""focus"",""77"",""433301""
""blur"",""77"",""451898""
""focus"",""77"",""467417""
""blur"",""77"",""481313""
""focus"",""77"",""484179""
""blur"",""77"",""485628""
""focus"",""77"",""485683""
","""event"",""trial"",""time""
""blur"",""77"",""426273""
""blur"",""77"",""451898""
""blur"",""77"",""481313""
""blur"",""77"",""485628""
","""event"",""trial"",""time""
""focus"",""0"",""0""
""focus"",""77"",""433301""
""focus"",""77"",""467417""
""focus"",""77"",""484179""
""focus"",""77"",""485683""
","""event"",""trial"",""time""
""fullscreenenter"",""0"",""4441""
","""event"",""trial"",""time""
""fullscreenexit"",""77"",""424824""
","268","","","","","","","","49","1,1,0","0","highway","20","probe-71","0.6083030725382148","0.33412446179689725","0.17545277252352506","1","","","","","","","",""
"","html-keyboard-response","133","699033","0.0-76.0-1.0","""event"",""trial"",""time""
""focus"",""0"",""0""
""fullscreenenter"",""0"",""4441""
""fullscreenexit"",""77"",""424824""
""blur"",""77"",""426273""
""focus"",""77"",""433301""
""blur"",""77"",""451898""
""focus"",""77"",""467417""
""blur"",""77"",""481313""
""focus"",""77"",""484179""
""blur"",""77"",""485628""
""focus"",""77"",""485683""
","""event"",""trial"",""time""
""blur"",""77"",""426273""
""blur"",""77"",""451898""
""blur"",""77"",""481313""
""blur"",""77"",""485628""
","""event"",""trial"",""time""
""focus"",""0"",""0""
""focus"",""77"",""433301""
""focus"",""77"",""467417""
""focus"",""77"",""484179""
""focus"",""77"",""485683""
","""event"",""trial"",""time""
""fullscreenenter"",""0"",""4441""
","""event"",""trial"",""time""
""fullscreenexit"",""77"",""424824""
","null","<p></p>","null","","","","","","","","","","","","","","","","","","","","","","",""
"","do_trial","134","703842","0.0-77.0-0.0","""event"",""trial"",""time""
""focus"",""0"",""0""
