"success","trial_type","trial_index","time_elapsed","internal_node_id","interactions","blur_events","focus_events","fullscreenenter_events","fullscreenexit_events","rt","stimulus","key_press","subject_id","participant_id","age","gender","prompt","response","choice_outcomes","context_n","context_img_id","trial_n","probe_img_id","pR_red","pR_white","pR_black","outcome","contextArray_ind","validImageProbes","invalidImageProbes","pRew_Red","pRew_White","pRew_Black","availableForMemProbe","choice_blocks"
"true","fullscreen","0","3167","0.0-0.0","""event"",""trial"",""time""
""fullscreenenter"",""0"",""2200""
","
","
","""event"",""trial"",""time""
""fullscreenenter"",""0"",""2200""
","
","","","","","","","","","","","","","","","","","","","","","","","","","",""
"","pavlovia","1","3173","0.0-1.0","""event"",""trial"",""time""
""fullscreenenter"",""0"",""2200""
","
","
","""event"",""trial"",""time""
""fullscreenenter"",""0"",""2200""
","
","","","","","","","","","","","","","","","","","","","","","","","","","",""
"","instruc1","2","48319","0.0-2.0","""event"",""trial"",""time""
""fullscreenenter"",""0"",""2200""
","
","
","""event"",""trial"",""time""
""fullscreenenter"",""0"",""2200""
","
","null","run_exp/static/audio/clip_1_welcome.m4a","null","271","136","14","Male","<div class='center'><p>Welcome! This is the first part of the study. It will last ~30 minutes. In part 1 and part 2 of the study, you are the head captain of a pirate ship traveling around the world to different islands. You will play a few different games throughout these two parts. Here is an overview of them:</p><br><p>Part 1 (today)</p><p>1. Instructions, practice game, and quiz</p><p>2. Pick a pirate game on 6 different islands</p><br><p>Part 2 (tomorrow)</p><p>3. Pick a pirate game and memory game</p><p>4. Where did you see this ship? </p></div>","","","","","","","","","","","","","","","","","",""
"","html-keyboard-response","3","49305","0.0-3.0","""event"",""trial"",""time""
""fullscreenenter"",""0"",""2200""
","
","
","""event"",""trial"",""time""
""fullscreenenter"",""0"",""2200""
","
","983.1999999880791","<div class='center'><p>Welcome! This is the first part of the study. It will last ~30 minutes. In part 1 and part 2 of the study, you are the head captain of a pirate ship traveling around the world to different islands. You will play a few different games throughout these two parts. Here is an overview of them:</p><br><p>Part 1 (today)</p><p>1. Instructions, practice game, and quiz</p><p>2. Pick a pirate game on 6 different islands</p><br><p>Part 2 (tomorrow)</p><p>3. Pick a pirate game and memory game</p><p>4. Where did you see this ship? </p><p><b>[Press the space bar to continue]</b></p></div>","32","","","","","","","","","","","","","","","","","","","","","","",""
"","instruc2","4","54637","0.0-4.0","""event"",""trial"",""time""
""fullscreenenter"",""0"",""2200""
","
","
","""event"",""trial"",""time""
""fullscreenenter"",""0"",""2200""
","
","null","run_exp/static/audio/clip_2_different_places.m4a","null","","","","","<div class='center'><p>Today, you’ll visit these 6 islands on your journey. You'll be able to see these islands from your ship.</p><p><img src='run_exp/static/images/contexts/all_contexts.png' height='500'></p></div>","","","","","","","","","","","","","","","","","",""
"","html-keyboard-response","5","56143","0.0-5.0","""event"",""trial"",""time""
""fullscreenenter"",""0"",""2200""
","
","
","""event"",""trial"",""time""
""fullscreenenter"",""0"",""2200""
","
","1503.300000011921","<div class='center'><p>Today, you’ll visit these 6 islands on your journey. You'll be able to see these islands from your ship.</p><p><img src='run_exp/static/images/contexts/all_contexts.png' height='500'></p><p><b>[Press the space bar to continue]</b></p></div>","32","","","","","","","","","","","","","","","","","","","","","","",""
"","instruc3","6","65856","0.0-6.0","""event"",""trial"",""time""
""fullscreenenter"",""0"",""2200""
","
","
","""event"",""trial"",""time""
""fullscreenenter"",""0"",""2200""
","
","null","run_exp/static/audio/clip_3_goal_of_game_1.m4a","null","","","","","<div class='center'><p> The pirates on your ship will rob other ships as they leave the island.</p> These ships have just sold their goods to the islanders, so they will be filled with lots and lots of gold.</p><p><img src='run_exp/static/images/tutorial/ship_center.png' height='400'></p></div>","","","","","","","","","","","","","","","","","",""
"","html-keyboard-response","7","66190","0.0-7.0","""event"",""trial"",""time""
""fullscreenenter"",""0"",""2200""
","
","
","""event"",""trial"",""time""
""fullscreenenter"",""0"",""2200""
","
","330.89999997615814","<div class='center'><p> The pirates on your ship will rob other ships as they leave the island.</p> These ships have just sold their goods to the islanders, so they will be filled with lots and lots of gold.</p><p><img src='run_exp/static/images/tutorial/ship_center.png' height='400'></p><p><b>[Press the space bar to continue]</b></p></div>","32","","","","","","","","","","","","","","","","","","","","","","",""
"","instruc4","8","94237","0.0-8.0","""event"",""trial"",""time""
""fullscreenenter"",""0"",""2200""
","
","
","""event"",""trial"",""time""
""fullscreenenter"",""0"",""2200""
","
","null","run_exp/static/audio/clip_4_goal_of_game_2.m4a","null","","","","","<div class='center'><p>As the head captain, you do not have to rob any ships yourself. Another pirate will be doing the robbing for you. First, you will choose a pirate to rob the next ship.</p><p><img src='run_exp/static/images/tutorial/pirates_all_crop.png' height='200'></p><p>Then, you'll see if the pirate successfully robbed the ship of their gold. If they were successful, then you'll get a stack of gold coins like this:</p><p><img src='run_exp/static/images/tutorial/reward.png' height='150'></p><p> If they were <b>not</b> successful, then you'll get no gold coins, and you'll see a big red x like this: </p><p><img src='run_exp/static/images/tutorial/reward_no.png' height='150'></p><p> How much bonus money you make is based on how many gold coins you collect.</p><div>","","","","","","","","","","","","","","","","","",""
"","html-keyboard-response","9","95828","0.0-9.0","""event"",""trial"",""time""
""fullscreenenter"",""0"",""2200""
","
","
","""event"",""trial"",""time""
""fullscreenenter"",""0"",""2200""
","
","1588","<div class='center'><p>As the head captain, you do not have to rob any ships yourself. Another pirate will be doing the robbing for you. First, you will choose a pirate to rob the next ship.</p><p><img src='run_exp/static/images/tutorial/pirates_all_crop.png' height='200'></p><p>Then, you'll see if the pirate successfully robbed the ship of their gold. If they were successful, then you'll get a stack of gold coins like this:</p><p><img src='run_exp/static/images/tutorial/reward.png' height='150'></p><p> If they were <b>not</b> successful, then you'll get no gold coins, and you'll see a big red x like this: </p><p><img src='run_exp/static/images/tutorial/reward_no.png' height='150'></p><p> How much bonus money you make is based on how many gold coins you collect.</p<p><b>[Press the space bar to continue]</b></p></div>","32","","","","","","","","","","","","","","","","","","","","","","",""
"","instruc5","10","117100","0.0-10.0","""event"",""trial"",""time""
""fullscreenenter"",""0"",""2200""
","
","
","""event"",""trial"",""time""
""fullscreenenter"",""0"",""2200""
","
","21269.80000001192","run_exp/static/audio/clip_5_probabilistic.m4a","49","","","","","<div class='center'><p>Even the most skilled pirate can not rob EVERY ship.</p><p> Some ships will have very strong protections against pirate attacks.</p><p> Blue beard, here, is very, very good at robbing ships, but he won't be successful every time he tries to rob one.</p><p> You can press the <b>‘1’</b> key on the keyboard to choose him.</p><p> Try choosing him 10 times to see how often he succeeds at robbing a ship. </p><p><img src='run_exp/static/images/tutorial/blue.png' height='500'></p></div>","","","","","","","","","","","","","","","","","",""
"","html-keyboard-response","11","118611","0.0-11.0","""event"",""trial"",""time""
""fullscreenenter"",""0"",""2200""
","
","
","""event"",""trial"",""time""
""fullscreenenter"",""0"",""2200""
","
","null","<div class='center'><p><img src='run_exp/static/images/tutorial/blue_win.png' height='500'></p></div>","null","","","","","","","","","","","","","","","","","","","","","","",""
"","html-keyboard-response","12","119477","0.0-12.0","""event"",""trial"",""time""
""fullscreenenter"",""0"",""2200""
","
","
","""event"",""trial"",""time""
""fullscreenenter"",""0"",""2200""
","
","864.2000000476837","<div class='center'><img src='run_exp/static/images/tutorial/blue.png' height='500'></p></div>","49","","","","","","","","","","","","","","","","","","","","","","",""
"","html-keyboard-response","13","120982","0.0-13.0","""event"",""trial"",""time""
""fullscreenenter"",""0"",""2200""
","
","
","""event"",""trial"",""time""
""fullscreenenter"",""0"",""2200""
","
","null","<div class='center'><p><img src='run_exp/static/images/tutorial/blue_win.png' height='500'></p></div>","null","","","","","","","","","","","","","","","","","","","","","","",""
"","html-keyboard-response","14","121262","0.0-14.0","""event"",""trial"",""time""
""fullscreenenter"",""0"",""2200""
","
","
","""event"",""trial"",""time""
""fullscreenenter"",""0"",""2200""
","
","278.5999999642372","<div class='center'><img src='run_exp/static/images/tutorial/blue.png' height='500'></p></div>","49","","","","","","","","","","","","","","","","","","","","","","",""
"","html-keyboard-response","15","122772","0.0-15.0","""event"",""trial"",""time""
""fullscreenenter"",""0"",""2200""
","
","
","""event"",""trial"",""time""
""fullscreenenter"",""0"",""2200""
","
","null","<div class='center'><p><img src='run_exp/static/images/tutorial/blue_win.png' height='500'></p></div>","null","","","","","","","","","","","","","","","","","","","","","","",""
"","html-keyboard-response","16","123015","0.0-16.0","""event"",""trial"",""time""
""fullscreenenter"",""0"",""2200""
","
","
","""event"",""trial"",""time""
""fullscreenenter"",""0"",""2200""
","
","242.19999998807907","<div class='center'><img src='run_exp/static/images/tutorial/blue.png' height='500'></p></div>","49","","","","","","","","","","","","","","","","","","","","","","",""
"","html-keyboard-response","17","124527","0.0-17.0","""event"",""trial"",""time""
""fullscreenenter"",""0"",""2200""
","
","
","""event"",""trial"",""time""
""fullscreenenter"",""0"",""2200""
","
","null","<div class='center'><p><img src='run_exp/static/images/tutorial/blue_no_win.png' height='500'></p></div>","null","","","","","","","","","","","","","","","","","","","","","","",""
"","html-keyboard-response","18","124795","0.0-18.0","""event"",""trial"",""time""
""fullscreenenter"",""0"",""2200""
","
","
","""event"",""trial"",""time""
""fullscreenenter"",""0"",""2200""
","
","267.4000000357628","<div class='center'><img src='run_exp/static/images/tutorial/blue.png' height='500'></p></div>","49","","","","","","","","","","","","","","","","","","","","","","",""
"","html-keyboard-response","19","126307","0.0-19.0","""event"",""trial"",""time""
""fullscreenenter"",""0"",""2200""
","
","
","""event"",""trial"",""time""
""fullscreenenter"",""0"",""2200""
","
","null","<div class='center'><p><img src='run_exp/static/images/tutorial/blue_win.png' height='500'></p></div>","null","","","","","","","","","","","","","","","","","","","","","","",""
"","html-keyboard-response","20","126419","0.0-20.0","""event"",""trial"",""time""
""fullscreenenter"",""0"",""2200""
","
","
","""event"",""trial"",""time""
""fullscreenenter"",""0"",""2200""
","
","110","<div class='center'><img src='run_exp/static/images/tutorial/blue.png' height='500'></p></div>","49","","","","","","","","","","","","","","","","","","","","","","",""
"","html-keyboard-response","21","127922","0.0-21.0","""event"",""trial"",""time""
""fullscreenenter"",""0"",""2200""
","
","
","""event"",""trial"",""time""
""fullscreenenter"",""0"",""2200""
","
","null","<div class='center'><p><img src='run_exp/static/images/tutorial/blue_win.png' height='500'></p></div>","null","","","","","","","","","","","","","","","","","","","","","","",""
"","html-keyboard-response","22","128202","0.0-22.0","""event"",""trial"",""time""
""fullscreenenter"",""0"",""2200""
","
","
","""event"",""trial"",""time""
""fullscreenenter"",""0"",""2200""
","
","278.7000000476837","<div class='center'><img src='run_exp/static/images/tutorial/blue.png' height='500'></p></div>","49","","","","","","","","","","","","","","","","","","","","","","",""
"","html-keyboard-response","23","129707","0.0-23.0","""event"",""trial"",""time""
""fullscreenenter"",""0"",""2200""
","
","
","""event"",""trial"",""time""
""fullscreenenter"",""0"",""2200""
","
","null","<div class='center'><p><img src='run_exp/static/images/tutorial/blue_win.png' height='500'></p></div>","null","","","","","","","","","","","","","","","","","","","","","","",""
"","html-keyboard-response","24","129714","0.0-24.0","""event"",""trial"",""time""
""fullscreenenter"",""0"",""2200""
","
","
","""event"",""trial"",""time""
""fullscreenenter"",""0"",""2200""
","
","5.899999976158142","<div class='center'><img src='run_exp/static/images/tutorial/blue.png' height='500'></p></div>","49","","","","","","","","","","","","","","","","","","","","","","",""
"","html-keyboard-response","25","131219","0.0-25.0","""event"",""trial"",""time""
""fullscreenenter"",""0"",""2200""
","
","
","""event"",""trial"",""time""
""fullscreenenter"",""0"",""2200""
","
","null","<div class='center'><p><img src='run_exp/static/images/tutorial/blue_no_win.png' height='500'></p></div>","null","","","","","","","","","","","","","","","","","","","","","","",""
"","html-keyboard-response","26","131568","0.0-26.0","""event"",""trial"",""time""
""fullscreenenter"",""0"",""2200""
","
","
","""event"",""trial"",""time""
""fullscreenenter"",""0"",""2200""
","
","347.80000001192093","<div class='center'><img src='run_exp/static/images/tutorial/blue.png' height='500'></p></div>","49","","","","","","","","","","","","","","","","","","","","","","",""
"","html-keyboard-response","27","133076","0.0-27.0","""event"",""trial"",""time""
""fullscreenenter"",""0"",""2200""
","
","
","""event"",""trial"",""time""
""fullscreenenter"",""0"",""2200""
","
","null","<div class='center'><p><img src='run_exp/static/images/tutorial/blue_win.png' height='500'></p></div>","null","","","","","","","","","","","","","","","","","","","","","","",""
"","html-keyboard-response","28","133357","0.0-28.0","""event"",""trial"",""time""
""fullscreenenter"",""0"",""2200""
","
","
","""event"",""trial"",""time""
""fullscreenenter"",""0"",""2200""
","
","279.10000002384186","<div class='center'><img src='run_exp/static/images/tutorial/blue.png' height='500'></p></div>","49","","","","","","","","","","","","","","","","","","","","","","",""
"","html-keyboard-response","29","134859","0.0-29.0","""event"",""trial"",""time""
""fullscreenenter"",""0"",""2200""
","
","
","""event"",""trial"",""time""
""fullscreenenter"",""0"",""2200""
","
","null","<div class='center'><p><img src='run_exp/static/images/tutorial/blue_win.png' height='500'></p></div>","null","","","","","","","","","","","","","","","","","","","","","","",""
"","instruc6","30","140296","0.0-30.0","""event"",""trial"",""time""
""fullscreenenter"",""0"",""2200""
","
","
","""event"",""trial"",""time""
""fullscreenenter"",""0"",""2200""
","
","null","run_exp/static/audio/clip_6_blue_beard_outcome.m4a","null","","","","","<div class='center'><p> See, he succeeded in robbing the ships most of the time but not every time. </p></div>","","","","","","","","","","","","","","","","","",""
"","html-keyboard-response","31","141433","0.0-31.0","""event"",""trial"",""time""
""fullscreenenter"",""0"",""2200""
","
","
","""event"",""trial"",""time""
""fullscreenenter"",""0"",""2200""
","
","1134.800000011921","<div class='center'><p> See, he succeeded in robbing the ships most of the time but not every time. </p><p><b>[Press the space bar to continue]</b></p></div>","32","","","","","","","","","","","","","","","","","","","","","","",""
"","audio-keyboard-response","32","158233","0.0-32.0","""event"",""trial"",""time""
""fullscreenenter"",""0"",""2200""
","
","
","""event"",""trial"",""time""
""fullscreenenter"",""0"",""2200""
","
","16797.899999976158","run_exp/static/audio/clip_7_pick_pirate.m4a","50","","","","","","","","","","","","","","","","","","","","","","",""
"","audio-keyboard-response","33","159383","0.0-33.0-0.0","""event"",""trial"",""time""
""fullscreenenter"",""0"",""2200""
","
","
","""event"",""trial"",""time""
""fullscreenenter"",""0"",""2200""
","
","1145.9000000357628","run_exp/static/audio/clip_8_chosen_pirate_win.m4a","32","","","","","","","","","","","","","","","","","","","","","","",""
"","audio-keyboard-response","34","160283","0.0-33.0-1.0","""event"",""trial"",""time""
""fullscreenenter"",""0"",""2200""
","
","
","""event"",""trial"",""time""
""fullscreenenter"",""0"",""2200""
","
","897.3000000119209","run_exp/static/audio/clip_9_pick_a_pirate_again.m4a","51","","","","","","","","","","","","","","","","","","","","","","",""
"","audio-keyboard-response","35","160892","0.0-34.0-0.0","""event"",""trial"",""time""
""fullscreenenter"",""0"",""2200""
","
","
","""event"",""trial"",""time""
""fullscreenenter"",""0"",""2200""
","
","604.6000000238419","run_exp/static/audio/clip_10_chosen_pirate_loss.m4a","32","","","","","","","","","","","","","","","","","","","","","","",""
"","instruc9","36","166417","0.0-35.0-0.0","""event"",""trial"",""time""
""fullscreenenter"",""0"",""2200""
","
","
","""event"",""trial"",""time""
""fullscreenenter"",""0"",""2200""
","
","null","run_exp/static/audio/clip_11_time_out.m4a","null","","","","","<div class='center'><p>If you don’t make your choice fast enough, you’ll have to wait a few seconds before you can make another one. </p><p><img src='run_exp/static/images/miscellaneous/hurry_up.png' height='500'></p></div>","","","","","","","","","","","","","","","","","",""
"","html-keyboard-response","37","167158","0.0-35.0-1.0","""event"",""trial"",""time""
""fullscreenenter"",""0"",""2200""
","
","
","""event"",""trial"",""time""
""fullscreenenter"",""0"",""2200""
","
","739","<div class='center'><p>If you don’t make your choice fast enough, you’ll have to wait a few seconds before you can make another one. </p><p><img src='run_exp/static/images/miscellaneous/hurry_up.png' height='500'></p><p><b>[Press the space bar to continue]</b></p></div>","32","","","","","","","","","","","","","","","","","","","","","","",""
"","instruc10","38","206258","0.0-35.0-2.0","""event"",""trial"",""time""
""fullscreenenter"",""0"",""2200""
","
","
","""event"",""trial"",""time""
""fullscreenenter"",""0"",""2200""
","
","null","run_exp/static/audio/clip_12_probe.m4a","null","","","","","<div class='center'><p>Once you've chosen a pirate, you’ll be shown the ship they are robbing. You will never rob the same ship twice. Ships can be told apart from one another by the image on them. These are the goods that they sell. See, this ship has a travel mug on it. </p><p> You’ll have to remember which island you saw each ship on. You will win more gold coins and hence more bonus money if you remember correctly! To help you remember, you can imagine a story. For example, here, you could imagine a mug full of water in the desert. Or, as another example, if on the forest island, your pirate robbed a ship with an apple on it, you could imagine an apple falling from a tree in the forest. </p><p><img src='run_exp/static/images/tutorial/example_probe.png' height='500'></p></div>","","","","","","","","","","","","","","","","","",""
"","html-keyboard-response","39","207084","0.0-35.0-3.0","""event"",""trial"",""time""
""fullscreenenter"",""0"",""2200""
","
","
","""event"",""trial"",""time""
""fullscreenenter"",""0"",""2200""
","
","824.0999999642372","<div class='center'><p>Once you've chosen a pirate, you’ll be shown the ship they are robbing. You will never rob the same ship twice. Ships can be told apart from one another by the image on them. These are the goods that they sell. See, this ship has a travel mug on it. </p><p> You’ll have to remember which island you saw each ship on. You will win more gold coins and hence more bonus money if you remember correctly! To help you remember, you can imagine a story. For example, here, you could imagine a mug full of water in the desert. Or, as another example, if on the forest island, your pirate robbed a ship with an apple on it, you could imagine an apple falling from a tree in the forest. </p><p><img src='run_exp/static/images/tutorial/example_probe.png' height='500'></p><p><b>[Press the space bar to continue]</b></p></div>","32","","","","","","","","","","","","","","","","","","","","","","",""
"","instruc11","40","223497","0.0-35.0-4.0","""event"",""trial"",""time""
""fullscreenenter"",""0"",""2200""
","
","
","""event"",""trial"",""time""
""fullscreenenter"",""0"",""2200""
","
","null","run_exp/static/audio/clip_13_changepoint.m4a","null","","","","","<div class='center'><p>How successful a pirate is at robbing ships will depend on the island you’re on.</p><p> A pirate may have visited this island many times before and gained a lot of practice robbing ships there.</p><p>So, they’re more likely to be successful than a pirate who has never visited the island before.</p></div>","","","","","","","","","","","","","","","","","",""
"","html-keyboard-response","41","223868","0.0-35.0-5.0","""event"",""trial"",""time""
""fullscreenenter"",""0"",""2200""
","
","
","""event"",""trial"",""time""
""fullscreenenter"",""0"",""2200""
","
","369.0999999642372","<div class='center'><p>How successful a pirate is at robbing ships will depend on the island you’re on.</p><p> A pirate may have visited this island many times before and gained a lot of practice robbing ships there.</p><p>So, they’re more likely to be successful than a pirate who has never visited the island before.</p><p><b>[Press the space bar to continue]</b></p></div>","32","","","","","","","","","","","","","","","","","","","","","","",""
"","instruc12","42","264957","0.0-35.0-6.0","""event"",""trial"",""time""
""fullscreenenter"",""0"",""2200""
","
","
","""event"",""trial"",""time""
""fullscreenenter"",""0"",""2200""
","
","null","run_exp/static/audio/clip_14_drift.m4a","null","","","","","<div class='center'><p>How successful a pirate is at robbing ships can also change over the time spent on the island. </p><p> Ships may hear from islanders about the pirates coming and will improve their protections against the attack. This may make it harder to rob them.</p><p> Ships may also become lazy and weaken the strength of their protections. This may make it easier to rob them.</p><br><p>Things are always changing on the high seas! So, try your best to pay attention!</p><p><img src='run_exp/static/images/tutorial/contingency.png' height='500'></p></div>","","","","","","","","","","","","","","","","","",""
"","html-keyboard-response","43","265677","0.0-35.0-7.0","""event"",""trial"",""time""
""fullscreenenter"",""0"",""2200""
","
","
","""event"",""trial"",""time""
""fullscreenenter"",""0"",""2200""
","
","716.8999999761581","<div class='center'><p>How successful a pirate is at robbing ships can also change over the time spent on the island. </p><p> Ships may hear from islanders about the pirates coming and will improve their protections against the attack. This may make it harder to rob them.</p><p> Ships may also become lazy and weaken the strength of their protections. This may make it easier to rob them.</p><br><p>Things are always changing on the high seas! So, try your best to pay attention!</p><p><img src='run_exp/static/images/tutorial/contingency.png' height='500'></p><p><b>[Press the space bar to continue]</b></p></div>","32","","","","","","","","","","","","","","","","","","","","","","",""
"","instruc13","44","300876","0.0-35.0-8.0","""event"",""trial"",""time""
""fullscreenenter"",""0"",""2200""
","
","
","""event"",""trial"",""time""
""fullscreenenter"",""0"",""2200""
","
","null","run_exp/static/audio/clip_15_summary.m4a","null","","","","","<div class='center'><p>Let's go over the instructions quickly again. You have two important things to do: </p><b><p> 1. Pick the pirate who is the best at robbing ships on the current island. </p></b><b><p> 2. Remember on which island a ship was robbed.</p> </b><p>The amount of bonus money you can win depends on both.</p><p><br><p>Let’s try a practice game. The game will start by showing you the pirates. First, pick a pirate using the <b> 1, 2, 3 </b> keys on your keyboard. When you are shown a ship, try to remember which island you’re on by making up a story.</p><p>This is just a practice game, so you’re not playing for money. </p><p> Good luck! This game will be very difficult but try your best!</p></div>","","","","","","","","","","","","","","","","","",""
"","html-keyboard-response","45","301192","0.0-35.0-9.0","""event"",""trial"",""time""
""fullscreenenter"",""0"",""2200""
","
","
","""event"",""trial"",""time""
""fullscreenenter"",""0"",""2200""
","
","314.4000000357628","<div class='center'><p>Let's go over the instructions quickly again. You have two important things to do: </p><b><p> 1. Pick the pirate who is the best at robbing ships on the current island. </p></b><b><p> 2. Remember on which island a ship was robbed.</p> </b><p>The amount of bonus money you can win depends on both.</p><p><br><p>Let’s try a practice game. The game will start by showing you the pirates. First, pick a pirate using the <b> 1, 2, 3 </b> keys on your keyboard. When you are shown a ship, try to remember which island you’re on by making up a story.</p><p>This is just a practice game, so you’re not playing for money. </p><p> Good luck! This game will be very difficult but try your best!</p><p><b>[Press the space bar to continue]</b></p></div>","32","","","","","","","","","","","","","","","","","","","","","","",""
"","do_welcome","46","305218","0.0-35.0-10.0","""event"",""trial"",""time""
""fullscreenenter"",""0"",""2200""
","
","
","""event"",""trial"",""time""
""fullscreenenter"",""0"",""2200""
","
","null","","","","","","","","null","","","","","","","","","","","","","","","","",""
"","do_trial","47","310919","0.0-35.0-11.0","""event"",""trial"",""time""
""fullscreenenter"",""0"",""2200""
","
","
","""event"",""trial"",""time""
""fullscreenenter"",""0"",""2200""
","
","1182.3999999761581","","","","","","","","50","1,0,0","","","","","","","","","","","","","","","",""
"","html-keyboard-response","48","311930","0.0-36.0-0.0","""event"",""trial"",""time""
""fullscreenenter"",""0"",""2200""
","
","
","""event"",""trial"",""time""
""fullscreenenter"",""0"",""2200""
","
","null","<p></p>","null","","","","","","","","","","","","","","","","","","","","","","",""
"","do_trial","49","317948","0.0-36.0-1.0","""event"",""trial"",""time""
""fullscreenenter"",""0"",""2200""
","
","
","""event"",""trial"",""time""
""fullscreenenter"",""0"",""2200""
","
","1507","","","","","","","","50","1,1,0","","","","","","","","","","","","","","","",""
"","html-keyboard-response","50","318951","0.0-37.0-0.0","""event"",""trial"",""time""
""fullscreenenter"",""0"",""2200""
","
","
","""event"",""trial"",""time""
""fullscreenenter"",""0"",""2200""
","
","null","<p></p>","null","","","","","","","","","","","","","","","","","","","","","","",""
"","do_trial","51","325844","0.0-37.0-1.0","""event"",""trial"",""time""
""fullscreenenter"",""0"",""2200""
","
","
","""event"",""trial"",""time""
""fullscreenenter"",""0"",""2200""
","
","2377.100000023842","","","","","","","","50","1,0,1","","","","","","","","","","","","","","","",""
"","html-keyboard-response","52","326850","0.0-38.0-0.0","""event"",""trial"",""time""
""fullscreenenter"",""0"",""2200""
","
","
","""event"",""trial"",""time""
""fullscreenenter"",""0"",""2200""
","
","null","<p></p>","null","","","","","","","","","","","","","","","","","","","","","","",""
"","do_trial","53","333025","0.0-38.0-1.0","""event"",""trial"",""time""
""fullscreenenter"",""0"",""2200""
","
","
","""event"",""trial"",""time""
""fullscreenenter"",""0"",""2200""
","
","1661","","","","","","","","49","0,1,0","","","","","","","","","","","","","","","",""
"","html-keyboard-response","54","334036","0.0-39.0-0.0","""event"",""trial"",""time""
""fullscreenenter"",""0"",""2200""
","
","
","""event"",""trial"",""time""
""fullscreenenter"",""0"",""2200""
","
","null","<p></p>","null","","","","","","","","","","","","","","","","","","","","","","",""
"","do_trial","55","338807","0.0-39.0-1.0","""event"",""trial"",""time""
""fullscreenenter"",""0"",""2200""
","
","
","""event"",""trial"",""time""
""fullscreenenter"",""0"",""2200""
","
","257.10000002384186","","","","","","","","49","1,0,0","","","","","","","","","","","","","","","",""
"","do_bye","56","340326","0.0-40.0-0.0","""event"",""trial"",""time""
""fullscreenenter"",""0"",""2200""
","
","
","""event"",""trial"",""time""
""fullscreenenter"",""0"",""2200""
","
","null","","","","","","","","null","","","","","","","","","","","","","","","","",""
"","do_travel","57","349341","0.0-40.0-1.0","""event"",""trial"",""time""
""fullscreenenter"",""0"",""2200""
","
","
","""event"",""trial"",""time""
""fullscreenenter"",""0"",""2200""
","
","null","","","","","","","","null","","","","","","","","","","","","","","","","",""
"","do_welcome","58","353359","0.0-40.0-2.0","""event"",""trial"",""time""
""fullscreenenter"",""0"",""2200""
","
","
","""event"",""trial"",""time""
""fullscreenenter"",""0"",""2200""
","
","null","","","","","","","","null","","","","","","","","","","","","","","","","",""
"","do_trial","59","358801","0.0-40.0-3.0","""event"",""trial"",""time""
""fullscreenenter"",""0"",""2200""
","
","
","""event"",""trial"",""time""
""fullscreenenter"",""0"",""2200""
","
","923.6000000238419","","","","","","","","51","1,0,0","","","","","","","","","","","","","","","",""
"","html-keyboard-response","60","359809","0.0-41.0-0.0","""event"",""trial"",""time""
""fullscreenenter"",""0"",""2200""
","
","
","""event"",""trial"",""time""
""fullscreenenter"",""0"",""2200""
","
","null","<p></p>","null","","","","","","","","","","","","","","","","","","","","","","",""
"","do_trial","61","364586","0.0-41.0-1.0","""event"",""trial"",""time""
""fullscreenenter"",""0"",""2200""
","
","
","""event"",""trial"",""time""
""fullscreenenter"",""0"",""2200""
","
","257.89999997615814","","","","","","","","51","1,0,1","","","","","","","","","","","","","","","",""
"","html-keyboard-response","62","365595","0.0-42.0-0.0","""event"",""trial"",""time""
""fullscreenenter"",""0"",""2200""
","
","
","""event"",""trial"",""time""
""fullscreenenter"",""0"",""2200""
","
","null","<p></p>","null","","","","","","","","","","","","","","","","","","","","","","",""
"","do_trial","63","370398","0.0-42.0-1.0","""event"",""trial"",""time""
""fullscreenenter"",""0"",""2200""
","
","
","""event"",""trial"",""time""
""fullscreenenter"",""0"",""2200""
","
","292","","","","","","","","50","1,1,0","","","","","","","","","","","","","","","",""
"","html-keyboard-response","64","371401","0.0-43.0-0.0","""event"",""trial"",""time""
""fullscreenenter"",""0"",""2200""
","
","
","""event"",""trial"",""time""
""fullscreenenter"",""0"",""2200""
","
","null","<p></p>","null","","","","","","","","","","","","","","","","","","","","","","",""
"","do_trial","65","376709","0.0-43.0-1.0","""event"",""trial"",""time""
""fullscreenenter"",""0"",""2200""
","
","
","""event"",""trial"",""time""
""fullscreenenter"",""0"",""2200""
","
","784.1999999880791","","","","","","","","50","0,0,1","","","","","","","","","","","","","","","",""
"","html-keyboard-response","66","377717","0.0-44.0-0.0","""event"",""trial"",""time""
""fullscreenenter"",""0"",""2200""
","
","
","""event"",""trial"",""time""
""fullscreenenter"",""0"",""2200""
","
","null","<p></p>","null","","","","","","","","","","","","","","","","","","","","","","",""
"","do_trial","67","382358","0.0-44.0-1.0","""event"",""trial"",""time""
""fullscreenenter"",""0"",""2200""
","
","
","""event"",""trial"",""time""
""fullscreenenter"",""0"",""2200""
","
","122","","","","","","","","49","1,0,1","","","","","","","","","","","","","","","",""
"","html-keyboard-response","68","387207","0.0-45.0-0.0","""event"",""trial"",""time""
""fullscreenenter"",""0"",""2200""
","
","
","""event"",""trial"",""time""
""fullscreenenter"",""0"",""2200""
","
","4846.699999988079","<div class='center'><p><img src='run_exp/static/images/tutorial/prac_best_pirate.png'  height='500'></p></div>","49","","","","","","","","","","","","","","","","","","","","","","",""
"","html-keyboard-response","69","388660","0.0-46.0-0.0","""event"",""trial"",""time""
""fullscreenenter"",""0"",""2200""
","
","
","""event"",""trial"",""time""
""fullscreenenter"",""0"",""2200""
","
","1451.4000000357628","<div class='center'><p>That's correct! Red beard was the best.</p><p><b>[Press the space bar to continue]</b></p></div>","32","","","","","","","","","","","","","","","","","","","","","","",""
"","html-keyboard-response","70","391560","0.0-46.0-1.0","""event"",""trial"",""time""
""fullscreenenter"",""0"",""2200""
","
","
","""event"",""trial"",""time""
""fullscreenenter"",""0"",""2200""
","
","2898.699999988079","<div class='center'><p><img src='run_exp/static/images/tutorial/prac_source.png'  height='500'></p></div>","50","","","","","","","","","","","","","","","","","","","","","","",""
"","html-keyboard-response","71","392716","0.0-47.0-0.0","""event"",""trial"",""time""
""fullscreenenter"",""0"",""2200""
","
","
","""event"",""trial"",""time""
""fullscreenenter"",""0"",""2200""
","
","1152.699999988079","<div class='center'><p>That's correct! You saw this ship on the cavern island.</p><p><b>[Press the space bar to continue]</b></p></div>","32","","","","","","","","","","","","","","","","","","","","","","",""
"","quiz_beginning","72","403946","0.0-47.0-1.0","""event"",""trial"",""time""
""fullscreenenter"",""0"",""2200""
","
","
","""event"",""trial"",""time""
""fullscreenenter"",""0"",""2200""
","
","null","run_exp/static/audio/clip_16_quiz_intro.m4a","null","","","","","<div class='center'><p>Good job on the practice game! Now, you will be asked some true or false questions to make sure you really understand the rules of the game.</p><p> Press <b>'1'</b> on the keyboard for true and press <b>'2'</b> for false.</p></div>","","","","","","","","","","","","","","","","","",""
"","audio-keyboard-response","73","408638","0.0-47.0-2.0","""event"",""trial"",""time""
""fullscreenenter"",""0"",""2200""
","
","
","""event"",""trial"",""time""
""fullscreenenter"",""0"",""2200""
","
","4687.100000023842","run_exp/static/audio/clip_17_q1.m4a","49","","","","","","","","","","","","","","","","","","","","","","",""
"","correct","74","411046","0.0-48.0-0.0","""event"",""trial"",""time""
""fullscreenenter"",""0"",""2200""
","
","
","""event"",""trial"",""time""
""fullscreenenter"",""0"",""2200""
","
","null","run_exp/static/audio/clip_18_correct.m4a","null","","","","","<div class='center'><p>That's correct!</p></div>","","","","","","","","","","","","","","","","","",""
"","html-keyboard-response","75","411703","0.0-48.0-1.0","""event"",""trial"",""time""
""fullscreenenter"",""0"",""2200""
","
","
","""event"",""trial"",""time""
""fullscreenenter"",""0"",""2200""
","
","655.2999999523163","<div class='center'><p>That's correct!</p><p><b>[Press the space bar to continue]</b></p></div>","32","","","","","","","","","","","","","","","","","","","","","","",""
"","audio-keyboard-response","76","420852","0.0-48.0-2.0","""event"",""trial"",""time""
""fullscreenenter"",""0"",""2200""
","
","
","""event"",""trial"",""time""
""fullscreenenter"",""0"",""2200""
","
","9148.300000011921","run_exp/static/audio/clip_20_q2.m4a","50","","","","","","","","","","","","","","","","","","","","","","",""
"","correct","77","423246","0.0-49.0-0.0","""event"",""trial"",""time""
""fullscreenenter"",""0"",""2200""
","
","
","""event"",""trial"",""time""
""fullscreenenter"",""0"",""2200""
","
","null","run_exp/static/audio/clip_18_correct.m4a","null","","","","","<div class='center'><p>That's correct!</p></div>","","","","","","","","","","","","","","","","","",""
"","html-keyboard-response","78","423961","0.0-49.0-1.0","""event"",""trial"",""time""
""fullscreenenter"",""0"",""2200""
","
","
","""event"",""trial"",""time""
""fullscreenenter"",""0"",""2200""
","
","714","<div class='center'><p>That's correct!</p><p><b>[Press the space bar to continue]</b></p></div>","32","","","","","","","","","","","","","","","","","","","","","","",""
"","audio-keyboard-response","79","428290","0.0-49.0-2.0","""event"",""trial"",""time""
""fullscreenenter"",""0"",""2200""
","
","
","""event"",""trial"",""time""
""fullscreenenter"",""0"",""2200""
","
","4326.699999988079","run_exp/static/audio/clip_22_q3.m4a","50","","","","","","","","","","","","","","","","","","","","","","",""
"","correct","80","430687","0.0-50.0-0.0","""event"",""trial"",""time""
""fullscreenenter"",""0"",""2200""
","
","
","""event"",""trial"",""time""
""fullscreenenter"",""0"",""2200""
","
","null","run_exp/static/audio/clip_18_correct.m4a","null","","","","","<div class='center'><p>That's correct!</p></div>","","","","","","","","","","","","","","","","","",""
"","html-keyboard-response","81","431562","0.0-50.0-1.0","""event"",""trial"",""time""
""fullscreenenter"",""0"",""2200""
","
","
","""event"",""trial"",""time""
""fullscreenenter"",""0"",""2200""
","
","874.8000000119209","<div class='center'><p>That's correct!</p><p><b>[Press the space bar to continue]</b></p></div>","32","","","","","","","","","","","","","","","","","","","","","","",""
"","audio-keyboard-response","82","436015","0.0-50.0-2.0","""event"",""trial"",""time""
""fullscreenenter"",""0"",""2200""
","
","
","""event"",""trial"",""time""
""fullscreenenter"",""0"",""2200""
","
","4450.800000011921","run_exp/static/audio/clip_24_q4.m4a","49","","","","","","","","","","","","","","","","","","","","","","",""
"","correct","83","438507","0.0-51.0-0.0","""event"",""trial"",""time""
""fullscreenenter"",""0"",""2200""
","
","
","""event"",""trial"",""time""
""fullscreenenter"",""0"",""2200""
","
","null","run_exp/static/audio/clip_18_correct.m4a","null","","","","","<div class='center'><p>That's correct!</p></div>","","","","","","","","","","","","","","","","","",""
"","html-keyboard-response","84","438754","0.0-51.0-1.0","""event"",""trial"",""time""
""fullscreenenter"",""0"",""2200""
","
","
","""event"",""trial"",""time""
""fullscreenenter"",""0"",""2200""
","
","245.39999997615814","<div class='center'><p>That's correct!</p><p><b>[Press the space bar to continue]</b></p></div>","32","","","","","","","","","","","","","","","","","","","","","","",""
"","q_all_corr","85","447247","0.0-52.0-0.0","""event"",""trial"",""time""
""fullscreenenter"",""0"",""2200""
","
","
","""event"",""trial"",""time""
""fullscreenenter"",""0"",""2200""
","
","null","run_exp/static/audio/clip_27_quiz_all_correct.m4a","null","","","","","<div class='center'><p>Good job! You’re now ready to move on to the real game! Remember this game will be difficult but don't get discouraged and try your best!</p></div>","","","","","","","","","","","","","","","","","",""
"","html-keyboard-response","86","447873","0.0-52.0-1.0","""event"",""trial"",""time""
""fullscreenenter"",""0"",""2200""
","
","
","""event"",""trial"",""time""
""fullscreenenter"",""0"",""2200""
","
","623.8000000119209","<div class='center'><p>Good job! You’re now ready to move on to the real game! Remember this game will be difficult but don't get discouraged and try your best!</p><p><b>[Press the space bar to continue]</b></p></div>","32","","","","","","","","","","","","","","","","","","","","","","",""
"","do_welcome","87","451886","0.0-53.0-0.0","""event"",""trial"",""time""
""fullscreenenter"",""0"",""2200""
","
","
","""event"",""trial"",""time""
""fullscreenenter"",""0"",""2200""
","
","null","","","","","","","","null","","","","","","","","","","","","","","","","",""
"","do_trial","88","457380","0.0-54.0-0.0","""event"",""trial"",""time""
""fullscreenenter"",""0"",""2200""
","
","
","""event"",""trial"",""time""
""fullscreenenter"",""0"",""2200""
","
","882.6000000238419","","","","","","","","49","1,0,0","0","coast","0","probe-94","0.6","0.3","0.1","1","","","","","","","",""
"","html-keyboard-response","89","458393","0.0-54.0-1.0","""event"",""trial"",""time""
""fullscreenenter"",""0"",""2200""
","
","
","""event"",""trial"",""time""
""fullscreenenter"",""0"",""2200""
","
","null","<p></p>","null","","","","","","","","","","","","","","","","","","","","","","",""
"","do_trial","90","463214","0.0-55.0-0.0","""event"",""trial"",""time""
""fullscreenenter"",""0"",""2200""
","
","
","""event"",""trial"",""time""
""fullscreenenter"",""0"",""2200""
","
","224","","","","","","","","49","0,0,0","0","coast","1","probe-49","0.5328183861524496","0.3096175631628836","0.08368507379722569","0","","","","","","","",""
"","html-keyboard-response","91","464223","0.0-55.0-1.0","""event"",""trial"",""time""
""fullscreenenter"",""0"",""2200""
","
","
","""event"",""trial"",""time""
""fullscreenenter"",""0"",""2200""
","
","null","<p></p>","null","","","","","","","","","","","","","","","","","","","","","","",""
"","do_trial","92","469043","0.0-56.0-0.0","""event"",""trial"",""time""
""fullscreenenter"",""0"",""2200""
","
","
","""event"",""trial"",""time""
""fullscreenenter"",""0"",""2200""
","
","232.19999998807907","","","","","","","","50","1,0,0","0","coast","2","probe-166","0.5006661827533874","0.36761409392009925","0.10361733885052157","0","","","","","","","",""
"","html-keyboard-response","93","470052","0.0-56.0-1.0","""event"",""trial"",""time""
""fullscreenenter"",""0"",""2200""
","
","
","""event"",""trial"",""time""
""fullscreenenter"",""0"",""2200""
","
","null","<p></p>","null","","","","","","","","","","","","","","","","","","","","","","",""
"","do_trial","94","475175","0.0-57.0-0.0","""event"",""trial"",""time""
""fullscreenenter"",""0"",""2200""
","
","
","""event"",""trial"",""time""
""fullscreenenter"",""0"",""2200""
","
","536.1000000238419","","","","","","","","50","0,0,0","0","coast","3","probe-220","0.5103371332927048","0.39892454347013606","0.07843291468506512","0","","","","","","","",""
"","html-keyboard-response","95","476178","0.0-57.0-1.0","""event"",""trial"",""time""
""fullscreenenter"",""0"",""2200""
","
","
","""event"",""trial"",""time""
""fullscreenenter"",""0"",""2200""
","
","null","<p></p>","null","","","","","","","","","","","","","","","","","","","","","","",""
"","do_trial","96","481299","0.0-58.0-0.0","""event"",""trial"",""time""
""fullscreenenter"",""0"",""2200""
","
","
","""event"",""trial"",""time""
""fullscreenenter"",""0"",""2200""
","
","522.3000000119209","","","","","","","","51","1,0,1","0","coast","4","probe-37","0.5496492433211607","0.47254699510741094","0.11960523777333185","1","","","","","","","",""
"","html-keyboard-response","97","482307","0.0-58.0-1.0","""event"",""trial"",""time""
""fullscreenenter"",""0"",""2200""
","
","
","""event"",""trial"",""time""
""fullscreenenter"",""0"",""2200""
","
","null","<p></p>","null","","","","","","","","","","","","","","","","","","","","","","",""
"","do_trial","98","487347","0.0-59.0-0.0","""event"",""trial"",""time""
""fullscreenenter"",""0"",""2200""
","
","
","""event"",""trial"",""time""
""fullscreenenter"",""0"",""2200""
","
","443.89999997615814","","","","","","","","51","1,1,0","0","coast","5","probe-13","0.5814073938268401","0.32487835222635725","0.10268269435044382","0","","","","","","","",""
"","html-keyboard-response","99","488355","0.0-59.0-1.0","""event"",""trial"",""time""
""fullscreenenter"",""0"",""2200""
","
","
","""event"",""trial"",""time""
""fullscreenenter"",""0"",""2200""
","
","null","<p></p>","null","","","","","","","","","","","","","","","","","","","","","","",""
"","do_trial","100","493414","0.0-60.0-0.0","""event"",""trial"",""time""
""fullscreenenter"",""0"",""2200""
","
","
","""event"",""trial"",""time""
""fullscreenenter"",""0"",""2200""
","
","466.5999999642372","","","","","","","","49","1,0,0","0","coast","6","probe-181","0.6364536956710497","0.4304686405877533","0.18311507184637052","1","","","","","","","",""
"","html-keyboard-response","101","494421","0.0-60.0-1.0","""event"",""trial"",""time""
""fullscreenenter"",""0"",""2200""
","
","
","""event"",""trial"",""time""
""fullscreenenter"",""0"",""2200""
","
","null","<p></p>","null","","","","","","","","","","","","","","","","","","","","","","",""
"","do_trial","102","499674","0.0-61.0-0.0","""event"",""trial"",""time""
""fullscreenenter"",""0"",""2200""
","
","
","""event"",""trial"",""time""
""fullscreenenter"",""0"",""2200""
","
","652.1999999880791","","","","","","","","51","1,0,0","0","coast","7","probe-134","0.7375081038920693","0.325002972537824","0.11903385383053403","0","","","","","","","",""
"","html-keyboard-response","103","500683","0.0-61.0-1.0","""event"",""trial"",""time""
""fullscreenenter"",""0"",""2200""
","
","
","""event"",""trial"",""time""
""fullscreenenter"",""0"",""2200""
","
","null","<p></p>","null","","","","","","","","","","","","","","","","","","","","","","",""
"","do_trial","104","505582","0.0-62.0-0.0","""event"",""trial"",""time""
""fullscreenenter"",""0"",""2200""
","
","
","""event"",""trial"",""time""
""fullscreenenter"",""0"",""2200""
","
","301.5","","","","","","","","49","1,0,0","0","coast","8","probe-124","0.7126569769629282","0.24953266421811335","0.08360797320908926","1","","","","","","","",""
"","html-keyboard-response","105","506589","0.0-62.0-1.0","""event"",""trial"",""time""
""fullscreenenter"",""0"",""2200""
","
","
","""event"",""trial"",""time""
""fullscreenenter"",""0"",""2200""
","
","null","<p></p>","null","","","","","","","","","","","","","","","","","","","","","","",""
"","do_trial","106","511469","0.0-63.0-0.0","""event"",""trial"",""time""
""fullscreenenter"",""0"",""2200""
","
","
","""event"",""trial"",""time""
""fullscreenenter"",""0"",""2200""
","
","283.0999999642372","","","","","","","","49","0,0,0","0","coast","9","probe-205","0.7197792469248897","0.24902972263965595","0.21093221674397078","0","","","","","","","",""
"","html-keyboard-response","107","512481","0.0-63.0-1.0","""event"",""trial"",""time""
""fullscreenenter"",""0"",""2200""
","
","
","""event"",""trial"",""time""
""fullscreenenter"",""0"",""2200""
","
","null","<p></p>","null","","","","","","","","","","","","","","","","","","","","","","",""
"","do_trial","108","517374","0.0-64.0-0.0","""event"",""trial"",""time""
""fullscreenenter"",""0"",""2200""
","
","
","""event"",""trial"",""time""
""fullscreenenter"",""0"",""2200""
","
","296.7000000476837","","","","","","","","49","1,0,1","0","coast","10","probe-209","0.8188485536071156","0.2245352212454695","0.1640013673760452","1","","","","","","","",""
"","html-keyboard-response","109","518383","0.0-64.0-1.0","""event"",""trial"",""time""
""fullscreenenter"",""0"",""2200""
","
","
","""event"",""trial"",""time""
""fullscreenenter"",""0"",""2200""
","
","null","<p></p>","null","","","","","","","","","","","","","","","","","","","","","","",""
"","do_trial","110","523376","0.0-65.0-0.0","""event"",""trial"",""time""
""fullscreenenter"",""0"",""2200""
","
","
","""event"",""trial"",""time""
""fullscreenenter"",""0"",""2200""
","
","399.69999998807907","","","","","","","","49","1,1,0","0","coast","11","probe-138","0.8457120406096097","0.25502517483491094","0.10240767143463785","1","","","","","","","",""
"","html-keyboard-response","111","524388","0.0-65.0-1.0","""event"",""trial"",""time""
""fullscreenenter"",""0"",""2200""
","
","
","""event"",""trial"",""time""
""fullscreenenter"",""0"",""2200""
","
","null","<p></p>","null","","","","","","","","","","","","","","","","","","","","","","",""
"","do_trial","112","529300","0.0-66.0-0.0","""event"",""trial"",""time""
""fullscreenenter"",""0"",""2200""
","
","
","""event"",""trial"",""time""
""fullscreenenter"",""0"",""2200""
","
","317.60000002384186","","","","","","","","49","0,0,0","0","coast","12","probe-79","0.6776694475566695","0.17523925320393818","0.12878217675557493","0","","","","","","","",""
"","html-keyboard-response","113","530309","0.0-66.0-1.0","""event"",""trial"",""time""
""fullscreenenter"",""0"",""2200""
","
","
","""event"",""trial"",""time""
""fullscreenenter"",""0"",""2200""
","
","null","<p></p>","null","","","","","","","","","","","","","","","","","","","","","","",""
"","do_trial","114","535122","0.0-67.0-0.0","""event"",""trial"",""time""
""fullscreenenter"",""0"",""2200""
","
","
","""event"",""trial"",""time""
""fullscreenenter"",""0"",""2200""
","
","212.89999997615814","","","","","","","","49","1,0,1","0","coast","13","probe-213","0.5641020838908962","0.2495438320697489","0.05484659399664008","1","","","","","","","",""
"","html-keyboard-response","115","536132","0.0-67.0-1.0","""event"",""trial"",""time""
""fullscreenenter"",""0"",""2200""
","
","
","""event"",""trial"",""time""
""fullscreenenter"",""0"",""2200""
","
","null","<p></p>","null","","","","","","","","","","","","","","","","","","","","","","",""
"","do_trial","116","540852","0.0-68.0-0.0","""event"",""trial"",""time""
""fullscreenenter"",""0"",""2200""
","
","
","""event"",""trial"",""time""
""fullscreenenter"",""0"",""2200""
","
","117.80000001192093","","","","","","","","49","0,0,0","0","coast","14","probe-228","0.49169406982251346","0.15674708797877632","0.09953163767531825","0","","","","","","","",""
"","html-keyboard-response","117","541859","0.0-68.0-1.0","""event"",""trial"",""time""
""fullscreenenter"",""0"",""2200""
","
","
","""event"",""trial"",""time""
""fullscreenenter"",""0"",""2200""
","
","null","<p></p>","null","","","","","","","","","","","","","","","","","","","","","","",""
"","do_trial","118","546744","0.0-69.0-0.0","""event"",""trial"",""time""
""fullscreenenter"",""0"",""2200""
","
","
","""event"",""trial"",""time""
""fullscreenenter"",""0"",""2200""
","
","289.0999999642372","","","","","","","","49","1,1,1","0","coast","15","probe-149","0.5160340876146381","0.15837889769011745","0.09798467216762868","1","","","","","","","",""
"","html-keyboard-response","119","547753","0.0-69.0-1.0","""event"",""trial"",""time""
""fullscreenenter"",""0"",""2200""
","
","
","""event"",""trial"",""time""
""fullscreenenter"",""0"",""2200""
","
","null","<p></p>","null","","","","","","","","","","","","","","","","","","","","","","",""
"","do_trial","120","552399","0.0-70.0-0.0","""event"",""trial"",""time""
""fullscreenenter"",""0"",""2200""
","
","
","""event"",""trial"",""time""
""fullscreenenter"",""0"",""2200""
","
","58.09999996423721","","","","","","","","49","0,1,0","0","coast","16","probe-230","0.5392959444074263","0.24995369232408438","0.06761754753110297","0","","","","","","","",""
"","html-keyboard-response","121","553410","0.0-70.0-1.0","""event"",""trial"",""time""
""fullscreenenter"",""0"",""2200""
","
","
","""event"",""trial"",""time""
""fullscreenenter"",""0"",""2200""
","
","null","<p></p>","null","","","","","","","","","","","","","","","","","","","","","","",""
"","do_trial","122","558070","0.0-71.0-0.0","""event"",""trial"",""time""
""fullscreenenter"",""0"",""2200""
","
","
","""event"",""trial"",""time""
""fullscreenenter"",""0"",""2200""
","
","69.5","","","","","","","","49","1,1,0","0","coast","17","probe-35","0.6496538163604639","0.21208102912645374","0.13867174300678017","1","","","","","","","",""
"","html-keyboard-response","123","559085","0.0-71.0-1.0","""event"",""trial"",""time""
""fullscreenenter"",""0"",""2200""
","
","
","""event"",""trial"",""time""
""fullscreenenter"",""0"",""2200""
","
","null","<p></p>","null","","","","","","","","","","","","","","","","","","","","","","",""
"","do_trial","124","563688","0.0-72.0-0.0","""event"",""trial"",""time""
""fullscreenenter"",""0"",""2200""
","
","
","""event"",""trial"",""time""
""fullscreenenter"",""0"",""2200""
","
","0.09999996423721313","","","","","","","","49","0,0,0","0","coast","18","probe-01","0.5844685871471077","0.12808104929575967","0.22747644865658004","0","","","","","","","",""
"","html-keyboard-response","125","564694","0.0-72.0-1.0","""event"",""trial"",""time""
""fullscreenenter"",""0"",""2200""
","
","
","""event"",""trial"",""time""
""fullscreenenter"",""0"",""2200""
","
","null","<p></p>","null","","","","","","","","","","","","","","","","","","","","","","",""
"","do_trial","126","569297","0.0-73.0-0.0","""event"",""trial"",""time""
""fullscreenenter"",""0"",""2200""
","
","
","""event"",""trial"",""time""
""fullscreenenter"",""0"",""2200""
","
","0.30000001192092896","","","","","","","","49","0,0,0","0","coast","19","probe-218","0.47516222980759365","0.15712566694885227","0.06759970186867557","0","","","","","","","",""
"","html-keyboard-response","127","570309","0.0-73.0-1.0","""event"",""trial"",""time""
""fullscreenenter"",""0"",""2200""
","
","
","""event"",""trial"",""time""
""fullscreenenter"",""0"",""2200""
","
","null","<p></p>","null","","","","","","","","","","","","","","","","","","","","","","",""
"","do_trial","128","575201","0.0-74.0-0.0","""event"",""trial"",""time""
""fullscreenenter"",""0"",""2200""
","
","
","""event"",""trial"",""time""
""fullscreenenter"",""0"",""2200""
","
","295.19999998807907","","","","","","","","50","1,0,0","0","coast","20","probe-86","0.5935827800531551","0.3188576699741572","0.06079554674615928","0","","","","","","","",""
"","html-keyboard-response","129","576213","0.0-74.0-1.0","""event"",""trial"",""time""
""fullscreenenter"",""0"",""2200""
","
","
","""event"",""trial"",""time""
""fullscreenenter"",""0"",""2200""
","
","null","<p></p>","null","","","","","","","","","","","","","","","","","","","","","","",""
"","do_trial","130","581074","0.0-75.0-0.0","""event"",""trial"",""time""
""fullscreenenter"",""0"",""2200""
","
","
","""event"",""trial"",""time""
""fullscreenenter"",""0"",""2200""
","
","265.30000001192093","","","","","","","","51","0,0,0","0","coast","21","probe-105","0.6682911544683455","0.3188857327276731","0.08566028140995774","0","","","","","","","",""
"","html-keyboard-response","131","582083","0.0-75.0-1.0","""event"",""trial"",""time""
""fullscreenenter"",""0"",""2200""
","
","
","""event"",""trial"",""time""
""fullscreenenter"",""0"",""2200""
","
","null","<p></p>","null","","","","","","","","","","","","","","","","","","","","","","",""
"","do_trial","132","586922","0.0-76.0-0.0","""event"",""trial"",""time""
""fullscreenenter"",""0"",""2200""
","
","
","""event"",""trial"",""time""
""fullscreenenter"",""0"",""2200""
","
","239.39999997615814","","","","","","","","49","0,1,0","0","coast","22","probe-161","0.578276235691081","0.19443729294270376","0.06806833027924394","0","","","","","","","",""
"","html-keyboard-response","133","587928","0.0-76.0-1.0","""event"",""trial"",""time""
""fullscreenenter"",""0"",""2200""
","
","
","""event"",""trial"",""time""
""fullscreenenter"",""0"",""2200""
","
","null","<p></p>","null","","","","","","","","","","","","","","","","","","","","","","",""
"","do_trial","134","594276","0.0-77.0-0.0","""event"",""trial"",""time""
""fullscreenenter"",""0"",""2200""
","
","
","""event"",""trial"",""time""
""fullscreenenter"",""0"",""2200""
","
","1748.3999999761581","","","","","","","","51","1,0,1","0","coast","23","probe-152","0.7170728871882445","0.29754711164507064","0.12434194736420198","1","","","","","","","",""
"","html-keyboard-response","135","595283","0.0-77.0-1.0","""event"",""trial"",""time""
""fullscreenenter"",""0"",""2200""
","
","
","""event"",""trial"",""time""
""fullscreenenter"",""0"",""2200""
","
","null","<p></p>","null","","","","","","","","","","","","","","","","","","","","","","",""
"","do_trial","136","600610","0.0-78.0-0.0","""event"",""trial"",""time""
""fullscreenenter"",""0"",""2200""
","
","
","""event"",""trial"",""time""
""fullscreenenter"",""0"",""2200""
","
","719.5","","","","","","","","51","1,0,0","0","coast","24","probe-101","0.6281563129637086","0.40591219550764385","0.12136201359076998","0","","","","","","","",""
"","html-keyboard-response","137","601618","0.0-78.0-1.0","""event"",""trial"",""time""
""fullscreenenter"",""0"",""2200""
","
","
","""event"",""trial"",""time""
""fullscreenenter"",""0"",""2200""
","
","null","<p></p>","null","","","","","","","","","","","","","","","","","","","","","","",""
"","do_trial","138","606697","0.0-79.0-0.0","""event"",""trial"",""time""
""fullscreenenter"",""0"",""2200""
","
","
","""event"",""trial"",""time""
""fullscreenenter"",""0"",""2200""
","
","478","","","","","","","","49","0,0,0","0","coast","25","probe-179","0.5199057463385767","0.3086208430884942","0.10991053816282524","0","","","","","","","",""
"","html-keyboard-response","139","607704","0.0-79.0-1.0","""event"",""trial"",""time""
""fullscreenenter"",""0"",""2200""
","
","
","""event"",""trial"",""time""
""fullscreenenter"",""0"",""2200""
","
","null","<p></p>","null","","","","","","","","","","","","","","","","","","","","","","",""
"","do_trial","140","612291","0.0-80.0-0.0","""event"",""trial"",""time""
""fullscreenenter"",""0"",""2200""
","
","
","""event"",""trial"",""time""
""fullscreenenter"",""0"",""2200""
","
","0.19999998807907104","","","","","","","","51","0,0,0","0","coast","26","probe-131","0.6026058358422457","0.36418417810133125","0.09607608270948113","0","","","","","","","",""
"","html-keyboard-response","141","613299","0.0-80.0-1.0","""event"",""trial"",""time""
""fullscreenenter"",""0"",""2200""
","
","
","""event"",""trial"",""time""
""fullscreenenter"",""0"",""2200""
","
","null","<p></p>","null","","","","","","","","","","","","","","","","","","","","","","",""
"","do_trial","142","618326","0.0-81.0-0.0","""event"",""trial"",""time""
""fullscreenenter"",""0"",""2200""
","
","
","""event"",""trial"",""time""
""fullscreenenter"",""0"",""2200""
","
","429","","","","","","","","51","1,0,0","0","coast","27","probe-208","0.6621761472835325","0.3179151468443323","0.14629416800967715","0","","","","","","","",""
"","html-keyboard-response","143","619335","0.0-81.0-1.0","""event"",""trial"",""time""
""fullscreenenter"",""0"",""2200""
","
","
","""event"",""trial"",""time""
""fullscreenenter"",""0"",""2200""
","
","null","<p></p>","null","","","","","","","","","","","","","","","","","","","","","","",""
"","do_trial","144","624618","0.0-82.0-0.0","""event"",""trial"",""time""
""fullscreenenter"",""0"",""2200""
","
","
","""event"",""trial"",""time""
""fullscreenenter"",""0"",""2200""
","
","697.4000000357628","","","","","","","","50","1,0,0","0","coast","28","probe-158","0.6197832254301313","0.1530498926319298","0.1442412305340483","0","","","","","","","",""
"","html-keyboard-response","145","625625","0.0-82.0-1.0","""event"",""trial"",""time""
""fullscreenenter"",""0"",""2200""
","
","
","""event"",""trial"",""time""
""fullscreenenter"",""0"",""2200""
","
","null","<p></p>","null","","","","","","","","","","","","","","","","","","","","","","",""
"","do_trial","146","630740","0.0-83.0-0.0","""event"",""trial"",""time""
""fullscreenenter"",""0"",""2200""
","
","
","""event"",""trial"",""time""
""fullscreenenter"",""0"",""2200""
","
","513","","","","","","","","49","1,0,0","0","coast","29","probe-167","0.825037092689105","0.16124278309768522","0.16594771696855154","1","","","","","","","",""
"","html-keyboard-response","147","631749","0.0-83.0-1.0","""event"",""trial"",""time""
""fullscreenenter"",""0"",""2200""
","
","
","""event"",""trial"",""time""
""fullscreenenter"",""0"",""2200""
","
","null","<p></p>","null","","","","","","","","","","","","","","","","","","","","","","",""
"","do_bye","148","633270","0.0-84.0-0.0","""event"",""trial"",""time""
""fullscreenenter"",""0"",""2200""
","
","
","""event"",""trial"",""time""
""fullscreenenter"",""0"",""2200""
","
","null","","","","","","","","null","","","","","","","","","","","","","","","","",""
"","break","149","637964","0.0-84.0-1.0","""event"",""trial"",""time""
""fullscreenenter"",""0"",""2200""
","
","
","""event"",""trial"",""time""
""fullscreenenter"",""0"",""2200""
","
","4692","<div class='center'><p>Time to take a quick break! You have 2 minutes to rest, but you can move on sooner if you'd like.</p><p> Press the <b>space bar</b> to continue.</p></div>","32","","","","","","","","","","","","","","","","","","","","","","",""
"","do_travel","150","646980","0.0-85.0-0.0","""event"",""trial"",""time""
""fullscreenenter"",""0"",""2200""
","
","
","""event"",""trial"",""time""
""fullscreenenter"",""0"",""2200""
","
","null","","","","","","","","null","","","","","","","","","","","","","","","","",""
"","do_welcome","151","650989","0.0-85.0-1.0","""event"",""trial"",""time""
""fullscreenenter"",""0"",""2200""
","
","
","""event"",""trial"",""time""
""fullscreenenter"",""0"",""2200""
","
","null","","","","","","","","null","","","","","","","","","","","","","","","","",""
"","do_trial","152","656548","0.0-86.0-0.0","""event"",""trial"",""time""
""fullscreenenter"",""0"",""2200""
","
","
","""event"",""trial"",""time""
""fullscreenenter"",""0"",""2200""
","
","957.3999999761581","","","","","","","","49","1,0,0","1","countryside","30","probe-197","1","0.2420857175682983","0.09938578312060597","1","","","","","","","",""
"","html-keyboard-response","153","657557","0.0-86.0-1.0","""event"",""trial"",""time""
""fullscreenenter"",""0"",""2200""
","
","
","""event"",""trial"",""time""
""fullscreenenter"",""0"",""2200""
","
","null","<p></p>","null","","","","","","","","","","","","","","","","","","","","","","",""
"","do_trial","154","662162","0.0-87.0-0.0","""event"",""trial"",""time""
""fullscreenenter"",""0"",""2200""
","
","
","""event"",""trial"",""time""
""fullscreenenter"",""0"",""2200""
","
","0.2999999523162842","","","","","","","","49","1,0,0","1","countryside","31","probe-173","1","0.28577125508250395","0.05887744893541881","1","","","","","","","",""
"","html-keyboard-response","155","663174","0.0-87.0-1.0","""event"",""trial"",""time""
""fullscreenenter"",""0"",""2200""
","
","
","""event"",""trial"",""time""
""fullscreenenter"",""0"",""2200""
","
","null","<p></p>","null","","","","","","","","","","","","","","","","","","","","","","",""
"","do_trial","156","667939","0.0-88.0-0.0","""event"",""trial"",""time""
""fullscreenenter"",""0"",""2200""
","
","
","""event"",""trial"",""time""
""fullscreenenter"",""0"",""2200""
","
","176.20000004768372","","","","","","","","49","1,1,0","1","countryside","32","probe-117","1","0.2681071190562507","0.17407374535201686","1","","","","","","","",""
"","html-keyboard-response","157","668947","0.0-88.0-1.0","""event"",""trial"",""time""
""fullscreenenter"",""0"",""2200""
","
","
","""event"",""trial"",""time""
""fullscreenenter"",""0"",""2200""
","
","null","<p></p>","null","","","","","","","","","","","","","","","","","","","","","","",""
"","do_trial","158","673537","0.0-89.0-0.0","""event"",""trial"",""time""
""fullscreenenter"",""0"",""2200""
","
","
","""event"",""trial"",""time""
""fullscreenenter"",""0"",""2200""
","
","0.19999998807907104","","","","","","","","49","0,0,0","1","countryside","33","probe-77","0.8377941158671329","0.4681051759402455","0.2592866268765662","0","","","","","","","",""
"","html-keyboard-response","159","674546","0.0-89.0-1.0","""event"",""trial"",""time""
""fullscreenenter"",""0"",""2200""
","
","
","""event"",""trial"",""time""
""fullscreenenter"",""0"",""2200""
","
","null","<p></p>","null","","","","","","","","","","","","","","","","","","","","","","",""
"","do_trial","160","679137","0.0-90.0-0.0","""event"",""trial"",""time""
""fullscreenenter"",""0"",""2200""
","
","
","""event"",""trial"",""time""
""fullscreenenter"",""0"",""2200""
","
","0.20000004768371582","","","","","","","","49","0,1,0","1","countryside","34","probe-192","0.7062368517923149","0.2721145357633136","0.25635994782096383","0","","","","","","","",""
"","html-keyboard-response","161","680143","0.0-90.0-1.0","""event"",""trial"",""time""
""fullscreenenter"",""0"",""2200""
","
","
","""event"",""trial"",""time""
""fullscreenenter"",""0"",""2200""
","
","null","<p></p>","null","","","","","","","","","","","","","","","","","","","","","","",""
"","do_trial","162","684828","0.0-91.0-0.0","""event"",""trial"",""time""
""fullscreenenter"",""0"",""2200""
","
","
","""event"",""trial"",""time""
""fullscreenenter"",""0"",""2200""
","
","89","","","","","","","","50","1,1,0","1","countryside","35","probe-83","0.6547661792621021","0.3326613670264011","0.178728486695427","1","","","","","","","",""
"","html-keyboard-response","163","685837","0.0-91.0-1.0","""event"",""trial"",""time""
""fullscreenenter"",""0"",""2200""
","
","
","""event"",""trial"",""time""
""fullscreenenter"",""0"",""2200""
","
","null","<p></p>","null","","","","","","","","","","","","","","","","","","","","","","",""
"","do_trial","164","690522","0.0-92.0-0.0","""event"",""trial"",""time""
""fullscreenenter"",""0"",""2200""
","
","
","""event"",""trial"",""time""
""fullscreenenter"",""0"",""2200""
","
","89.89999997615814","","","","","","","","50","1,0,0","1","countryside","36","probe-121","0.608432161057449","0.29770584447861764","0.1282316254893538","0","","","","","","","",""
"","html-keyboard-response","165","691533","0.0-92.0-1.0","""event"",""trial"",""time""
""fullscreenenter"",""0"",""2200""
","
","
","""event"",""trial"",""time""
""fullscreenenter"",""0"",""2200""
","
","null","<p></p>","null","","","","","","","","","","","","","","","","","","","","","","",""
"","do_trial","166","696237","0.0-93.0-0.0","""event"",""trial"",""time""
""fullscreenenter"",""0"",""2200""
","
","
","""event"",""trial"",""time""
""fullscreenenter"",""0"",""2200""
","
","116.09999996423721","","","","","","","","50","0,0,1","1","countryside","37","probe-207","0.6547796718372524","0.3334879015188746","0.2585994544317893","0","","","","","","","",""
"","html-keyboard-response","167","697246","0.0-93.0-1.0","""event"",""trial"",""time""
""fullscreenenter"",""0"",""2200""
","
","
","""event"",""trial"",""time""
""fullscreenenter"",""0"",""2200""
","
","null","<p></p>","null","","","","","","","","","","","","","","","","","","","","","","",""
"","do_trial","168","702163","0.0-94.0-0.0","""event"",""trial"",""time""
""fullscreenenter"",""0"",""2200""
","
","
","""event"",""trial"",""time""
""fullscreenenter"",""0"",""2200""
","
","321.60000002384186","","","","","","","","50","0,0,1","1","countryside","38","probe-88","0.571897734225169","0.20009303290470776","0.2705338266032872","0","","","","","","","",""
"","html-keyboard-response","169","703166","0.0-94.0-1.0","""event"",""trial"",""time""
""fullscreenenter"",""0"",""2200""
","
","
","""event"",""trial"",""time""
""fullscreenenter"",""0"",""2200""
","
","null","<p></p>","null","","","","","","","","","","","","","","","","","","","","","","",""
"","do_trial","170","707946","0.0-95.0-0.0","""event"",""trial"",""time""
""fullscreenenter"",""0"",""2200""
","
","
","""event"",""trial"",""time""
""fullscreenenter"",""0"",""2200""
","
","187.5999999642372","","","","","","","","50","1,1,0","1","countryside","39","probe-45","0.5511777434857034","0.4581872026868651","0.10299829896079807","1","","","","","","","",""
"","html-keyboard-response","171","708958","0.0-95.0-1.0","""event"",""trial"",""time""
""fullscreenenter"",""0"",""2200""
","
","
","""event"",""trial"",""time""
""fullscreenenter"",""0"",""2200""
","
","null","<p></p>","null","","","","","","","","","","","","","","","","","","","","","","",""
"","do_trial","172","713552","0.0-96.0-0.0","""event"",""trial"",""time""
""fullscreenenter"",""0"",""2200""
","
","
","""event"",""trial"",""time""
""fullscreenenter"",""0"",""2200""
","
","0.10000002384185791","","","","","","","","51","1,0,1","1","countryside","40","probe-110","0.5953830310673893","0.38664464997948267","0.09398180375140909","1","","","","","","","",""
"","html-keyboard-response","173","714561","0.0-96.0-1.0","""event"",""trial"",""time""
""fullscreenenter"",""0"",""2200""
","
","
","""event"",""trial"",""time""
""fullscreenenter"",""0"",""2200""
","
","null","<p></p>","null","","","","","","","","","","","","","","","","","","","","","","",""
"","do_trial","174","719150","0.0-97.0-0.0","""event"",""trial"",""time""
""fullscreenenter"",""0"",""2200""
","
","
","""event"",""trial"",""time""
""fullscreenenter"",""0"",""2200""
","
","0.30000001192092896","","","","","","","","51","1,0,0","1","countryside","41","probe-190","0.5206646759630827","0.44910413538296523","0.13028424360832083","0","","","","","","","",""
"","html-keyboard-response","175","720156","0.0-97.0-1.0","""event"",""trial"",""time""
""fullscreenenter"",""0"",""2200""
","
","
","""event"",""trial"",""time""
""fullscreenenter"",""0"",""2200""
","
","null","<p></p>","null","","","","","","","","","","","","","","","","","","","","","","",""
"","do_trial","176","724743","0.0-98.0-0.0","""event"",""trial"",""time""
""fullscreenenter"",""0"",""2200""
","
","
","""event"",""trial"",""time""
""fullscreenenter"",""0"",""2200""
","
","0.19999998807907104","","","","","","","","51","0,0,0","1","countryside","42","probe-50","0.5197968171125241","0.5987101107719942","0.15440836320336968","0","","","","","","","",""
"","html-keyboard-response","177","725753","0.0-98.0-1.0","""event"",""trial"",""time""
""fullscreenenter"",""0"",""2200""
","
","
","""event"",""trial"",""time""
""fullscreenenter"",""0"",""2200""
","
","null","<p></p>","null","","","","","","","","","","","","","","","","","","","","","","",""
"","do_trial","178","730367","0.0-99.0-0.0","""event"",""trial"",""time""
""fullscreenenter"",""0"",""2200""
","
","
","""event"",""trial"",""time""
""fullscreenenter"",""0"",""2200""
","
","13.699999988079071","","","","","","","","51","0,0,1","1","countryside","43","probe-151","0.4969614247723998","0.5571982468224029","0.21002501654569802","1","","","","","","","",""
"","html-keyboard-response","179","731375","0.0-99.0-1.0","""event"",""trial"",""time""
""fullscreenenter"",""0"",""2200""
","
","
","""event"",""trial"",""time""
""fullscreenenter"",""0"",""2200""
","
","null","<p></p>","null","","","","","","","","","","","","","","","","","","","","","","",""
"","do_trial","180","736010","0.0-100.0-0.0","""event"",""trial"",""time""
""fullscreenenter"",""0"",""2200""
","
","
","""event"",""trial"",""time""
""fullscreenenter"",""0"",""2200""
","
","38.39999997615814","","","","","","","","51","0,1,0","1","countryside","44","probe-89","0.389937083475738","0.47954681916025665","0.19166992974068214","0","","","","","","","",""
"","html-keyboard-response","181","737019","0.0-100.0-1.0","""event"",""trial"",""time""
""fullscreenenter"",""0"",""2200""
","
","
","""event"",""trial"",""time""
""fullscreenenter"",""0"",""2200""
","
","null","<p></p>","null","","","","","","","","","","","","","","","","","","","","","","",""
"","do_trial","182","741614","0.0-101.0-0.0","""event"",""trial"",""time""
""fullscreenenter"",""0"",""2200""
","
","
","""event"",""trial"",""time""
""fullscreenenter"",""0"",""2200""
","
","0.30000001192092896","","","","","","","","49","0,1,0","1","countryside","45","probe-31","0.38512530475954426","0.4959336888226799","0.07304622927586406","0","","","","","","","",""
"","html-keyboard-response","183","742621","0.0-101.0-1.0","""event"",""trial"",""time""
""fullscreenenter"",""0"",""2200""
","
","
","""event"",""trial"",""time""
""fullscreenenter"",""0"",""2200""
","
","null","<p></p>","null","","","","","","","","","","","","","","","","","","","","","","",""
"","do_trial","184","747899","0.0-102.0-0.0","""event"",""trial"",""time""
""fullscreenenter"",""0"",""2200""
","
","
","""event"",""trial"",""time""
""fullscreenenter"",""0"",""2200""
","
","679.1000000238419","","","","","","","","50","0,1,1","1","countryside","46","probe-05","0.3900609410959524","0.584105932701303","0.11893455524616306","1","","","","","","","",""
"","html-keyboard-response","185","748906","0.0-102.0-1.0","""event"",""trial"",""time""
""fullscreenenter"",""0"",""2200""
","
","
","""event"",""trial"",""time""
""fullscreenenter"",""0"",""2200""
","
","null","<p></p>","null","","","","","","","","","","","","","","","","","","","","","","",""
"","do_trial","186","753581","0.0-103.0-0.0","""event"",""trial"",""time""
""fullscreenenter"",""0"",""2200""
","
","
","""event"",""trial"",""time""
""fullscreenenter"",""0"",""2200""
","
","83","","","","","","","","50","0,1,0","1","countryside","47","probe-76","0.35221456479745433","0.6244617759136747","0.08415179967282128","1","","","","","","","",""
"","html-keyboard-response","187","754589","0.0-103.0-1.0","""event"",""trial"",""time""
""fullscreenenter"",""0"",""2200""
","
","
","""event"",""trial"",""time""
""fullscreenenter"",""0"",""2200""
","
","null","<p></p>","null","","","","","","","","","","","","","","","","","","","","","","",""
"","do_trial","188","759300","0.0-104.0-0.0","""event"",""trial"",""time""
""fullscreenenter"",""0"",""2200""
","
","
","""event"",""trial"",""time""
""fullscreenenter"",""0"",""2200""
","
","111.40000003576279","","","","","","","","50","0,0,0","1","countryside","48","probe-19","0.3171386944700818","0.5018052892725876","0.10603859935227318","0","","","","","","","",""
"","html-keyboard-response","189","760306","0.0-104.0-1.0","""event"",""trial"",""time""
""fullscreenenter"",""0"",""2200""
","
","
","""event"",""trial"",""time""
""fullscreenenter"",""0"",""2200""
","
","null","<p></p>","null","","","","","","","","","","","","","","","","","","","","","","",""
"","do_trial","190","764897","0.0-105.0-0.0","""event"",""trial"",""time""
""fullscreenenter"",""0"",""2200""
","
","
","""event"",""trial"",""time""
""fullscreenenter"",""0"",""2200""
","
","0.19999998807907104","","","","","","","","51","0,0,0","1","countryside","49","probe-56","0.4089466850896829","0.4041861345508382","0.13168263121778606","0","","","","","","","",""
"","html-keyboard-response","191","765902","0.0-105.0-1.0","""event"",""trial"",""time""
""fullscreenenter"",""0"",""2200""
","
","
","""event"",""trial"",""time""
""fullscreenenter"",""0"",""2200""
","
","null","<p></p>","null","","","","","","","","","","","","","","","","","","","","","","",""
"","do_trial","192","770504","0.0-106.0-0.0","""event"",""trial"",""time""
""fullscreenenter"",""0"",""2200""
","
","
","""event"",""trial"",""time""
""fullscreenenter"",""0"",""2200""
","
","0.10000002384185791","","","","","","","","51","0,0,0","1","countryside","50","probe-221","0.2962350540681053","0.6047369734484033","0.1912853855704474","0","","","","","","","",""
"","html-keyboard-response","193","771512","0.0-106.0-1.0","""event"",""trial"",""time""
""fullscreenenter"",""0"",""2200""
","
","
","""event"",""trial"",""time""
""fullscreenenter"",""0"",""2200""
","
","null","<p></p>","null","","","","","","","","","","","","","","","","","","","","","","",""
"","do_trial","194","776103","0.0-107.0-0.0","""event"",""trial"",""time""
""fullscreenenter"",""0"",""2200""
","
","
","""event"",""trial"",""time""
""fullscreenenter"",""0"",""2200""
","
","0.09999996423721313","","","","","","","","50","1,1,0","1","countryside","51","probe-74","0.42050470021422426","0.6959044398946808","0.11119068549767876","1","","","","","","","",""
"","html-keyboard-response","195","777113","0.0-107.0-1.0","""event"",""trial"",""time""
""fullscreenenter"",""0"",""2200""
","
","
","""event"",""trial"",""time""
""fullscreenenter"",""0"",""2200""
","
","null","<p></p>","null","","","","","","","","","","","","","","","","","","","","","","",""
"","do_trial","196","781716","0.0-108.0-0.0","""event"",""trial"",""time""
""fullscreenenter"",""0"",""2200""
","
","
","""event"",""trial"",""time""
""fullscreenenter"",""0"",""2200""
","
","0.19999998807907104","","","","","","","","50","1,1,0","1","countryside","52","probe-91","0.42250761945036536","0.6252486559585857","0.1195619955225944","1","","","","","","","",""
"","html-keyboard-response","197","782720","0.0-108.0-1.0","""event"",""trial"",""time""
""fullscreenenter"",""0"",""2200""
","
","
","""event"",""trial"",""time""
""fullscreenenter"",""0"",""2200""
","
","null","<p></p>","null","","","","","","","","","","","","","","","","","","","","","","",""
"","do_trial","198","787327","0.0-109.0-0.0","""event"",""trial"",""time""
""fullscreenenter"",""0"",""2200""
","
","
","""event"",""trial"",""time""
""fullscreenenter"",""0"",""2200""
","
","13.300000011920929","","","","","","","","50","1,0,0","1","countryside","53","probe-103","0.3761311052209376","0.6452333714944963","0.08310288973364337","0","","","","","","","",""
"","html-keyboard-response","199","788335","0.0-109.0-1.0","""event"",""trial"",""time""
""fullscreenenter"",""0"",""2200""
","
","
","""event"",""trial"",""time""
""fullscreenenter"",""0"",""2200""
","
","null","<p></p>","null","","","","","","","","","","","","","","","","","","","","","","",""
"","do_trial","200","792925","0.0-110.0-0.0","""event"",""trial"",""time""
""fullscreenenter"",""0"",""2200""
","
","
","""event"",""trial"",""time""
""fullscreenenter"",""0"",""2200""
","
","0.20000004768371582","","","","","","","","50","0,1,0","1","countryside","54","probe-61","0.34784208429831937","0.6412462519125989","0.09134342479761916","1","","","","","","","",""
"","html-keyboard-response","201","793934","0.0-110.0-1.0","""event"",""trial"",""time""
""fullscreenenter"",""0"",""2200""
","
","
","""event"",""trial"",""time""
""fullscreenenter"",""0"",""2200""
","
","null","<p></p>","null","","","","","","","","","","","","","","","","","","","","","","",""
"","do_trial","202","798532","0.0-111.0-0.0","""event"",""trial"",""time""
""fullscreenenter"",""0"",""2200""
","
","
","""event"",""trial"",""time""
""fullscreenenter"",""0"",""2200""
","
","10.300000011920929","","","","","","","","50","0,0,0","1","countryside","55","probe-215","0.3968585449908298","0.5845263637389633","0.16925218041860973","0","","","","","","","",""
"","html-keyboard-response","203","799543","0.0-111.0-1.0","""event"",""trial"",""time""
""fullscreenenter"",""0"",""2200""
","
","
","""event"",""trial"",""time""
""fullscreenenter"",""0"",""2200""
","
","null","<p></p>","null","","","","","","","","","","","","","","","","","","","","","","",""
"","do_trial","204","804388","0.0-112.0-0.0","""event"",""trial"",""time""
""fullscreenenter"",""0"",""2200""
","
","
","""event"",""trial"",""time""
""fullscreenenter"",""0"",""2200""
","
","250.89999997615814","","","","","","","","50","1,1,0","1","countryside","56","probe-194","0.4890424906523554","0.6631869530453378","0.2563245484833759","1","","","","","","","",""
"","html-keyboard-response","205","805402","0.0-112.0-1.0","""event"",""trial"",""time""
""fullscreenenter"",""0"",""2200""
","
","
","""event"",""trial"",""time""
""fullscreenenter"",""0"",""2200""
","
","null","<p></p>","null","","","","","","","","","","","","","","","","","","","","","","",""
"","do_trial","206","810054","0.0-113.0-0.0","""event"",""trial"",""time""
""fullscreenenter"",""0"",""2200""
","
","
","""event"",""trial"",""time""
""fullscreenenter"",""0"",""2200""
","
","63.59999996423721","","","","","","","","50","0,1,0","1","countryside","57","probe-87","0.5439025590526699","0.6432742907887677","0.05640008773846773","1","","","","","","","",""
"","html-keyboard-response","207","811062","0.0-113.0-1.0","""event"",""trial"",""time""
""fullscreenenter"",""0"",""2200""
","
","
","""event"",""trial"",""time""
""fullscreenenter"",""0"",""2200""
","
","null","<p></p>","null","","","","","","","","","","","","","","","","","","","","","","",""
"","do_trial","208","815718","0.0-114.0-0.0","""event"",""trial"",""time""
""fullscreenenter"",""0"",""2200""
","
","
","""event"",""trial"",""time""
""fullscreenenter"",""0"",""2200""
","
","65.80000001192093","","","","","","","","50","1,1,0","1","countryside","58","probe-67","0.45894064160871995","0.7687424170421118","0.05093348845359081","1","","","","","","","",""
"","html-keyboard-response","209","816723","0.0-114.0-1.0","""event"",""trial"",""time""
""fullscreenenter"",""0"",""2200""
","
","
","""event"",""trial"",""time""
""fullscreenenter"",""0"",""2200""
","
","null","<p></p>","null","","","","","","","","","","","","","","","","","","","","","","",""
"","do_trial","210","821389","0.0-115.0-0.0","""event"",""trial"",""time""
""fullscreenenter"",""0"",""2200""
","
","
","""event"",""trial"",""time""
""fullscreenenter"",""0"",""2200""
","
","79.69999998807907","","","","","","","","50","0,1,0","1","countryside","59","probe-43","0.24574881554649133","0.6718500370804338","0.18705417281868048","1","","","","","","","",""
"","html-keyboard-response","211","822397","0.0-115.0-1.0","""event"",""trial"",""time""
""fullscreenenter"",""0"",""2200""
","
","
","""event"",""trial"",""time""
""fullscreenenter"",""0"",""2200""
","
","null","<p></p>","null","","","","","","","","","","","","","","","","","","","","","","",""
"","do_trial","212","827106","0.0-116.0-0.0","""event"",""trial"",""time""
""fullscreenenter"",""0"",""2200""
","
","
","""event"",""trial"",""time""
""fullscreenenter"",""0"",""2200""
","
","114.20000004768372","","","","","","","","50","0,0,1","1","countryside","60","probe-10","0.16263732081016546","0.6739078758468344","0.12309188836872137","0","","","","","","","",""
"","html-keyboard-response","213","828108","0.0-116.0-1.0","""event"",""trial"",""time""
""fullscreenenter"",""0"",""2200""
","
","
","""event"",""trial"",""time""
""fullscreenenter"",""0"",""2200""
","
","null","<p></p>","null","","","","","","","","","","","","","","","","","","","","","","",""
"","do_trial","214","832859","0.0-117.0-0.0","""event"",""trial"",""time""
""fullscreenenter"",""0"",""2200""
","
","
","""event"",""trial"",""time""
""fullscreenenter"",""0"",""2200""
","
","164.19999998807907","","","","","","","","50","0,0,0","1","countryside","61","probe-14","0.28902162099489154","0.6515429106260109","0.0883580729742925","0","","","","","","","",""
"","html-keyboard-response","215","833867","0.0-117.0-1.0","""event"",""trial"",""time""
""fullscreenenter"",""0"",""2200""
","
","
","""event"",""trial"",""time""
""fullscreenenter"",""0"",""2200""
","
","null","<p></p>","null","","","","","","","","","","","","","","","","","","","","","","",""
"","do_trial","216","838887","0.0-118.0-0.0","""event"",""trial"",""time""
""fullscreenenter"",""0"",""2200""
","
","
","""event"",""trial"",""time""
""fullscreenenter"",""0"",""2200""
","
","425.60000002384186","","","","","","","","50","0,1,0","1","countryside","62","probe-69","0.4281782611379255","0.6941581138018593","0.0674397700742427","1","","","","","","","",""
"","html-keyboard-response","217","839894","0.0-118.0-1.0","""event"",""trial"",""time""
""fullscreenenter"",""0"",""2200""
","
","
","""event"",""trial"",""time""
""fullscreenenter"",""0"",""2200""
","
","null","<p></p>","null","","","","","","","","","","","","","","","","","","","","","","",""
"","do_trial","218","844535","0.0-119.0-0.0","""event"",""trial"",""time""
""fullscreenenter"",""0"",""2200""
","
","
","""event"",""trial"",""time""
""fullscreenenter"",""0"",""2200""
","
","48.89999997615814","","","","","","","","50","0,1,0","1","countryside","63","probe-16","0.30658251565129413","0.5456649827735227","0.08940260502839058","1","","","","","","","",""
"","html-keyboard-response","219","845544","0.0-119.0-1.0","""event"",""trial"",""time""
""fullscreenenter"",""0"",""2200""
","
","
","""event"",""trial"",""time""
""fullscreenenter"",""0"",""2200""
","
","null","<p></p>","null","","","","","","","","","","","","","","","","","","","","","","",""
"","do_trial","220","850146","0.0-120.0-0.0","""event"",""trial"",""time""
""fullscreenenter"",""0"",""2200""
","
","
","""event"",""trial"",""time""
""fullscreenenter"",""0"",""2200""
","
","0.19999998807907104","","","","","","","","50","1,1,0","1","countryside","64","probe-201","0.13563051651461858","0.6130722149069873","0.05177183675777963","1","","","","","","","",""
"","html-keyboard-response","221","851149","0.0-120.0-1.0","""event"",""trial"",""time""
""fullscreenenter"",""0"",""2200""
","
","
","""event"",""trial"",""time""
""fullscreenenter"",""0"",""2200""
","
","null","<p></p>","null","","","","","","","","","","","","","","","","","","","","","","",""
"","do_trial","222","855902","0.0-121.0-0.0","""event"",""trial"",""time""
""fullscreenenter"",""0"",""2200""
","
","
","""event"",""trial"",""time""
""fullscreenenter"",""0"",""2200""
","
","162.19999998807907","","","","","","","","50","0,0,0","1","countryside","65","probe-202","0.27351616603141377","0.575429447470943","0.17057198931783532","0","","","","","","","",""
"","html-keyboard-response","223","856911","0.0-121.0-1.0","""event"",""trial"",""time""
""fullscreenenter"",""0"",""2200""
","
","
","""event"",""trial"",""time""
""fullscreenenter"",""0"",""2200""
","
","null","<p></p>","null","","","","","","","","","","","","","","","","","","","","","","",""
"","do_trial","224","861540","0.0-122.0-0.0","""event"",""trial"",""time""
""fullscreenenter"",""0"",""2200""
","
","
","""event"",""trial"",""time""
""fullscreenenter"",""0"",""2200""
","
","0.3999999761581421","","","","","","","","50","0,0,0","1","countryside","66","probe-187","0.30220493628748185","0.7006799969146026","0.14783536579532824","0","","","","","","","",""
"","html-keyboard-response","225","862549","0.0-122.0-1.0","""event"",""trial"",""time""
""fullscreenenter"",""0"",""2200""
","
","
","""event"",""trial"",""time""
""fullscreenenter"",""0"",""2200""
","
","null","<p></p>","null","","","","","","","","","","","","","","","","","","","","","","",""
"","do_trial","226","867259","0.0-123.0-0.0","""event"",""trial"",""time""
""fullscreenenter"",""0"",""2200""
","
","
","""event"",""trial"",""time""
""fullscreenenter"",""0"",""2200""
","
","113.80000001192093","","","","","","","","50","1,1,0","1","countryside","67","probe-217","0.4206411638059136","0.6227312761450774","0.35008507599161187","1","","","","","","","",""
"","html-keyboard-response","227","868272","0.0-123.0-1.0","""event"",""trial"",""time""
""fullscreenenter"",""0"",""2200""
","
","
","""event"",""trial"",""time""
""fullscreenenter"",""0"",""2200""
","
","null","<p></p>","null","","","","","","","","","","","","","","","","","","","","","","",""
"","do_trial","228","872879","0.0-124.0-0.0","""event"",""trial"",""time""
""fullscreenenter"",""0"",""2200""
","
","
","""event"",""trial"",""time""
""fullscreenenter"",""0"",""2200""
","
","0.19999998807907104","","","","","","","","50","0,1,1","1","countryside","68","probe-126","0.32722092788541773","0.4767482210261255","0.2614936721765094","1","","","","","","","",""
"","html-keyboard-response","229","873883","0.0-124.0-1.0","""event"",""trial"",""time""
""fullscreenenter"",""0"",""2200""
","
","
","""event"",""trial"",""time""
""fullscreenenter"",""0"",""2200""
","
","null","<p></p>","null","","","","","","","","","","","","","","","","","","","","","","",""
"","do_trial","230","878480","0.0-125.0-0.0","""event"",""trial"",""time""
""fullscreenenter"",""0"",""2200""
","
","
","""event"",""trial"",""time""
""fullscreenenter"",""0"",""2200""
","
","0.19999998807907104","","","","","","","","50","1,1,1","1","countryside","69","probe-84","0.3706396295126689","0.6292961025066655","0.28026405721619413","1","","","","","","","",""
"","html-keyboard-response","231","879497","0.0-125.0-1.0","""event"",""trial"",""time""
""fullscreenenter"",""0"",""2200""
","
","
","""event"",""trial"",""time""
""fullscreenenter"",""0"",""2200""
","
","null","<p></p>","null","","","","","","","","","","","","","","","","","","","","","","",""
"","do_bye","232","881005","0.0-126.0-0.0","""event"",""trial"",""time""
""fullscreenenter"",""0"",""2200""
","
","
","""event"",""trial"",""time""
""fullscreenenter"",""0"",""2200""
","
","null","","","","","","","","null","","","","","","","","","","","","","","","","",""
"","break","233","882391","0.0-126.0-1.0","""event"",""trial"",""time""
""fullscreenenter"",""0"",""2200""
","
","
","""event"",""trial"",""time""
""fullscreenenter"",""0"",""2200""
","
","1384.4000000357628","<div class='center'><p>Time to take a quick break! You have 2 minutes to rest, but you can move on sooner if you'd like.</p><p> Press the <b>space bar</b> to continue.</p></div>","32","","","","","","","","","","","","","","","","","","","","","","",""
"","do_travel","234","891407","0.0-127.0-0.0","""event"",""trial"",""time""
""fullscreenenter"",""0"",""2200""
","
","
","""event"",""trial"",""time""
""fullscreenenter"",""0"",""2200""
","
","null","","","","","","","","null","","","","","","","","","","","","","","","","",""
"","do_welcome","235","895426","0.0-127.0-1.0","""event"",""trial"",""time""
""fullscreenenter"",""0"",""2200""
","
","
","""event"",""trial"",""time""
""fullscreenenter"",""0"",""2200""
","
","null","","","","","","","","null","","","","","","","","","","","","","","","","",""
"","do_trial","236","901516","0.0-128.0-0.0","""event"",""trial"",""time""
""fullscreenenter"",""0"",""2200""
","
","
","""event"",""trial"",""time""
""fullscreenenter"",""0"",""2200""
","
","1493.800000011921","","","","","","","","49","0,1,0","2","mountain","70","probe-203","0.37970457883330566","1","0.2627678091358827","0","","","","","","","",""
"","html-keyboard-response","237","902526","0.0-128.0-1.0","""event"",""trial"",""time""
""fullscreenenter"",""0"",""2200""
","
","
","""event"",""trial"",""time""
""fullscreenenter"",""0"",""2200""
","
","null","<p></p>","null","","","","","","","","","","","","","","","","","","","","","","",""
"","do_trial","238","907161","0.0-129.0-0.0","""event"",""trial"",""time""
""fullscreenenter"",""0"",""2200""
","
","
","""event"",""trial"",""time""
""fullscreenenter"",""0"",""2200""
","
","43.80000001192093","","","","","","","","49","1,1,1","2","mountain","71","probe-136","0.4880637818894949","1","0.15867215136504512","1","","","","","","","",""
"","html-keyboard-response","239","908164","0.0-129.0-1.0","""event"",""trial"",""time""
""fullscreenenter"",""0"",""2200""
","
","
","""event"",""trial"",""time""
""fullscreenenter"",""0"",""2200""
","
","null","<p></p>","null","","","","","","","","","","","","","","","","","","","","","","",""
"","do_trial","240","912884","0.0-130.0-0.0","""event"",""trial"",""time""
""fullscreenenter"",""0"",""2200""
","
","
","""event"",""trial"",""time""
""fullscreenenter"",""0"",""2200""
","
","133","","","","","","","","49","1,0,0","2","mountain","72","probe-148","0.31028266817636535","0.9040625190107332","0.12540795953407527","1","","","","","","","",""
"","html-keyboard-response","241","913888","0.0-130.0-1.0","""event"",""trial"",""time""
""fullscreenenter"",""0"",""2200""
","
","
","""event"",""trial"",""time""
""fullscreenenter"",""0"",""2200""
","
","null","<p></p>","null","","","","","","","","","","","","","","","","","","","","","","",""
"","do_trial","242","918484","0.0-131.0-0.0","""event"",""trial"",""time""
""fullscreenenter"",""0"",""2200""
","
","
","""event"",""trial"",""time""
""fullscreenenter"",""0"",""2200""
","
","0.19999998807907104","","","","","","","","49","0,1,1","2","mountain","73","probe-170","0.2829633897505713","0.825972725982225","0.186625069270412","0","","","","","","","",""
"","html-keyboard-response","243","919488","0.0-131.0-1.0","""event"",""trial"",""time""
""fullscreenenter"",""0"",""2200""
","
","
","""event"",""trial"",""time""
""fullscreenenter"",""0"",""2200""
","
","null","<p></p>","null","","","","","","","","","","","","","","","","","","","","","","",""
"","do_trial","244","924127","0.0-132.0-0.0","""event"",""trial"",""time""
""fullscreenenter"",""0"",""2200""
","
","
","""event"",""trial"",""time""
""fullscreenenter"",""0"",""2200""
","
","45.30000001192093","","","","","","","","49","0,1,0","2","mountain","74","probe-81","0.3213254519691517","0.732707434652726","0.22746766439110333","0","","","","","","","",""
"","html-keyboard-response","245","925134","0.0-132.0-1.0","""event"",""trial"",""time""
""fullscreenenter"",""0"",""2200""
","
","
","""event"",""trial"",""time""
""fullscreenenter"",""0"",""2200""
","
","null","<p></p>","null","","","","","","","","","","","","","","","","","","","","","","",""
"","do_trial","246","929852","0.0-133.0-0.0","""event"",""trial"",""time""
""fullscreenenter"",""0"",""2200""
","
","
","""event"",""trial"",""time""
""fullscreenenter"",""0"",""2200""
","
","122.30000001192093","","","","","","","","50","0,1,0","2","mountain","75","probe-224","0.24893486988066052","0.6811093963213364","0.26438220179924926","1","","","","","","","",""
"","html-keyboard-response","247","930859","0.0-133.0-1.0","""event"",""trial"",""time""
""fullscreenenter"",""0"",""2200""
","
","
","""event"",""trial"",""time""
""fullscreenenter"",""0"",""2200""
","
","null","<p></p>","null","","","","","","","","","","","","","","","","","","","","","","",""
"","do_trial","248","935476","0.0-134.0-0.0","""event"",""trial"",""time""
""fullscreenenter"",""0"",""2200""
","
","
","""event"",""trial"",""time""
""fullscreenenter"",""0"",""2200""
","
","16","","","","","","","","50","1,0,0","2","mountain","76","probe-122","0.43833748229836245","0.5181548846352096","0.17102423672690187","0","","","","","","","",""
"","html-keyboard-response","249","936483","0.0-134.0-1.0","""event"",""trial"",""time""
""fullscreenenter"",""0"",""2200""
","
","
","""event"",""trial"",""time""
""fullscreenenter"",""0"",""2200""
","
","null","<p></p>","null","","","","","","","","","","","","","","","","","","","","","","",""
"","do_trial","250","941213","0.0-135.0-0.0","""event"",""trial"",""time""
""fullscreenenter"",""0"",""2200""
","
","
","""event"",""trial"",""time""
""fullscreenenter"",""0"",""2200""
","
","129.30000001192093","","","","","","","","50","0,1,0","2","mountain","77","probe-80","0.48458418014547483","0.5936500655326717","0.27184890257508304","1","","","","","","","",""
"","html-keyboard-response","251","942221","0.0-135.0-1.0","""event"",""trial"",""time""
""fullscreenenter"",""0"",""2200""
","
","
","""event"",""trial"",""time""
""fullscreenenter"",""0"",""2200""
","
","null","<p></p>","null","","","","","","","","","","","","","","","","","","","","","","",""
"","do_trial","252","946821","0.0-136.0-0.0","""event"",""trial"",""time""
""fullscreenenter"",""0"",""2200""
","
","
","""event"",""trial"",""time""
""fullscreenenter"",""0"",""2200""
","
","10.699999988079071","","","","","","","","50","1,1,1","2","mountain","78","probe-72","0.307523446830119","0.6922222656012555","0.3060365832929549","1","","","","","","","",""
"","html-keyboard-response","253","947827","0.0-136.0-1.0","""event"",""trial"",""time""
""fullscreenenter"",""0"",""2200""
","
","
","""event"",""trial"",""time""
""fullscreenenter"",""0"",""2200""
","
","null","<p></p>","null","","","","","","","","","","","","","","","","","","","","","","",""
"","do_trial","254","952429","0.0-137.0-0.0","""event"",""trial"",""time""
""fullscreenenter"",""0"",""2200""
","
","
","""event"",""trial"",""time""
""fullscreenenter"",""0"",""2200""
","
","0.30000001192092896","","","","","","","","50","0,0,0","2","mountain","79","probe-140","0.29007173865841457","0.6764469985088366","0.31815012890061634","0","","","","","","","",""
"","html-keyboard-response","255","953436","0.0-137.0-1.0","""event"",""trial"",""time""
""fullscreenenter"",""0"",""2200""
","
","
","""event"",""trial"",""time""
""fullscreenenter"",""0"",""2200""
","
","null","<p></p>","null","","","","","","","","","","","","","","","","","","","","","","",""
"","do_trial","256","958035","0.0-138.0-0.0","""event"",""trial"",""time""
""fullscreenenter"",""0"",""2200""
","
","
","""event"",""trial"",""time""
""fullscreenenter"",""0"",""2200""
","
","0.19999998807907104","","","","","","","","51","1,1,0","2","mountain","80","probe-63","0.2989992358543611","0.690963456783877","0.36555515851998066","0","","","","","","","",""
"","html-keyboard-response","257","959043","0.0-138.0-1.0","""event"",""trial"",""time""
""fullscreenenter"",""0"",""2200""
","
","
","""event"",""trial"",""time""
""fullscreenenter"",""0"",""2200""
","
","null","<p></p>","null","","","","","","","","","","","","","","","","","","","","","","",""
"","do_trial","258","963648","0.0-139.0-0.0","""event"",""trial"",""time""
""fullscreenenter"",""0"",""2200""
","
","
","""event"",""trial"",""time""
""fullscreenenter"",""0"",""2200""
","
","0.10000002384185791","","","","","","","","51","1,0,0","2","mountain","81","probe-02","0.33375555973957677","0.5965503888291978","0.35485055793303133","0","","","","","","","",""
"","html-keyboard-response","259","964654","0.0-139.0-1.0","""event"",""trial"",""time""
""fullscreenenter"",""0"",""2200""
","
","
","""event"",""trial"",""time""
""fullscreenenter"",""0"",""2200""
","
","null","<p></p>","null","","","","","","","","","","","","","","","","","","","","","","",""
"","do_trial","260","969471","0.0-140.0-0.0","""event"",""trial"",""time""
""fullscreenenter"",""0"",""2200""
","
","
","""event"",""trial"",""time""
""fullscreenenter"",""0"",""2200""
","
