"success","trial_type","trial_index","time_elapsed","internal_node_id","interactions","blur_events","focus_events","fullscreenenter_events","fullscreenexit_events","rt","stimulus","key_press","subject_id","participant_id","age","gender","prompt","response","choice_outcomes","context_n","context_img_id","trial_n","probe_img_id","pR_red","pR_white","pR_black","outcome","contextArray_ind","validImageProbes","invalidImageProbes","pRew_Red","pRew_White","pRew_Black","availableForMemProbe","choice_blocks"
"true","fullscreen","0","3298","0.0-0.0","""event"",""trial"",""time""
""fullscreenenter"",""0"",""2312""
","
","
","""event"",""trial"",""time""
""fullscreenenter"",""0"",""2312""
","
","","","","","","","","","","","","","","","","","","","","","","","","","",""
"","pavlovia","1","3303","0.0-1.0","""event"",""trial"",""time""
""fullscreenenter"",""0"",""2312""
","
","
","""event"",""trial"",""time""
""fullscreenenter"",""0"",""2312""
","
","","","","","","","","","","","","","","","","","","","","","","","","","",""
"","instruc1","2","48394","0.0-2.0","""event"",""trial"",""time""
""fullscreenenter"",""0"",""2312""
","
","
","""event"",""trial"",""time""
""fullscreenenter"",""0"",""2312""
","
","null","run_exp/static/audio/clip_1_welcome.m4a","null","1393","1484","25","Female","<div class='center'><p>Welcome! This is the first part of the study. It will last ~30 minutes. In part 1 and part 2 of the study, you are the head captain of a pirate ship traveling around the world to different islands. You will play a few different games throughout these two parts. Here is an overview of them:</p><br><p>Part 1 (today)</p><p>1. Instructions, practice game, and quiz</p><p>2. Pick a pirate game on 6 different islands</p><br><p>Part 2 (tomorrow)</p><p>3. Pick a pirate game and memory game</p><p>4. Where did you see this ship? </p></div>","","","","","","","","","","","","","","","","","",""
"","html-keyboard-response","3","48439","0.0-3.0","""event"",""trial"",""time""
""fullscreenenter"",""0"",""2312""
","
","
","""event"",""trial"",""time""
""fullscreenenter"",""0"",""2312""
","
","43","<div class='center'><p>Welcome! This is the first part of the study. It will last ~30 minutes. In part 1 and part 2 of the study, you are the head captain of a pirate ship traveling around the world to different islands. You will play a few different games throughout these two parts. Here is an overview of them:</p><br><p>Part 1 (today)</p><p>1. Instructions, practice game, and quiz</p><p>2. Pick a pirate game on 6 different islands</p><br><p>Part 2 (tomorrow)</p><p>3. Pick a pirate game and memory game</p><p>4. Where did you see this ship? </p><p><b>[Press the space bar to continue]</b></p></div>","32","","","","","","","","","","","","","","","","","","","","","","",""
"","instruc2","4","53733","0.0-4.0","""event"",""trial"",""time""
""fullscreenenter"",""0"",""2312""
","
","
","""event"",""trial"",""time""
""fullscreenenter"",""0"",""2312""
","
","null","run_exp/static/audio/clip_2_different_places.m4a","null","","","","","<div class='center'><p>Today, you’ll visit these 6 islands on your journey. You'll be able to see these islands from your ship.</p><p><img src='run_exp/static/images/contexts/all_contexts.png' height='500'></p></div>","","","","","","","","","","","","","","","","","",""
"","html-keyboard-response","5","56164","0.0-5.0","""event"",""trial"",""time""
""fullscreenenter"",""0"",""2312""
","
","
","""event"",""trial"",""time""
""fullscreenenter"",""0"",""2312""
","
","2429.199999988079","<div class='center'><p>Today, you’ll visit these 6 islands on your journey. You'll be able to see these islands from your ship.</p><p><img src='run_exp/static/images/contexts/all_contexts.png' height='500'></p><p><b>[Press the space bar to continue]</b></p></div>","32","","","","","","","","","","","","","","","","","","","","","","",""
"","instruc3","6","65853","0.0-6.0","""event"",""trial"",""time""
""fullscreenenter"",""0"",""2312""
","
","
","""event"",""trial"",""time""
""fullscreenenter"",""0"",""2312""
","
","null","run_exp/static/audio/clip_3_goal_of_game_1.m4a","null","","","","","<div class='center'><p> The pirates on your ship will rob other ships as they leave the island.</p> These ships have just sold their goods to the islanders, so they will be filled with lots and lots of gold.</p><p><img src='run_exp/static/images/tutorial/ship_center.png' height='400'></p></div>","","","","","","","","","","","","","","","","","",""
"","html-keyboard-response","7","68892","0.0-7.0","""event"",""trial"",""time""
""fullscreenenter"",""0"",""2312""
","
","
","""event"",""trial"",""time""
""fullscreenenter"",""0"",""2312""
","
","3037.300000011921","<div class='center'><p> The pirates on your ship will rob other ships as they leave the island.</p> These ships have just sold their goods to the islanders, so they will be filled with lots and lots of gold.</p><p><img src='run_exp/static/images/tutorial/ship_center.png' height='400'></p><p><b>[Press the space bar to continue]</b></p></div>","32","","","","","","","","","","","","","","","","","","","","","","",""
"","instruc4","8","96873","0.0-8.0","""event"",""trial"",""time""
""fullscreenenter"",""0"",""2312""
","
","
","""event"",""trial"",""time""
""fullscreenenter"",""0"",""2312""
","
","null","run_exp/static/audio/clip_4_goal_of_game_2.m4a","null","","","","","<div class='center'><p>As the head captain, you do not have to rob any ships yourself. Another pirate will be doing the robbing for you. First, you will choose a pirate to rob the next ship.</p><p><img src='run_exp/static/images/tutorial/pirates_all_crop.png' height='200'></p><p>Then, you'll see if the pirate successfully robbed the ship of their gold. If they were successful, then you'll get a stack of gold coins like this:</p><p><img src='run_exp/static/images/tutorial/reward.png' height='150'></p><p> If they were <b>not</b> successful, then you'll get no gold coins, and you'll see a big red x like this: </p><p><img src='run_exp/static/images/tutorial/reward_no.png' height='150'></p><p> How much bonus money you make is based on how many gold coins you collect.</p><div>","","","","","","","","","","","","","","","","","",""
"","html-keyboard-response","9","100250","0.0-9.0","""event"",""trial"",""time""
""fullscreenenter"",""0"",""2312""
","
","
","""event"",""trial"",""time""
""fullscreenenter"",""0"",""2312""
","
","3374.699999988079","<div class='center'><p>As the head captain, you do not have to rob any ships yourself. Another pirate will be doing the robbing for you. First, you will choose a pirate to rob the next ship.</p><p><img src='run_exp/static/images/tutorial/pirates_all_crop.png' height='200'></p><p>Then, you'll see if the pirate successfully robbed the ship of their gold. If they were successful, then you'll get a stack of gold coins like this:</p><p><img src='run_exp/static/images/tutorial/reward.png' height='150'></p><p> If they were <b>not</b> successful, then you'll get no gold coins, and you'll see a big red x like this: </p><p><img src='run_exp/static/images/tutorial/reward_no.png' height='150'></p><p> How much bonus money you make is based on how many gold coins you collect.</p<p><b>[Press the space bar to continue]</b></p></div>","32","","","","","","","","","","","","","","","","","","","","","","",""
"","instruc5","10","120795","0.0-10.0","""event"",""trial"",""time""
""fullscreenenter"",""0"",""2312""
","
","
","""event"",""trial"",""time""
""fullscreenenter"",""0"",""2312""
","
","20543.200000047684","run_exp/static/audio/clip_5_probabilistic.m4a","49","","","","","<div class='center'><p>Even the most skilled pirate can not rob EVERY ship.</p><p> Some ships will have very strong protections against pirate attacks.</p><p> Blue beard, here, is very, very good at robbing ships, but he won't be successful every time he tries to rob one.</p><p> You can press the <b>‘1’</b> key on the keyboard to choose him.</p><p> Try choosing him 10 times to see how often he succeeds at robbing a ship. </p><p><img src='run_exp/static/images/tutorial/blue.png' height='500'></p></div>","","","","","","","","","","","","","","","","","",""
"","html-keyboard-response","11","122300","0.0-11.0","""event"",""trial"",""time""
""fullscreenenter"",""0"",""2312""
","
","
","""event"",""trial"",""time""
""fullscreenenter"",""0"",""2312""
","
","null","<div class='center'><p><img src='run_exp/static/images/tutorial/blue_win.png' height='500'></p></div>","null","","","","","","","","","","","","","","","","","","","","","","",""
"","html-keyboard-response","12","122512","0.0-12.0","""event"",""trial"",""time""
""fullscreenenter"",""0"",""2312""
","
","
","""event"",""trial"",""time""
""fullscreenenter"",""0"",""2312""
","
","210.80000001192093","<div class='center'><img src='run_exp/static/images/tutorial/blue.png' height='500'></p></div>","49","","","","","","","","","","","","","","","","","","","","","","",""
"","html-keyboard-response","13","124017","0.0-13.0","""event"",""trial"",""time""
""fullscreenenter"",""0"",""2312""
","
","
","""event"",""trial"",""time""
""fullscreenenter"",""0"",""2312""
","
","null","<div class='center'><p><img src='run_exp/static/images/tutorial/blue_win.png' height='500'></p></div>","null","","","","","","","","","","","","","","","","","","","","","","",""
"","html-keyboard-response","14","125485","0.0-14.0","""event"",""trial"",""time""
""fullscreenenter"",""0"",""2312""
","
","
","""event"",""trial"",""time""
""fullscreenenter"",""0"",""2312""
","
","1467.5","<div class='center'><img src='run_exp/static/images/tutorial/blue.png' height='500'></p></div>","49","","","","","","","","","","","","","","","","","","","","","","",""
"","html-keyboard-response","15","126995","0.0-15.0","""event"",""trial"",""time""
""fullscreenenter"",""0"",""2312""
","
","
","""event"",""trial"",""time""
""fullscreenenter"",""0"",""2312""
","
","null","<div class='center'><p><img src='run_exp/static/images/tutorial/blue_win.png' height='500'></p></div>","null","","","","","","","","","","","","","","","","","","","","","","",""
"","html-keyboard-response","16","127524","0.0-16.0","""event"",""trial"",""time""
""fullscreenenter"",""0"",""2312""
","
","
","""event"",""trial"",""time""
""fullscreenenter"",""0"",""2312""
","
","528.2999999523163","<div class='center'><img src='run_exp/static/images/tutorial/blue.png' height='500'></p></div>","49","","","","","","","","","","","","","","","","","","","","","","",""
"","html-keyboard-response","17","129029","0.0-17.0","""event"",""trial"",""time""
""fullscreenenter"",""0"",""2312""
","
","
","""event"",""trial"",""time""
""fullscreenenter"",""0"",""2312""
","
","null","<div class='center'><p><img src='run_exp/static/images/tutorial/blue_no_win.png' height='500'></p></div>","null","","","","","","","","","","","","","","","","","","","","","","",""
"","html-keyboard-response","18","129399","0.0-18.0","""event"",""trial"",""time""
""fullscreenenter"",""0"",""2312""
","
","
","""event"",""trial"",""time""
""fullscreenenter"",""0"",""2312""
","
","368","<div class='center'><img src='run_exp/static/images/tutorial/blue.png' height='500'></p></div>","49","","","","","","","","","","","","","","","","","","","","","","",""
"","html-keyboard-response","19","130903","0.0-19.0","""event"",""trial"",""time""
""fullscreenenter"",""0"",""2312""
","
","
","""event"",""trial"",""time""
""fullscreenenter"",""0"",""2312""
","
","null","<div class='center'><p><img src='run_exp/static/images/tutorial/blue_win.png' height='500'></p></div>","null","","","","","","","","","","","","","","","","","","","","","","",""
"","html-keyboard-response","20","131272","0.0-20.0","""event"",""trial"",""time""
""fullscreenenter"",""0"",""2312""
","
","
","""event"",""trial"",""time""
""fullscreenenter"",""0"",""2312""
","
","367.60000002384186","<div class='center'><img src='run_exp/static/images/tutorial/blue.png' height='500'></p></div>","49","","","","","","","","","","","","","","","","","","","","","","",""
"","html-keyboard-response","21","132783","0.0-21.0","""event"",""trial"",""time""
""fullscreenenter"",""0"",""2312""
","
","
","""event"",""trial"",""time""
""fullscreenenter"",""0"",""2312""
","
","null","<div class='center'><p><img src='run_exp/static/images/tutorial/blue_win.png' height='500'></p></div>","null","","","","","","","","","","","","","","","","","","","","","","",""
"","html-keyboard-response","22","133192","0.0-22.0","""event"",""trial"",""time""
""fullscreenenter"",""0"",""2312""
","
","
","""event"",""trial"",""time""
""fullscreenenter"",""0"",""2312""
","
","408","<div class='center'><img src='run_exp/static/images/tutorial/blue.png' height='500'></p></div>","49","","","","","","","","","","","","","","","","","","","","","","",""
"","html-keyboard-response","23","134701","0.0-23.0","""event"",""trial"",""time""
""fullscreenenter"",""0"",""2312""
","
","
","""event"",""trial"",""time""
""fullscreenenter"",""0"",""2312""
","
","null","<div class='center'><p><img src='run_exp/static/images/tutorial/blue_win.png' height='500'></p></div>","null","","","","","","","","","","","","","","","","","","","","","","",""
"","html-keyboard-response","24","135125","0.0-24.0","""event"",""trial"",""time""
""fullscreenenter"",""0"",""2312""
","
","
","""event"",""trial"",""time""
""fullscreenenter"",""0"",""2312""
","
","423.7000000476837","<div class='center'><img src='run_exp/static/images/tutorial/blue.png' height='500'></p></div>","49","","","","","","","","","","","","","","","","","","","","","","",""
"","html-keyboard-response","25","136637","0.0-25.0","""event"",""trial"",""time""
""fullscreenenter"",""0"",""2312""
","
","
","""event"",""trial"",""time""
""fullscreenenter"",""0"",""2312""
","
","null","<div class='center'><p><img src='run_exp/static/images/tutorial/blue_no_win.png' height='500'></p></div>","null","","","","","","","","","","","","","","","","","","","","","","",""
"","html-keyboard-response","26","136979","0.0-26.0","""event"",""trial"",""time""
""fullscreenenter"",""0"",""2312""
","
","
","""event"",""trial"",""time""
""fullscreenenter"",""0"",""2312""
","
","341.69999998807907","<div class='center'><img src='run_exp/static/images/tutorial/blue.png' height='500'></p></div>","49","","","","","","","","","","","","","","","","","","","","","","",""
"","html-keyboard-response","27","138485","0.0-27.0","""event"",""trial"",""time""
""fullscreenenter"",""0"",""2312""
","
","
","""event"",""trial"",""time""
""fullscreenenter"",""0"",""2312""
","
","null","<div class='center'><p><img src='run_exp/static/images/tutorial/blue_win.png' height='500'></p></div>","null","","","","","","","","","","","","","","","","","","","","","","",""
"","html-keyboard-response","28","138828","0.0-28.0","""event"",""trial"",""time""
""fullscreenenter"",""0"",""2312""
","
","
","""event"",""trial"",""time""
""fullscreenenter"",""0"",""2312""
","
","341.5","<div class='center'><img src='run_exp/static/images/tutorial/blue.png' height='500'></p></div>","49","","","","","","","","","","","","","","","","","","","","","","",""
"","html-keyboard-response","29","140344","0.0-29.0","""event"",""trial"",""time""
""fullscreenenter"",""0"",""2312""
","
","
","""event"",""trial"",""time""
""fullscreenenter"",""0"",""2312""
","
","null","<div class='center'><p><img src='run_exp/static/images/tutorial/blue_win.png' height='500'></p></div>","null","","","","","","","","","","","","","","","","","","","","","","",""
"","instruc6","30","146118","0.0-30.0","""event"",""trial"",""time""
""fullscreenenter"",""0"",""2312""
","
","
","""event"",""trial"",""time""
""fullscreenenter"",""0"",""2312""
","
","null","run_exp/static/audio/clip_6_blue_beard_outcome.m4a","null","","","","","<div class='center'><p> See, he succeeded in robbing the ships most of the time but not every time. </p></div>","","","","","","","","","","","","","","","","","",""
"","html-keyboard-response","31","146854","0.0-31.0","""event"",""trial"",""time""
""fullscreenenter"",""0"",""2312""
","
","
","""event"",""trial"",""time""
""fullscreenenter"",""0"",""2312""
","
","734.8000000119209","<div class='center'><p> See, he succeeded in robbing the ships most of the time but not every time. </p><p><b>[Press the space bar to continue]</b></p></div>","32","","","","","","","","","","","","","","","","","","","","","","",""
"","audio-keyboard-response","32","155594","0.0-32.0","""event"",""trial"",""time""
""fullscreenenter"",""0"",""2312""
","
","
","""event"",""trial"",""time""
""fullscreenenter"",""0"",""2312""
","
","8738.5","run_exp/static/audio/clip_7_pick_pirate.m4a","49","","","","","","","","","","","","","","","","","","","","","","",""
"","audio-keyboard-response","33","156710","0.0-33.0-0.0","""event"",""trial"",""time""
""fullscreenenter"",""0"",""2312""
","
","
","""event"",""trial"",""time""
""fullscreenenter"",""0"",""2312""
","
","1112.800000011921","run_exp/static/audio/clip_8_chosen_pirate_win.m4a","32","","","","","","","","","","","","","","","","","","","","","","",""
"","audio-keyboard-response","34","158168","0.0-33.0-1.0","""event"",""trial"",""time""
""fullscreenenter"",""0"",""2312""
","
","
","""event"",""trial"",""time""
""fullscreenenter"",""0"",""2312""
","
","1456.800000011921","run_exp/static/audio/clip_9_pick_a_pirate_again.m4a","50","","","","","","","","","","","","","","","","","","","","","","",""
"","audio-keyboard-response","35","159012","0.0-34.0-0.0","""event"",""trial"",""time""
""fullscreenenter"",""0"",""2312""
","
","
","""event"",""trial"",""time""
""fullscreenenter"",""0"",""2312""
","
","841.5","run_exp/static/audio/clip_10_chosen_pirate_loss.m4a","32","","","","","","","","","","","","","","","","","","","","","","",""
"","instruc9","36","164498","0.0-35.0-0.0","""event"",""trial"",""time""
""fullscreenenter"",""0"",""2312""
","
","
","""event"",""trial"",""time""
""fullscreenenter"",""0"",""2312""
","
","null","run_exp/static/audio/clip_11_time_out.m4a","null","","","","","<div class='center'><p>If you don’t make your choice fast enough, you’ll have to wait a few seconds before you can make another one. </p><p><img src='run_exp/static/images/miscellaneous/hurry_up.png' height='500'></p></div>","","","","","","","","","","","","","","","","","",""
"","html-keyboard-response","37","165223","0.0-35.0-1.0","""event"",""trial"",""time""
""fullscreenenter"",""0"",""2312""
","
","
","""event"",""trial"",""time""
""fullscreenenter"",""0"",""2312""
","
","723.5","<div class='center'><p>If you don’t make your choice fast enough, you’ll have to wait a few seconds before you can make another one. </p><p><img src='run_exp/static/images/miscellaneous/hurry_up.png' height='500'></p><p><b>[Press the space bar to continue]</b></p></div>","32","","","","","","","","","","","","","","","","","","","","","","",""
"","instruc10","38","204298","0.0-35.0-2.0","""event"",""trial"",""time""
""fullscreenenter"",""0"",""2312""
","
","
","""event"",""trial"",""time""
""fullscreenenter"",""0"",""2312""
","
","null","run_exp/static/audio/clip_12_probe.m4a","null","","","","","<div class='center'><p>Once you've chosen a pirate, you’ll be shown the ship they are robbing. You will never rob the same ship twice. Ships can be told apart from one another by the image on them. These are the goods that they sell. See, this ship has a travel mug on it. </p><p> You’ll have to remember which island you saw each ship on. You will win more gold coins and hence more bonus money if you remember correctly! To help you remember, you can imagine a story. For example, here, you could imagine a mug full of water in the desert. Or, as another example, if on the forest island, your pirate robbed a ship with an apple on it, you could imagine an apple falling from a tree in the forest. </p><p><img src='run_exp/static/images/tutorial/example_probe.png' height='500'></p></div>","","","","","","","","","","","","","","","","","",""
"","html-keyboard-response","39","205691","0.0-35.0-3.0","""event"",""trial"",""time""
""fullscreenenter"",""0"",""2312""
","
","
","""event"",""trial"",""time""
""fullscreenenter"",""0"",""2312""
","
","1390.5","<div class='center'><p>Once you've chosen a pirate, you’ll be shown the ship they are robbing. You will never rob the same ship twice. Ships can be told apart from one another by the image on them. These are the goods that they sell. See, this ship has a travel mug on it. </p><p> You’ll have to remember which island you saw each ship on. You will win more gold coins and hence more bonus money if you remember correctly! To help you remember, you can imagine a story. For example, here, you could imagine a mug full of water in the desert. Or, as another example, if on the forest island, your pirate robbed a ship with an apple on it, you could imagine an apple falling from a tree in the forest. </p><p><img src='run_exp/static/images/tutorial/example_probe.png' height='500'></p><p><b>[Press the space bar to continue]</b></p></div>","32","","","","","","","","","","","","","","","","","","","","","","",""
"","instruc11","40","222078","0.0-35.0-4.0","""event"",""trial"",""time""
""fullscreenenter"",""0"",""2312""
","
","
","""event"",""trial"",""time""
""fullscreenenter"",""0"",""2312""
","
","null","run_exp/static/audio/clip_13_changepoint.m4a","null","","","","","<div class='center'><p>How successful a pirate is at robbing ships will depend on the island you’re on.</p><p> A pirate may have visited this island many times before and gained a lot of practice robbing ships there.</p><p>So, they’re more likely to be successful than a pirate who has never visited the island before.</p></div>","","","","","","","","","","","","","","","","","",""
"","html-keyboard-response","41","224449","0.0-35.0-5.0","""event"",""trial"",""time""
""fullscreenenter"",""0"",""2312""
","
","
","""event"",""trial"",""time""
""fullscreenenter"",""0"",""2312""
","
","2369.699999988079","<div class='center'><p>How successful a pirate is at robbing ships will depend on the island you’re on.</p><p> A pirate may have visited this island many times before and gained a lot of practice robbing ships there.</p><p>So, they’re more likely to be successful than a pirate who has never visited the island before.</p><p><b>[Press the space bar to continue]</b></p></div>","32","","","","","","","","","","","","","","","","","","","","","","",""
"","instruc12","42","265518","0.0-35.0-6.0","""event"",""trial"",""time""
""fullscreenenter"",""0"",""2312""
","
","
","""event"",""trial"",""time""
""fullscreenenter"",""0"",""2312""
","
","null","run_exp/static/audio/clip_14_drift.m4a","null","","","","","<div class='center'><p>How successful a pirate is at robbing ships can also change over the time spent on the island. </p><p> Ships may hear from islanders about the pirates coming and will improve their protections against the attack. This may make it harder to rob them.</p><p> Ships may also become lazy and weaken the strength of their protections. This may make it easier to rob them.</p><br><p>Things are always changing on the high seas! So, try your best to pay attention!</p><p><img src='run_exp/static/images/tutorial/contingency.png' height='500'></p></div>","","","","","","","","","","","","","","","","","",""
"","html-keyboard-response","43","272421","0.0-35.0-7.0","""event"",""trial"",""time""
""fullscreenenter"",""0"",""2312""
","
","
","""event"",""trial"",""time""
""fullscreenenter"",""0"",""2312""
","
","6900.700000047684","<div class='center'><p>How successful a pirate is at robbing ships can also change over the time spent on the island. </p><p> Ships may hear from islanders about the pirates coming and will improve their protections against the attack. This may make it harder to rob them.</p><p> Ships may also become lazy and weaken the strength of their protections. This may make it easier to rob them.</p><br><p>Things are always changing on the high seas! So, try your best to pay attention!</p><p><img src='run_exp/static/images/tutorial/contingency.png' height='500'></p><p><b>[Press the space bar to continue]</b></p></div>","32","","","","","","","","","","","","","","","","","","","","","","",""
"","instruc13","44","307598","0.0-35.0-8.0","""event"",""trial"",""time""
""fullscreenenter"",""0"",""2312""
","
","
","""event"",""trial"",""time""
""fullscreenenter"",""0"",""2312""
","
","null","run_exp/static/audio/clip_15_summary.m4a","null","","","","","<div class='center'><p>Let's go over the instructions quickly again. You have two important things to do: </p><b><p> 1. Pick the pirate who is the best at robbing ships on the current island. </p></b><b><p> 2. Remember on which island a ship was robbed.</p> </b><p>The amount of bonus money you can win depends on both.</p><p><br><p>Let’s try a practice game. The game will start by showing you the pirates. First, pick a pirate using the <b> 1, 2, 3 </b> keys on your keyboard. When you are shown a ship, try to remember which island you’re on by making up a story.</p><p>This is just a practice game, so you’re not playing for money. </p><p> Good luck! This game will be very difficult but try your best!</p></div>","","","","","","","","","","","","","","","","","",""
"","html-keyboard-response","45","308634","0.0-35.0-9.0","""event"",""trial"",""time""
""fullscreenenter"",""0"",""2312""
","
","
","""event"",""trial"",""time""
""fullscreenenter"",""0"",""2312""
","
","1034.6000000238419","<div class='center'><p>Let's go over the instructions quickly again. You have two important things to do: </p><b><p> 1. Pick the pirate who is the best at robbing ships on the current island. </p></b><b><p> 2. Remember on which island a ship was robbed.</p> </b><p>The amount of bonus money you can win depends on both.</p><p><br><p>Let’s try a practice game. The game will start by showing you the pirates. First, pick a pirate using the <b> 1, 2, 3 </b> keys on your keyboard. When you are shown a ship, try to remember which island you’re on by making up a story.</p><p>This is just a practice game, so you’re not playing for money. </p><p> Good luck! This game will be very difficult but try your best!</p><p><b>[Press the space bar to continue]</b></p></div>","32","","","","","","","","","","","","","","","","","","","","","","",""
"","do_welcome","46","312648","0.0-35.0-10.0","""event"",""trial"",""time""
""fullscreenenter"",""0"",""2312""
","
","
","""event"",""trial"",""time""
""fullscreenenter"",""0"",""2312""
","
","null","","","","","","","","null","","","","","","","","","","","","","","","","",""
"","do_trial","47","319101","0.0-35.0-11.0","""event"",""trial"",""time""
""fullscreenenter"",""0"",""2312""
","
","
","""event"",""trial"",""time""
""fullscreenenter"",""0"",""2312""
","
","1933.800000011921","","","","","","","","49","1,0,0","","","","","","","","","","","","","","","",""
"","html-keyboard-response","48","320103","0.0-36.0-0.0","""event"",""trial"",""time""
""fullscreenenter"",""0"",""2312""
","
","
","""event"",""trial"",""time""
""fullscreenenter"",""0"",""2312""
","
","null","<p></p>","null","","","","","","","","","","","","","","","","","","","","","","",""
"","do_trial","49","326756","0.0-36.0-1.0","""event"",""trial"",""time""
""fullscreenenter"",""0"",""2312""
","
","
","""event"",""trial"",""time""
""fullscreenenter"",""0"",""2312""
","
","2143.599999964237","","","","","","","","51","1,1,0","","","","","","","","","","","","","","","",""
"","html-keyboard-response","50","327771","0.0-37.0-0.0","""event"",""trial"",""time""
""fullscreenenter"",""0"",""2312""
","
","
","""event"",""trial"",""time""
""fullscreenenter"",""0"",""2312""
","
","null","<p></p>","null","","","","","","","","","","","","","","","","","","","","","","",""
"","do_trial","51","334178","0.0-37.0-1.0","""event"",""trial"",""time""
""fullscreenenter"",""0"",""2312""
","
","
","""event"",""trial"",""time""
""fullscreenenter"",""0"",""2312""
","
","1883.3999999761581","","","","","","","","50","1,0,1","","","","","","","","","","","","","","","",""
"","html-keyboard-response","52","335189","0.0-38.0-0.0","""event"",""trial"",""time""
""fullscreenenter"",""0"",""2312""
","
","
","""event"",""trial"",""time""
""fullscreenenter"",""0"",""2312""
","
","null","<p></p>","null","","","","","","","","","","","","","","","","","","","","","","",""
"","do_trial","53","340722","0.0-38.0-1.0","""event"",""trial"",""time""
""fullscreenenter"",""0"",""2312""
","
","
","""event"",""trial"",""time""
""fullscreenenter"",""0"",""2312""
","
","1014.6999999880791","","","","","","","","49","0,1,0","","","","","","","","","","","","","","","",""
"","html-keyboard-response","54","341736","0.0-39.0-0.0","""event"",""trial"",""time""
""fullscreenenter"",""0"",""2312""
","
","
","""event"",""trial"",""time""
""fullscreenenter"",""0"",""2312""
","
","null","<p></p>","null","","","","","","","","","","","","","","","","","","","","","","",""
"","do_trial","55","346841","0.0-39.0-1.0","""event"",""trial"",""time""
""fullscreenenter"",""0"",""2312""
","
","
","""event"",""trial"",""time""
""fullscreenenter"",""0"",""2312""
","
","589.3000000119209","","","","","","","","49","1,0,0","","","","","","","","","","","","","","","",""
"","do_bye","56","348362","0.0-40.0-0.0","""event"",""trial"",""time""
""fullscreenenter"",""0"",""2312""
","
","
","""event"",""trial"",""time""
""fullscreenenter"",""0"",""2312""
","
","null","","","","","","","","null","","","","","","","","","","","","","","","","",""
"","do_travel","57","357370","0.0-40.0-1.0","""event"",""trial"",""time""
""fullscreenenter"",""0"",""2312""
","
","
","""event"",""trial"",""time""
""fullscreenenter"",""0"",""2312""
","
","null","","","","","","","","null","","","","","","","","","","","","","","","","",""
"","do_welcome","58","361389","0.0-40.0-2.0","""event"",""trial"",""time""
""fullscreenenter"",""0"",""2312""
","
","
","""event"",""trial"",""time""
""fullscreenenter"",""0"",""2312""
","
","null","","","","","","","","null","","","","","","","","","","","","","","","","",""
"","do_trial","59","368731","0.0-40.0-3.0","""event"",""trial"",""time""
""fullscreenenter"",""0"",""2312""
","
","
","""event"",""trial"",""time""
""fullscreenenter"",""0"",""2312""
","
","2829.399999976158","","","","","","","","49","1,0,0","","","","","","","","","","","","","","","",""
"","html-keyboard-response","60","369743","0.0-41.0-0.0","""event"",""trial"",""time""
""fullscreenenter"",""0"",""2312""
","
","
","""event"",""trial"",""time""
""fullscreenenter"",""0"",""2312""
","
","null","<p></p>","null","","","","","","","","","","","","","","","","","","","","","","",""
"","do_trial","61","374798","0.0-41.0-1.0","""event"",""trial"",""time""
""fullscreenenter"",""0"",""2312""
","
","
","""event"",""trial"",""time""
""fullscreenenter"",""0"",""2312""
","
","532.5","","","","","","","","49","1,0,1","","","","","","","","","","","","","","","",""
"","html-keyboard-response","62","375815","0.0-42.0-0.0","""event"",""trial"",""time""
""fullscreenenter"",""0"",""2312""
","
","
","""event"",""trial"",""time""
""fullscreenenter"",""0"",""2312""
","
","null","<p></p>","null","","","","","","","","","","","","","","","","","","","","","","",""
"","do_trial","63","380889","0.0-42.0-1.0","""event"",""trial"",""time""
""fullscreenenter"",""0"",""2312""
","
","
","""event"",""trial"",""time""
""fullscreenenter"",""0"",""2312""
","
","552.8000000119209","","","","","","","","49","1,1,0","","","","","","","","","","","","","","","",""
"","html-keyboard-response","64","381903","0.0-43.0-0.0","""event"",""trial"",""time""
""fullscreenenter"",""0"",""2312""
","
","
","""event"",""trial"",""time""
""fullscreenenter"",""0"",""2312""
","
","null","<p></p>","null","","","","","","","","","","","","","","","","","","","","","","",""
"","do_trial","65","386763","0.0-43.0-1.0","""event"",""trial"",""time""
""fullscreenenter"",""0"",""2312""
","
","
","""event"",""trial"",""time""
""fullscreenenter"",""0"",""2312""
","
","341.80000001192093","","","","","","","","49","0,0,1","","","","","","","","","","","","","","","",""
"","html-keyboard-response","66","387780","0.0-44.0-0.0","""event"",""trial"",""time""
""fullscreenenter"",""0"",""2312""
","
","
","""event"",""trial"",""time""
""fullscreenenter"",""0"",""2312""
","
","null","<p></p>","null","","","","","","","","","","","","","","","","","","","","","","",""
"","do_trial","67","392883","0.0-44.0-1.0","""event"",""trial"",""time""
""fullscreenenter"",""0"",""2312""
","
","
","""event"",""trial"",""time""
""fullscreenenter"",""0"",""2312""
","
","579.5","","","","","","","","51","1,0,1","","","","","","","","","","","","","","","",""
"","html-keyboard-response","68","394821","0.0-45.0-0.0","""event"",""trial"",""time""
""fullscreenenter"",""0"",""2312""
","
","
","""event"",""trial"",""time""
""fullscreenenter"",""0"",""2312""
","
","1935.800000011921","<div class='center'><p><img src='run_exp/static/images/tutorial/prac_best_pirate.png'  height='500'></p></div>","49","","","","","","","","","","","","","","","","","","","","","","",""
"","html-keyboard-response","69","395740","0.0-46.0-0.0","""event"",""trial"",""time""
""fullscreenenter"",""0"",""2312""
","
","
","""event"",""trial"",""time""
""fullscreenenter"",""0"",""2312""
","
","917.8000000119209","<div class='center'><p>That's correct! Red beard was the best.</p><p><b>[Press the space bar to continue]</b></p></div>","32","","","","","","","","","","","","","","","","","","","","","","",""
"","html-keyboard-response","70","399729","0.0-46.0-1.0","""event"",""trial"",""time""
""fullscreenenter"",""0"",""2312""
","
","
","""event"",""trial"",""time""
""fullscreenenter"",""0"",""2312""
","
","3987","<div class='center'><p><img src='run_exp/static/images/tutorial/prac_source.png'  height='500'></p></div>","50","","","","","","","","","","","","","","","","","","","","","","",""
"","html-keyboard-response","71","400699","0.0-47.0-0.0","""event"",""trial"",""time""
""fullscreenenter"",""0"",""2312""
","
","
","""event"",""trial"",""time""
""fullscreenenter"",""0"",""2312""
","
","968.5999999642372","<div class='center'><p>That's correct! You saw this ship on the cavern island.</p><p><b>[Press the space bar to continue]</b></p></div>","32","","","","","","","","","","","","","","","","","","","","","","",""
"","quiz_beginning","72","412273","0.0-47.0-1.0","""event"",""trial"",""time""
""fullscreenenter"",""0"",""2312""
","
","
","""event"",""trial"",""time""
""fullscreenenter"",""0"",""2312""
","
","null","run_exp/static/audio/clip_16_quiz_intro.m4a","null","","","","","<div class='center'><p>Good job on the practice game! Now, you will be asked some true or false questions to make sure you really understand the rules of the game.</p><p> Press <b>'1'</b> on the keyboard for true and press <b>'2'</b> for false.</p></div>","","","","","","","","","","","","","","","","","",""
"","audio-keyboard-response","73","426556","0.0-47.0-2.0","""event"",""trial"",""time""
""fullscreenenter"",""0"",""2312""
","
","
","""event"",""trial"",""time""
""fullscreenenter"",""0"",""2312""
","
","14281.699999988079","run_exp/static/audio/clip_17_q1.m4a","49","","","","","","","","","","","","","","","","","","","","","","",""
"","correct","74","428930","0.0-48.0-0.0","""event"",""trial"",""time""
""fullscreenenter"",""0"",""2312""
","
","
","""event"",""trial"",""time""
""fullscreenenter"",""0"",""2312""
","
","null","run_exp/static/audio/clip_18_correct.m4a","null","","","","","<div class='center'><p>That's correct!</p></div>","","","","","","","","","","","","","","","","","",""
"","html-keyboard-response","75","429638","0.0-48.0-1.0","""event"",""trial"",""time""
""fullscreenenter"",""0"",""2312""
","
","
","""event"",""trial"",""time""
""fullscreenenter"",""0"",""2312""
","
","707","<div class='center'><p>That's correct!</p><p><b>[Press the space bar to continue]</b></p></div>","32","","","","","","","","","","","","","","","","","","","","","","",""
"","audio-keyboard-response","76","435065","0.0-48.0-2.0","""event"",""trial"",""time""
""fullscreenenter"",""0"",""2312""
","
","
","""event"",""trial"",""time""
""fullscreenenter"",""0"",""2312""
","
","5426","run_exp/static/audio/clip_20_q2.m4a","50","","","","","","","","","","","","","","","","","","","","","","",""
"","correct","77","437450","0.0-49.0-0.0","""event"",""trial"",""time""
""fullscreenenter"",""0"",""2312""
","
","
","""event"",""trial"",""time""
""fullscreenenter"",""0"",""2312""
","
","null","run_exp/static/audio/clip_18_correct.m4a","null","","","","","<div class='center'><p>That's correct!</p></div>","","","","","","","","","","","","","","","","","",""
"","html-keyboard-response","78","437958","0.0-49.0-1.0","""event"",""trial"",""time""
""fullscreenenter"",""0"",""2312""
","
","
","""event"",""trial"",""time""
""fullscreenenter"",""0"",""2312""
","
","507.30000001192093","<div class='center'><p>That's correct!</p><p><b>[Press the space bar to continue]</b></p></div>","32","","","","","","","","","","","","","","","","","","","","","","",""
"","audio-keyboard-response","79","441036","0.0-49.0-2.0","""event"",""trial"",""time""
""fullscreenenter"",""0"",""2312""
","
","
","""event"",""trial"",""time""
""fullscreenenter"",""0"",""2312""
","
","3077.399999976158","run_exp/static/audio/clip_22_q3.m4a","50","","","","","","","","","","","","","","","","","","","","","","",""
"","correct","80","443430","0.0-50.0-0.0","""event"",""trial"",""time""
""fullscreenenter"",""0"",""2312""
","
","
","""event"",""trial"",""time""
""fullscreenenter"",""0"",""2312""
","
","null","run_exp/static/audio/clip_18_correct.m4a","null","","","","","<div class='center'><p>That's correct!</p></div>","","","","","","","","","","","","","","","","","",""
"","html-keyboard-response","81","443985","0.0-50.0-1.0","""event"",""trial"",""time""
""fullscreenenter"",""0"",""2312""
","
","
","""event"",""trial"",""time""
""fullscreenenter"",""0"",""2312""
","
","554.2000000476837","<div class='center'><p>That's correct!</p><p><b>[Press the space bar to continue]</b></p></div>","32","","","","","","","","","","","","","","","","","","","","","","",""
"","audio-keyboard-response","82","445624","0.0-50.0-2.0","""event"",""trial"",""time""
""fullscreenenter"",""0"",""2312""
","
","
","""event"",""trial"",""time""
""fullscreenenter"",""0"",""2312""
","
","1638.5999999642372","run_exp/static/audio/clip_24_q4.m4a","49","","","","","","","","","","","","","","","","","","","","","","",""
"","correct","83","448050","0.0-51.0-0.0","""event"",""trial"",""time""
""fullscreenenter"",""0"",""2312""
","
","
","""event"",""trial"",""time""
""fullscreenenter"",""0"",""2312""
","
","null","run_exp/static/audio/clip_18_correct.m4a","null","","","","","<div class='center'><p>That's correct!</p></div>","","","","","","","","","","","","","","","","","",""
"","html-keyboard-response","84","448553","0.0-51.0-1.0","""event"",""trial"",""time""
""fullscreenenter"",""0"",""2312""
","
","
","""event"",""trial"",""time""
""fullscreenenter"",""0"",""2312""
","
","502.19999998807907","<div class='center'><p>That's correct!</p><p><b>[Press the space bar to continue]</b></p></div>","32","","","","","","","","","","","","","","","","","","","","","","",""
"","q_all_corr","85","457030","0.0-52.0-0.0","""event"",""trial"",""time""
""fullscreenenter"",""0"",""2312""
","
","
","""event"",""trial"",""time""
""fullscreenenter"",""0"",""2312""
","
","null","run_exp/static/audio/clip_27_quiz_all_correct.m4a","null","","","","","<div class='center'><p>Good job! You’re now ready to move on to the real game! Remember this game will be difficult but don't get discouraged and try your best!</p></div>","","","","","","","","","","","","","","","","","",""
"","html-keyboard-response","86","457523","0.0-52.0-1.0","""event"",""trial"",""time""
""fullscreenenter"",""0"",""2312""
","
","
","""event"",""trial"",""time""
""fullscreenenter"",""0"",""2312""
","
","492.4000000357628","<div class='center'><p>Good job! You’re now ready to move on to the real game! Remember this game will be difficult but don't get discouraged and try your best!</p><p><b>[Press the space bar to continue]</b></p></div>","32","","","","","","","","","","","","","","","","","","","","","","",""
"","do_welcome","87","461533","0.0-53.0-0.0","""event"",""trial"",""time""
""fullscreenenter"",""0"",""2312""
","
","
","""event"",""trial"",""time""
""fullscreenenter"",""0"",""2312""
","
","null","","","","","","","","null","","","","","","","","","","","","","","","","",""
"","do_trial","88","467406","0.0-54.0-0.0","""event"",""trial"",""time""
""fullscreenenter"",""0"",""2312""
","
","
","""event"",""trial"",""time""
""fullscreenenter"",""0"",""2312""
","
","1314.1000000238419","","","","","","","","49","0,1,0","0","city","0","probe-189","0.6","0.3","0.1","0","","","","","","","",""
"","html-keyboard-response","89","468420","0.0-54.0-1.0","""event"",""trial"",""time""
""fullscreenenter"",""0"",""2312""
","
","
","""event"",""trial"",""time""
""fullscreenenter"",""0"",""2312""
","
","null","<p></p>","null","","","","","","","","","","","","","","","","","","","","","","",""
"","do_trial","90","473399","0.0-55.0-0.0","""event"",""trial"",""time""
""fullscreenenter"",""0"",""2312""
","
","
","""event"",""trial"",""time""
""fullscreenenter"",""0"",""2312""
","
","433.30000001192093","","","","","","","","50","1,1,0","0","city","1","probe-197","0.7487566807599345","0.28285234451505975","0.054117479154319845","1","","","","","","","",""
"","html-keyboard-response","91","474415","0.0-55.0-1.0","""event"",""trial"",""time""
""fullscreenenter"",""0"",""2312""
","
","
","""event"",""trial"",""time""
""fullscreenenter"",""0"",""2312""
","
","null","<p></p>","null","","","","","","","","","","","","","","","","","","","","","","",""
"","do_trial","92","479317","0.0-56.0-0.0","""event"",""trial"",""time""
""fullscreenenter"",""0"",""2312""
","
","
","""event"",""trial"",""time""
""fullscreenenter"",""0"",""2312""
","
","347.19999998807907","","","","","","","","50","0,1,0","0","city","2","probe-148","0.7665894226071684","0.35844360724652347","0.09427132162852489","1","","","","","","","",""
"","html-keyboard-response","93","480332","0.0-56.0-1.0","""event"",""trial"",""time""
""fullscreenenter"",""0"",""2312""
","
","
","""event"",""trial"",""time""
""fullscreenenter"",""0"",""2312""
","
","null","<p></p>","null","","","","","","","","","","","","","","","","","","","","","","",""
"","do_trial","94","485238","0.0-57.0-0.0","""event"",""trial"",""time""
""fullscreenenter"",""0"",""2312""
","
","
","""event"",""trial"",""time""
""fullscreenenter"",""0"",""2312""
","
","357.10000002384186","","","","","","","","50","1,0,0","0","city","3","probe-96","0.8258484603205595","0.32354048915722966","0.15027964422511098","0","","","","","","","",""
"","html-keyboard-response","95","486254","0.0-57.0-1.0","""event"",""trial"",""time""
""fullscreenenter"",""0"",""2312""
","
","
","""event"",""trial"",""time""
""fullscreenenter"",""0"",""2312""
","
","null","<p></p>","null","","","","","","","","","","","","","","","","","","","","","","",""
"","do_trial","96","491125","0.0-58.0-0.0","""event"",""trial"",""time""
""fullscreenenter"",""0"",""2312""
","
","
","""event"",""trial"",""time""
""fullscreenenter"",""0"",""2312""
","
","320","","","","","","","","51","1,1,0","0","city","4","probe-216","0.6511868349478986","0.20322178171588084","0.07415932433791049","0","","","","","","","",""
"","html-keyboard-response","97","492140","0.0-58.0-1.0","""event"",""trial"",""time""
""fullscreenenter"",""0"",""2312""
","
","
","""event"",""trial"",""time""
""fullscreenenter"",""0"",""2312""
","
","null","<p></p>","null","","","","","","","","","","","","","","","","","","","","","","",""
"","do_trial","98","496995","0.0-59.0-0.0","""event"",""trial"",""time""
""fullscreenenter"",""0"",""2312""
","
","
","""event"",""trial"",""time""
""fullscreenenter"",""0"",""2312""
","
","290.89999997615814","","","","","","","","50","1,0,0","0","city","5","probe-43","0.7341568423184343","0.2849733847526642","0.05926252807572338","0","","","","","","","",""
"","html-keyboard-response","99","498012","0.0-59.0-1.0","""event"",""trial"",""time""
""fullscreenenter"",""0"",""2312""
","
","
","""event"",""trial"",""time""
""fullscreenenter"",""0"",""2312""
","
","null","<p></p>","null","","","","","","","","","","","","","","","","","","","","","","",""
"","do_trial","100","502910","0.0-60.0-0.0","""event"",""trial"",""time""
""fullscreenenter"",""0"",""2312""
","
","
","""event"",""trial"",""time""
""fullscreenenter"",""0"",""2312""
","
","344.19999998807907","","","","","","","","49","0,1,1","0","city","6","probe-74","0.6234923784168234","0.28226972074237494","0.16239049209280687","0","","","","","","","",""
"","html-keyboard-response","101","503926","0.0-60.0-1.0","""event"",""trial"",""time""
""fullscreenenter"",""0"",""2312""
","
","
","""event"",""trial"",""time""
""fullscreenenter"",""0"",""2312""
","
","null","<p></p>","null","","","","","","","","","","","","","","","","","","","","","","",""
"","do_trial","102","508860","0.0-61.0-0.0","""event"",""trial"",""time""
""fullscreenenter"",""0"",""2312""
","
","
","""event"",""trial"",""time""
""fullscreenenter"",""0"",""2312""
","
","384","","","","","","","","51","1,0,0","0","city","7","probe-172","0.5549996520736156","0.0917381274179937","0.22290650372719498","0","","","","","","","",""
"","html-keyboard-response","103","509876","0.0-61.0-1.0","""event"",""trial"",""time""
""fullscreenenter"",""0"",""2312""
","
","
","""event"",""trial"",""time""
""fullscreenenter"",""0"",""2312""
","
","null","<p></p>","null","","","","","","","","","","","","","","","","","","","","","","",""
"","do_trial","104","514728","0.0-62.0-0.0","""event"",""trial"",""time""
""fullscreenenter"",""0"",""2312""
","
","
","""event"",""trial"",""time""
""fullscreenenter"",""0"",""2312""
","
","294.2000000476837","","","","","","","","50","1,0,0","0","city","8","probe-192","0.5774620860657118","0.22924526036606618","0.1604923607964356","0","","","","","","","",""
"","html-keyboard-response","105","515739","0.0-62.0-1.0","""event"",""trial"",""time""
""fullscreenenter"",""0"",""2312""
","
","
","""event"",""trial"",""time""
""fullscreenenter"",""0"",""2312""
","
","null","<p></p>","null","","","","","","","","","","","","","","","","","","","","","","",""
"","do_trial","106","520667","0.0-63.0-0.0","""event"",""trial"",""time""
""fullscreenenter"",""0"",""2312""
","
","
","""event"",""trial"",""time""
""fullscreenenter"",""0"",""2312""
","
","376.60000002384186","","","","","","","","50","1,0,0","0","city","9","probe-210","0.6009647722815857","0.19649631989087485","0.18000701480174094","0","","","","","","","",""
"","html-keyboard-response","107","521684","0.0-63.0-1.0","""event"",""trial"",""time""
""fullscreenenter"",""0"",""2312""
","
","
","""event"",""trial"",""time""
""fullscreenenter"",""0"",""2312""
","
","null","<p></p>","null","","","","","","","","","","","","","","","","","","","","","","",""
"","do_trial","108","526552","0.0-64.0-0.0","""event"",""trial"",""time""
""fullscreenenter"",""0"",""2312""
","
","
","""event"",""trial"",""time""
""fullscreenenter"",""0"",""2312""
","
","311.5","","","","","","","","49","1,1,0","0","city","10","probe-226","0.5800160147681526","0.2149363529288459","0.2611230814559299","1","","","","","","","",""
"","html-keyboard-response","109","527568","0.0-64.0-1.0","""event"",""trial"",""time""
""fullscreenenter"",""0"",""2312""
","
","
","""event"",""trial"",""time""
""fullscreenenter"",""0"",""2312""
","
","null","<p></p>","null","","","","","","","","","","","","","","","","","","","","","","",""
"","do_trial","110","532533","0.0-65.0-0.0","""event"",""trial"",""time""
""fullscreenenter"",""0"",""2312""
","
","
","""event"",""trial"",""time""
""fullscreenenter"",""0"",""2312""
","
","413.10000002384186","","","","","","","","49","0,0,0","0","city","11","probe-143","0.6279872824868822","0.2989819881110053","0.2817267740006939","0","","","","","","","",""
"","html-keyboard-response","111","533548","0.0-65.0-1.0","""event"",""trial"",""time""
""fullscreenenter"",""0"",""2312""
","
","
","""event"",""trial"",""time""
""fullscreenenter"",""0"",""2312""
","
","null","<p></p>","null","","","","","","","","","","","","","","","","","","","","","","",""
"","do_trial","112","538383","0.0-66.0-0.0","""event"",""trial"",""time""
""fullscreenenter"",""0"",""2312""
","
","
","""event"",""trial"",""time""
""fullscreenenter"",""0"",""2312""
","
","276.5999999642372","","","","","","","","51","1,0,0","0","city","12","probe-49","0.7502877279591418","0.27164091461289447","0.22886960321160782","0","","","","","","","",""
"","html-keyboard-response","113","539400","0.0-66.0-1.0","""event"",""trial"",""time""
""fullscreenenter"",""0"",""2312""
","
","
","""event"",""trial"",""time""
""fullscreenenter"",""0"",""2312""
","
","null","<p></p>","null","","","","","","","","","","","","","","","","","","","","","","",""
"","do_trial","114","544629","0.0-67.0-0.0","""event"",""trial"",""time""
""fullscreenenter"",""0"",""2312""
","
","
","""event"",""trial"",""time""
""fullscreenenter"",""0"",""2312""
","
","671.8999999761581","","","","","","","","50","1,0,0","0","city","13","probe-150","0.6712772692873658","0.22436195677938225","0.10111350061825708","0","","","","","","","",""
"","html-keyboard-response","115","545645","0.0-67.0-1.0","""event"",""trial"",""time""
""fullscreenenter"",""0"",""2312""
","
","
","""event"",""trial"",""time""
""fullscreenenter"",""0"",""2312""
","
","null","<p></p>","null","","","","","","","","","","","","","","","","","","","","","","",""
"","do_trial","116","550541","0.0-68.0-0.0","""event"",""trial"",""time""
""fullscreenenter"",""0"",""2312""
","
","
","""event"",""trial"",""time""
""fullscreenenter"",""0"",""2312""
","
","352.80000001192093","","","","","","","","51","1,0,1","0","city","14","probe-60","0.7428294082913695","0.22426112357093736","0.08933320424223835","1","","","","","","","",""
"","html-keyboard-response","117","551555","0.0-68.0-1.0","""event"",""trial"",""time""
""fullscreenenter"",""0"",""2312""
","
","
","""event"",""trial"",""time""
""fullscreenenter"",""0"",""2312""
","
","null","<p></p>","null","","","","","","","","","","","","","","","","","","","","","","",""
"","do_trial","118","558162","0.0-69.0-0.0","""event"",""trial"",""time""
""fullscreenenter"",""0"",""2312""
","
","
","""event"",""trial"",""time""
""fullscreenenter"",""0"",""2312""
","
","2052.399999976158","","","","","","","","51","1,0,0","0","city","15","probe-83","0.7042872700463493","0.2707588450138397","0.08872537844978777","0","","","","","","","",""
"","html-keyboard-response","119","559176","0.0-69.0-1.0","""event"",""trial"",""time""
""fullscreenenter"",""0"",""2312""
","
","
","""event"",""trial"",""time""
""fullscreenenter"",""0"",""2312""
","
","null","<p></p>","null","","","","","","","","","","","","","","","","","","","","","","",""
"","do_trial","120","564094","0.0-70.0-0.0","""event"",""trial"",""time""
""fullscreenenter"",""0"",""2312""
","
","
","""event"",""trial"",""time""
""fullscreenenter"",""0"",""2312""
","
","371.19999998807907","","","","","","","","49","1,0,0","0","city","16","probe-127","0.7788615075856304","0.27261596878509897","0.17381302195522585","1","","","","","","","",""
"","html-keyboard-response","121","565110","0.0-70.0-1.0","""event"",""trial"",""time""
""fullscreenenter"",""0"",""2312""
","
","
","""event"",""trial"",""time""
""fullscreenenter"",""0"",""2312""
","
","null","<p></p>","null","","","","","","","","","","","","","","","","","","","","","","",""
"","do_trial","122","570087","0.0-71.0-0.0","""event"",""trial"",""time""
""fullscreenenter"",""0"",""2312""
","
","
","""event"",""trial"",""time""
""fullscreenenter"",""0"",""2312""
","
","429.10000002384186","","","","","","","","49","1,0,0","0","city","17","probe-116","0.7148575654620213","0.28864929135363954","0.1591725721572395","1","","","","","","","",""
"","html-keyboard-response","123","571090","0.0-71.0-1.0","""event"",""trial"",""time""
""fullscreenenter"",""0"",""2312""
","
","
","""event"",""trial"",""time""
""fullscreenenter"",""0"",""2312""
","
","null","<p></p>","null","","","","","","","","","","","","","","","","","","","","","","",""
"","do_trial","124","576590","0.0-72.0-0.0","""event"",""trial"",""time""
""fullscreenenter"",""0"",""2312""
","
","
","""event"",""trial"",""time""
""fullscreenenter"",""0"",""2312""
","
","943.5","","","","","","","","49","1,1,0","0","city","18","probe-21","0.5971780499383705","0.24910262677148745","0.152230758141316","1","","","","","","","",""
"","html-keyboard-response","125","577606","0.0-72.0-1.0","""event"",""trial"",""time""
""fullscreenenter"",""0"",""2312""
","
","
","""event"",""trial"",""time""
""fullscreenenter"",""0"",""2312""
","
","null","<p></p>","null","","","","","","","","","","","","","","","","","","","","","","",""
"","do_trial","126","582426","0.0-73.0-0.0","""event"",""trial"",""time""
""fullscreenenter"",""0"",""2312""
","
","
","""event"",""trial"",""time""
""fullscreenenter"",""0"",""2312""
","
","272.60000002384186","","","","","","","","49","0,0,0","0","city","19","probe-211","0.5662980551890006","0.39304334915857697","0.22812174988726056","0","","","","","","","",""
"","html-keyboard-response","127","583428","0.0-73.0-1.0","""event"",""trial"",""time""
""fullscreenenter"",""0"",""2312""
","
","
","""event"",""trial"",""time""
""fullscreenenter"",""0"",""2312""
","
","null","<p></p>","null","","","","","","","","","","","","","","","","","","","","","","",""
"","do_trial","128","588224","0.0-74.0-0.0","""event"",""trial"",""time""
""fullscreenenter"",""0"",""2312""
","
","
","""event"",""trial"",""time""
""fullscreenenter"",""0"",""2312""
","
","240.89999997615814","","","","","","","","50","0,0,0","0","city","20","probe-06","0.5660373665716906","0.3575422133701717","0.13192631273657784","0","","","","","","","",""
"","html-keyboard-response","129","589237","0.0-74.0-1.0","""event"",""trial"",""time""
""fullscreenenter"",""0"",""2312""
","
","
","""event"",""trial"",""time""
""fullscreenenter"",""0"",""2312""
","
","null","<p></p>","null","","","","","","","","","","","","","","","","","","","","","","",""
"","do_trial","130","594136","0.0-75.0-0.0","""event"",""trial"",""time""
""fullscreenenter"",""0"",""2312""
","
","
","""event"",""trial"",""time""
""fullscreenenter"",""0"",""2312""
","
","347","","","","","","","","50","0,0,1","0","city","21","probe-23","0.6948705377947139","0.405262330272702","0.1781391686066212","0","","","","","","","",""
"","html-keyboard-response","131","595150","0.0-75.0-1.0","""event"",""trial"",""time""
""fullscreenenter"",""0"",""2312""
","
","
","""event"",""trial"",""time""
""fullscreenenter"",""0"",""2312""
","
","null","<p></p>","null","","","","","","","","","","","","","","","","","","","","","","",""
"","do_trial","132","600325","0.0-76.0-0.0","""event"",""trial"",""time""
""fullscreenenter"",""0"",""2312""
","
","
","""event"",""trial"",""time""
""fullscreenenter"",""0"",""2312""
","
","620.6000000238419","","","","","","","","51","1,0,1","0","city","22","probe-106","0.6490471241321428","0.3970286777828582","0.36205733107969246","1","","","","","","","",""
"","html-keyboard-response","133","601339","0.0-76.0-1.0","""event"",""trial"",""time""
""fullscreenenter"",""0"",""2312""
","
","
","""event"",""trial"",""time""
""fullscreenenter"",""0"",""2312""
","
","null","<p></p>","null","","","","","","","","","","","","","","","","","","","","","","",""
"","do_trial","134","607033","0.0-77.0-0.0","""event"",""trial"",""time""
""fullscreenenter"",""0"",""2312""
","
","
","""event"",""trial"",""time""
""fullscreenenter"",""0"",""2312""
","
","1132.199999988079","","","","","","","","51","0,0,0","0","city","23","probe-171","0.5615952737333825","0.36621537061188414","0.3488198349204021","0","","","","","","","",""
"","html-keyboard-response","135","608035","0.0-77.0-1.0","""event"",""trial"",""time""
""fullscreenenter"",""0"",""2312""
","
","
","""event"",""trial"",""time""
""fullscreenenter"",""0"",""2312""
","
","null","<p></p>","null","","","","","","","","","","","","","","","","","","","","","","",""
"","do_trial","136","613133","0.0-78.0-0.0","""event"",""trial"",""time""
""fullscreenenter"",""0"",""2312""
","
","
","""event"",""trial"",""time""
""fullscreenenter"",""0"",""2312""
","
","533.9000000357628","","","","","","","","49","1,0,1","0","city","24","probe-29","0.5926559950253104","0.2072632461657139","0.3221763630799624","1","","","","","","","",""
"","html-keyboard-response","137","614147","0.0-78.0-1.0","""event"",""trial"",""time""
""fullscreenenter"",""0"",""2312""
","
","
","""event"",""trial"",""time""
""fullscreenenter"",""0"",""2312""
","
","null","<p></p>","null","","","","","","","","","","","","","","","","","","","","","","",""
"","do_trial","138","619086","0.0-79.0-0.0","""event"",""trial"",""time""
""fullscreenenter"",""0"",""2312""
","
","
","""event"",""trial"",""time""
""fullscreenenter"",""0"",""2312""
","
","390.10000002384186","","","","","","","","49","0,1,1","0","city","25","probe-58","0.6078150018735088","0.34120062412722013","0.17036785532840468","0","","","","","","","",""
"","html-keyboard-response","139","620102","0.0-79.0-1.0","""event"",""trial"",""time""
""fullscreenenter"",""0"",""2312""
","
","
","""event"",""trial"",""time""
""fullscreenenter"",""0"",""2312""
","
","null","<p></p>","null","","","","","","","","","","","","","","","","","","","","","","",""
"","do_trial","140","625571","0.0-80.0-0.0","""event"",""trial"",""time""
""fullscreenenter"",""0"",""2312""
","
","
","""event"",""trial"",""time""
""fullscreenenter"",""0"",""2312""
","
","920.9000000357628","","","","","","","","49","0,0,0","0","city","26","probe-26","0.6860377111187882","0.21652038308860483","0.21740576913872695","0","","","","","","","",""
"","html-keyboard-response","141","626586","0.0-80.0-1.0","""event"",""trial"",""time""
""fullscreenenter"",""0"",""2312""
","
","
","""event"",""trial"",""time""
""fullscreenenter"",""0"",""2312""
","
","null","<p></p>","null","","","","","","","","","","","","","","","","","","","","","","",""
"","do_trial","142","632310","0.0-81.0-0.0","""event"",""trial"",""time""
""fullscreenenter"",""0"",""2312""
","
","
","""event"",""trial"",""time""
""fullscreenenter"",""0"",""2312""
","
","1168.699999988079","","","","","","","","51","1,1,0","0","city","27","probe-61","0.6978252836674335","0.250464874880538","0.33591890819306386","0","","","","","","","",""
"","html-keyboard-response","143","633314","0.0-81.0-1.0","""event"",""trial"",""time""
""fullscreenenter"",""0"",""2312""
","
","
","""event"",""trial"",""time""
""fullscreenenter"",""0"",""2312""
","
","null","<p></p>","null","","","","","","","","","","","","","","","","","","","","","","",""
"","do_trial","144","638136","0.0-82.0-0.0","""event"",""trial"",""time""
""fullscreenenter"",""0"",""2312""
","
","
","""event"",""trial"",""time""
""fullscreenenter"",""0"",""2312""
","
","278.10000002384186","","","","","","","","50","0,0,0","0","city","28","probe-28","0.5751110414407377","0.15945793163020155","0.18975785030826095","0","","","","","","","",""
"","html-keyboard-response","145","639152","0.0-82.0-1.0","""event"",""trial"",""time""
""fullscreenenter"",""0"",""2312""
","
","
","""event"",""trial"",""time""
""fullscreenenter"",""0"",""2312""
","
","null","<p></p>","null","","","","","","","","","","","","","","","","","","","","","","",""
"","do_trial","146","644163","0.0-83.0-0.0","""event"",""trial"",""time""
""fullscreenenter"",""0"",""2312""
","
","
","""event"",""trial"",""time""
""fullscreenenter"",""0"",""2312""
","
","462.9000000357628","","","","","","","","51","1,0,0","0","city","29","probe-113","0.5473743738113361","0.15739950437734704","0.13129177185711252","0","","","","","","","",""
"","html-keyboard-response","147","645180","0.0-83.0-1.0","""event"",""trial"",""time""
""fullscreenenter"",""0"",""2312""
","
","
","""event"",""trial"",""time""
""fullscreenenter"",""0"",""2312""
","
","null","<p></p>","null","","","","","","","","","","","","","","","","","","","","","","",""
"","do_bye","148","646687","0.0-84.0-0.0","""event"",""trial"",""time""
""fullscreenenter"",""0"",""2312""
","
","
","""event"",""trial"",""time""
""fullscreenenter"",""0"",""2312""
","
","null","","","","","","","","null","","","","","","","","","","","","","","","","",""
"","break","149","654249","0.0-84.0-1.0","""event"",""trial"",""time""
""fullscreenenter"",""0"",""2312""
","
","
","""event"",""trial"",""time""
""fullscreenenter"",""0"",""2312""
","
","7560.299999952316","<div class='center'><p>Time to take a quick break! You have 2 minutes to rest, but you can move on sooner if you'd like.</p><p> Press the <b>space bar</b> to continue.</p></div>","32","","","","","","","","","","","","","","","","","","","","","","",""
"","do_travel","150","663264","0.0-85.0-0.0","""event"",""trial"",""time""
""fullscreenenter"",""0"",""2312""
","
","
","""event"",""trial"",""time""
""fullscreenenter"",""0"",""2312""
","
","null","","","","","","","","null","","","","","","","","","","","","","","","","",""
"","do_welcome","151","667274","0.0-85.0-1.0","""event"",""trial"",""time""
""fullscreenenter"",""0"",""2312""
","
","
","""event"",""trial"",""time""
""fullscreenenter"",""0"",""2312""
","
","null","","","","","","","","null","","","","","","","","","","","","","","","","",""
"","do_trial","152","673338","0.0-86.0-0.0","""event"",""trial"",""time""
""fullscreenenter"",""0"",""2312""
","
","
","""event"",""trial"",""time""
""fullscreenenter"",""0"",""2312""
","
","null","","","","","","","","null","1,0,0","1","highway","30","probe-180","1","0.1779356277330908","0.09728939046178875","","","","","","","","",""
"","html-keyboard-response","153","674350","0.0-86.0-1.0","""event"",""trial"",""time""
""fullscreenenter"",""0"",""2312""
","
","
","""event"",""trial"",""time""
""fullscreenenter"",""0"",""2312""
","
","null","<p></p>","null","","","","","","","","","","","","","","","","","","","","","","",""
"","do_trial","154","679810","0.0-87.0-0.0","""event"",""trial"",""time""
""fullscreenenter"",""0"",""2312""
","
","
","""event"",""trial"",""time""
""fullscreenenter"",""0"",""2312""
","
","903.6000000238419","","","","","","","","49","1,0,0","1","highway","31","probe-16","1","0.29590738885860657","0.12145944936988662","1","","","","","","","",""
"","html-keyboard-response","155","680824","0.0-87.0-1.0","""event"",""trial"",""time""
""fullscreenenter"",""0"",""2312""
","
","
","""event"",""trial"",""time""
""fullscreenenter"",""0"",""2312""
","
","null","<p></p>","null","","","","","","","","","","","","","","","","","","","","","","",""
"","do_trial","156","686160","0.0-88.0-0.0","""event"",""trial"",""time""
""fullscreenenter"",""0"",""2312""
","
","
","""event"",""trial"",""time""
""fullscreenenter"",""0"",""2312""
","
","788.8999999761581","","","","","","","","49","1,0,0","1","highway","32","probe-98","1","0.5096809502176995","0.07793976631081088","1","","","","","","","",""
"","html-keyboard-response","157","687176","0.0-88.0-1.0","""event"",""trial"",""time""
""fullscreenenter"",""0"",""2312""
","
","
","""event"",""trial"",""time""
""fullscreenenter"",""0"",""2312""
","
","null","<p></p>","null","","","","","","","","","","","","","","","","","","","","","","",""
"","do_trial","158","692197","0.0-89.0-0.0","""event"",""trial"",""time""
""fullscreenenter"",""0"",""2312""
","
","
","""event"",""trial"",""time""
""fullscreenenter"",""0"",""2312""
","
","460.30000001192093","","","","","","","","49","1,1,1","1","highway","33","probe-22","0.6860592141429862","0.6317773155559953","0.12165242122213629","1","","","","","","","",""
"","html-keyboard-response","159","693214","0.0-89.0-1.0","""event"",""trial"",""time""
""fullscreenenter"",""0"",""2312""
","
","
","""event"",""trial"",""time""
""fullscreenenter"",""0"",""2312""
","
","null","<p></p>","null","","","","","","","","","","","","","","","","","","","","","","",""
"","do_trial","160","698474","0.0-90.0-0.0","""event"",""trial"",""time""
""fullscreenenter"",""0"",""2312""
","
","
","""event"",""trial"",""time""
""fullscreenenter"",""0"",""2312""
","
","707.9000000357628","","","","","","","","49","1,1,0","1","highway","34","probe-194","0.6732480396652133","0.4213903213146334","0.14552437072998564","1","","","","","","","",""
"","html-keyboard-response","161","699489","0.0-90.0-1.0","""event"",""trial"",""time""
""fullscreenenter"",""0"",""2312""
","
","
","""event"",""trial"",""time""
""fullscreenenter"",""0"",""2312""
","
","null","<p></p>","null","","","","","","","","","","","","","","","","","","","","","","",""
"","do_trial","162","704651","0.0-91.0-0.0","""event"",""trial"",""time""
""fullscreenenter"",""0"",""2312""
","
","
","""event"",""trial"",""time""
""fullscreenenter"",""0"",""2312""
","
","610.5","","","","","","","","49","1,1,0","1","highway","35","probe-01","0.601125932094181","0.36080320136325583","0.09891969640263977","1","","","","","","","",""
"","html-keyboard-response","163","705666","0.0-91.0-1.0","""event"",""trial"",""time""
""fullscreenenter"",""0"",""2312""
","
","
","""event"",""trial"",""time""
""fullscreenenter"",""0"",""2312""
","
","null","<p></p>","null","","","","","","","","","","","","","","","","","","","","","","",""
"","do_trial","164","711741","0.0-92.0-0.0","""event"",""trial"",""time""
""fullscreenenter"",""0"",""2312""
","
","
","""event"",""trial"",""time""
""fullscreenenter"",""0"",""2312""
","
","null","","","","","","","","null","0,0,0","1","highway","36","probe-217","0.6551444937914387","0.295409066795106","0.0702728222838917","","","","","","","","",""
"","html-keyboard-response","165","712757","0.0-92.0-1.0","""event"",""trial"",""time""
""fullscreenenter"",""0"",""2312""
","
","
","""event"",""trial"",""time""
""fullscreenenter"",""0"",""2312""
","
","null","<p></p>","null","","","","","","","","","","","","","","","","","","","","","","",""
"","do_trial","166","717889","0.0-93.0-0.0","""event"",""trial"",""time""
""fullscreenenter"",""0"",""2312""
","
","
","""event"",""trial"",""time""
""fullscreenenter"",""0"",""2312""
","
","589.0999999642372","","","","","","","","50","1,0,0","1","highway","37","probe-161","0.7126141552116529","0.34127468778760595","0.07703004942458355","0","","","","","","","",""
"","html-keyboard-response","167","718898","0.0-93.0-1.0","""event"",""trial"",""time""
""fullscreenenter"",""0"",""2312""
","
","
","""event"",""trial"",""time""
""fullscreenenter"",""0"",""2312""
","
","null","<p></p>","null","","","","","","","","","","","","","","","","","","","","","","",""
"","do_trial","168","723791","0.0-94.0-0.0","""event"",""trial"",""time""
""fullscreenenter"",""0"",""2312""
","
","
","""event"",""trial"",""time""
""fullscreenenter"",""0"",""2312""
","
","334.19999998807907","","","","","","","","49","1,0,0","1","highway","38","probe-86","0.6553009689228181","0.36905429854289507","0.16280956379762657","1","","","","","","","",""
"","html-keyboard-response","169","724795","0.0-94.0-1.0","""event"",""trial"",""time""
""fullscreenenter"",""0"",""2312""
","
","
","""event"",""trial"",""time""
""fullscreenenter"",""0"",""2312""
","
","null","<p></p>","null","","","","","","","","","","","","","","","","","","","","","","",""
"","do_trial","170","729760","0.0-95.0-0.0","""event"",""trial"",""time""
""fullscreenenter"",""0"",""2312""
","
","
","""event"",""trial"",""time""
""fullscreenenter"",""0"",""2312""
","
","406.80000001192093","","","","","","","","49","1,0,0","1","highway","39","probe-229","0.7989766854086396","0.2760036385404399","0.08536996666936204","1","","","","","","","",""
"","html-keyboard-response","171","730766","0.0-95.0-1.0","""event"",""trial"",""time""
""fullscreenenter"",""0"",""2312""
","
","
","""event"",""trial"",""time""
""fullscreenenter"",""0"",""2312""
","
","null","<p></p>","null","","","","","","","","","","","","","","","","","","","","","","",""
"","do_trial","172","735757","0.0-96.0-0.0","""event"",""trial"",""time""
""fullscreenenter"",""0"",""2312""
","
","
","""event"",""trial"",""time""
""fullscreenenter"",""0"",""2312""
","
","434.5999999642372","","","","","","","","49","0,0,0","1","highway","40","probe-128","0.6950205301844927","0.2812951519900278","0.05308804906648777","0","","","","","","","",""
"","html-keyboard-response","173","736774","0.0-96.0-1.0","""event"",""trial"",""time""
""fullscreenenter"",""0"",""2312""
","
","
","""event"",""trial"",""time""
""fullscreenenter"",""0"",""2312""
","
","null","<p></p>","null","","","","","","","","","","","","","","","","","","","","","","",""
"","do_trial","174","741817","0.0-97.0-0.0","""event"",""trial"",""time""
""fullscreenenter"",""0"",""2312""
","
","
","""event"",""trial"",""time""
""fullscreenenter"",""0"",""2312""
","
","491","","","","","","","","51","0,1,0","1","highway","41","probe-17","0.6071332069576263","0.32681778996804833","0.13167128186100652","0","","","","","","","",""
"","html-keyboard-response","175","742832","0.0-97.0-1.0","""event"",""trial"",""time""
""fullscreenenter"",""0"",""2312""
","
","
","""event"",""trial"",""time""
""fullscreenenter"",""0"",""2312""
","
","null","<p></p>","null","","","","","","","","","","","","","","","","","","","","","","",""
"","do_trial","176","748768","0.0-98.0-0.0","""event"",""trial"",""time""
""fullscreenenter"",""0"",""2312""
","
","
","""event"",""trial"",""time""
""fullscreenenter"",""0"",""2312""
","
","1379.199999988079","","","","","","","","51","0,0,0","1","highway","42","probe-187","0.42899786825949976","0.4065662579428807","0.2405691288095052","0","","","","","","","",""
"","html-keyboard-response","177","749771","0.0-98.0-1.0","""event"",""trial"",""time""
""fullscreenenter"",""0"",""2312""
","
","
","""event"",""trial"",""time""
""fullscreenenter"",""0"",""2312""
","
","null","<p></p>","null","","","","","","","","","","","","","","","","","","","","","","",""
"","do_trial","178","755134","0.0-99.0-0.0","""event"",""trial"",""time""
""fullscreenenter"",""0"",""2312""
","
","
","""event"",""trial"",""time""
""fullscreenenter"",""0"",""2312""
","
","813.3000000119209","","","","","","","","49","1,0,0","1","highway","43","probe-152","0.40765895416056425","0.38663798134999383","0.2226499470807876","1","","","","","","","",""
"","html-keyboard-response","179","756146","0.0-99.0-1.0","""event"",""trial"",""time""
""fullscreenenter"",""0"",""2312""
","
","
","""event"",""trial"",""time""
""fullscreenenter"",""0"",""2312""
","
","null","<p></p>","null","","","","","","","","","","","","","","","","","","","","","","",""
"","do_trial","180","761204","0.0-100.0-0.0","""event"",""trial"",""time""
""fullscreenenter"",""0"",""2312""
","
","
","""event"",""trial"",""time""
""fullscreenenter"",""0"",""2312""
","
","505.5999999642372","","","","","","","","49","0,1,1","1","highway","44","probe-99","0.2646637374177253","0.529824192841786","0.24561306586080764","0","","","","","","","",""
"","html-keyboard-response","181","762209","0.0-100.0-1.0","""event"",""trial"",""time""
""fullscreenenter"",""0"",""2312""
","
","
","""event"",""trial"",""time""
""fullscreenenter"",""0"",""2312""
","
","null","<p></p>","null","","","","","","","","","","","","","","","","","","","","","","",""
"","do_trial","182","767573","0.0-101.0-0.0","""event"",""trial"",""time""
""fullscreenenter"",""0"",""2312""
","
","
","""event"",""trial"",""time""
""fullscreenenter"",""0"",""2312""
","
","817.5","","","","","","","","50","0,0,0","1","highway","45","probe-117","0.23122746110333078","0.6023541061310179","0.22857863738875026","0","","","","","","","",""
"","html-keyboard-response","183","768576","0.0-101.0-1.0","""event"",""trial"",""time""
""fullscreenenter"",""0"",""2312""
","
","
","""event"",""trial"",""time""
""fullscreenenter"",""0"",""2312""
","
","null","<p></p>","null","","","","","","","","","","","","","","","","","","","","","","",""
"","do_trial","184","773484","0.0-102.0-0.0","""event"",""trial"",""time""
""fullscreenenter"",""0"",""2312""
","
","
","""event"",""trial"",""time""
""fullscreenenter"",""0"",""2312""
","
","363.60000002384186","","","","","","","","51","0,1,0","1","highway","46","probe-78","0.10487956432175187","0.6561073678178212","0.2226745352795681","0","","","","","","","",""
"","html-keyboard-response","185","774496","0.0-102.0-1.0","""event"",""trial"",""time""
""fullscreenenter"",""0"",""2312""
","
","
","""event"",""trial"",""time""
""fullscreenenter"",""0"",""2312""
","
","null","<p></p>","null","","","","","","","","","","","","","","","","","","","","","","",""
"","do_trial","186","779748","0.0-103.0-0.0","""event"",""trial"",""time""
""fullscreenenter"",""0"",""2312""
","
","
","""event"",""trial"",""time""
""fullscreenenter"",""0"",""2312""
","
","708","","","","","","","","51","0,1,0","1","highway","47","probe-157","0.0872846915893598","0.6846142582546284","0.25009434977820455","0","","","","","","","",""
"","html-keyboard-response","187","780754","0.0-103.0-1.0","""event"",""trial"",""time""
""fullscreenenter"",""0"",""2312""
","
","
","""event"",""trial"",""time""
""fullscreenenter"",""0"",""2312""
","
","null","<p></p>","null","","","","","","","","","","","","","","","","","","","","","","",""
"","do_trial","188","786621","0.0-104.0-0.0","""event"",""trial"",""time""
""fullscreenenter"",""0"",""2312""
","
","
","""event"",""trial"",""time""
""fullscreenenter"",""0"",""2312""
","
","1283.699999988079","","","","","","","","49","0,1,1","1","highway","48","probe-76","0.2324922196560089","0.6367817379693571","0.2962683665495213","0","","","","","","","",""
"","html-keyboard-response","189","787623","0.0-104.0-1.0","""event"",""trial"",""time""
""fullscreenenter"",""0"",""2312""
","
","
","""event"",""trial"",""time""
""fullscreenenter"",""0"",""2312""
","
","null","<p></p>","null","","","","","","","","","","","","","","","","","","","","","","",""
"","do_trial","190","792857","0.0-105.0-0.0","""event"",""trial"",""time""
""fullscreenenter"",""0"",""2312""
","
","
","""event"",""trial"",""time""
""fullscreenenter"",""0"",""2312""
","
","636.1999999880791","","","","","","","","50","0,1,0","1","highway","49","probe-13","0.2621796114148318","0.5508929196226323","0.3462670730936744","1","","","","","","","",""
"","html-keyboard-response","191","793874","0.0-105.0-1.0","""event"",""trial"",""time""
""fullscreenenter"",""0"",""2312""
","
","
","""event"",""trial"",""time""
""fullscreenenter"",""0"",""2312""
","
","null","<p></p>","null","","","","","","","","","","","","","","","","","","","","","","",""
"","do_trial","192","799960","0.0-106.0-0.0","""event"",""trial"",""time""
""fullscreenenter"",""0"",""2312""
","
","
","""event"",""trial"",""time""
""fullscreenenter"",""0"",""2312""
","
","null","","","","","","","","null","0,1,0","1","highway","50","probe-212","0.128217141978133","0.6098727141548991","0.327599037503908","","","","","","","","",""
"","html-keyboard-response","193","800964","0.0-106.0-1.0","""event"",""trial"",""time""
""fullscreenenter"",""0"",""2312""
","
","
","""event"",""trial"",""time""
""fullscreenenter"",""0"",""2312""
","
","null","<p></p>","null","","","","","","","","","","","","","","","","","","","","","","",""
"","do_trial","194","806050","0.0-107.0-0.0","""event"",""trial"",""time""
""fullscreenenter"",""0"",""2312""
","
","
","""event"",""trial"",""time""
""fullscreenenter"",""0"",""2312""
","
","503.5","","","","","","","","50","0,1,0","1","highway","51","probe-224","0.19298853001342495","0.6231588208975233","0.2792665539870557","1","","","","","","","",""
"","html-keyboard-response","195","807057","0.0-107.0-1.0","""event"",""trial"",""time""
""fullscreenenter"",""0"",""2312""
","
","
","""event"",""trial"",""time""
""fullscreenenter"",""0"",""2312""
","
","null","<p></p>","null","","","","","","","","","","","","","","","","","","","","","","",""
"","do_trial","196","812327","0.0-108.0-0.0","""event"",""trial"",""time""
""fullscreenenter"",""0"",""2312""
","
","
","""event"",""trial"",""time""
""fullscreenenter"",""0"",""2312""
","
","666.3000000119209","","","","","","","","49","0,1,1","1","highway","52","probe-153","0.12395702926131158","0.7579611391936407","0.342946553809325","0","","","","","","","",""
"","html-keyboard-response","197","813335","0.0-108.0-1.0","""event"",""trial"",""time""
""fullscreenenter"",""0"",""2312""
","
","
","""event"",""trial"",""time""
""fullscreenenter"",""0"",""2312""
","
","null","<p></p>","null","","","","","","","","","","","","","","","","","","","","","","",""
"","do_trial","198","818431","0.0-109.0-0.0","""event"",""trial"",""time""
""fullscreenenter"",""0"",""2312""
","
","
","""event"",""trial"",""time""
""fullscreenenter"",""0"",""2312""
","
","508.39999997615814","","","","","","","","50","0,1,0","1","highway","53","probe-191","0.15296824274204313","0.7526883035357185","0.4505004315056377","1","","","","","","","",""
"","html-keyboard-response","199","819437","0.0-109.0-1.0","""event"",""trial"",""time""
""fullscreenenter"",""0"",""2312""
","
","
","""event"",""trial"",""time""
""fullscreenenter"",""0"",""2312""
","
","null","<p></p>","null","","","","","","","","","","","","","","","","","","","","","","",""
"","do_trial","200","824571","0.0-110.0-0.0","""event"",""trial"",""time""
""fullscreenenter"",""0"",""2312""
","
","
","""event"",""trial"",""time""
""fullscreenenter"",""0"",""2312""
","
","551.3000000119209","","","","","","","","50","0,1,0","1","highway","54","probe-90","0.19823506505786","0.8486112779796171","0.3428935201790664","1","","","","","","","",""
"","html-keyboard-response","201","825581","0.0-110.0-1.0","""event"",""trial"",""time""
""fullscreenenter"",""0"",""2312""
","
","
","""event"",""trial"",""time""
""fullscreenenter"",""0"",""2312""
","
","null","<p></p>","null","","","","","","","","","","","","","","","","","","","","","","",""
"","do_trial","202","831362","0.0-111.0-0.0","""event"",""trial"",""time""
""fullscreenenter"",""0"",""2312""
","
","
","""event"",""trial"",""time""
""fullscreenenter"",""0"",""2312""
","
","1208.300000011921","","","","","","","","50","0,1,1","1","highway","55","probe-201","0.11116603763872501","0.7629030897326834","0.2508079713162139","1","","","","","","","",""
"","html-keyboard-response","203","832374","0.0-111.0-1.0","""event"",""trial"",""time""
""fullscreenenter"",""0"",""2312""
","
","
","""event"",""trial"",""time""
""fullscreenenter"",""0"",""2312""
","
","null","<p></p>","null","","","","","","","","","","","","","","","","","","","","","","",""
"","do_trial","204","837878","0.0-112.0-0.0","""event"",""trial"",""time""
""fullscreenenter"",""0"",""2312""
","
","
","""event"",""trial"",""time""
""fullscreenenter"",""0"",""2312""
","
","911.5999999642372","","","","","","","","50","1,1,0","1","highway","56","probe-160","0.15844192429039938","0.7156491808955319","0.31391167475102943","1","","","","","","","",""
"","html-keyboard-response","205","838886","0.0-112.0-1.0","""event"",""trial"",""time""
""fullscreenenter"",""0"",""2312""
","
","
","""event"",""trial"",""time""
""fullscreenenter"",""0"",""2312""
","
","null","<p></p>","null","","","","","","","","","","","","","","","","","","","","","","",""
"","do_trial","206","846163","0.0-113.0-0.0","""event"",""trial"",""time""
""fullscreenenter"",""0"",""2312""
","
","
","""event"",""trial"",""time""
""fullscreenenter"",""0"",""2312""
","
","2695.400000035763","","","","","","","","50","0,1,0","1","highway","57","probe-51","0.28650734745817175","0.649857277208978","0.22639123739278005","1","","","","","","","",""
"","html-keyboard-response","207","847166","0.0-113.0-1.0","""event"",""trial"",""time""
""fullscreenenter"",""0"",""2312""
","
","
","""event"",""trial"",""time""
""fullscreenenter"",""0"",""2312""
","
","null","<p></p>","null","","","","","","","","","","","","","","","","","","","","","","",""
"","do_trial","208","852736","0.0-114.0-0.0","""event"",""trial"",""time""
""fullscreenenter"",""0"",""2312""
","
","
","""event"",""trial"",""time""
""fullscreenenter"",""0"",""2312""
","
","960.1999999880791","","","","","","","","50","0,0,0","1","highway","58","probe-169","0.2093555397631553","0.5525966393554753","0.25058727896476374","0","","","","","","","",""
"","html-keyboard-response","209","853745","0.0-114.0-1.0","""event"",""trial"",""time""
""fullscreenenter"",""0"",""2312""
","
","
","""event"",""trial"",""time""
""fullscreenenter"",""0"",""2312""
","
","null","<p></p>","null","","","","","","","","","","","","","","","","","","","","","","",""
"","do_trial","210","859136","0.0-115.0-0.0","""event"",""trial"",""time""
""fullscreenenter"",""0"",""2312""
","
","
","""event"",""trial"",""time""
""fullscreenenter"",""0"",""2312""
","
","810.8000000119209","","","","","","","","50","0,1,0","1","highway","59","probe-63","0.06846996926658794","0.6367883048350457","0.3490192098264824","1","","","","","","","",""
"","html-keyboard-response","211","860144","0.0-115.0-1.0","""event"",""trial"",""time""
""fullscreenenter"",""0"",""2312""
","
","
","""event"",""trial"",""time""
""fullscreenenter"",""0"",""2312""
","
","null","<p></p>","null","","","","","","","","","","","","","","","","","","","","","","",""
"","do_trial","212","865921","0.0-116.0-0.0","""event"",""trial"",""time""
""fullscreenenter"",""0"",""2312""
","
","
","""event"",""trial"",""time""
""fullscreenenter"",""0"",""2312""
","
","1193.699999988079","","","","","","","","50","0,0,1","1","highway","60","probe-140","0.07582710303906187","0.6218098768794316","0.3694904343394013","0","","","","","","","",""
"","html-keyboard-response","213","866933","0.0-116.0-1.0","""event"",""trial"",""time""
""fullscreenenter"",""0"",""2312""
","
","
","""event"",""trial"",""time""
""fullscreenenter"",""0"",""2312""
","
","null","<p></p>","null","","","","","","","","","","","","","","","","","","","","","","",""
"","do_trial","214","871859","0.0-117.0-0.0","""event"",""trial"",""time""
""fullscreenenter"",""0"",""2312""
","
","
","""event"",""trial"",""time""
""fullscreenenter"",""0"",""2312""
","
","332.80000001192093","","","","","","","","49","0,1,0","1","highway","61","probe-138","0.0983230246300961","0.6079840215385336","0.36227779300982427","0","","","","","","","",""
"","html-keyboard-response","215","872865","0.0-117.0-1.0","""event"",""trial"",""time""
""fullscreenenter"",""0"",""2312""
","
","
","""event"",""trial"",""time""
""fullscreenenter"",""0"",""2312""
","
","null","<p></p>","null","","","","","","","","","","","","","","","","","","","","","","",""
"","do_trial","216","877792","0.0-118.0-0.0","""event"",""trial"",""time""
""fullscreenenter"",""0"",""2312""
","
","
","""event"",""trial"",""time""
""fullscreenenter"",""0"",""2312""
","
","357.19999998807907","","","","","","","","51","0,0,0","1","highway","62","probe-80","0.09053463239736464","0.5372013640336116","0.2251822728402892","0","","","","","","","",""
"","html-keyboard-response","217","878810","0.0-118.0-1.0","""event"",""trial"",""time""
""fullscreenenter"",""0"",""2312""
","
","
","""event"",""trial"",""time""
""fullscreenenter"",""0"",""2312""
","
","null","<p></p>","null","","","","","","","","","","","","","","","","","","","","","","",""
"","do_trial","218","883805","0.0-119.0-0.0","""event"",""trial"",""time""
""fullscreenenter"",""0"",""2312""
","
","
","""event"",""trial"",""time""
""fullscreenenter"",""0"",""2312""
","
","399.2000000476837","","","","","","","","49","1,0,0","1","highway","63","probe-129","0.09584231891197276","0.5682848802535255","0.2346578614275812","1","","","","","","","",""
"","html-keyboard-response","219","884810","0.0-119.0-1.0","""event"",""trial"",""time""
""fullscreenenter"",""0"",""2312""
","
","
","""event"",""trial"",""time""
""fullscreenenter"",""0"",""2312""
","
","null","<p></p>","null","","","","","","","","","","","","","","","","","","","","","","",""
"","do_trial","220","890052","0.0-120.0-0.0","""event"",""trial"",""time""
""fullscreenenter"",""0"",""2312""
","
","
","""event"",""trial"",""time""
""fullscreenenter"",""0"",""2312""
","
","665.1000000238419","","","","","","","","50","0,0,0","1","highway","64","probe-188","0.08022227695085317","0.7350437002673481","0.2255180133234311","0","","","","","","","",""
"","html-keyboard-response","221","891063","0.0-120.0-1.0","""event"",""trial"",""time""
""fullscreenenter"",""0"",""2312""
","
","
","""event"",""trial"",""time""
""fullscreenenter"",""0"",""2312""
","
","null","<p></p>","null","","","","","","","","","","","","","","","","","","","","","","",""
"","do_trial","222","896123","0.0-121.0-0.0","""event"",""trial"",""time""
""fullscreenenter"",""0"",""2312""
","
","
","""event"",""trial"",""time""
""fullscreenenter"",""0"",""2312""
","
","473.2999999523163","","","","","","","","49","0,0,0","1","highway","65","probe-81","0.08959983735424187","0.6316658466571917","0.23254338965088853","0","","","","","","","",""
"","html-keyboard-response","223","897128","0.0-121.0-1.0","""event"",""trial"",""time""
""fullscreenenter"",""0"",""2312""
","
","
","""event"",""trial"",""time""
""fullscreenenter"",""0"",""2312""
","
","null","<p></p>","null","","","","","","","","","","","","","","","","","","","","","","",""
"","do_trial","224","901719","0.0-122.0-0.0","""event"",""trial"",""time""
""fullscreenenter"",""0"",""2312""
","
","
","""event"",""trial"",""time""
""fullscreenenter"",""0"",""2312""
","
","18.600000023841858","","","","","","","","51","0,1,0","1","highway","66","probe-198","0.07906970918463621","0.6977966184177583","0.15267622265476133","0","","","","","","","",""
"","html-keyboard-response","225","902726","0.0-122.0-1.0","""event"",""trial"",""time""
""fullscreenenter"",""0"",""2312""
","
","
","""event"",""trial"",""time""
""fullscreenenter"",""0"",""2312""
","
","null","<p></p>","null","","","","","","","","","","","","","","","","","","","","","","",""
"","do_trial","226","907681","0.0-123.0-0.0","""event"",""trial"",""time""
""fullscreenenter"",""0"",""2312""
","
","
","""event"",""trial"",""time""
""fullscreenenter"",""0"",""2312""
","
","374.39999997615814","","","","","","","","50","0,1,0","1","highway","67","probe-215","0.19566991141558088","0.6096409746925638","0.2527052452240121","1","","","","","","","",""
"","html-keyboard-response","227","908694","0.0-123.0-1.0","""event"",""trial"",""time""
""fullscreenenter"",""0"",""2312""
","
","
","""event"",""trial"",""time""
""fullscreenenter"",""0"",""2312""
","
","null","<p></p>","null","","","","","","","","","","","","","","","","","","","","","","",""
"","do_trial","228","913680","0.0-124.0-0.0","""event"",""trial"",""time""
""fullscreenenter"",""0"",""2312""
","
","
","""event"",""trial"",""time""
""fullscreenenter"",""0"",""2312""
","
","392.0999999642372","","","","","","","","50","1,0,0","1","highway","68","probe-219","0.22872331162060178","0.7284730761873034","0.32323759156858856","0","","","","","","","",""
"","html-keyboard-response","229","914695","0.0-124.0-1.0","""event"",""trial"",""time""
""fullscreenenter"",""0"",""2312""
","
","
","""event"",""trial"",""time""
""fullscreenenter"",""0"",""2312""
","
","null","<p></p>","null","","","","","","","","","","","","","","","","","","","","","","",""
"","do_trial","230","919943","0.0-125.0-0.0","""event"",""trial"",""time""
""fullscreenenter"",""0"",""2312""
","
","
","""event"",""trial"",""time""
""fullscreenenter"",""0"",""2312""
","
","659.5","","","","","","","","49","0,1,0","1","highway","69","probe-155","0.20352416470832652","0.4909686756623495","0.2655301637999272","0","","","","","","","",""
"","html-keyboard-response","231","920949","0.0-125.0-1.0","""event"",""trial"",""time""
""fullscreenenter"",""0"",""2312""
","
","
","""event"",""trial"",""time""
""fullscreenenter"",""0"",""2312""
","
","null","<p></p>","null","","","","","","","","","","","","","","","","","","","","","","",""
"","do_bye","232","922456","0.0-126.0-0.0","""event"",""trial"",""time""
""fullscreenenter"",""0"",""2312""
","
","
","""event"",""trial"",""time""
""fullscreenenter"",""0"",""2312""
","
","null","","","","","","","","null","","","","","","","","","","","","","","","","",""
"","break","233","924344","0.0-126.0-1.0","""event"",""trial"",""time""
""fullscreenenter"",""0"",""2312""
","
","
","""event"",""trial"",""time""
""fullscreenenter"",""0"",""2312""
","
","1886.300000011921","<div class='center'><p>Time to take a quick break! You have 2 minutes to rest, but you can move on sooner if you'd like.</p><p> Press the <b>space bar</b> to continue.</p></div>","32","","","","","","","","","","","","","","","","","","","","","","",""
"","do_travel","234","933352","0.0-127.0-0.0","""event"",""trial"",""time""
""fullscreenenter"",""0"",""2312""
","
","
","""event"",""trial"",""time""
""fullscreenenter"",""0"",""2312""
","
","null","","","","","","","","null","","","","","","","","","","","","","","","","",""
"","do_welcome","235","937373","0.0-127.0-1.0","""event"",""trial"",""time""
""fullscreenenter"",""0"",""2312""
","
","
","""event"",""trial"",""time""
""fullscreenenter"",""0"",""2312""
","
","null","","","","","","","","null","","","","","","","","","","","","","","","","",""
"","do_trial","236","944761","0.0-128.0-0.0","""event"",""trial"",""time""
""fullscreenenter"",""0"",""2312""
","
","
","""event"",""trial"",""time""
""fullscreenenter"",""0"",""2312""
","
","2788.800000011921","","","","","","","","49","0,1,1","2","countryside","70","probe-132","0.16514935950568765","1","0.27690745246491644","0","","","","","","","",""
"","html-keyboard-response","237","945770","0.0-128.0-1.0","""event"",""trial"",""time""
""fullscreenenter"",""0"",""2312""
","
","
","""event"",""trial"",""time""
""fullscreenenter"",""0"",""2312""
","
","null","<p></p>","null","","","","","","","","","","","","","","","","","","","","","","",""
"","do_trial","238","950357","0.0-129.0-0.0","""event"",""trial"",""time""
""fullscreenenter"",""0"",""2312""
","
","
","""event"",""trial"",""time""
""fullscreenenter"",""0"",""2312""
","
","0.09999996423721313","","","","","","","","50","0,1,0","2","countryside","71","probe-214","0.0780938466555612","1","0.29698092729305403","1","","","","","","","",""
"","html-keyboard-response","239","951363","0.0-129.0-1.0","""event"",""trial"",""time""
""fullscreenenter"",""0"",""2312""
","
","
","""event"",""trial"",""time""
""fullscreenenter"",""0"",""2312""
","
","null","<p></p>","null","","","","","","","","","","","","","","","","","","","","","","",""
"","do_trial","240","956585","0.0-130.0-0.0","""event"",""trial"",""time""
""fullscreenenter"",""0"",""2312""
","
","
","""event"",""trial"",""time""
""fullscreenenter"",""0"",""2312""
","
","642.3000000119209","","","","","","","","50","1,0,0","2","countryside","72","probe-54","0.2826677356754728","0.8346365985806544","0.16898289106857442","0","","","","","","","",""
"","html-keyboard-response","241","957590","0.0-130.0-1.0","""event"",""trial"",""time""
""fullscreenenter"",""0"",""2312""
","
","
","""event"",""trial"",""time""
""fullscreenenter"",""0"",""2312""
","
","null","<p></p>","null","","","","","","","","","","","","","","","","","","","","","","",""
"","do_trial","242","962332","0.0-131.0-0.0","""event"",""trial"",""time""
""fullscreenenter"",""0"",""2312""
","
","
","""event"",""trial"",""time""
""fullscreenenter"",""0"",""2312""
","
","142.80000001192093","","","","","","","","51","1,0,0","2","countryside","73","probe-57","0.2639287206239303","0.8683298264003352","0.19556900574560246","0","","","","","","","",""
"","html-keyboard-response","243","963340","0.0-131.0-1.0","""event"",""trial"",""time""
""fullscreenenter"",""0"",""2312""
","
","
","""event"",""trial"",""time""
""fullscreenenter"",""0"",""2312""
","
","null","<p></p>","null","","","","","","","","","","","","","","","","","","","","","","",""
"","do_trial","244","968329","0.0-132.0-0.0","""event"",""trial"",""time""
""fullscreenenter"",""0"",""2312""
","
","
","""event"",""trial"",""time""
""fullscreenenter"",""0"",""2312""
","
","414.5","","","","","","","","51","0,1,0","2","countryside","74","probe-213","0.06354883994761451","0.6263459479708251","0.21330283850891887","0","","","","","","","",""
"","html-keyboard-response","245","969340","0.0-132.0-1.0","""event"",""trial"",""time""
""fullscreenenter"",""0"",""2312""
","
","
","""event"",""trial"",""time""
""fullscreenenter"",""0"",""2312""
","
","null","<p></p>","null","","","","","","","","","","","","","","","","","","","","","","",""
"","do_trial","246","974571","0.0-133.0-0.0","""event"",""trial"",""time""
""fullscreenenter"",""0"",""2312""
","
","
","""event"",""trial"",""time""
""fullscreenenter"",""0"",""2312""
","
","645.4000000357628","","","","","","","","49","0,1,0","2","countryside","75","probe-38","0.1795776615087663","0.5904906160679138","0.3068804204198123","0","","","","","","","",""
"","html-keyboard-response","247","975588","0.0-133.0-1.0","""event"",""trial"",""time""
""fullscreenenter"",""0"",""2312""
","
","
","""event"",""trial"",""time""
""fullscreenenter"",""0"",""2312""
","
","null","<p></p>","null","","","","","","","","","","","","","","","","","","","","","","",""
"","do_trial","248","980659","0.0-134.0-0.0","""event"",""trial"",""time""
""fullscreenenter"",""0"",""2312""
","
","
","""event"",""trial"",""time""
""fullscreenenter"",""0"",""2312""
","
","491.5","","","","","","","","50","0,0,0","2","countryside","76","probe-04","0.17443242513260404","0.5079007169522004","0.19807602937701263","0","","","","","","","",""
"","html-keyboard-response","249","981667","0.0-134.0-1.0","""event"",""trial"",""time""
""fullscreenenter"",""0"",""2312""
","
","
","""event"",""trial"",""time""
""fullscreenenter"",""0"",""2312""
","
","null","<p></p>","null","","","","","","","","","","","","","","","","","","","","","","",""
"","do_trial","250","986863","0.0-135.0-0.0","""event"",""trial"",""time""
""fullscreenenter"",""0"",""2312""
","
","
","""event"",""trial"",""time""
""fullscreenenter"",""0"",""2312""
","
","616.2999999523163","","","","","","","","51","0,1,0","2","countryside","77","probe-71","0.13032943159782712","0.5262052069816368","0.22521313178248492","0","","","","","","","",""
"","html-keyboard-response","251","987874","0.0-135.0-1.0","""event"",""trial"",""time""
""fullscreenenter"",""0"",""2312""
","
","
","""event"",""trial"",""time""
""fullscreenenter"",""0"",""2312""
","
","null","<p></p>","null","","","","","","","","","","","","","","","","","","","","","","",""
"","do_trial","252","993275","0.0-136.0-0.0","""event"",""trial"",""time""
""fullscreenenter"",""0"",""2312""
","
","
","""event"",""trial"",""time""
""fullscreenenter"",""0"",""2312""
","
","808","","","","","","","","49","0,0,0","2","countryside","78","probe-79","0.1419148117915133","0.4582284696601806","0.22581576591222155","0","","","","","","","",""
"","html-keyboard-response","253","994282","0.0-136.0-1.0","""event"",""trial"",""time""
""fullscreenenter"",""0"",""2312""
","
","
","""event"",""trial"",""time""
""fullscreenenter"",""0"",""2312""
","
","null","<p></p>","null","","","","","","","","","","","","","","","","","","","","","","",""
"","do_trial","254","999649","0.0-137.0-0.0","""event"",""trial"",""time""
""fullscreenenter"",""0"",""2312""
","
","
","""event"",""trial"",""time""
""fullscreenenter"",""0"",""2312""
","
","771.1999999880791","","","","","","","","49","0,0,1","2","countryside","79","probe-70","0.19232455640748425","0.33632815938719257","0.2673987952397567","0","","","","","","","",""
"","html-keyboard-response","255","1000657","0.0-137.0-1.0","""event"",""trial"",""time""
""fullscreenenter"",""0"",""2312""
","
","
","""event"",""trial"",""time""
""fullscreenenter"",""0"",""2312""
","
","null","<p></p>","null","","","","","","","","","","","","","","","","","","","","","","",""
"","do_trial","256","1005852","0.0-138.0-0.0","""event"",""trial"",""time""
""fullscreenenter"",""0"",""2312""
","
","
","""event"",""trial"",""time""
""fullscreenenter"",""0"",""2312""
","
","600.1000000238419","","","","","","","","51","0,1,0","2","countryside","80","probe-27","0.14618541418956235","0.44715274204736466","0.32893393353112094","0","","","","","","","",""
"","html-keyboard-response","257","1006860","0.0-138.0-1.0","""event"",""trial"",""time""
""fullscreenenter"",""0"",""2312""
","
","
","""event"",""trial"",""time""
""fullscreenenter"",""0"",""2312""
","
","null","<p></p>","null","","","","","","","","","","","","","","","","","","","","","","",""
"","do_trial","258","1011847","0.0-139.0-0.0","""event"",""trial"",""time""
""fullscreenenter"",""0"",""2312""
","
","
","""event"",""trial"",""time""
""fullscreenenter"",""0"",""2312""
","
","408.30000001192093","","","","","","","","50","0,0,0","2","countryside","81","probe-204","0.22758922238688598","0.3034382784048746","0.3317422189499847","0","","","","","","","",""
"","html-keyboard-response","259","1012861","0.0-139.0-1.0","""event"",""trial"",""time""
""fullscreenenter"",""0"",""2312""
","
","
","""event"",""trial"",""time""
""fullscreenenter"",""0"",""2312""
","
","null","<p></p>","null","","","","","","","","","","","","","","","","","","","","","","",""
"","do_trial","260","1018142","0.0-140.0-0.0","""event"",""trial"",""time""
""fullscreenenter"",""0"",""2312""
","
","
","""event"",""trial"",""time""
""fullscreenenter"",""0"",""2312""
","
","687.1999999880791","","","","","","","","49","0,0,0","2","countryside","82","probe-139","0.09619469284612883","0.32507251989565744","0.31652464821044485","0","","","","","","","",""
"","html-keyboard-response","261","1019144","0.0-140.0-1.0","""event"",""trial"",""time""
""fullscreenenter"",""0"",""2312""
","
","
","""event"",""trial"",""time""
""fullscreenenter"",""0"",""2312""
","
