"success","trial_type","trial_index","time_elapsed","internal_node_id","interactions","blur_events","focus_events","fullscreenenter_events","fullscreenexit_events","rt","stimulus","key_press","subject_id","participant_id","age","gender","prompt","response","choice_outcomes","context_n","context_img_id","trial_n","probe_img_id","pR_red","pR_white","pR_black","outcome","contextArray_ind","validImageProbes","invalidImageProbes","pRew_Red","pRew_White","pRew_Black","availableForMemProbe","choice_blocks"
"true","fullscreen","0","3678","0.0-0.0","""event"",""trial"",""time""
""fullscreenenter"",""0"",""2709""
","
","
","""event"",""trial"",""time""
""fullscreenenter"",""0"",""2709""
","
","","","","","","","","","","","","","","","","","","","","","","","","","",""
"","pavlovia","1","3685","0.0-1.0","""event"",""trial"",""time""
""fullscreenenter"",""0"",""2709""
","
","
","""event"",""trial"",""time""
""fullscreenenter"",""0"",""2709""
","
","","","","","","","","","","","","","","","","","","","","","","","","","",""
"","instruc1","2","48912","0.0-2.0","""event"",""trial"",""time""
""fullscreenenter"",""0"",""2709""
","
","
","""event"",""trial"",""time""
""fullscreenenter"",""0"",""2709""
","
","null","run_exp/static/audio/clip_1_welcome.m4a","null","2115","813","13","Female","<div class='center'><p>Welcome! This is the first part of the study. It will last ~30 minutes. In part 1 and part 2 of the study, you are the head captain of a pirate ship traveling around the world to different islands. You will play a few different games throughout these two parts. Here is an overview of them:</p><br><p>Part 1 (today)</p><p>1. Instructions, practice game, and quiz</p><p>2. Pick a pirate game on 6 different islands</p><br><p>Part 2 (tomorrow)</p><p>3. Pick a pirate game and memory game</p><p>4. Where did you see this ship? </p></div>","","","","","","","","","","","","","","","","","",""
"","html-keyboard-response","3","50529","0.0-3.0","""event"",""trial"",""time""
""fullscreenenter"",""0"",""2709""
","
","
","""event"",""trial"",""time""
""fullscreenenter"",""0"",""2709""
","
","1614.3999999761581","<div class='center'><p>Welcome! This is the first part of the study. It will last ~30 minutes. In part 1 and part 2 of the study, you are the head captain of a pirate ship traveling around the world to different islands. You will play a few different games throughout these two parts. Here is an overview of them:</p><br><p>Part 1 (today)</p><p>1. Instructions, practice game, and quiz</p><p>2. Pick a pirate game on 6 different islands</p><br><p>Part 2 (tomorrow)</p><p>3. Pick a pirate game and memory game</p><p>4. Where did you see this ship? </p><p><b>[Press the space bar to continue]</b></p></div>","32","","","","","","","","","","","","","","","","","","","","","","",""
"","instruc2","4","55870","0.0-4.0","""event"",""trial"",""time""
""fullscreenenter"",""0"",""2709""
","
","
","""event"",""trial"",""time""
""fullscreenenter"",""0"",""2709""
","
","null","run_exp/static/audio/clip_2_different_places.m4a","null","","","","","<div class='center'><p>Today, you’ll visit these 6 islands on your journey. You'll be able to see these islands from your ship.</p><p><img src='run_exp/static/images/contexts/all_contexts.png' height='500'></p></div>","","","","","","","","","","","","","","","","","",""
"","html-keyboard-response","5","58003","0.0-5.0","""event"",""trial"",""time""
""fullscreenenter"",""0"",""2709""
","
","
","""event"",""trial"",""time""
""fullscreenenter"",""0"",""2709""
","
","2130.600000023842","<div class='center'><p>Today, you’ll visit these 6 islands on your journey. You'll be able to see these islands from your ship.</p><p><img src='run_exp/static/images/contexts/all_contexts.png' height='500'></p><p><b>[Press the space bar to continue]</b></p></div>","32","","","","","","","","","","","","","","","","","","","","","","",""
"","instruc3","6","67751","0.0-6.0","""event"",""trial"",""time""
""fullscreenenter"",""0"",""2709""
","
","
","""event"",""trial"",""time""
""fullscreenenter"",""0"",""2709""
","
","null","run_exp/static/audio/clip_3_goal_of_game_1.m4a","null","","","","","<div class='center'><p> The pirates on your ship will rob other ships as they leave the island.</p> These ships have just sold their goods to the islanders, so they will be filled with lots and lots of gold.</p><p><img src='run_exp/static/images/tutorial/ship_center.png' height='400'></p></div>","","","","","","","","","","","","","","","","","",""
"","html-keyboard-response","7","70386","0.0-7.0","""event"",""trial"",""time""
""fullscreenenter"",""0"",""2709""
","
","
","""event"",""trial"",""time""
""fullscreenenter"",""0"",""2709""
","
","2633","<div class='center'><p> The pirates on your ship will rob other ships as they leave the island.</p> These ships have just sold their goods to the islanders, so they will be filled with lots and lots of gold.</p><p><img src='run_exp/static/images/tutorial/ship_center.png' height='400'></p><p><b>[Press the space bar to continue]</b></p></div>","32","","","","","","","","","","","","","","","","","","","","","","",""
"","instruc4","8","98413","0.0-8.0","""event"",""trial"",""time""
""fullscreenenter"",""0"",""2709""
","
","
","""event"",""trial"",""time""
""fullscreenenter"",""0"",""2709""
","
","null","run_exp/static/audio/clip_4_goal_of_game_2.m4a","null","","","","","<div class='center'><p>As the head captain, you do not have to rob any ships yourself. Another pirate will be doing the robbing for you. First, you will choose a pirate to rob the next ship.</p><p><img src='run_exp/static/images/tutorial/pirates_all_crop.png' height='200'></p><p>Then, you'll see if the pirate successfully robbed the ship of their gold. If they were successful, then you'll get a stack of gold coins like this:</p><p><img src='run_exp/static/images/tutorial/reward.png' height='150'></p><p> If they were <b>not</b> successful, then you'll get no gold coins, and you'll see a big red x like this: </p><p><img src='run_exp/static/images/tutorial/reward_no.png' height='150'></p><p> How much bonus money you make is based on how many gold coins you collect.</p><div>","","","","","","","","","","","","","","","","","",""
"","html-keyboard-response","9","101260","0.0-9.0","""event"",""trial"",""time""
""fullscreenenter"",""0"",""2709""
","
","
","""event"",""trial"",""time""
""fullscreenenter"",""0"",""2709""
","
","2844.800000011921","<div class='center'><p>As the head captain, you do not have to rob any ships yourself. Another pirate will be doing the robbing for you. First, you will choose a pirate to rob the next ship.</p><p><img src='run_exp/static/images/tutorial/pirates_all_crop.png' height='200'></p><p>Then, you'll see if the pirate successfully robbed the ship of their gold. If they were successful, then you'll get a stack of gold coins like this:</p><p><img src='run_exp/static/images/tutorial/reward.png' height='150'></p><p> If they were <b>not</b> successful, then you'll get no gold coins, and you'll see a big red x like this: </p><p><img src='run_exp/static/images/tutorial/reward_no.png' height='150'></p><p> How much bonus money you make is based on how many gold coins you collect.</p<p><b>[Press the space bar to continue]</b></p></div>","32","","","","","","","","","","","","","","","","","","","","","","",""
"","instruc5","10","123816","0.0-10.0","""event"",""trial"",""time""
""fullscreenenter"",""0"",""2709""
","
","
","""event"",""trial"",""time""
""fullscreenenter"",""0"",""2709""
","
","22554.30000001192","run_exp/static/audio/clip_5_probabilistic.m4a","49","","","","","<div class='center'><p>Even the most skilled pirate can not rob EVERY ship.</p><p> Some ships will have very strong protections against pirate attacks.</p><p> Blue beard, here, is very, very good at robbing ships, but he won't be successful every time he tries to rob one.</p><p> You can press the <b>‘1’</b> key on the keyboard to choose him.</p><p> Try choosing him 10 times to see how often he succeeds at robbing a ship. </p><p><img src='run_exp/static/images/tutorial/blue.png' height='500'></p></div>","","","","","","","","","","","","","","","","","",""
"","html-keyboard-response","11","125322","0.0-11.0","""event"",""trial"",""time""
""fullscreenenter"",""0"",""2709""
","
","
","""event"",""trial"",""time""
""fullscreenenter"",""0"",""2709""
","
","null","<div class='center'><p><img src='run_exp/static/images/tutorial/blue_win.png' height='500'></p></div>","null","","","","","","","","","","","","","","","","","","","","","","",""
"","html-keyboard-response","12","126265","0.0-12.0","""event"",""trial"",""time""
""fullscreenenter"",""0"",""2709""
","
","
","""event"",""trial"",""time""
""fullscreenenter"",""0"",""2709""
","
","941","<div class='center'><img src='run_exp/static/images/tutorial/blue.png' height='500'></p></div>","49","","","","","","","","","","","","","","","","","","","","","","",""
"","html-keyboard-response","13","127782","0.0-13.0","""event"",""trial"",""time""
""fullscreenenter"",""0"",""2709""
","
","
","""event"",""trial"",""time""
""fullscreenenter"",""0"",""2709""
","
","null","<div class='center'><p><img src='run_exp/static/images/tutorial/blue_win.png' height='500'></p></div>","null","","","","","","","","","","","","","","","","","","","","","","",""
"","html-keyboard-response","14","128217","0.0-14.0","""event"",""trial"",""time""
""fullscreenenter"",""0"",""2709""
","
","
","""event"",""trial"",""time""
""fullscreenenter"",""0"",""2709""
","
","433.5","<div class='center'><img src='run_exp/static/images/tutorial/blue.png' height='500'></p></div>","49","","","","","","","","","","","","","","","","","","","","","","",""
"","html-keyboard-response","15","129732","0.0-15.0","""event"",""trial"",""time""
""fullscreenenter"",""0"",""2709""
","
","
","""event"",""trial"",""time""
""fullscreenenter"",""0"",""2709""
","
","null","<div class='center'><p><img src='run_exp/static/images/tutorial/blue_win.png' height='500'></p></div>","null","","","","","","","","","","","","","","","","","","","","","","",""
"","html-keyboard-response","16","130084","0.0-16.0","""event"",""trial"",""time""
""fullscreenenter"",""0"",""2709""
","
","
","""event"",""trial"",""time""
""fullscreenenter"",""0"",""2709""
","
","350.2000000476837","<div class='center'><img src='run_exp/static/images/tutorial/blue.png' height='500'></p></div>","49","","","","","","","","","","","","","","","","","","","","","","",""
"","html-keyboard-response","17","131602","0.0-17.0","""event"",""trial"",""time""
""fullscreenenter"",""0"",""2709""
","
","
","""event"",""trial"",""time""
""fullscreenenter"",""0"",""2709""
","
","null","<div class='center'><p><img src='run_exp/static/images/tutorial/blue_no_win.png' height='500'></p></div>","null","","","","","","","","","","","","","","","","","","","","","","",""
"","html-keyboard-response","18","132171","0.0-18.0","""event"",""trial"",""time""
""fullscreenenter"",""0"",""2709""
","
","
","""event"",""trial"",""time""
""fullscreenenter"",""0"",""2709""
","
","567.3999999761581","<div class='center'><img src='run_exp/static/images/tutorial/blue.png' height='500'></p></div>","49","","","","","","","","","","","","","","","","","","","","","","",""
"","html-keyboard-response","19","133678","0.0-19.0","""event"",""trial"",""time""
""fullscreenenter"",""0"",""2709""
","
","
","""event"",""trial"",""time""
""fullscreenenter"",""0"",""2709""
","
","null","<div class='center'><p><img src='run_exp/static/images/tutorial/blue_win.png' height='500'></p></div>","null","","","","","","","","","","","","","","","","","","","","","","",""
"","html-keyboard-response","20","134067","0.0-20.0","""event"",""trial"",""time""
""fullscreenenter"",""0"",""2709""
","
","
","""event"",""trial"",""time""
""fullscreenenter"",""0"",""2709""
","
","388","<div class='center'><img src='run_exp/static/images/tutorial/blue.png' height='500'></p></div>","49","","","","","","","","","","","","","","","","","","","","","","",""
"","html-keyboard-response","21","135585","0.0-21.0","""event"",""trial"",""time""
""fullscreenenter"",""0"",""2709""
","
","
","""event"",""trial"",""time""
""fullscreenenter"",""0"",""2709""
","
","null","<div class='center'><p><img src='run_exp/static/images/tutorial/blue_win.png' height='500'></p></div>","null","","","","","","","","","","","","","","","","","","","","","","",""
"","html-keyboard-response","22","135903","0.0-22.0","""event"",""trial"",""time""
""fullscreenenter"",""0"",""2709""
","
","
","""event"",""trial"",""time""
""fullscreenenter"",""0"",""2709""
","
","316.89999997615814","<div class='center'><img src='run_exp/static/images/tutorial/blue.png' height='500'></p></div>","49","","","","","","","","","","","","","","","","","","","","","","",""
"","html-keyboard-response","23","137412","0.0-23.0","""event"",""trial"",""time""
""fullscreenenter"",""0"",""2709""
","
","
","""event"",""trial"",""time""
""fullscreenenter"",""0"",""2709""
","
","null","<div class='center'><p><img src='run_exp/static/images/tutorial/blue_win.png' height='500'></p></div>","null","","","","","","","","","","","","","","","","","","","","","","",""
"","html-keyboard-response","24","137715","0.0-24.0","""event"",""trial"",""time""
""fullscreenenter"",""0"",""2709""
","
","
","""event"",""trial"",""time""
""fullscreenenter"",""0"",""2709""
","
","301.19999998807907","<div class='center'><img src='run_exp/static/images/tutorial/blue.png' height='500'></p></div>","49","","","","","","","","","","","","","","","","","","","","","","",""
"","html-keyboard-response","25","139217","0.0-25.0","""event"",""trial"",""time""
""fullscreenenter"",""0"",""2709""
","
","
","""event"",""trial"",""time""
""fullscreenenter"",""0"",""2709""
","
","null","<div class='center'><p><img src='run_exp/static/images/tutorial/blue_no_win.png' height='500'></p></div>","null","","","","","","","","","","","","","","","","","","","","","","",""
"","html-keyboard-response","26","139506","0.0-26.0","""event"",""trial"",""time""
""fullscreenenter"",""0"",""2709""
","
","
","""event"",""trial"",""time""
""fullscreenenter"",""0"",""2709""
","
","288.30000001192093","<div class='center'><img src='run_exp/static/images/tutorial/blue.png' height='500'></p></div>","49","","","","","","","","","","","","","","","","","","","","","","",""
"","html-keyboard-response","27","141009","0.0-27.0","""event"",""trial"",""time""
""fullscreenenter"",""0"",""2709""
","
","
","""event"",""trial"",""time""
""fullscreenenter"",""0"",""2709""
","
","null","<div class='center'><p><img src='run_exp/static/images/tutorial/blue_win.png' height='500'></p></div>","null","","","","","","","","","","","","","","","","","","","","","","",""
"","html-keyboard-response","28","141393","0.0-28.0","""event"",""trial"",""time""
""fullscreenenter"",""0"",""2709""
","
","
","""event"",""trial"",""time""
""fullscreenenter"",""0"",""2709""
","
","382","<div class='center'><img src='run_exp/static/images/tutorial/blue.png' height='500'></p></div>","49","","","","","","","","","","","","","","","","","","","","","","",""
"","html-keyboard-response","29","142908","0.0-29.0","""event"",""trial"",""time""
""fullscreenenter"",""0"",""2709""
","
","
","""event"",""trial"",""time""
""fullscreenenter"",""0"",""2709""
","
","null","<div class='center'><p><img src='run_exp/static/images/tutorial/blue_win.png' height='500'></p></div>","null","","","","","","","","","","","","","","","","","","","","","","",""
"","instruc6","30","148737","0.0-30.0","""event"",""trial"",""time""
""fullscreenenter"",""0"",""2709""
","
","
","""event"",""trial"",""time""
""fullscreenenter"",""0"",""2709""
","
","null","run_exp/static/audio/clip_6_blue_beard_outcome.m4a","null","","","","","<div class='center'><p> See, he succeeded in robbing the ships most of the time but not every time. </p></div>","","","","","","","","","","","","","","","","","",""
"","html-keyboard-response","31","149945","0.0-31.0","""event"",""trial"",""time""
""fullscreenenter"",""0"",""2709""
","
","
","""event"",""trial"",""time""
""fullscreenenter"",""0"",""2709""
","
","1206.5","<div class='center'><p> See, he succeeded in robbing the ships most of the time but not every time. </p><p><b>[Press the space bar to continue]</b></p></div>","32","","","","","","","","","","","","","","","","","","","","","","",""
"","audio-keyboard-response","32","166629","0.0-32.0","""event"",""trial"",""time""
""fullscreenenter"",""0"",""2709""
","
","
","""event"",""trial"",""time""
""fullscreenenter"",""0"",""2709""
","
","16683","run_exp/static/audio/clip_7_pick_pirate.m4a","51","","","","","","","","","","","","","","","","","","","","","","",""
"","audio-keyboard-response","33","171060","0.0-33.0-0.0","""event"",""trial"",""time""
""fullscreenenter"",""0"",""2709""
","
","
","""event"",""trial"",""time""
""fullscreenenter"",""0"",""2709""
","
","4427.900000035763","run_exp/static/audio/clip_8_chosen_pirate_win.m4a","32","","","","","","","","","","","","","","","","","","","","","","",""
"","audio-keyboard-response","34","173544","0.0-33.0-1.0","""event"",""trial"",""time""
""fullscreenenter"",""0"",""2709""
","
","
","""event"",""trial"",""time""
""fullscreenenter"",""0"",""2709""
","
","2482.199999988079","run_exp/static/audio/clip_9_pick_a_pirate_again.m4a","51","","","","","","","","","","","","","","","","","","","","","","",""
"","audio-keyboard-response","35","175360","0.0-34.0-0.0","""event"",""trial"",""time""
""fullscreenenter"",""0"",""2709""
","
","
","""event"",""trial"",""time""
""fullscreenenter"",""0"",""2709""
","
","1813.0999999642372","run_exp/static/audio/clip_10_chosen_pirate_loss.m4a","32","","","","","","","","","","","","","","","","","","","","","","",""
"","instruc9","36","180878","0.0-35.0-0.0","""event"",""trial"",""time""
""fullscreenenter"",""0"",""2709""
","
","
","""event"",""trial"",""time""
""fullscreenenter"",""0"",""2709""
","
","null","run_exp/static/audio/clip_11_time_out.m4a","null","","","","","<div class='center'><p>If you don’t make your choice fast enough, you’ll have to wait a few seconds before you can make another one. </p><p><img src='run_exp/static/images/miscellaneous/hurry_up.png' height='500'></p></div>","","","","","","","","","","","","","","","","","",""
"","html-keyboard-response","37","181438","0.0-35.0-1.0","""event"",""trial"",""time""
""fullscreenenter"",""0"",""2709""
","
","
","""event"",""trial"",""time""
""fullscreenenter"",""0"",""2709""
","
","557.6000000238419","<div class='center'><p>If you don’t make your choice fast enough, you’ll have to wait a few seconds before you can make another one. </p><p><img src='run_exp/static/images/miscellaneous/hurry_up.png' height='500'></p><p><b>[Press the space bar to continue]</b></p></div>","32","","","","","","","","","","","","","","","","","","","","","","",""
"","instruc10","38","220538","0.0-35.0-2.0","""event"",""trial"",""time""
""fullscreenenter"",""0"",""2709""
","
","
","""event"",""trial"",""time""
""fullscreenenter"",""0"",""2709""
","
","null","run_exp/static/audio/clip_12_probe.m4a","null","","","","","<div class='center'><p>Once you've chosen a pirate, you’ll be shown the ship they are robbing. You will never rob the same ship twice. Ships can be told apart from one another by the image on them. These are the goods that they sell. See, this ship has a travel mug on it. </p><p> You’ll have to remember which island you saw each ship on. You will win more gold coins and hence more bonus money if you remember correctly! To help you remember, you can imagine a story. For example, here, you could imagine a mug full of water in the desert. Or, as another example, if on the forest island, your pirate robbed a ship with an apple on it, you could imagine an apple falling from a tree in the forest. </p><p><img src='run_exp/static/images/tutorial/example_probe.png' height='500'></p></div>","","","","","","","","","","","","","","","","","",""
"","html-keyboard-response","39","221603","0.0-35.0-3.0","""event"",""trial"",""time""
""fullscreenenter"",""0"",""2709""
","
","
","""event"",""trial"",""time""
""fullscreenenter"",""0"",""2709""
","
","1063.8999999761581","<div class='center'><p>Once you've chosen a pirate, you’ll be shown the ship they are robbing. You will never rob the same ship twice. Ships can be told apart from one another by the image on them. These are the goods that they sell. See, this ship has a travel mug on it. </p><p> You’ll have to remember which island you saw each ship on. You will win more gold coins and hence more bonus money if you remember correctly! To help you remember, you can imagine a story. For example, here, you could imagine a mug full of water in the desert. Or, as another example, if on the forest island, your pirate robbed a ship with an apple on it, you could imagine an apple falling from a tree in the forest. </p><p><img src='run_exp/static/images/tutorial/example_probe.png' height='500'></p><p><b>[Press the space bar to continue]</b></p></div>","32","","","","","","","","","","","","","","","","","","","","","","",""
"","instruc11","40","238018","0.0-35.0-4.0","""event"",""trial"",""time""
""fullscreenenter"",""0"",""2709""
","
","
","""event"",""trial"",""time""
""fullscreenenter"",""0"",""2709""
","
","null","run_exp/static/audio/clip_13_changepoint.m4a","null","","","","","<div class='center'><p>How successful a pirate is at robbing ships will depend on the island you’re on.</p><p> A pirate may have visited this island many times before and gained a lot of practice robbing ships there.</p><p>So, they’re more likely to be successful than a pirate who has never visited the island before.</p></div>","","","","","","","","","","","","","","","","","",""
"","html-keyboard-response","41","238948","0.0-35.0-5.0","""event"",""trial"",""time""
""fullscreenenter"",""0"",""2709""
","
","
","""event"",""trial"",""time""
""fullscreenenter"",""0"",""2709""
","
","929.3999999761581","<div class='center'><p>How successful a pirate is at robbing ships will depend on the island you’re on.</p><p> A pirate may have visited this island many times before and gained a lot of practice robbing ships there.</p><p>So, they’re more likely to be successful than a pirate who has never visited the island before.</p><p><b>[Press the space bar to continue]</b></p></div>","32","","","","","","","","","","","","","","","","","","","","","","",""
"","instruc12","42","280038","0.0-35.0-6.0","""event"",""trial"",""time""
""fullscreenenter"",""0"",""2709""
","
","
","""event"",""trial"",""time""
""fullscreenenter"",""0"",""2709""
","
","null","run_exp/static/audio/clip_14_drift.m4a","null","","","","","<div class='center'><p>How successful a pirate is at robbing ships can also change over the time spent on the island. </p><p> Ships may hear from islanders about the pirates coming and will improve their protections against the attack. This may make it harder to rob them.</p><p> Ships may also become lazy and weaken the strength of their protections. This may make it easier to rob them.</p><br><p>Things are always changing on the high seas! So, try your best to pay attention!</p><p><img src='run_exp/static/images/tutorial/contingency.png' height='500'></p></div>","","","","","","","","","","","","","","","","","",""
"","html-keyboard-response","43","287892","0.0-35.0-7.0","""event"",""trial"",""time""
""fullscreenenter"",""0"",""2709""
","
","
","""event"",""trial"",""time""
""fullscreenenter"",""0"",""2709""
","
","7850.100000023842","<div class='center'><p>How successful a pirate is at robbing ships can also change over the time spent on the island. </p><p> Ships may hear from islanders about the pirates coming and will improve their protections against the attack. This may make it harder to rob them.</p><p> Ships may also become lazy and weaken the strength of their protections. This may make it easier to rob them.</p><br><p>Things are always changing on the high seas! So, try your best to pay attention!</p><p><img src='run_exp/static/images/tutorial/contingency.png' height='500'></p><p><b>[Press the space bar to continue]</b></p></div>","32","","","","","","","","","","","","","","","","","","","","","","",""
"","instruc13","44","323079","0.0-35.0-8.0","""event"",""trial"",""time""
""fullscreenenter"",""0"",""2709""
","
","
","""event"",""trial"",""time""
""fullscreenenter"",""0"",""2709""
","
","null","run_exp/static/audio/clip_15_summary.m4a","null","","","","","<div class='center'><p>Let's go over the instructions quickly again. You have two important things to do: </p><b><p> 1. Pick the pirate who is the best at robbing ships on the current island. </p></b><b><p> 2. Remember on which island a ship was robbed.</p> </b><p>The amount of bonus money you can win depends on both.</p><p><br><p>Let’s try a practice game. The game will start by showing you the pirates. First, pick a pirate using the <b> 1, 2, 3 </b> keys on your keyboard. When you are shown a ship, try to remember which island you’re on by making up a story.</p><p>This is just a practice game, so you’re not playing for money. </p><p> Good luck! This game will be very difficult but try your best!</p></div>","","","","","","","","","","","","","","","","","",""
"","html-keyboard-response","45","327707","0.0-35.0-9.0","""event"",""trial"",""time""
""fullscreenenter"",""0"",""2709""
","
","
","""event"",""trial"",""time""
""fullscreenenter"",""0"",""2709""
","
","4626.300000011921","<div class='center'><p>Let's go over the instructions quickly again. You have two important things to do: </p><b><p> 1. Pick the pirate who is the best at robbing ships on the current island. </p></b><b><p> 2. Remember on which island a ship was robbed.</p> </b><p>The amount of bonus money you can win depends on both.</p><p><br><p>Let’s try a practice game. The game will start by showing you the pirates. First, pick a pirate using the <b> 1, 2, 3 </b> keys on your keyboard. When you are shown a ship, try to remember which island you’re on by making up a story.</p><p>This is just a practice game, so you’re not playing for money. </p><p> Good luck! This game will be very difficult but try your best!</p><p><b>[Press the space bar to continue]</b></p></div>","32","","","","","","","","","","","","","","","","","","","","","","",""
"","do_welcome","46","331728","0.0-35.0-10.0","""event"",""trial"",""time""
""fullscreenenter"",""0"",""2709""
","
","
","""event"",""trial"",""time""
""fullscreenenter"",""0"",""2709""
","
","null","","","","","","","","null","","","","","","","","","","","","","","","","",""
"","do_trial","47","338962","0.0-35.0-11.0","""event"",""trial"",""time""
""fullscreenenter"",""0"",""2709""
","
","
","""event"",""trial"",""time""
""fullscreenenter"",""0"",""2709""
","
","2712.899999976158","","","","","","","","50","1,0,0","","","","","","","","","","","","","","","",""
"","html-keyboard-response","48","339978","0.0-36.0-0.0","""event"",""trial"",""time""
""fullscreenenter"",""0"",""2709""
","
","
","""event"",""trial"",""time""
""fullscreenenter"",""0"",""2709""
","
","null","<p></p>","null","","","","","","","","","","","","","","","","","","","","","","",""
"","do_trial","49","345828","0.0-36.0-1.0","""event"",""trial"",""time""
""fullscreenenter"",""0"",""2709""
","
","
","""event"",""trial"",""time""
""fullscreenenter"",""0"",""2709""
","
","1329","","","","","","","","51","1,1,0","","","","","","","","","","","","","","","",""
"","html-keyboard-response","50","346843","0.0-37.0-0.0","""event"",""trial"",""time""
""fullscreenenter"",""0"",""2709""
","
","
","""event"",""trial"",""time""
""fullscreenenter"",""0"",""2709""
","
","null","<p></p>","null","","","","","","","","","","","","","","","","","","","","","","",""
"","do_trial","51","351970","0.0-37.0-1.0","""event"",""trial"",""time""
""fullscreenenter"",""0"",""2709""
","
","
","""event"",""trial"",""time""
""fullscreenenter"",""0"",""2709""
","
","610.3000000119209","","","","","","","","49","1,0,1","","","","","","","","","","","","","","","",""
"","html-keyboard-response","52","352989","0.0-38.0-0.0","""event"",""trial"",""time""
""fullscreenenter"",""0"",""2709""
","
","
","""event"",""trial"",""time""
""fullscreenenter"",""0"",""2709""
","
","null","<p></p>","null","","","","","","","","","","","","","","","","","","","","","","",""
"","do_trial","53","358537","0.0-38.0-1.0","""event"",""trial"",""time""
""fullscreenenter"",""0"",""2709""
","
","
","""event"",""trial"",""time""
""fullscreenenter"",""0"",""2709""
","
","1035.2000000476837","","","","","","","","49","0,1,0","","","","","","","","","","","","","","","",""
"","html-keyboard-response","54","359552","0.0-39.0-0.0","""event"",""trial"",""time""
""fullscreenenter"",""0"",""2709""
","
","
","""event"",""trial"",""time""
""fullscreenenter"",""0"",""2709""
","
","null","<p></p>","null","","","","","","","","","","","","","","","","","","","","","","",""
"","do_trial","55","364401","0.0-39.0-1.0","""event"",""trial"",""time""
""fullscreenenter"",""0"",""2709""
","
","
","""event"",""trial"",""time""
""fullscreenenter"",""0"",""2709""
","
","337.69999998807907","","","","","","","","50","1,0,0","","","","","","","","","","","","","","","",""
"","do_bye","56","365928","0.0-40.0-0.0","""event"",""trial"",""time""
""fullscreenenter"",""0"",""2709""
","
","
","""event"",""trial"",""time""
""fullscreenenter"",""0"",""2709""
","
","null","","","","","","","","null","","","","","","","","","","","","","","","","",""
"","do_travel","57","374938","0.0-40.0-1.0","""event"",""trial"",""time""
""fullscreenenter"",""0"",""2709""
","
","
","""event"",""trial"",""time""
""fullscreenenter"",""0"",""2709""
","
","null","","","","","","","","null","","","","","","","","","","","","","","","","",""
"","do_welcome","58","378961","0.0-40.0-2.0","""event"",""trial"",""time""
""fullscreenenter"",""0"",""2709""
","
","
","""event"",""trial"",""time""
""fullscreenenter"",""0"",""2709""
","
","null","","","","","","","","null","","","","","","","","","","","","","","","","",""
"","do_trial","59","384895","0.0-40.0-3.0","""event"",""trial"",""time""
""fullscreenenter"",""0"",""2709""
","
","
","""event"",""trial"",""time""
""fullscreenenter"",""0"",""2709""
","
","1410.699999988079","","","","","","","","50","1,0,0","","","","","","","","","","","","","","","",""
"","html-keyboard-response","60","385906","0.0-41.0-0.0","""event"",""trial"",""time""
""fullscreenenter"",""0"",""2709""
","
","
","""event"",""trial"",""time""
""fullscreenenter"",""0"",""2709""
","
","null","<p></p>","null","","","","","","","","","","","","","","","","","","","","","","",""
"","do_trial","61","390904","0.0-41.0-1.0","""event"",""trial"",""time""
""fullscreenenter"",""0"",""2709""
","
","
","""event"",""trial"",""time""
""fullscreenenter"",""0"",""2709""
","
","484.30000001192093","","","","","","","","51","1,0,1","","","","","","","","","","","","","","","",""
"","html-keyboard-response","62","391911","0.0-42.0-0.0","""event"",""trial"",""time""
""fullscreenenter"",""0"",""2709""
","
","
","""event"",""trial"",""time""
""fullscreenenter"",""0"",""2709""
","
","null","<p></p>","null","","","","","","","","","","","","","","","","","","","","","","",""
"","do_trial","63","396807","0.0-42.0-1.0","""event"",""trial"",""time""
""fullscreenenter"",""0"",""2709""
","
","
","""event"",""trial"",""time""
""fullscreenenter"",""0"",""2709""
","
","368","","","","","","","","51","1,1,0","","","","","","","","","","","","","","","",""
"","html-keyboard-response","64","397823","0.0-43.0-0.0","""event"",""trial"",""time""
""fullscreenenter"",""0"",""2709""
","
","
","""event"",""trial"",""time""
""fullscreenenter"",""0"",""2709""
","
","null","<p></p>","null","","","","","","","","","","","","","","","","","","","","","","",""
"","do_trial","65","402806","0.0-43.0-1.0","""event"",""trial"",""time""
""fullscreenenter"",""0"",""2709""
","
","
","""event"",""trial"",""time""
""fullscreenenter"",""0"",""2709""
","
","456.9000000357628","","","","","","","","51","0,0,1","","","","","","","","","","","","","","","",""
"","html-keyboard-response","66","403818","0.0-44.0-0.0","""event"",""trial"",""time""
""fullscreenenter"",""0"",""2709""
","
","
","""event"",""trial"",""time""
""fullscreenenter"",""0"",""2709""
","
","null","<p></p>","null","","","","","","","","","","","","","","","","","","","","","","",""
"","do_trial","67","409387","0.0-44.0-1.0","""event"",""trial"",""time""
""fullscreenenter"",""0"",""2709""
","
","
","""event"",""trial"",""time""
""fullscreenenter"",""0"",""2709""
","
","1044.8999999761581","","","","","","","","51","1,0,1","","","","","","","","","","","","","","","",""
"","html-keyboard-response","68","412039","0.0-45.0-0.0","""event"",""trial"",""time""
""fullscreenenter"",""0"",""2709""
","
","
","""event"",""trial"",""time""
""fullscreenenter"",""0"",""2709""
","
","2649.399999976158","<div class='center'><p><img src='run_exp/static/images/tutorial/prac_best_pirate.png'  height='500'></p></div>","51","","","","","","","","","","","","","","","","","","","","","","",""
"","html-keyboard-response","69","413861","0.0-46.0-0.0","""event"",""trial"",""time""
""fullscreenenter"",""0"",""2709""
","
","
","""event"",""trial"",""time""
""fullscreenenter"",""0"",""2709""
","
","1819.1000000238419","<div class='center'><p>That's incorrect! Red beard was the best.</p><p><b>[Press the space bar to continue]</b></p></div>","32","","","","","","","","","","","","","","","","","","","","","","",""
"","html-keyboard-response","70","416856","0.0-46.0-1.0","""event"",""trial"",""time""
""fullscreenenter"",""0"",""2709""
","
","
","""event"",""trial"",""time""
""fullscreenenter"",""0"",""2709""
","
","2993.900000035763","<div class='center'><p><img src='run_exp/static/images/tutorial/prac_source.png'  height='500'></p></div>","50","","","","","","","","","","","","","","","","","","","","","","",""
"","html-keyboard-response","71","418160","0.0-47.0-0.0","""event"",""trial"",""time""
""fullscreenenter"",""0"",""2709""
","
","
","""event"",""trial"",""time""
""fullscreenenter"",""0"",""2709""
","
","1303.4000000357628","<div class='center'><p>That's correct! You saw this ship on the cavern island.</p><p><b>[Press the space bar to continue]</b></p></div>","32","","","","","","","","","","","","","","","","","","","","","","",""
"","quiz_beginning","72","429829","0.0-47.0-1.0","""event"",""trial"",""time""
""fullscreenenter"",""0"",""2709""
","
","
","""event"",""trial"",""time""
""fullscreenenter"",""0"",""2709""
","
","null","run_exp/static/audio/clip_16_quiz_intro.m4a","null","","","","","<div class='center'><p>Good job on the practice game! Now, you will be asked some true or false questions to make sure you really understand the rules of the game.</p><p> Press <b>'1'</b> on the keyboard for true and press <b>'2'</b> for false.</p></div>","","","","","","","","","","","","","","","","","",""
"","audio-keyboard-response","73","437431","0.0-47.0-2.0","""event"",""trial"",""time""
""fullscreenenter"",""0"",""2709""
","
","
","""event"",""trial"",""time""
""fullscreenenter"",""0"",""2709""
","
","7600.300000011921","run_exp/static/audio/clip_17_q1.m4a","49","","","","","","","","","","","","","","","","","","","","","","",""
"","correct","74","439850","0.0-48.0-0.0","""event"",""trial"",""time""
""fullscreenenter"",""0"",""2709""
","
","
","""event"",""trial"",""time""
""fullscreenenter"",""0"",""2709""
","
","null","run_exp/static/audio/clip_18_correct.m4a","null","","","","","<div class='center'><p>That's correct!</p></div>","","","","","","","","","","","","","","","","","",""
"","html-keyboard-response","75","440944","0.0-48.0-1.0","""event"",""trial"",""time""
""fullscreenenter"",""0"",""2709""
","
","
","""event"",""trial"",""time""
""fullscreenenter"",""0"",""2709""
","
","1092.699999988079","<div class='center'><p>That's correct!</p><p><b>[Press the space bar to continue]</b></p></div>","32","","","","","","","","","","","","","","","","","","","","","","",""
"","audio-keyboard-response","76","448741","0.0-48.0-2.0","""event"",""trial"",""time""
""fullscreenenter"",""0"",""2709""
","
","
","""event"",""trial"",""time""
""fullscreenenter"",""0"",""2709""
","
","7796.400000035763","run_exp/static/audio/clip_20_q2.m4a","50","","","","","","","","","","","","","","","","","","","","","","",""
"","correct","77","451130","0.0-49.0-0.0","""event"",""trial"",""time""
""fullscreenenter"",""0"",""2709""
","
","
","""event"",""trial"",""time""
""fullscreenenter"",""0"",""2709""
","
","null","run_exp/static/audio/clip_18_correct.m4a","null","","","","","<div class='center'><p>That's correct!</p></div>","","","","","","","","","","","","","","","","","",""
"","html-keyboard-response","78","451564","0.0-49.0-1.0","""event"",""trial"",""time""
""fullscreenenter"",""0"",""2709""
","
","
","""event"",""trial"",""time""
""fullscreenenter"",""0"",""2709""
","
","433.2999999523163","<div class='center'><p>That's correct!</p><p><b>[Press the space bar to continue]</b></p></div>","32","","","","","","","","","","","","","","","","","","","","","","",""
"","audio-keyboard-response","79","456531","0.0-49.0-2.0","""event"",""trial"",""time""
""fullscreenenter"",""0"",""2709""
","
","
","""event"",""trial"",""time""
""fullscreenenter"",""0"",""2709""
","
","4965.899999976158","run_exp/static/audio/clip_22_q3.m4a","50","","","","","","","","","","","","","","","","","","","","","","",""
"","correct","80","458929","0.0-50.0-0.0","""event"",""trial"",""time""
""fullscreenenter"",""0"",""2709""
","
","
","""event"",""trial"",""time""
""fullscreenenter"",""0"",""2709""
","
","null","run_exp/static/audio/clip_18_correct.m4a","null","","","","","<div class='center'><p>That's correct!</p></div>","","","","","","","","","","","","","","","","","",""
"","html-keyboard-response","81","459291","0.0-50.0-1.0","""event"",""trial"",""time""
""fullscreenenter"",""0"",""2709""
","
","
","""event"",""trial"",""time""
""fullscreenenter"",""0"",""2709""
","
","360.89999997615814","<div class='center'><p>That's correct!</p><p><b>[Press the space bar to continue]</b></p></div>","32","","","","","","","","","","","","","","","","","","","","","","",""
"","audio-keyboard-response","82","461589","0.0-50.0-2.0","""event"",""trial"",""time""
""fullscreenenter"",""0"",""2709""
","
","
","""event"",""trial"",""time""
""fullscreenenter"",""0"",""2709""
","
","2296.900000035763","run_exp/static/audio/clip_24_q4.m4a","49","","","","","","","","","","","","","","","","","","","","","","",""
"","correct","83","464007","0.0-51.0-0.0","""event"",""trial"",""time""
""fullscreenenter"",""0"",""2709""
","
","
","""event"",""trial"",""time""
""fullscreenenter"",""0"",""2709""
","
","null","run_exp/static/audio/clip_18_correct.m4a","null","","","","","<div class='center'><p>That's correct!</p></div>","","","","","","","","","","","","","","","","","",""
"","html-keyboard-response","84","464737","0.0-51.0-1.0","""event"",""trial"",""time""
""fullscreenenter"",""0"",""2709""
","
","
","""event"",""trial"",""time""
""fullscreenenter"",""0"",""2709""
","
","728.1999999880791","<div class='center'><p>That's correct!</p><p><b>[Press the space bar to continue]</b></p></div>","32","","","","","","","","","","","","","","","","","","","","","","",""
"","q_all_corr","85","473228","0.0-52.0-0.0","""event"",""trial"",""time""
""fullscreenenter"",""0"",""2709""
","
","
","""event"",""trial"",""time""
""fullscreenenter"",""0"",""2709""
","
","null","run_exp/static/audio/clip_27_quiz_all_correct.m4a","null","","","","","<div class='center'><p>Good job! You’re now ready to move on to the real game! Remember this game will be difficult but don't get discouraged and try your best!</p></div>","","","","","","","","","","","","","","","","","",""
"","html-keyboard-response","86","473529","0.0-52.0-1.0","""event"",""trial"",""time""
""fullscreenenter"",""0"",""2709""
","
","
","""event"",""trial"",""time""
""fullscreenenter"",""0"",""2709""
","
","299.10000002384186","<div class='center'><p>Good job! You’re now ready to move on to the real game! Remember this game will be difficult but don't get discouraged and try your best!</p><p><b>[Press the space bar to continue]</b></p></div>","32","","","","","","","","","","","","","","","","","","","","","","",""
"","do_welcome","87","477546","0.0-53.0-0.0","""event"",""trial"",""time""
""fullscreenenter"",""0"",""2709""
","
","
","""event"",""trial"",""time""
""fullscreenenter"",""0"",""2709""
","
","null","","","","","","","","null","","","","","","","","","","","","","","","","",""
"","do_trial","88","484107","0.0-54.0-0.0","""event"",""trial"",""time""
""fullscreenenter"",""0"",""2709""
","
","
","""event"",""trial"",""time""
""fullscreenenter"",""0"",""2709""
","
","1991.8999999761581","","","","","","","","50","0,0,0","0","highway","0","probe-97","0.6","0.3","0.1","0","","","","","","","",""
"","html-keyboard-response","89","485126","0.0-54.0-1.0","""event"",""trial"",""time""
""fullscreenenter"",""0"",""2709""
","
","
","""event"",""trial"",""time""
""fullscreenenter"",""0"",""2709""
","
","null","<p></p>","null","","","","","","","","","","","","","","","","","","","","","","",""
"","do_trial","90","490225","0.0-55.0-0.0","""event"",""trial"",""time""
""fullscreenenter"",""0"",""2709""
","
","
","""event"",""trial"",""time""
""fullscreenenter"",""0"",""2709""
","
","524.1999999880791","","","","","","","","49","1,1,0","0","highway","1","probe-91","0.7003811102391753","0.38439186870439784","0.10897630865807205","1","","","","","","","",""
"","html-keyboard-response","91","491230","0.0-55.0-1.0","""event"",""trial"",""time""
""fullscreenenter"",""0"",""2709""
","
","
","""event"",""trial"",""time""
""fullscreenenter"",""0"",""2709""
","
","null","<p></p>","null","","","","","","","","","","","","","","","","","","","","","","",""
"","do_trial","92","496253","0.0-56.0-0.0","""event"",""trial"",""time""
""fullscreenenter"",""0"",""2709""
","
","
","""event"",""trial"",""time""
""fullscreenenter"",""0"",""2709""
","
","455.7999999523163","","","","","","","","49","1,1,0","0","highway","2","probe-05","0.46801157508934593","0.4583045905517635","0.05667613395773094","1","","","","","","","",""
"","html-keyboard-response","93","497259","0.0-56.0-1.0","""event"",""trial"",""time""
""fullscreenenter"",""0"",""2709""
","
","
","""event"",""trial"",""time""
""fullscreenenter"",""0"",""2709""
","
","null","<p></p>","null","","","","","","","","","","","","","","","","","","","","","","",""
"","do_trial","94","502246","0.0-57.0-0.0","""event"",""trial"",""time""
""fullscreenenter"",""0"",""2709""
","
","
","""event"",""trial"",""time""
""fullscreenenter"",""0"",""2709""
","
","405.60000002384186","","","","","","","","49","1,0,0","0","highway","3","probe-147","0.6434420069453478","0.3889867928613455","0.05451722240911374","1","","","","","","","",""
"","html-keyboard-response","95","503253","0.0-57.0-1.0","""event"",""trial"",""time""
""fullscreenenter"",""0"",""2709""
","
","
","""event"",""trial"",""time""
""fullscreenenter"",""0"",""2709""
","
","null","<p></p>","null","","","","","","","","","","","","","","","","","","","","","","",""
"","do_trial","96","508616","0.0-58.0-0.0","""event"",""trial"",""time""
""fullscreenenter"",""0"",""2709""
","
","
","""event"",""trial"",""time""
""fullscreenenter"",""0"",""2709""
","
","790.8000000119209","","","","","","","","51","1,1,1","0","highway","4","probe-159","0.6151724367771921","0.28161204024000197","0.1855078587499586","1","","","","","","","",""
"","html-keyboard-response","97","509624","0.0-58.0-1.0","""event"",""trial"",""time""
""fullscreenenter"",""0"",""2709""
","
","
","""event"",""trial"",""time""
""fullscreenenter"",""0"",""2709""
","
","null","<p></p>","null","","","","","","","","","","","","","","","","","","","","","","",""
"","do_trial","98","514640","0.0-59.0-0.0","""event"",""trial"",""time""
""fullscreenenter"",""0"",""2709""
","
","
","""event"",""trial"",""time""
""fullscreenenter"",""0"",""2709""
","
","437.19999998807907","","","","","","","","49","1,1,0","0","highway","5","probe-157","0.6232140270913553","0.14840102798468408","0.21007278740293442","1","","","","","","","",""
"","html-keyboard-response","99","515648","0.0-59.0-1.0","""event"",""trial"",""time""
""fullscreenenter"",""0"",""2709""
","
","
","""event"",""trial"",""time""
""fullscreenenter"",""0"",""2709""
","
","null","<p></p>","null","","","","","","","","","","","","","","","","","","","","","","",""
"","do_trial","100","520547","0.0-60.0-0.0","""event"",""trial"",""time""
""fullscreenenter"",""0"",""2709""
","
","
","""event"",""trial"",""time""
""fullscreenenter"",""0"",""2709""
","
","328","","","","","","","","49","0,1,0","0","highway","6","probe-56","0.6160062810510997","0.26260239983687045","0.2745389329077063","0","","","","","","","",""
"","html-keyboard-response","101","521563","0.0-60.0-1.0","""event"",""trial"",""time""
""fullscreenenter"",""0"",""2709""
","
","
","""event"",""trial"",""time""
""fullscreenenter"",""0"",""2709""
","
","null","<p></p>","null","","","","","","","","","","","","","","","","","","","","","","",""
"","do_trial","102","526531","0.0-61.0-0.0","""event"",""trial"",""time""
""fullscreenenter"",""0"",""2709""
","
","
","""event"",""trial"",""time""
""fullscreenenter"",""0"",""2709""
","
","387.0999999642372","","","","","","","","50","1,0,0","0","highway","7","probe-13","0.580623701367043","0.18733231425316457","0.2672763306043726","0","","","","","","","",""
"","html-keyboard-response","103","527547","0.0-61.0-1.0","""event"",""trial"",""time""
""fullscreenenter"",""0"",""2709""
","
","
","""event"",""trial"",""time""
""fullscreenenter"",""0"",""2709""
","
","null","<p></p>","null","","","","","","","","","","","","","","","","","","","","","","",""
"","do_trial","104","532479","0.0-62.0-0.0","""event"",""trial"",""time""
""fullscreenenter"",""0"",""2709""
","
","
","""event"",""trial"",""time""
""fullscreenenter"",""0"",""2709""
","
","370.7999999523163","","","","","","","","49","0,0,0","0","highway","8","probe-201","0.5843410197257158","0.19350195962771335","0.1456625903416394","0","","","","","","","",""
"","html-keyboard-response","105","533495","0.0-62.0-1.0","""event"",""trial"",""time""
""fullscreenenter"",""0"",""2709""
","
","
","""event"",""trial"",""time""
""fullscreenenter"",""0"",""2709""
","
","null","<p></p>","null","","","","","","","","","","","","","","","","","","","","","","",""
"","do_trial","106","538576","0.0-63.0-0.0","""event"",""trial"",""time""
""fullscreenenter"",""0"",""2709""
","
","
","""event"",""trial"",""time""
""fullscreenenter"",""0"",""2709""
","
","523.1000000238419","","","","","","","","49","1,0,0","0","highway","9","probe-14","0.7080348924825016","0.26099788091733833","0.11091431003596519","1","","","","","","","",""
"","html-keyboard-response","107","539581","0.0-63.0-1.0","""event"",""trial"",""time""
""fullscreenenter"",""0"",""2709""
","
","
","""event"",""trial"",""time""
""fullscreenenter"",""0"",""2709""
","
","null","<p></p>","null","","","","","","","","","","","","","","","","","","","","","","",""
"","do_trial","108","544513","0.0-64.0-0.0","""event"",""trial"",""time""
""fullscreenenter"",""0"",""2709""
","
","
","""event"",""trial"",""time""
""fullscreenenter"",""0"",""2709""
","
","373.89999997615814","","","","","","","","49","0,0,0","0","highway","10","probe-19","0.6120782603143425","0.24585468390419996","0.08914332421959399","0","","","","","","","",""
"","html-keyboard-response","109","545524","0.0-64.0-1.0","""event"",""trial"",""time""
""fullscreenenter"",""0"",""2709""
","
","
","""event"",""trial"",""time""
""fullscreenenter"",""0"",""2709""
","
","null","<p></p>","null","","","","","","","","","","","","","","","","","","","","","","",""
"","do_trial","110","550204","0.0-65.0-0.0","""event"",""trial"",""time""
""fullscreenenter"",""0"",""2709""
","
","
","""event"",""trial"",""time""
""fullscreenenter"",""0"",""2709""
","
","115.59999996423721","","","","","","","","51","0,0,0","0","highway","11","probe-161","0.5492111985768809","0.1385566696532474","0.10992978909807738","0","","","","","","","",""
"","html-keyboard-response","111","551221","0.0-65.0-1.0","""event"",""trial"",""time""
""fullscreenenter"",""0"",""2709""
","
","
","""event"",""trial"",""time""
""fullscreenenter"",""0"",""2709""
","
","null","<p></p>","null","","","","","","","","","","","","","","","","","","","","","","",""
"","do_trial","112","556439","0.0-66.0-0.0","""event"",""trial"",""time""
""fullscreenenter"",""0"",""2709""
","
","
","""event"",""trial"",""time""
""fullscreenenter"",""0"",""2709""
","
","665.5999999642372","","","","","","","","50","1,0,0","0","highway","12","probe-114","0.6051415395532808","0.2196898266862616","0.056940824932738804","0","","","","","","","",""
"","html-keyboard-response","113","557441","0.0-66.0-1.0","""event"",""trial"",""time""
""fullscreenenter"",""0"",""2709""
","
","
","""event"",""trial"",""time""
""fullscreenenter"",""0"",""2709""
","
","null","<p></p>","null","","","","","","","","","","","","","","","","","","","","","","",""
"","do_trial","114","562442","0.0-67.0-0.0","""event"",""trial"",""time""
""fullscreenenter"",""0"",""2709""
","
","
","""event"",""trial"",""time""
""fullscreenenter"",""0"",""2709""
","
","451.30000001192093","","","","","","","","49","1,1,0","0","highway","13","probe-113","0.5982880459614818","0.34213853131137945","0.10371339425407347","1","","","","","","","",""
"","html-keyboard-response","115","563452","0.0-67.0-1.0","""event"",""trial"",""time""
""fullscreenenter"",""0"",""2709""
","
","
","""event"",""trial"",""time""
""fullscreenenter"",""0"",""2709""
","
","null","<p></p>","null","","","","","","","","","","","","","","","","","","","","","","",""
"","do_trial","116","568531","0.0-68.0-0.0","""event"",""trial"",""time""
""fullscreenenter"",""0"",""2709""
","
","
","""event"",""trial"",""time""
""fullscreenenter"",""0"",""2709""
","
","505.5","","","","","","","","49","1,0,1","0","highway","14","probe-140","0.49188074598198483","0.2098139861862044","0.11526284182328404","1","","","","","","","",""
"","html-keyboard-response","117","569542","0.0-68.0-1.0","""event"",""trial"",""time""
""fullscreenenter"",""0"",""2709""
","
","
","""event"",""trial"",""time""
""fullscreenenter"",""0"",""2709""
","
","null","<p></p>","null","","","","","","","","","","","","","","","","","","","","","","",""
"","do_trial","118","575251","0.0-69.0-0.0","""event"",""trial"",""time""
""fullscreenenter"",""0"",""2709""
","
","
","""event"",""trial"",""time""
""fullscreenenter"",""0"",""2709""
","
","1144","","","","","","","","49","1,0,0","0","highway","15","probe-134","0.5862447323812188","0.3165261630921906","0.21401992096526734","1","","","","","","","",""
"","html-keyboard-response","119","576253","0.0-69.0-1.0","""event"",""trial"",""time""
""fullscreenenter"",""0"",""2709""
","
","
","""event"",""trial"",""time""
""fullscreenenter"",""0"",""2709""
","
","null","<p></p>","null","","","","","","","","","","","","","","","","","","","","","","",""
"","do_trial","120","581362","0.0-70.0-0.0","""event"",""trial"",""time""
""fullscreenenter"",""0"",""2709""
","
","
","""event"",""trial"",""time""
""fullscreenenter"",""0"",""2709""
","
","546.3000000119209","","","","","","","","50","1,0,0","0","highway","16","probe-33","0.5717655949377527","0.34402931440406465","0.12836574905770293","0","","","","","","","",""
"","html-keyboard-response","121","582372","0.0-70.0-1.0","""event"",""trial"",""time""
""fullscreenenter"",""0"",""2709""
","
","
","""event"",""trial"",""time""
""fullscreenenter"",""0"",""2709""
","
","null","<p></p>","null","","","","","","","","","","","","","","","","","","","","","","",""
"","do_trial","122","587443","0.0-71.0-0.0","""event"",""trial"",""time""
""fullscreenenter"",""0"",""2709""
","
","
","""event"",""trial"",""time""
""fullscreenenter"",""0"",""2709""
","
","492.9000000357628","","","","","","","","51","0,0,0","0","highway","17","probe-69","0.6810047477419185","0.26866484419662107","0.09268574439887091","0","","","","","","","",""
"","html-keyboard-response","123","588456","0.0-71.0-1.0","""event"",""trial"",""time""
""fullscreenenter"",""0"",""2709""
","
","
","""event"",""trial"",""time""
""fullscreenenter"",""0"",""2709""
","
","null","<p></p>","null","","","","","","","","","","","","","","","","","","","","","","",""
"","do_trial","124","593023","0.0-72.0-0.0","""event"",""trial"",""time""
""fullscreenenter"",""0"",""2709""
","
","
","""event"",""trial"",""time""
""fullscreenenter"",""0"",""2709""
","
","0.19999998807907104","","","","","","","","49","0,0,0","0","highway","18","probe-21","0.7183866065564662","0.29798959602817476","0.23211192881859702","0","","","","","","","",""
"","html-keyboard-response","125","594036","0.0-72.0-1.0","""event"",""trial"",""time""
""fullscreenenter"",""0"",""2709""
","
","
","""event"",""trial"",""time""
""fullscreenenter"",""0"",""2709""
","
","null","<p></p>","null","","","","","","","","","","","","","","","","","","","","","","",""
"","do_trial","126","599656","0.0-73.0-0.0","""event"",""trial"",""time""
""fullscreenenter"",""0"",""2709""
","
","
","""event"",""trial"",""time""
""fullscreenenter"",""0"",""2709""
","
","1072.800000011921","","","","","","","","49","0,1,0","0","highway","19","probe-46","0.6237214020051961","0.3112985315605841","0.21348698303314909","0","","","","","","","",""
"","html-keyboard-response","127","600672","0.0-73.0-1.0","""event"",""trial"",""time""
""fullscreenenter"",""0"",""2709""
","
","
","""event"",""trial"",""time""
""fullscreenenter"",""0"",""2709""
","
","null","<p></p>","null","","","","","","","","","","","","","","","","","","","","","","",""
"","do_trial","128","605604","0.0-74.0-0.0","""event"",""trial"",""time""
""fullscreenenter"",""0"",""2709""
","
","
","""event"",""trial"",""time""
""fullscreenenter"",""0"",""2709""
","
","372.80000001192093","","","","","","","","51","0,1,1","0","highway","20","probe-87","0.5130593192520868","0.3207948193759826","0.19835563120532104","1","","","","","","","",""
"","html-keyboard-response","129","606609","0.0-74.0-1.0","""event"",""trial"",""time""
""fullscreenenter"",""0"",""2709""
","
","
","""event"",""trial"",""time""
""fullscreenenter"",""0"",""2709""
","
","null","<p></p>","null","","","","","","","","","","","","","","","","","","","","","","",""
"","do_trial","130","611835","0.0-75.0-0.0","""event"",""trial"",""time""
""fullscreenenter"",""0"",""2709""
","
","
","""event"",""trial"",""time""
""fullscreenenter"",""0"",""2709""
","
","657.8000000119209","","","","","","","","51","0,0,1","0","highway","21","probe-26","0.4499647425323377","0.22531928546123664","0.1298082301273689","1","","","","","","","",""
"","html-keyboard-response","131","612839","0.0-75.0-1.0","""event"",""trial"",""time""
""fullscreenenter"",""0"",""2709""
","
","
","""event"",""trial"",""time""
""fullscreenenter"",""0"",""2709""
","
","null","<p></p>","null","","","","","","","","","","","","","","","","","","","","","","",""
"","do_trial","132","618050","0.0-76.0-0.0","""event"",""trial"",""time""
""fullscreenenter"",""0"",""2709""
","
","
","""event"",""trial"",""time""
""fullscreenenter"",""0"",""2709""
","
","647","","","","","","","","49","1,0,0","0","highway","22","probe-55","0.5824840470617221","0.36397118729198386","0.16077474922866852","1","","","","","","","",""
"","html-keyboard-response","133","619054","0.0-76.0-1.0","""event"",""trial"",""time""
""fullscreenenter"",""0"",""2709""
","
","
","""event"",""trial"",""time""
""fullscreenenter"",""0"",""2709""
","
","null","<p></p>","null","","","","","","","","","","","","","","","","","","","","","","",""
"","do_trial","134","624115","0.0-77.0-0.0","""event"",""trial"",""time""
""fullscreenenter"",""0"",""2709""
","
","
","""event"",""trial"",""time""
""fullscreenenter"",""0"",""2709""
","
","506.19999998807907","","","","","","","","49","0,0,0","0","highway","23","probe-158","0.6115579396341616","0.2699300178862901","0.14715030249535527","0","","","","","","","",""
"","html-keyboard-response","135","625129","0.0-77.0-1.0","""event"",""trial"",""time""
""fullscreenenter"",""0"",""2709""
","
","
","""event"",""trial"",""time""
""fullscreenenter"",""0"",""2709""
","
","null","<p></p>","null","","","","","","","","","","","","","","","","","","","","","","",""
"","do_trial","136","629979","0.0-78.0-0.0","""event"",""trial"",""time""
""fullscreenenter"",""0"",""2709""
","
","
","""event"",""trial"",""time""
""fullscreenenter"",""0"",""2709""
","
","268.80000001192093","","","","","","","","51","1,0,0","0","highway","24","probe-30","0.5921050634490558","0.22002328337367025","0.24609211524135588","0","","","","","","","",""
"","html-keyboard-response","137","630995","0.0-78.0-1.0","""event"",""trial"",""time""
""fullscreenenter"",""0"",""2709""
","
","
","""event"",""trial"",""time""
""fullscreenenter"",""0"",""2709""
","
","null","<p></p>","null","","","","","","","","","","","","","","","","","","","","","","",""
"","do_trial","138","636193","0.0-79.0-0.0","""event"",""trial"",""time""
""fullscreenenter"",""0"",""2709""
","
","
","""event"",""trial"",""time""
""fullscreenenter"",""0"",""2709""
","
","630.6999999880791","","","","","","","","50","1,0,0","0","highway","25","probe-173","0.5094685366259658","0.20917111172178687","0.05399549584144048","0","","","","","","","",""
"","html-keyboard-response","139","637209","0.0-79.0-1.0","""event"",""trial"",""time""
""fullscreenenter"",""0"",""2709""
","
","
","""event"",""trial"",""time""
""fullscreenenter"",""0"",""2709""
","
","null","<p></p>","null","","","","","","","","","","","","","","","","","","","","","","",""
"","do_trial","140","642132","0.0-80.0-0.0","""event"",""trial"",""time""
""fullscreenenter"",""0"",""2709""
","
","
","""event"",""trial"",""time""
""fullscreenenter"",""0"",""2709""
","
","360.69999998807907","","","","","","","","49","1,0,0","0","highway","26","probe-178","0.41836896104249915","0.12397860099605422","0.1475801458842879","1","","","","","","","",""
"","html-keyboard-response","141","643139","0.0-80.0-1.0","""event"",""trial"",""time""
""fullscreenenter"",""0"",""2709""
","
","
","""event"",""trial"",""time""
""fullscreenenter"",""0"",""2709""
","
","null","<p></p>","null","","","","","","","","","","","","","","","","","","","","","","",""
"","do_trial","142","647840","0.0-81.0-0.0","""event"",""trial"",""time""
""fullscreenenter"",""0"",""2709""
","
","
","""event"",""trial"",""time""
""fullscreenenter"",""0"",""2709""
","
","133.89999997615814","","","","","","","","49","0,1,1","0","highway","27","probe-122","0.5373948673708431","0.20188510126084552","0.1247571596051981","0","","","","","","","",""
"","html-keyboard-response","143","648848","0.0-81.0-1.0","""event"",""trial"",""time""
""fullscreenenter"",""0"",""2709""
","
","
","""event"",""trial"",""time""
""fullscreenenter"",""0"",""2709""
","
","null","<p></p>","null","","","","","","","","","","","","","","","","","","","","","","",""
"","do_trial","144","653905","0.0-82.0-0.0","""event"",""trial"",""time""
""fullscreenenter"",""0"",""2709""
","
","
","""event"",""trial"",""time""
""fullscreenenter"",""0"",""2709""
","
","496.5","","","","","","","","51","1,0,0","0","highway","28","probe-62","0.7570516501014916","0.32090887240655286","0.2098208310136177","0","","","","","","","",""
"","html-keyboard-response","145","654921","0.0-82.0-1.0","""event"",""trial"",""time""
""fullscreenenter"",""0"",""2709""
","
","
","""event"",""trial"",""time""
""fullscreenenter"",""0"",""2709""
","
","null","<p></p>","null","","","","","","","","","","","","","","","","","","","","","","",""
"","do_trial","146","659964","0.0-83.0-0.0","""event"",""trial"",""time""
""fullscreenenter"",""0"",""2709""
","
","
","""event"",""trial"",""time""
""fullscreenenter"",""0"",""2709""
","
","473.0999999642372","","","","","","","","49","1,0,1","0","highway","29","probe-135","0.7228746278899272","0.278957244377629","0.21337703793760127","1","","","","","","","",""
"","html-keyboard-response","147","660968","0.0-83.0-1.0","""event"",""trial"",""time""
""fullscreenenter"",""0"",""2709""
","
","
","""event"",""trial"",""time""
""fullscreenenter"",""0"",""2709""
","
","null","<p></p>","null","","","","","","","","","","","","","","","","","","","","","","",""
"","do_bye","148","662477","0.0-84.0-0.0","""event"",""trial"",""time""
""fullscreenenter"",""0"",""2709""
","
","
","""event"",""trial"",""time""
""fullscreenenter"",""0"",""2709""
","
","null","","","","","","","","null","","","","","","","","","","","","","","","","",""
"","break","149","681647","0.0-84.0-1.0","""event"",""trial"",""time""
""fullscreenenter"",""0"",""2709""
","
","
","""event"",""trial"",""time""
""fullscreenenter"",""0"",""2709""
","
","19168.69999998808","<div class='center'><p>Time to take a quick break! You have 2 minutes to rest, but you can move on sooner if you'd like.</p><p> Press the <b>space bar</b> to continue.</p></div>","32","","","","","","","","","","","","","","","","","","","","","","",""
"","do_travel","150","690659","0.0-85.0-0.0","""event"",""trial"",""time""
""fullscreenenter"",""0"",""2709""
","
","
","""event"",""trial"",""time""
""fullscreenenter"",""0"",""2709""
","
","null","","","","","","","","null","","","","","","","","","","","","","","","","",""
"","do_welcome","151","694673","0.0-85.0-1.0","""event"",""trial"",""time""
""fullscreenenter"",""0"",""2709""
","
","
","""event"",""trial"",""time""
""fullscreenenter"",""0"",""2709""
","
","null","","","","","","","","null","","","","","","","","","","","","","","","","",""
"","do_trial","152","700623","0.0-86.0-0.0","""event"",""trial"",""time""
""fullscreenenter"",""0"",""2709""
","
","
","""event"",""trial"",""time""
""fullscreenenter"",""0"",""2709""
","
","1411","","","","","","","","50","1,0,0","1","city","30","probe-139","1","0.3036708466406768","0.07731170872095001","0","","","","","","","",""
"","html-keyboard-response","153","701634","0.0-86.0-1.0","""event"",""trial"",""time""
""fullscreenenter"",""0"",""2709""
","
","
","""event"",""trial"",""time""
""fullscreenenter"",""0"",""2709""
","
","null","<p></p>","null","","","","","","","","","","","","","","","","","","","","","","",""
"","do_trial","154","706546","0.0-87.0-0.0","""event"",""trial"",""time""
""fullscreenenter"",""0"",""2709""
","
","
","""event"",""trial"",""time""
""fullscreenenter"",""0"",""2709""
","
","369.5999999642372","","","","","","","","51","1,0,0","1","city","31","probe-09","1","0.3352503097928081","0.08331497973179787","0","","","","","","","",""
"","html-keyboard-response","155","707554","0.0-87.0-1.0","""event"",""trial"",""time""
""fullscreenenter"",""0"",""2709""
","
","
","""event"",""trial"",""time""
""fullscreenenter"",""0"",""2709""
","
","null","<p></p>","null","","","","","","","","","","","","","","","","","","","","","","",""
"","do_trial","156","712482","0.0-88.0-0.0","""event"",""trial"",""time""
""fullscreenenter"",""0"",""2709""
","
","
","""event"",""trial"",""time""
""fullscreenenter"",""0"",""2709""
","
","375.39999997615814","","","","","","","","49","1,0,1","1","city","32","probe-208","1","0.32613647967798964","0.10048576441317404","1","","","","","","","",""
"","html-keyboard-response","157","713491","0.0-88.0-1.0","""event"",""trial"",""time""
""fullscreenenter"",""0"",""2709""
","
","
","""event"",""trial"",""time""
""fullscreenenter"",""0"",""2709""
","
","null","<p></p>","null","","","","","","","","","","","","","","","","","","","","","","",""
"","do_trial","158","718616","0.0-89.0-0.0","""event"",""trial"",""time""
""fullscreenenter"",""0"",""2709""
","
","
","""event"",""trial"",""time""
""fullscreenenter"",""0"",""2709""
","
","595.5","","","","","","","","49","1,0,0","1","city","33","probe-61","0.813731869519708","0.3711855232475349","0.1614239683861764","1","","","","","","","",""
"","html-keyboard-response","159","719622","0.0-89.0-1.0","""event"",""trial"",""time""
""fullscreenenter"",""0"",""2709""
","
","
","""event"",""trial"",""time""
""fullscreenenter"",""0"",""2709""
","
","null","<p></p>","null","","","","","","","","","","","","","","","","","","","","","","",""
"","do_trial","160","724836","0.0-90.0-0.0","""event"",""trial"",""time""
""fullscreenenter"",""0"",""2709""
","
","
","""event"",""trial"",""time""
""fullscreenenter"",""0"",""2709""
","
","686.3000000119209","","","","","","","","49","1,0,0","1","city","34","probe-213","0.5800688976072638","0.30437294985400903","0.19071676058833065","1","","","","","","","",""
"","html-keyboard-response","161","725850","0.0-90.0-1.0","""event"",""trial"",""time""
""fullscreenenter"",""0"",""2709""
","
","
","""event"",""trial"",""time""
""fullscreenenter"",""0"",""2709""
","
","null","<p></p>","null","","","","","","","","","","","","","","","","","","","","","","",""
"","do_trial","162","730977","0.0-91.0-0.0","""event"",""trial"",""time""
""fullscreenenter"",""0"",""2709""
","
","
","""event"",""trial"",""time""
""fullscreenenter"",""0"",""2709""
","
","569.1999999880791","","","","","","","","50","0,0,0","1","city","35","probe-183","0.680134132686151","0.29635914747917175","0.058307723122698864","0","","","","","","","",""
"","html-keyboard-response","163","731993","0.0-91.0-1.0","""event"",""trial"",""time""
""fullscreenenter"",""0"",""2709""
","
","
","""event"",""trial"",""time""
""fullscreenenter"",""0"",""2709""
","
","null","<p></p>","null","","","","","","","","","","","","","","","","","","","","","","",""
"","do_trial","164","736609","0.0-92.0-0.0","""event"",""trial"",""time""
""fullscreenenter"",""0"",""2709""
","
","
","""event"",""trial"",""time""
""fullscreenenter"",""0"",""2709""
","
","74","","","","","","","","49","1,1,0","1","city","36","probe-01","0.6272578597265344","0.291199905753458","0.18333716605227504","1","","","","","","","",""
"","html-keyboard-response","165","737624","0.0-92.0-1.0","""event"",""trial"",""time""
""fullscreenenter"",""0"",""2709""
","
","
","""event"",""trial"",""time""
""fullscreenenter"",""0"",""2709""
","
","null","<p></p>","null","","","","","","","","","","","","","","","","","","","","","","",""
"","do_trial","166","742507","0.0-93.0-0.0","""event"",""trial"",""time""
""fullscreenenter"",""0"",""2709""
","
","
","""event"",""trial"",""time""
""fullscreenenter"",""0"",""2709""
","
","311.4000000357628","","","","","","","","49","0,0,0","1","city","37","probe-184","0.5940790015310694","0.38247545428605123","0.09127052736938122","0","","","","","","","",""
"","html-keyboard-response","167","743530","0.0-93.0-1.0","""event"",""trial"",""time""
""fullscreenenter"",""0"",""2709""
","
","
","""event"",""trial"",""time""
""fullscreenenter"",""0"",""2709""
","
","null","<p></p>","null","","","","","","","","","","","","","","","","","","","","","","",""
"","do_trial","168","748664","0.0-94.0-0.0","""event"",""trial"",""time""
""fullscreenenter"",""0"",""2709""
","
","
","""event"",""trial"",""time""
""fullscreenenter"",""0"",""2709""
","
","555.3000000119209","","","","","","","","49","1,0,0","1","city","38","probe-181","0.7150914190318914","0.2791148414166298","0.09054637424918424","1","","","","","","","",""
"","html-keyboard-response","169","749682","0.0-94.0-1.0","""event"",""trial"",""time""
""fullscreenenter"",""0"",""2709""
","
","
","""event"",""trial"",""time""
""fullscreenenter"",""0"",""2709""
","
","null","<p></p>","null","","","","","","","","","","","","","","","","","","","","","","",""
"","do_trial","170","755236","0.0-95.0-0.0","""event"",""trial"",""time""
""fullscreenenter"",""0"",""2709""
","
","
","""event"",""trial"",""time""
""fullscreenenter"",""0"",""2709""
","
","995.3000000119209","","","","","","","","49","0,1,0","1","city","39","probe-160","0.8206570240014069","0.31100177235840026","0.20272565478544838","0","","","","","","","",""
"","html-keyboard-response","171","756253","0.0-95.0-1.0","""event"",""trial"",""time""
""fullscreenenter"",""0"",""2709""
","
","
","""event"",""trial"",""time""
""fullscreenenter"",""0"",""2709""
","
","null","<p></p>","null","","","","","","","","","","","","","","","","","","","","","","",""
"","do_trial","172","761166","0.0-96.0-0.0","""event"",""trial"",""time""
""fullscreenenter"",""0"",""2709""
","
","
","""event"",""trial"",""time""
""fullscreenenter"",""0"",""2709""
","
","345.89999997615814","","","","","","","","51","1,1,0","1","city","40","probe-137","0.6782469185926847","0.4164856484285424","0.3478578942705539","0","","","","","","","",""
"","html-keyboard-response","173","762185","0.0-96.0-1.0","""event"",""trial"",""time""
""fullscreenenter"",""0"",""2709""
","
","
","""event"",""trial"",""time""
""fullscreenenter"",""0"",""2709""
","
","null","<p></p>","null","","","","","","","","","","","","","","","","","","","","","","",""
"","do_trial","174","767053","0.0-97.0-0.0","""event"",""trial"",""time""
""fullscreenenter"",""0"",""2709""
","
","
","""event"",""trial"",""time""
""fullscreenenter"",""0"",""2709""
","
","320.7999999523163","","","","","","","","49","1,0,0","1","city","41","probe-12","0.6733436141334643","0.41701765743600333","0.23380000022371739","1","","","","","","","",""
"","html-keyboard-response","175","768064","0.0-97.0-1.0","""event"",""trial"",""time""
""fullscreenenter"",""0"",""2709""
","
","
","""event"",""trial"",""time""
""fullscreenenter"",""0"",""2709""
","
","null","<p></p>","null","","","","","","","","","","","","","","","","","","","","","","",""
"","do_trial","176","773397","0.0-98.0-0.0","""event"",""trial"",""time""
""fullscreenenter"",""0"",""2709""
","
","
","""event"",""trial"",""time""
""fullscreenenter"",""0"",""2709""
","
","764.3999999761581","","","","","","","","49","1,1,0","1","city","42","probe-31","0.4713572176798017","0.42034787416378666","0.3409869554684967","1","","","","","","","",""
"","html-keyboard-response","177","774409","0.0-98.0-1.0","""event"",""trial"",""time""
""fullscreenenter"",""0"",""2709""
","
","
","""event"",""trial"",""time""
""fullscreenenter"",""0"",""2709""
","
","null","<p></p>","null","","","","","","","","","","","","","","","","","","","","","","",""
"","do_trial","178","779712","0.0-99.0-0.0","""event"",""trial"",""time""
""fullscreenenter"",""0"",""2709""
","
","
","""event"",""trial"",""time""
""fullscreenenter"",""0"",""2709""
","
","727.8000000119209","","","","","","","","49","0,1,0","1","city","43","probe-47","0.3754685455168071","0.5157378500704958","0.3962184073821978","0","","","","","","","",""
"","html-keyboard-response","179","780728","0.0-99.0-1.0","""event"",""trial"",""time""
""fullscreenenter"",""0"",""2709""
","
","
","""event"",""trial"",""time""
""fullscreenenter"",""0"",""2709""
","
","null","<p></p>","null","","","","","","","","","","","","","","","","","","","","","","",""
"","do_trial","180","785659","0.0-100.0-0.0","""event"",""trial"",""time""
""fullscreenenter"",""0"",""2709""
","
","
","""event"",""trial"",""time""
""fullscreenenter"",""0"",""2709""
","
","358.10000002384186","","","","","","","","49","1,1,1","1","city","44","probe-212","0.24970282540433647","0.6381314631985733","0.15003972952016026","1","","","","","","","",""
"","html-keyboard-response","181","786662","0.0-100.0-1.0","""event"",""trial"",""time""
""fullscreenenter"",""0"",""2709""
","
","
","""event"",""trial"",""time""
""fullscreenenter"",""0"",""2709""
","
","null","<p></p>","null","","","","","","","","","","","","","","","","","","","","","","",""
"","do_trial","182","791991","0.0-101.0-0.0","""event"",""trial"",""time""
""fullscreenenter"",""0"",""2709""
","
","
","""event"",""trial"",""time""
""fullscreenenter"",""0"",""2709""
","
","756.6999999880791","","","","","","","","49","0,1,1","1","city","45","probe-20","0.20302657896387233","0.7232906207494297","0.33164241569363917","0","","","","","","","",""
"","html-keyboard-response","183","793003","0.0-101.0-1.0","""event"",""trial"",""time""
""fullscreenenter"",""0"",""2709""
","
","
","""event"",""trial"",""time""
""fullscreenenter"",""0"",""2709""
","
","null","<p></p>","null","","","","","","","","","","","","","","","","","","","","","","",""
"","do_trial","184","797923","0.0-102.0-0.0","""event"",""trial"",""time""
""fullscreenenter"",""0"",""2709""
","
","
","""event"",""trial"",""time""
""fullscreenenter"",""0"",""2709""
","
","348.5","","","","","","","","49","1,1,1","1","city","46","probe-110","0.2551044340076137","0.6681308903463802","0.3526084544945544","1","","","","","","","",""
"","html-keyboard-response","185","798939","0.0-102.0-1.0","""event"",""trial"",""time""
""fullscreenenter"",""0"",""2709""
","
","
","""event"",""trial"",""time""
""fullscreenenter"",""0"",""2709""
","
","null","<p></p>","null","","","","","","","","","","","","","","","","","","","","","","",""
"","do_trial","186","804062","0.0-103.0-0.0","""event"",""trial"",""time""
""fullscreenenter"",""0"",""2709""
","
","
","""event"",""trial"",""time""
""fullscreenenter"",""0"",""2709""
","
","561.9000000357628","","","","","","","","49","1,1,0","1","city","47","probe-57","0.36717680019205157","0.7067879662574849","0.3692012531514486","1","","","","","","","",""
"","html-keyboard-response","187","805070","0.0-103.0-1.0","""event"",""trial"",""time""
""fullscreenenter"",""0"",""2709""
","
","
","""event"",""trial"",""time""
""fullscreenenter"",""0"",""2709""
","
","null","<p></p>","null","","","","","","","","","","","","","","","","","","","","","","",""
"","do_trial","188","810434","0.0-104.0-0.0","""event"",""trial"",""time""
""fullscreenenter"",""0"",""2709""
","
","
","""event"",""trial"",""time""
""fullscreenenter"",""0"",""2709""
","
","823.8999999761581","","","","","","","","50","1,1,0","1","city","48","probe-209","0.3601350704536758","0.6316163408616527","0.39703336248054605","1","","","","","","","",""
"","html-keyboard-response","189","811452","0.0-104.0-1.0","""event"",""trial"",""time""
""fullscreenenter"",""0"",""2709""
","
","
","""event"",""trial"",""time""
""fullscreenenter"",""0"",""2709""
","
","null","<p></p>","null","","","","","","","","","","","","","","","","","","","","","","",""
"","do_trial","190","816532","0.0-105.0-0.0","""event"",""trial"",""time""
""fullscreenenter"",""0"",""2709""
","
","
","""event"",""trial"",""time""
""fullscreenenter"",""0"",""2709""
","
","527.5","","","","","","","","49","0,1,1","1","city","49","probe-92","0.2652570484084365","0.604636302854862","0.35931231174926304","0","","","","","","","",""
"","html-keyboard-response","191","817547","0.0-105.0-1.0","""event"",""trial"",""time""
""fullscreenenter"",""0"",""2709""
","
","
","""event"",""trial"",""time""
""fullscreenenter"",""0"",""2709""
","
","null","<p></p>","null","","","","","","","","","","","","","","","","","","","","","","",""
"","do_trial","192","823126","0.0-106.0-0.0","""event"",""trial"",""time""
""fullscreenenter"",""0"",""2709""
","
","
","""event"",""trial"",""time""
""fullscreenenter"",""0"",""2709""
","
","1018.7999999523163","","","","","","","","49","0,1,1","1","city","50","probe-68","0.23907484546457647","0.6704904273376614","0.3770856276841031","0","","","","","","","",""
"","html-keyboard-response","193","824130","0.0-106.0-1.0","""event"",""trial"",""time""
""fullscreenenter"",""0"",""2709""
","
","
","""event"",""trial"",""time""
""fullscreenenter"",""0"",""2709""
","
","null","<p></p>","null","","","","","","","","","","","","","","","","","","","","","","",""
"","do_trial","194","829011","0.0-107.0-0.0","""event"",""trial"",""time""
""fullscreenenter"",""0"",""2709""
","
","
","""event"",""trial"",""time""
""fullscreenenter"",""0"",""2709""
","
","308.60000002384186","","","","","","","","50","0,1,0","1","city","51","probe-23","0.30638706231468354","0.567956692664904","0.398456775281675","1","","","","","","","",""
"","html-keyboard-response","195","830018","0.0-107.0-1.0","""event"",""trial"",""time""
""fullscreenenter"",""0"",""2709""
","
","
","""event"",""trial"",""time""
""fullscreenenter"",""0"",""2709""
","
","null","<p></p>","null","","","","","","","","","","","","","","","","","","","","","","",""
"","do_trial","196","834993","0.0-108.0-0.0","""event"",""trial"",""time""
""fullscreenenter"",""0"",""2709""
","
","
","""event"",""trial"",""time""
""fullscreenenter"",""0"",""2709""
","
","403.80000001192093","","","","","","","","50","0,1,0","1","city","52","probe-63","0.2296586155196459","0.5698944403748349","0.24329019443943195","1","","","","","","","",""
"","html-keyboard-response","197","835999","0.0-108.0-1.0","""event"",""trial"",""time""
""fullscreenenter"",""0"",""2709""
","
","
","""event"",""trial"",""time""
""fullscreenenter"",""0"",""2709""
","
","null","<p></p>","null","","","","","","","","","","","","","","","","","","","","","","",""
"","do_trial","198","841368","0.0-109.0-0.0","""event"",""trial"",""time""
""fullscreenenter"",""0"",""2709""
","
","
","""event"",""trial"",""time""
""fullscreenenter"",""0"",""2709""
","
","808.9000000357628","","","","","","","","50","0,1,1","1","city","53","probe-123","0.19869339706868658","0.7704905853319884","0.32488434058779475","1","","","","","","","",""
"","html-keyboard-response","199","842371","0.0-109.0-1.0","""event"",""trial"",""time""
""fullscreenenter"",""0"",""2709""
","
","
","""event"",""trial"",""time""
""fullscreenenter"",""0"",""2709""
","
","null","<p></p>","null","","","","","","","","","","","","","","","","","","","","","","",""
"","do_trial","200","848700","0.0-110.0-0.0","""event"",""trial"",""time""
""fullscreenenter"",""0"",""2709""
","
","
","""event"",""trial"",""time""
""fullscreenenter"",""0"",""2709""
","
","1763","","","","","","","","50","0,0,0","1","city","54","probe-41","0.2117792782948535","0.6257827325491437","0.21460409689216078","0","","","","","","","",""
"","html-keyboard-response","201","849706","0.0-110.0-1.0","""event"",""trial"",""time""
""fullscreenenter"",""0"",""2709""
","
","
","""event"",""trial"",""time""
""fullscreenenter"",""0"",""2709""
","
","null","<p></p>","null","","","","","","","","","","","","","","","","","","","","","","",""
"","do_trial","202","854652","0.0-111.0-0.0","""event"",""trial"",""time""
""fullscreenenter"",""0"",""2709""
","
","
","""event"",""trial"",""time""
""fullscreenenter"",""0"",""2709""
","
","373.30000001192093","","","","","","","","49","0,1,0","1","city","55","probe-174","0.06114109417772269","0.6200522740090796","0.31867451982689377","0","","","","","","","",""
"","html-keyboard-response","203","855657","0.0-111.0-1.0","""event"",""trial"",""time""
""fullscreenenter"",""0"",""2709""
","
","
","""event"",""trial"",""time""
""fullscreenenter"",""0"",""2709""
","
","null","<p></p>","null","","","","","","","","","","","","","","","","","","","","","","",""
"","do_trial","204","860671","0.0-112.0-0.0","""event"",""trial"",""time""
""fullscreenenter"",""0"",""2709""
","
","
","""event"",""trial"",""time""
""fullscreenenter"",""0"",""2709""
","
","448.5","","","","","","","","50","0,0,0","1","city","56","probe-149","0.05180333021324635","0.5997465060357975","0.3441313180779264","0","","","","","","","",""
"","html-keyboard-response","205","861683","0.0-112.0-1.0","""event"",""trial"",""time""
""fullscreenenter"",""0"",""2709""
","
","
","""event"",""trial"",""time""
""fullscreenenter"",""0"",""2709""
","
","null","<p></p>","null","","","","","","","","","","","","","","","","","","","","","","",""
"","do_trial","206","866514","0.0-113.0-0.0","""event"",""trial"",""time""
""fullscreenenter"",""0"",""2709""
","
","
","""event"",""trial"",""time""
""fullscreenenter"",""0"",""2709""
","
","261.19999998807907","","","","","","","","51","0,0,0","1","city","57","probe-85","0.14934352050908958","0.6679491498613634","0.27243448098318107","0","","","","","","","",""
"","html-keyboard-response","207","867531","0.0-113.0-1.0","""event"",""trial"",""time""
""fullscreenenter"",""0"",""2709""
","
","
","""event"",""trial"",""time""
""fullscreenenter"",""0"",""2709""
","
","null","<p></p>","null","","","","","","","","","","","","","","","","","","","","","","",""
"","do_trial","208","872791","0.0-114.0-0.0","""event"",""trial"",""time""
""fullscreenenter"",""0"",""2709""
","
","
","""event"",""trial"",""time""
""fullscreenenter"",""0"",""2709""
","
","697.0999999642372","","","","","","","","49","0,0,0","1","city","58","probe-100","0.07219534516822003","0.6351154062495504","0.33766086786606603","0","","","","","","","",""
"","html-keyboard-response","209","873794","0.0-114.0-1.0","""event"",""trial"",""time""
""fullscreenenter"",""0"",""2709""
","
","
","""event"",""trial"",""time""
""fullscreenenter"",""0"",""2709""
","
","null","<p></p>","null","","","","","","","","","","","","","","","","","","","","","","",""
"","do_trial","210","878894","0.0-115.0-0.0","""event"",""trial"",""time""
""fullscreenenter"",""0"",""2709""
","
","
","""event"",""trial"",""time""
""fullscreenenter"",""0"",""2709""
","
","528.6999999880791","","","","","","","","50","0,1,0","1","city","59","probe-16","0.10309473092609744","0.5758328314205404","0.3759268359742221","1","","","","","","","",""
"","html-keyboard-response","211","879897","0.0-115.0-1.0","""event"",""trial"",""time""
""fullscreenenter"",""0"",""2709""
","
","
","""event"",""trial"",""time""
""fullscreenenter"",""0"",""2709""
","
","null","<p></p>","null","","","","","","","","","","","","","","","","","","","","","","",""
"","do_trial","212","884774","0.0-116.0-0.0","""event"",""trial"",""time""
""fullscreenenter"",""0"",""2709""
","
","
","""event"",""trial"",""time""
""fullscreenenter"",""0"",""2709""
","
","310.19999998807907","","","","","","","","50","1,1,0","1","city","60","probe-175","0.0887441350268097","0.6213925952949048","0.21617305003219764","1","","","","","","","",""
"","html-keyboard-response","213","885791","0.0-116.0-1.0","""event"",""trial"",""time""
""fullscreenenter"",""0"",""2709""
","
","
","""event"",""trial"",""time""
""fullscreenenter"",""0"",""2709""
","
","null","<p></p>","null","","","","","","","","","","","","","","","","","","","","","","",""
"","do_trial","214","890743","0.0-117.0-0.0","""event"",""trial"",""time""
""fullscreenenter"",""0"",""2709""
","
","
","""event"",""trial"",""time""
""fullscreenenter"",""0"",""2709""
","
","417.10000002384186","","","","","","","","50","0,1,0","1","city","61","probe-17","0.062237261430237646","0.5218967471280587","0.31116978750048996","1","","","","","","","",""
"","html-keyboard-response","215","891750","0.0-117.0-1.0","""event"",""trial"",""time""
""fullscreenenter"",""0"",""2709""
","
","
","""event"",""trial"",""time""
""fullscreenenter"",""0"",""2709""
","
","null","<p></p>","null","","","","","","","","","","","","","","","","","","","","","","",""
"","do_trial","216","897669","0.0-118.0-0.0","""event"",""trial"",""time""
""fullscreenenter"",""0"",""2709""
","
","
","""event"",""trial"",""time""
""fullscreenenter"",""0"",""2709""
","
","1379.4000000357628","","","","","","","","50","0,1,0","1","city","62","probe-197","0.08830480348600177","0.6280141927909473","0.33674897585548136","1","","","","","","","",""
"","html-keyboard-response","217","898672","0.0-118.0-1.0","""event"",""trial"",""time""
""fullscreenenter"",""0"",""2709""
","
","
","""event"",""trial"",""time""
""fullscreenenter"",""0"",""2709""
","
","null","<p></p>","null","","","","","","","","","","","","","","","","","","","","","","",""
"","do_trial","218","903620","0.0-119.0-0.0","""event"",""trial"",""time""
""fullscreenenter"",""0"",""2709""
","
","
","""event"",""trial"",""time""
""fullscreenenter"",""0"",""2709""
","
","373.19999998807907","","","","","","","","49","0,1,0","1","city","63","probe-119","0.08537109152002638","0.6900416517150236","0.3016775639084585","0","","","","","","","",""
"","html-keyboard-response","219","904627","0.0-119.0-1.0","""event"",""trial"",""time""
""fullscreenenter"",""0"",""2709""
","
","
","""event"",""trial"",""time""
""fullscreenenter"",""0"",""2709""
","
","null","<p></p>","null","","","","","","","","","","","","","","","","","","","","","","",""
"","do_trial","220","909206","0.0-120.0-0.0","""event"",""trial"",""time""
""fullscreenenter"",""0"",""2709""
","
","
","""event"",""trial"",""time""
""fullscreenenter"",""0"",""2709""
","
","13.399999976158142","","","","","","","","50","0,1,0","1","city","64","probe-127","0.0949120299187464","0.5757998488364827","0.19545556918132964","1","","","","","","","",""
"","html-keyboard-response","221","910217","0.0-120.0-1.0","""event"",""trial"",""time""
""fullscreenenter"",""0"",""2709""
","
","
","""event"",""trial"",""time""
""fullscreenenter"",""0"",""2709""
","
","null","<p></p>","null","","","","","","","","","","","","","","","","","","","","","","",""
"","do_trial","222","916016","0.0-121.0-0.0","""event"",""trial"",""time""
""fullscreenenter"",""0"",""2709""
","
","
","""event"",""trial"",""time""
""fullscreenenter"",""0"",""2709""
","
","1240.5","","","","","","","","50","0,1,0","1","city","65","probe-73","0.0543935455340607","0.6714766032310692","0.18457596373333973","1","","","","","","","",""
"","html-keyboard-response","223","917025","0.0-121.0-1.0","""event"",""trial"",""time""
""fullscreenenter"",""0"",""2709""
","
","
","""event"",""trial"",""time""
""fullscreenenter"",""0"",""2709""
","
","null","<p></p>","null","","","","","","","","","","","","","","","","","","","","","","",""
"","do_trial","224","922968","0.0-122.0-0.0","""event"",""trial"",""time""
""fullscreenenter"",""0"",""2709""
","
","
","""event"",""trial"",""time""
""fullscreenenter"",""0"",""2709""
","
","1388.199999988079","","","","","","","","50","0,0,0","1","city","66","probe-144","0.05626638213460571","0.7134031370558845","0.3214085173695937","0","","","","","","","",""
"","html-keyboard-response","225","923985","0.0-122.0-1.0","""event"",""trial"",""time""
""fullscreenenter"",""0"",""2709""
","
","
","""event"",""trial"",""time""
""fullscreenenter"",""0"",""2709""
","
","null","<p></p>","null","","","","","","","","","","","","","","","","","","","","","","",""
"","do_trial","226","929065","0.0-123.0-0.0","""event"",""trial"",""time""
""fullscreenenter"",""0"",""2709""
","
","
","""event"",""trial"",""time""
""fullscreenenter"",""0"",""2709""
","
","518.5","","","","","","","","50","0,1,0","1","city","67","probe-109","0.11670341240077195","0.5607231147934845","0.36173735708289534","1","","","","","","","",""
"","html-keyboard-response","227","930082","0.0-123.0-1.0","""event"",""trial"",""time""
""fullscreenenter"",""0"",""2709""
","
","
","""event"",""trial"",""time""
""fullscreenenter"",""0"",""2709""
","
","null","<p></p>","null","","","","","","","","","","","","","","","","","","","","","","",""
"","do_trial","228","935968","0.0-124.0-0.0","""event"",""trial"",""time""
""fullscreenenter"",""0"",""2709""
","
","
","""event"",""trial"",""time""
""fullscreenenter"",""0"",""2709""
","
","1347.800000011921","","","","","","","","50","0,1,0","1","city","68","probe-195","0.05369755865619221","0.6993940658931959","0.456594999856461","1","","","","","","","",""
"","html-keyboard-response","229","936986","0.0-124.0-1.0","""event"",""trial"",""time""
""fullscreenenter"",""0"",""2709""
","
","
","""event"",""trial"",""time""
""fullscreenenter"",""0"",""2709""
","
","null","<p></p>","null","","","","","","","","","","","","","","","","","","","","","","",""
"","do_trial","230","942599","0.0-125.0-0.0","""event"",""trial"",""time""
""fullscreenenter"",""0"",""2709""
","
","
","""event"",""trial"",""time""
""fullscreenenter"",""0"",""2709""
","
","1078","","","","","","","","50","0,1,0","1","city","69","probe-28","0.05312634140740469","0.6476567281882193","0.3402144274551205","1","","","","","","","",""
"","html-keyboard-response","231","943602","0.0-125.0-1.0","""event"",""trial"",""time""
""fullscreenenter"",""0"",""2709""
","
","
","""event"",""trial"",""time""
""fullscreenenter"",""0"",""2709""
","
","null","<p></p>","null","","","","","","","","","","","","","","","","","","","","","","",""
"","do_bye","232","945116","0.0-126.0-0.0","""event"",""trial"",""time""
""fullscreenenter"",""0"",""2709""
","
","
","""event"",""trial"",""time""
""fullscreenenter"",""0"",""2709""
","
","null","","","","","","","","null","","","","","","","","","","","","","","","","",""
"","break","233","963715","0.0-126.0-1.0","""event"",""trial"",""time""
""fullscreenenter"",""0"",""2709""
","
","
","""event"",""trial"",""time""
""fullscreenenter"",""0"",""2709""
","
","18596.5","<div class='center'><p>Time to take a quick break! You have 2 minutes to rest, but you can move on sooner if you'd like.</p><p> Press the <b>space bar</b> to continue.</p></div>","32","","","","","","","","","","","","","","","","","","","","","","",""
"","do_travel","234","972727","0.0-127.0-0.0","""event"",""trial"",""time""
""fullscreenenter"",""0"",""2709""
","
","
","""event"",""trial"",""time""
""fullscreenenter"",""0"",""2709""
","
","null","","","","","","","","null","","","","","","","","","","","","","","","","",""
"","do_welcome","235","976747","0.0-127.0-1.0","""event"",""trial"",""time""
""fullscreenenter"",""0"",""2709""
","
","
","""event"",""trial"",""time""
""fullscreenenter"",""0"",""2709""
","
","null","","","","","","","","null","","","","","","","","","","","","","","","","",""
"","do_trial","236","982912","0.0-128.0-0.0","""event"",""trial"",""time""
""fullscreenenter"",""0"",""2709""
","
","
","""event"",""trial"",""time""
""fullscreenenter"",""0"",""2709""
","
","1602","","","","","","","","51","0,1,0","2","countryside","70","probe-44","0.16294845923603354","1","0.4073305141312519","0","","","","","","","",""
"","html-keyboard-response","237","983927","0.0-128.0-1.0","""event"",""trial"",""time""
""fullscreenenter"",""0"",""2709""
","
","
","""event"",""trial"",""time""
""fullscreenenter"",""0"",""2709""
","
","null","<p></p>","null","","","","","","","","","","","","","","","","","","","","","","",""
"","do_trial","238","988783","0.0-129.0-0.0","""event"",""trial"",""time""
""fullscreenenter"",""0"",""2709""
","
","
","""event"",""trial"",""time""
""fullscreenenter"",""0"",""2709""
","
","289.5","","","","","","","","51","0,1,0","2","countryside","71","probe-223","0.21164598279766053","1","0.22224373259072117","0","","","","","","","",""
"","html-keyboard-response","239","989792","0.0-129.0-1.0","""event"",""trial"",""time""
""fullscreenenter"",""0"",""2709""
","
","
","""event"",""trial"",""time""
""fullscreenenter"",""0"",""2709""
","
","null","<p></p>","null","","","","","","","","","","","","","","","","","","","","","","",""
"","do_trial","240","994540","0.0-130.0-0.0","""event"",""trial"",""time""
""fullscreenenter"",""0"",""2709""
","
","
","""event"",""trial"",""time""
""fullscreenenter"",""0"",""2709""
","
","207.9000000357628","","","","","","","","50","0,1,0","2","countryside","72","probe-22","0.12497461945507142","0.9283630472044757","0.2979310806477263","1","","","","","","","",""
"","html-keyboard-response","241","995555","0.0-130.0-1.0","""event"",""trial"",""time""
""fullscreenenter"",""0"",""2709""
","
","
","""event"",""trial"",""time""
""fullscreenenter"",""0"",""2709""
","
","null","<p></p>","null","","","","","","","","","","","","","","","","","","","","","","",""
"","do_trial","242","1000659","0.0-131.0-0.0","""event"",""trial"",""time""
""fullscreenenter"",""0"",""2709""
","
","
","""event"",""trial"",""time""
""fullscreenenter"",""0"",""2709""
","
","567.4000000357628","","","","","","","","50","0,1,0","2","countryside","73","probe-116","0.12195716746514977","0.8514382937691994","0.2533965975086759","1","","","","","","","",""
"","html-keyboard-response","243","1001667","0.0-131.0-1.0","""event"",""trial"",""time""
""fullscreenenter"",""0"",""2709""
","
","
","""event"",""trial"",""time""
""fullscreenenter"",""0"",""2709""
","
","null","<p></p>","null","","","","","","","","","","","","","","","","","","","","","","",""
"","do_trial","244","1006737","0.0-132.0-0.0","""event"",""trial"",""time""
""fullscreenenter"",""0"",""2709""
","
","
","""event"",""trial"",""time""
""fullscreenenter"",""0"",""2709""
","
","519.6999999880791","","","","","","","","50","0,1,0","2","countryside","74","probe-211","0.11373459179039984","0.8664739195607392","0.2705173636417707","1","","","","","","","",""
"","html-keyboard-response","245","1007750","0.0-132.0-1.0","""event"",""trial"",""time""
""fullscreenenter"",""0"",""2709""
","
","
","""event"",""trial"",""time""
""fullscreenenter"",""0"",""2709""
","
","null","<p></p>","null","","","","","","","","","","","","","","","","","","","","","","",""
"","do_trial","246","1012698","0.0-133.0-0.0","""event"",""trial"",""time""
""fullscreenenter"",""0"",""2709""
","
","
","""event"",""trial"",""time""
""fullscreenenter"",""0"",""2709""
","
","385.69999998807907","","","","","","","","50","0,1,0","2","countryside","75","probe-165","0.09126768302278843","0.7101429526633153","0.28334445916175","1","","","","","","","",""
"","html-keyboard-response","247","1013709","0.0-133.0-1.0","""event"",""trial"",""time""
""fullscreenenter"",""0"",""2709""
","
","
","""event"",""trial"",""time""
""fullscreenenter"",""0"",""2709""
","
","null","<p></p>","null","","","","","","","","","","","","","","","","","","","","","","",""
"","do_trial","248","1018948","0.0-134.0-0.0","""event"",""trial"",""time""
""fullscreenenter"",""0"",""2709""
","
","
","""event"",""trial"",""time""
""fullscreenenter"",""0"",""2709""
","
","652.6999999880791","","","","","","","","49","0,1,1","2","countryside","76","probe-60","0.07980210487564578","0.5837084927657132","0.25288443719412385","0","","","","","","","",""
"","html-keyboard-response","249","1019951","0.0-134.0-1.0","""event"",""trial"",""time""
""fullscreenenter"",""0"",""2709""
","
","
","""event"",""trial"",""time""
""fullscreenenter"",""0"",""2709""
","
","null","<p></p>","null","","","","","","","","","","","","","","","","","","","","","","",""
"","do_trial","250","1024963","0.0-135.0-0.0","""event"",""trial"",""time""
""fullscreenenter"",""0"",""2709""
","
","
","""event"",""trial"",""time""
""fullscreenenter"",""0"",""2709""
","
","467","","","","","","","","50","0,0,0","2","countryside","77","probe-177","0.1104257161661596","0.649663161036577","0.3273068970551535","0","","","","","","","",""
"","html-keyboard-response","251","1025979","0.0-135.0-1.0","""event"",""trial"",""time""
""fullscreenenter"",""0"",""2709""
","
","
","""event"",""trial"",""time""
""fullscreenenter"",""0"",""2709""
","
","null","<p></p>","null","","","","","","","","","","","","","","","","","","","","","","",""
"","do_trial","252","1031245","0.0-136.0-0.0","""event"",""trial"",""time""
""fullscreenenter"",""0"",""2709""
","
","
","""event"",""trial"",""time""
""fullscreenenter"",""0"",""2709""
","
","728","","","","","","","","50","0,0,0","2","countryside","78","probe-229","0.11301299169663973","0.7053849721207505","0.3445403837763152","0","","","","","","","",""
"","html-keyboard-response","253","1032258","0.0-136.0-1.0","""event"",""trial"",""time""
""fullscreenenter"",""0"",""2709""
","
","
","""event"",""trial"",""time""
""fullscreenenter"",""0"",""2709""
","
","null","<p></p>","null","","","","","","","","","","","","","","","","","","","","","","",""
"","do_trial","254","1037123","0.0-137.0-0.0","""event"",""trial"",""time""
""fullscreenenter"",""0"",""2709""
","
","
","""event"",""trial"",""time""
""fullscreenenter"",""0"",""2709""
","
","300","","","","","","","","51","1,0,0","2","countryside","79","probe-214","0.08232106252132802","0.6724207966201652","0.3403585018871115","0","","","","","","","",""
"","html-keyboard-response","255","1038127","0.0-137.0-1.0","""event"",""trial"",""time""
""fullscreenenter"",""0"",""2709""
","
","
","""event"",""trial"",""time""
""fullscreenenter"",""0"",""2709""
","
","null","<p></p>","null","","","","","","","","","","","","","","","","","","","","","","",""
"","do_trial","256","1044201","0.0-138.0-0.0","""event"",""trial"",""time""
""fullscreenenter"",""0"",""2709""
","
","
","""event"",""trial"",""time""
""fullscreenenter"",""0"",""2709""
","
","null","","","","","","","","null","0,1,0","2","countryside","80","probe-120","0.11064259904867595","0.4429702479639619","0.18443686960538166","","","","","","","","",""
"","html-keyboard-response","257","1045205","0.0-138.0-1.0","""event"",""trial"",""time""
""fullscreenenter"",""0"",""2709""
","
","
","""event"",""trial"",""time""
""fullscreenenter"",""0"",""2709""
","
","null","<p></p>","null","","","","","","","","","","","","","","","","","","","","","","",""
"","do_trial","258","1050221","0.0-139.0-0.0","""event"",""trial"",""time""
""fullscreenenter"",""0"",""2709""
","
","
","""event"",""trial"",""time""
""fullscreenenter"",""0"",""2709""
","
","446","","","","","","","","50","0,0,0","2","countryside","81","probe-74","0.11324807306617395","0.49987367567112373","0.17701829309246198","0","","","","","","","",""
"","html-keyboard-response","259","1051236","0.0-139.0-1.0","""event"",""trial"",""time""
""fullscreenenter"",""0"",""2709""
","
","
","""event"",""trial"",""time""
""fullscreenenter"",""0"",""2709""
","
","null","<p></p>","null","","","","","","","","","","","","","","","","","","","","","","",""
"","do_trial","260","1056135","0.0-140.0-0.0","""event"",""trial"",""time""
""fullscreenenter"",""0"",""2709""
","
","
","""event"",""trial"",""time""
""fullscreenenter"",""0"",""2709""
","
","334.80000001192093","","","","","","","","49","0,1,0","2","countryside","82","probe-156","0.16695225720304524","0.5004573011442061","0.3158420523764555","0","","","","","","","",""
"","html-keyboard-response","261","1057152","0.0-140.0-1.0","""event"",""trial"",""time""
""fullscreenenter"",""0"",""2709""
","
","
","""event"",""trial"",""time""
""fullscreenenter"",""0"",""2709""
","
","null","<p></p>","null","","","","","","","","","","","","","","","","","","","","","","",""
