"success","trial_type","trial_index","time_elapsed","internal_node_id","rt","stimulus","key_press","subject_id","response","choice_outcomes","context_n","context_img_id","trial_n","probe_img_id","pR_red","pR_white","pR_black","outcome","contextArray_ind","validImageProbes","invalidImageProbes","pRew_Red","pRew_White","pRew_Black","availableForMemProbe","choice_blocks"
"true","fullscreen","0","9941","0.0-0.0","","","","","","","","","","","","","","","","","","","","","",""
"","pavlovia","1","9945","0.0-1.0","","","","","","","","","","","","","","","","","","","","","",""
"","html-keyboard-response","2","26103","0.0-2.0","16156.199999988079","<div class='center'><p>Welcome! This is the first day of the experiment which will last ~30 minutes. In this experiment, you are the head captain of a pirate ship traveling around the world to different places. You will complete several different tasks during this experiment. Here is an overview of these tasks:</p><br><p>Day 1</p><p>1. Tutorial and quiz</p><p>2. Pick a pirate game in 6 different places</p><br><p>Day 2</p><p>3. Pick a pirate game and memory game</p><p>4. Final questions and payment</p><br><p>If you complete the entire experiment, you will receive $15 and a possible bonus payment.</p><p><b>[Press the space bar to begin the tutorial]</b></p></div>","32","6153985e7640f9294606c01b","","","","","","","","","","","","","","","","","",""
"","html-keyboard-response","3","34549","0.0-3.0","8445.699999988079","<div class='center'><p>You’ll stop at these 6 islands on your journey. You'll be able to see them in the distance from your ship.</p><p><img src='run_exp/static/images/contexts/all_contexts.png' height='500'></p><p><b>[Press the space bar to continue]</b></p></div>","32","","","","","","","","","","","","","","","","","","",""
"","html-keyboard-response","4","46166","0.0-4.0","11615.399999976158","<div class='center'><p> The pirates on your ship will rob other ships as they leave island</p> These ships have just sold their things to the people living on the island, so they will have lots and lots of gold on them.</p><p><img src='run_exp/static/images/tutorial/ship_center.png' height='400'></p><p><b>[Press the space bar to continue]</b></p></div>","32","","","","","","","","","","","","","","","","","","",""
"","html-keyboard-response","5","69341","0.0-5.0","23172.900000035763","<div class='center'><p>As the head captain, you do not have to rob any ships yourself.</p><p>Another pirate will be doing the robbing for you. </p><p><img src='run_exp/static/images/tutorial/pirates_all_crop.png' height='200'></p><p>If they could rob the ship, then you will get a stack of gold coins like this:</p><p><img src='run_exp/static/images/tutorial/reward.png' height='150'></p><p> If they couldn't rob the ship, then you will get no gold coins and you'll see a big red x like this: </p><p><img src='run_exp/static/images/tutorial/reward_no.png' height='150'></p><p> How much bonus money you make is based on how many gold coins you collect.</p><p><b>[Press the space bar to continue]</b></p><div>","32","","","","","","","","","","","","","","","","","","",""
"","html-keyboard-response","6","84603","0.0-6.0","15260.600000023842","<div class='center'><p>Even the most skilled pirate can not rob EVERY ship.</p><p> Some ships will have very strong defenses against pirate attacks.</p><p> For example, blue beard, here, is very, very good at robbing ships.</p><p> You can press the <b>‘1’</b> button on the keyboard to choose him.</p><p> Try choosing him 10 times to see how often he can rob a ship. </p><p><img src='run_exp/static/images/tutorial/blue.png' height='500'></p></div>","49","","","","","","","","","","","","","","","","","","",""
"","html-keyboard-response","7","86109","0.0-7.0","null","<div class='center'><p><img src='run_exp/static/images/tutorial/blue_win.png' height='500'></p></div>","null","","","","","","","","","","","","","","","","","","",""
"","html-keyboard-response","8","87329","0.0-8.0","1219.4000000357628","<div class='center'><img src='run_exp/static/images/tutorial/blue.png' height='500'></p></div>","49","","","","","","","","","","","","","","","","","","",""
"","html-keyboard-response","9","88836","0.0-9.0","null","<div class='center'><p><img src='run_exp/static/images/tutorial/blue_win.png' height='500'></p></div>","null","","","","","","","","","","","","","","","","","","",""
"","html-keyboard-response","10","89161","0.0-10.0","324.89999997615814","<div class='center'><img src='run_exp/static/images/tutorial/blue.png' height='500'></p></div>","49","","","","","","","","","","","","","","","","","","",""
"","html-keyboard-response","11","90664","0.0-11.0","null","<div class='center'><p><img src='run_exp/static/images/tutorial/blue_win.png' height='500'></p></div>","null","","","","","","","","","","","","","","","","","","",""
"","html-keyboard-response","12","91025","0.0-12.0","360.80000001192093","<div class='center'><img src='run_exp/static/images/tutorial/blue.png' height='500'></p></div>","49","","","","","","","","","","","","","","","","","","",""
"","html-keyboard-response","13","92531","0.0-13.0","null","<div class='center'><p><img src='run_exp/static/images/tutorial/blue_no_win.png' height='500'></p></div>","null","","","","","","","","","","","","","","","","","","",""
"","html-keyboard-response","14","92881","0.0-14.0","349.80000001192093","<div class='center'><img src='run_exp/static/images/tutorial/blue.png' height='500'></p></div>","49","","","","","","","","","","","","","","","","","","",""
"","html-keyboard-response","15","94387","0.0-15.0","null","<div class='center'><p><img src='run_exp/static/images/tutorial/blue_win.png' height='500'></p></div>","null","","","","","","","","","","","","","","","","","","",""
"","html-keyboard-response","16","94762","0.0-16.0","374.60000002384186","<div class='center'><img src='run_exp/static/images/tutorial/blue.png' height='500'></p></div>","49","","","","","","","","","","","","","","","","","","",""
"","html-keyboard-response","17","96265","0.0-17.0","null","<div class='center'><p><img src='run_exp/static/images/tutorial/blue_win.png' height='500'></p></div>","null","","","","","","","","","","","","","","","","","","",""
"","html-keyboard-response","18","96650","0.0-18.0","384.30000001192093","<div class='center'><img src='run_exp/static/images/tutorial/blue.png' height='500'></p></div>","49","","","","","","","","","","","","","","","","","","",""
"","html-keyboard-response","19","98151","0.0-19.0","null","<div class='center'><p><img src='run_exp/static/images/tutorial/blue_win.png' height='500'></p></div>","null","","","","","","","","","","","","","","","","","","",""
"","html-keyboard-response","20","98570","0.0-20.0","418.5","<div class='center'><img src='run_exp/static/images/tutorial/blue.png' height='500'></p></div>","49","","","","","","","","","","","","","","","","","","",""
"","html-keyboard-response","21","100076","0.0-21.0","null","<div class='center'><p><img src='run_exp/static/images/tutorial/blue_no_win.png' height='500'></p></div>","null","","","","","","","","","","","","","","","","","","",""
"","html-keyboard-response","22","100490","0.0-22.0","412.89999997615814","<div class='center'><img src='run_exp/static/images/tutorial/blue.png' height='500'></p></div>","49","","","","","","","","","","","","","","","","","","",""
"","html-keyboard-response","23","101993","0.0-23.0","null","<div class='center'><p><img src='run_exp/static/images/tutorial/blue_win.png' height='500'></p></div>","null","","","","","","","","","","","","","","","","","","",""
"","html-keyboard-response","24","102498","0.0-24.0","503.69999998807907","<div class='center'><img src='run_exp/static/images/tutorial/blue.png' height='500'></p></div>","49","","","","","","","","","","","","","","","","","","",""
"","html-keyboard-response","25","104000","0.0-25.0","null","<div class='center'><p><img src='run_exp/static/images/tutorial/blue_win.png' height='500'></p></div>","null","","","","","","","","","","","","","","","","","","",""
"","html-keyboard-response","26","106773","0.0-26.0","2772","<div class='center'><p> See, he could rob the ships most of the time but not every time. </p><p><b>[Press the space bar to continue]</b></p></div>","32","","","","","","","","","","","","","","","","","","",""
"","html-keyboard-response","27","114495","0.0-27.0","7721.099999964237","<div class='center'><p>You will get to choose which of three pirates you want to rob the next ship. <p>Press the <b>‘1’</b> button on your keyboard to pick the pirate with the red beard.</p><p> Press <b>‘2’</b> to pick the pirate with the white beard.</p><p> Press <b>‘3’</b> to pick the pirate with the black beard.</p><p>Try picking a pirate now!</p><p><img src='run_exp/static/images/tutorial/all_pirates.png' height='500'></p></div>","49","","","","","","","","","","","","","","","","","","",""
"","html-keyboard-response","28","117840","0.0-28.0-0.0","3342.600000023842","<div class='center'><p>This pirate could rob the ship!</p><p><img src='run_exp/static/images/tutorial/red_win.png' height='500'></p><p><b>[Press the space bar to continue]</b></p></div>","32","","","","","","","","","","","","","","","","","","",""
"","html-keyboard-response","29","119975","0.0-28.0-1.0","2134.699999988079","<div class='center'><p>Now try choosing another</p><p><img src='run_exp/static/images/tutorial/all_pirates.png' height='500'></p></div>","50","","","","","","","","","","","","","","","","","","",""
"","html-keyboard-response","30","121239","0.0-29.0-0.0","1262.8999999761581","<div class='center'><p>This pirate could not rob the ship!</p><p><img src='run_exp/static/images/tutorial/white_no_win.png' height='500'></p><p><b>[Press the space bar to continue]</b></p></div>","32","","","","","","","","","","","","","","","","","","",""
"","html-keyboard-response","31","135206","0.0-30.0-0.0","13965.300000011921","<div class='center'><p>If you don’t make your choice fast enough, you’ll have to wait a few seconds before you can make another one. </p><p>You can’t collect more gold coins. You just have to sit and wait.</p><p><img src='run_exp/static/images/miscellaneous/hurry_up.png' height='500'></p><p><b>[Press the space bar to continue]</b></p></div>","32","","","","","","","","","","","","","","","","","","",""
"","html-keyboard-response","32","183525","0.0-30.0-1.0","48316.30000001192","<div class='center'><p>Once you choose a pirate, you’ll be shown the ship they are robbing.</p><p>You will never rob the same ship twice.</p><p>Ships can be told apart from one another by the image on them.</p><p> Every time you see a ship, you will have to remember on which island you saw it.</p><p> Remembering correctly will help you win more bonus money!</p><p>A helpful strategy is to try to come up with a story of the object on the ship interacting with the current island scene.</p><p> For example, here, you could imagine a mug full of water in the desert. </p><p>For a ship with an apple on it on the forest island, you could imagine an apple falling from a tree in the forest.</p><p><img src='run_exp/static/images/tutorial/example_probe.png' height='500'></p><p><b>[Press the space bar to continue]</b></p></div>","32","","","","","","","","","","","","","","","","","","",""
"","html-keyboard-response","33","195515","0.0-30.0-2.0","11989.5","<div class='center'><p>How good a pirate is at robbing ships will depend on the current island.</p><p> A pirate may have visited the island many times before and gained a lot of practice robbing ships there.</p><p>So, they're more likely to bring back gold coins than a pirate who has never visited this island before. </p><p><b>[Press the space bar to continue]</b></p></div>","32","","","","","","","","","","","","","","","","","","",""
"","html-keyboard-response","34","217861","0.0-30.0-3.0","22341.099999964237","<div class='center'><p>How good a pirate is at robbing ships can also change over the time spent on the island<p> Ships may hear from islanders about the pirates coming and will improve their protection against the attack. This may make it harder to rob them.</p><p> Ships may also become lazy and lower their protection. This may make it easier to rob them.</p><br><p>Things are always changing on the high seas! So, try your best to pay attention!</p><p><img src='run_exp/static/images/tutorial/contingency.png' height='500'></p><p><b>[Press the space bar to continue]</b></p></div>","32","","","","","","","","","","","","","","","","","","",""
"","html-keyboard-response","35","246615","0.0-30.0-4.0","28748.69999998808","<div class='center'><p>Let's go over the instructions quickly again.You have two important things to do: </p><b><p> 1. Pick the pirate who is the best at robbing ships on the current island.</p></b><b><p> 2. Remember on which island a ship was robbed.</p> </b><p>How much bonus money you make is based on both. </p><br><p>Let’s try a practice game. The game will start by showing you the pirates. First pick a pirate using the <b> 1, 2, 3 </b> buttons on your keyboard. When you are shown a ship, try to remember the island you’re on by making up a story.</p><p> You only have 3 seconds to pick a pirate, so please make a choice quickly! If you are too slow, you’ll have to wait a bit during the time out.</p><p> Don’t feel rushed, but please do try to make a choice every time.</p><p>This is just a practice game, so you’re not playing for money. </p><p> Good luck, remember press <b>'1'</b> to choose red beard, <b>'2'</b> to choose white beard, and <b>'3'</b> to choose black beard</p><p><b>[Press the space bar to begin the practice game]</b></p></div>","32","","","","","","","","","","","","","","","","","","",""
"","do_welcome","36","248125","0.0-30.0-5.0","null","","","","null","","","","","","","","","","","","","","","","",""
"","do_trial","37","253447","0.0-30.0-6.0","810.2999999523163","","","","49","1,0,0","","","","","","","","","","","","","","","",""
"","html-keyboard-response","38","254450","0.0-31.0-0.0","null","<p></p>","null","","","","","","","","","","","","","","","","","","",""
"","do_trial","39","260145","0.0-31.0-1.0","1184.0999999642372","","","","49","1,1,0","","","","","","","","","","","","","","","",""
"","html-keyboard-response","40","261150","0.0-32.0-0.0","null","<p></p>","null","","","","","","","","","","","","","","","","","","",""
"","do_trial","41","267019","0.0-32.0-1.0","1361.8999999761581","","","","49","1,0,1","","","","","","","","","","","","","","","",""
"","html-keyboard-response","42","268020","0.0-33.0-0.0","null","<p></p>","null","","","","","","","","","","","","","","","","","","",""
"","do_trial","43","273231","0.0-33.0-1.0","699.9000000357628","","","","49","0,1,0","","","","","","","","","","","","","","","",""
"","html-keyboard-response","44","274237","0.0-34.0-0.0","null","<p></p>","null","","","","","","","","","","","","","","","","","","",""
"","do_trial","45","280212","0.0-34.0-1.0","1469.5","","","","49","1,0,0","","","","","","","","","","","","","","","",""
"","do_bye","46","281718","0.0-35.0-0.0","null","","","","null","","","","","","","","","","","","","","","","",""
"","do_travel","47","287721","0.0-35.0-1.0","null","","","","null","","","","","","","","","","","","","","","","",""
"","do_welcome","48","289230","0.0-35.0-2.0","null","","","","null","","","","","","","","","","","","","","","","",""
"","do_trial","49","294971","0.0-35.0-3.0","1235.7000000476837","","","","50","1,0,0","","","","","","","","","","","","","","","",""
"","html-keyboard-response","50","295976","0.0-36.0-0.0","null","<p></p>","null","","","","","","","","","","","","","","","","","","",""
"","do_trial","51","301213","0.0-36.0-1.0","732.1000000238419","","","","50","1,0,1","","","","","","","","","","","","","","","",""
"","html-keyboard-response","52","302219","0.0-37.0-0.0","null","<p></p>","null","","","","","","","","","","","","","","","","","","",""
"","do_trial","53","307322","0.0-37.0-1.0","594.5","","","","51","1,1,0","","","","","","","","","","","","","","","",""
"","html-keyboard-response","54","308328","0.0-38.0-0.0","null","<p></p>","null","","","","","","","","","","","","","","","","","","",""
"","do_trial","55","313525","0.0-38.0-1.0","688","","","","51","0,0,1","","","","","","","","","","","","","","","",""
"","html-keyboard-response","56","314529","0.0-39.0-0.0","null","<p></p>","null","","","","","","","","","","","","","","","","","","",""
"","do_trial","57","319672","0.0-39.0-1.0","632.5","","","","51","1,0,1","","","","","","","","","","","","","","","",""
"","html-keyboard-response","58","322418","0.0-40.0-0.0","2744.399999976158","<div class='center'><p><img src='run_exp/static/images/tutorial/prac_best_pirate.png'  height='500'></p></div>","49","","","","","","","","","","","","","","","","","","",""
"","html-keyboard-response","59","324610","0.0-41.0-0.0","2191","<div class='center'><p>That's correct! Red beard was the best.</p><p><b>[Press the space bar to continue]</b></p></div>","32","","","","","","","","","","","","","","","","","","",""
"","html-keyboard-response","60","330267","0.0-41.0-1.0","5655.900000035763","<div class='center'><p><img src='run_exp/static/images/tutorial/prac_source.png'  height='500'></p></div>","50","","","","","","","","","","","","","","","","","","",""
"","html-keyboard-response","61","331571","0.0-42.0-0.0","1302.800000011921","<div class='center'><p>That's correct! You saw this ship on the cavern island.</p><p><b>[Press the space bar to continue]</b></p></div>","32","","","","","","","","","","","","","","","","","","",""
"","html-keyboard-response","62","336381","0.0-42.0-1.0","4809.100000023842","<div class='center'><p>Good job on the practice game! Now, you will be asked you some true or false questions to make sure you really understand the rules of the game.</p><p> Press <b>'1'</b> on the keyboard for true and press <b>'2'</b> for false.</p><p><b>[Press the space bar to begin the quiz]</b></p></div>","32","","","","","","","","","","","","","","","","","","",""
"","html-keyboard-response","63","341003","0.0-42.0-2.0","4620.699999988079","<div class='center'><p>You win bonus money by making choices as fast as possible.</p><p>Press 1 for true and press  2 for false.</p></div>","50","","","","","","","","","","","","","","","","","","",""
"","html-keyboard-response","64","342026","0.0-43.0-0.0","1022.5999999642372","<div class='center'><p>That's correct!</p> <p><b>[press the space bar to continue with the quiz]</b></p></div>","32","","","","","","","","","","","","","","","","","","",""
"","html-keyboard-response","65","345394","0.0-43.0-1.0","3367.399999976158","<div class='center'><p>You press the <b>‘3’</b> button on the keyboard to choose the red bearded pirate. </p><p>Press 1 for true and press  2 for false.</p></div>","50","","","","","","","","","","","","","","","","","","",""
"","html-keyboard-response","66","346506","0.0-44.0-0.0","1111.199999988079","<div class='center'><p>That's correct!</p> <p><b>[press the space bar to continue with the quiz]</b></p></div>","32","","","","","","","","","","","","","","","","","","",""
"","html-keyboard-response","67","350990","0.0-44.0-1.0","4483.099999964237","<div class='center'><p>The pirate who is the best at robbing ships on the first island will be the best on every other island.</p><p>Press 1 for true and press  2 for false.</p></div>","50","","","","","","","","","","","","","","","","","","",""
"","html-keyboard-response","68","351911","0.0-45.0-0.0","919.6999999880791","<div class='center'><p>That's correct!</p> <p><b>[press the space bar to continue with the quiz]</b></p></div>","32","","","","","","","","","","","","","","","","","","",""
"","html-keyboard-response","69","356395","0.0-45.0-1.0","4483.399999976158","<div class='center'><p>You should remember the island where a pirate robbed a ship.</p><p>Press 1 for true and press  2 for false.</p></div>","49","","","","","","","","","","","","","","","","","","",""
"","html-keyboard-response","70","357035","0.0-46.0-0.0","632.3000000119209","<div class='center'><p>That's correct!</p> <p><b>[press the space bar to continue with the quiz]</b></p></div>","32","","","","","","","","","","","","","","","","","","",""
"","html-keyboard-response","71","358763","0.0-47.0-0.0","1727.199999988079","<div class='center'><p>Good job! You’re now ready to move on to the real game!</p> <p><br>[press the space bar to begin!]</br></p></div>","32","","","","","","","","","","","","","","","","","","",""
"","do_welcome","72","360272","0.0-48.0-0.0","null","","","","null","","","","","","","","","","","","","","","","",""
"","do_trial","73","365452","0.0-49.0-0.0","637.5","","","","49","0,1,1","0","city","0","probe-49","0.6","0.3","0.1","0","","","","","","","",""
"","html-keyboard-response","74","366458","0.0-49.0-1.0","null","<p></p>","null","","","","","","","","","","","","","","","","","","",""
"","do_trial","75","371466","0.0-50.0-0.0","468","","","","49","0,0,0","0","city","1","probe-123","0.567263949329918","0.19038670137899882","0.09504826813272513","0","","","","","","","",""
"","html-keyboard-response","76","372470","0.0-50.0-1.0","null","<p></p>","null","","","","","","","","","","","","","","","","","","",""
"","do_trial","77","377444","0.0-51.0-0.0","430.69999998807907","","","","50","1,0,1","0","city","2","probe-76","0.5679731230550351","0.21990578957265386","0.18273516313115187","0","","","","","","","",""
"","html-keyboard-response","78","378447","0.0-51.0-1.0","null","<p></p>","null","","","","","","","","","","","","","","","","","","",""
"","do_trial","79","383374","0.0-52.0-0.0","385.69999998807907","","","","50","0,0,1","0","city","3","probe-30","0.5855509034693658","0.3262268395326048","0.10410951828395117","0","","","","","","","",""
"","html-keyboard-response","80","384377","0.0-52.0-1.0","null","<p></p>","null","","","","","","","","","","","","","","","","","","",""
"","do_trial","81","389311","0.0-53.0-0.0","393.19999998807907","","","","51","1,0,0","0","city","4","probe-22","0.4919884503585065","0.3460758629600704","0.07499872778687537","0","","","","","","","",""
"","html-keyboard-response","82","390316","0.0-53.0-1.0","null","<p></p>","null","","","","","","","","","","","","","","","","","","",""
"","do_trial","83","395242","0.0-54.0-0.0","383.89999997615814","","","","51","1,0,0","0","city","5","probe-152","0.569668237406435","0.24088065104436104","0.05938073324295374","0","","","","","","","",""
"","html-keyboard-response","84","396247","0.0-54.0-1.0","null","<p></p>","null","","","","","","","","","","","","","","","","","","",""
"","do_trial","85","401479","0.0-55.0-0.0","691.6999999880791","","","","49","1,0,0","0","city","6","probe-20","0.5350540550528521","0.2029457254070888","0.06331368753068928","1","","","","","","","",""
"","html-keyboard-response","86","402484","0.0-55.0-1.0","null","<p></p>","null","","","","","","","","","","","","","","","","","","",""
"","do_trial","87","407636","0.0-56.0-0.0","612.3999999761581","","","","49","0,0,0","0","city","7","probe-147","0.6121711301187621","0.29262461748275426","0.17448233627700482","0","","","","","","","",""
"","html-keyboard-response","88","408642","0.0-56.0-1.0","null","<p></p>","null","","","","","","","","","","","","","","","","","","",""
"","do_trial","89","413751","0.0-57.0-0.0","565.4000000357628","","","","50","1,0,1","0","city","8","probe-94","0.7115743405495836","0.38948500293642496","0.06268937060073816","0","","","","","","","",""
"","html-keyboard-response","90","414756","0.0-57.0-1.0","null","<p></p>","null","","","","","","","","","","","","","","","","","","",""
"","do_trial","91","419858","0.0-58.0-0.0","564.3000000119209","","","","50","0,1,0","0","city","9","probe-79","0.5949894622277355","0.3673374457971631","0.25260630799927286","1","","","","","","","",""
"","html-keyboard-response","92","420863","0.0-58.0-1.0","null","<p></p>","null","","","","","","","","","","","","","","","","","","",""
"","do_trial","93","425944","0.0-59.0-0.0","541.8999999761581","","","","50","1,0,0","0","city","10","probe-205","0.6783659819234058","0.298604980161076","0.0999936087153066","0","","","","","","","",""
"","html-keyboard-response","94","426950","0.0-59.0-1.0","null","<p></p>","null","","","","","","","","","","","","","","","","","","",""
"","do_trial","95","431983","0.0-60.0-0.0","490.89999997615814","","","","49","1,0,0","0","city","11","probe-51","0.6888240229125424","0.3897760144819948","0.23234538556514878","1","","","","","","","",""
"","html-keyboard-response","96","432989","0.0-60.0-1.0","null","<p></p>","null","","","","","","","","","","","","","","","","","","",""
"","do_trial","97","437993","0.0-61.0-0.0","465","","","","49","0,0,0","0","city","12","probe-183","0.6451602805468555","0.2735587787907501","0.3367816315539284","0","","","","","","","",""
"","html-keyboard-response","98","438999","0.0-61.0-1.0","null","<p></p>","null","","","","","","","","","","","","","","","","","","",""
"","do_trial","99","444089","0.0-62.0-0.0","550.5","","","","49","1,0,0","0","city","13","probe-182","0.6405570265793744","0.34351777507737313","0.28962318335110804","1","","","","","","","",""
"","html-keyboard-response","100","445095","0.0-62.0-1.0","null","<p></p>","null","","","","","","","","","","","","","","","","","","",""
"","do_trial","101","450190","0.0-63.0-0.0","552.3000000119209","","","","49","1,1,0","0","city","14","probe-193","0.5841922282385265","0.16229098209325357","0.24261349705703242","1","","","","","","","",""
"","html-keyboard-response","102","451193","0.0-63.0-1.0","null","<p></p>","null","","","","","","","","","","","","","","","","","","",""
"","do_trial","103","456298","0.0-64.0-0.0","562.1000000238419","","","","49","1,0,0","0","city","15","probe-88","0.5848611999105799","0.24604666773854827","0.22174470164877097","1","","","","","","","",""
"","html-keyboard-response","104","457301","0.0-64.0-1.0","null","<p></p>","null","","","","","","","","","","","","","","","","","","",""
"","do_trial","105","462909","0.0-65.0-0.0","1067.3999999761581","","","","49","1,0,0","0","city","16","probe-122","0.6503948247415566","0.20324953200394774","0.20890571735570052","1","","","","","","","",""
"","html-keyboard-response","106","463913","0.0-65.0-1.0","null","<p></p>","null","","","","","","","","","","","","","","","","","","",""
"","do_trial","107","469209","0.0-66.0-0.0","753.5999999642372","","","","49","0,0,0","0","city","17","probe-107","0.6551027345107994","0.2903270518212133","0.14997863211336604","0","","","","","","","",""
"","html-keyboard-response","108","470212","0.0-66.0-1.0","null","<p></p>","null","","","","","","","","","","","","","","","","","","",""
"","do_trial","109","475076","0.0-67.0-0.0","322.10000002384186","","","","49","1,0,0","0","city","18","probe-142","0.4937799720795279","0.21706279806696388","0.15389717253955426","1","","","","","","","",""
"","html-keyboard-response","110","476082","0.0-67.0-1.0","null","<p></p>","null","","","","","","","","","","","","","","","","","","",""
"","do_trial","111","481680","0.0-68.0-0.0","1054.6000000238419","","","","49","0,1,0","0","city","19","probe-60","0.5694623754289411","0.3430371063997695","0.19281864247440106","0","","","","","","","",""
"","html-keyboard-response","112","482682","0.0-68.0-1.0","null","<p></p>","null","","","","","","","","","","","","","","","","","","",""
"","do_trial","113","487964","0.0-69.0-0.0","741.5999999642372","","","","49","0,0,1","0","city","20","probe-96","0.531015209500109","0.31005601078185957","0.06476960579616453","0","","","","","","","",""
"","html-keyboard-response","114","488970","0.0-69.0-1.0","null","<p></p>","null","","","","","","","","","","","","","","","","","","",""
"","do_trial","115","494277","0.0-70.0-0.0","766.3000000119209","","","","49","0,1,1","0","city","21","probe-220","0.48839447025980337","0.36403944963185547","0.08595351965423802","0","","","","","","","",""
"","html-keyboard-response","116","495279","0.0-70.0-1.0","null","<p></p>","null","","","","","","","","","","","","","","","","","","",""
"","do_trial","117","500325","0.0-71.0-0.0","503.60000002384186","","","","50","1,0,0","0","city","22","probe-33","0.5768534882612673","0.3177062260249406","0.09891234693687279","0","","","","","","","",""
"","html-keyboard-response","118","501327","0.0-71.0-1.0","null","<p></p>","null","","","","","","","","","","","","","","","","","","",""
"","do_trial","119","506378","0.0-72.0-0.0","512.6999999880791","","","","51","1,0,0","0","city","23","probe-225","0.5807504641673835","0.25703561216973425","0.1173538695974397","0","","","","","","","",""
"","html-keyboard-response","120","507384","0.0-72.0-1.0","null","<p></p>","null","","","","","","","","","","","","","","","","","","",""
"","do_trial","121","512392","0.0-73.0-0.0","467.60000002384186","","","","51","1,0,0","0","city","24","probe-141","0.5738472253694679","0.30822489564090305","0.08166211375599876","0","","","","","","","",""
"","html-keyboard-response","122","513393","0.0-73.0-1.0","null","<p></p>","null","","","","","","","","","","","","","","","","","","",""
"","do_trial","123","518488","0.0-74.0-0.0","554.2000000476837","","","","49","0,0,0","0","city","25","probe-214","0.5456250209668493","0.3420671439653241","0.06340942929389416","0","","","","","","","",""
"","html-keyboard-response","124","519494","0.0-74.0-1.0","null","<p></p>","null","","","","","","","","","","","","","","","","","","",""
"","do_trial","125","524937","0.0-75.0-0.0","900.1999999880791","","","","49","0,0,0","0","city","26","probe-100","0.5847047641038156","0.3964376358556017","0.11464384485484569","0","","","","","","","",""
"","html-keyboard-response","126","525941","0.0-75.0-1.0","null","<p></p>","null","","","","","","","","","","","","","","","","","","",""
"","do_trial","127","531044","0.0-76.0-0.0","560.5","","","","49","0,1,0","0","city","27","probe-195","0.6344621990421755","0.3997452312261841","0.1569862878531212","0","","","","","","","",""
"","html-keyboard-response","128","532047","0.0-76.0-1.0","null","<p></p>","null","","","","","","","","","","","","","","","","","","",""
"","do_trial","129","537064","0.0-77.0-0.0","476","","","","51","1,0,0","0","city","28","probe-90","0.5228185741680139","0.26469672332943256","0.09123873125591747","0","","","","","","","",""
"","html-keyboard-response","130","538070","0.0-77.0-1.0","null","<p></p>","null","","","","","","","","","","","","","","","","","","",""
"","do_trial","131","543194","0.0-78.0-0.0","586","","","","51","1,1,1","0","city","29","probe-41","0.5938381338841004","0.22970263534527402","0.20446416291109715","1","","","","","","","",""
"","html-keyboard-response","132","544200","0.0-78.0-1.0","null","<p></p>","null","","","","","","","","","","","","","","","","","","",""
"","do_bye","133","545705","0.0-79.0-0.0","null","","","","null","","","","","","","","","","","","","","","","",""
"","do_travel","134","551712","0.0-80.0-0.0","null","","","","null","","","","","","","","","","","","","","","","",""
"","do_welcome","135","553222","0.0-80.0-1.0","null","","","","null","","","","","","","","","","","","","","","","",""
"","do_trial","136","558759","0.0-81.0-0.0","998.4000000357628","","","","50","1,0,0","1","mountain","30","probe-28","1","0.19638912960563035","0.16645272394396693","0","","","","","","","",""
"","html-keyboard-response","137","559764","0.0-81.0-1.0","null","<p></p>","null","","","","","","","","","","","","","","","","","","",""
"","do_trial","138","564725","0.0-82.0-0.0","419.69999998807907","","","","50","1,0,0","1","mountain","31","probe-218","1","0.1363567684266031","0.23043638592158558","0","","","","","","","",""
"","html-keyboard-response","139","565729","0.0-82.0-1.0","null","<p></p>","null","","","","","","","","","","","","","","","","","","",""
"","do_trial","140","570685","0.0-83.0-0.0","414.10000002384186","","","","50","1,0,0","1","mountain","32","probe-115","1","0.15521534489829944","0.24897342913988518","0","","","","","","","",""
"","html-keyboard-response","141","571686","0.0-83.0-1.0","null","<p></p>","null","","","","","","","","","","","","","","","","","","",""
"","do_trial","142","576725","0.0-84.0-0.0","498","","","","51","1,0,0","1","mountain","33","probe-192","0.8433097813353945","0.16424268417242516","0.28630634359746004","0","","","","","","","",""
"","html-keyboard-response","143","577731","0.0-84.0-1.0","null","<p></p>","null","","","","","","","","","","","","","","","","","","",""
"","do_trial","144","582784","0.0-85.0-0.0","510","","","","51","1,0,1","1","mountain","34","probe-09","0.7165941405575619","0.2754824164343675","0.30799141941808994","1","","","","","","","",""
"","html-keyboard-response","145","583788","0.0-85.0-1.0","null","<p></p>","null","","","","","","","","","","","","","","","","","","",""
"","do_trial","146","588916","0.0-86.0-0.0","587.0999999642372","","","","51","1,0,0","1","mountain","35","probe-146","0.6794458407041932","0.3486556202356685","0.21149039395341318","0","","","","","","","",""
"","html-keyboard-response","147","589921","0.0-86.0-1.0","null","<p></p>","null","","","","","","","","","","","","","","","","","","",""
"","do_trial","148","594821","0.0-87.0-0.0","357.5","","","","51","1,0,0","1","mountain","36","probe-62","0.6317416452930779","0.24043585577887702","0.11046094685771099","0","","","","","","","",""
"","html-keyboard-response","149","595824","0.0-87.0-1.0","null","<p></p>","null","","","","","","","","","","","","","","","","","","",""
"","do_trial","150","600805","0.0-88.0-0.0","438.5","","","","49","1,1,0","1","mountain","37","probe-150","0.6504667240673199","0.2889476215663634","0.13106526930051765","1","","","","","","","",""
"","html-keyboard-response","151","601810","0.0-88.0-1.0","null","<p></p>","null","","","","","","","","","","","","","","","","","","",""
"","do_trial","152","606796","0.0-89.0-0.0","443.4000000357628","","","","49","1,0,0","1","mountain","38","probe-43","0.698368514027514","0.24227568874511804","0.25187284006785554","1","","","","","","","",""
"","html-keyboard-response","153","607797","0.0-89.0-1.0","null","<p></p>","null","","","","","","","","","","","","","","","","","","",""
"","do_trial","154","612694","0.0-90.0-0.0","357.39999997615814","","","","49","0,0,0","1","mountain","39","probe-130","0.6683938457089252","0.10603614065580766","0.2263117543127439","0","","","","","","","",""
"","html-keyboard-response","155","613699","0.0-90.0-1.0","null","<p></p>","null","","","","","","","","","","","","","","","","","","",""
"","do_trial","156","618982","0.0-91.0-0.0","740.6000000238419","","","","49","1,0,0","1","mountain","40","probe-05","0.6442447985548482","0.18847100240558448","0.11212292823528569","1","","","","","","","",""
"","html-keyboard-response","157","619985","0.0-91.0-1.0","null","<p></p>","null","","","","","","","","","","","","","","","","","","",""
"","do_trial","158","625755","0.0-92.0-0.0","1231.300000011921","","","","49","0,0,0","1","mountain","41","probe-153","0.5494128166673516","0.29011563216134867","0.10616500707376308","0","","","","","","","",""
"","html-keyboard-response","159","626761","0.0-92.0-1.0","null","<p></p>","null","","","","","","","","","","","","","","","","","","",""
"","do_trial","160","631886","0.0-93.0-0.0","585.1999999880791","","","","49","1,0,0","1","mountain","42","probe-207","0.273996971543935","0.4983705854285887","0.09965836644775931","1","","","","","","","",""
"","html-keyboard-response","161","632887","0.0-93.0-1.0","null","<p></p>","null","","","","","","","","","","","","","","","","","","",""
"","do_trial","162","638363","0.0-94.0-0.0","936.1000000238419","","","","49","0,1,0","1","mountain","43","probe-137","0.3369646288922557","0.48629016155577454","0.08577122016298044","0","","","","","","","",""
"","html-keyboard-response","163","639370","0.0-94.0-1.0","null","<p></p>","null","","","","","","","","","","","","","","","","","","",""
"","do_trial","164","644239","0.0-95.0-0.0","326.89999997615814","","","","49","0,1,0","1","mountain","44","probe-15","0.34191151461755004","0.6248701179820356","0.057556136697139396","0","","","","","","","",""
"","html-keyboard-response","165","645242","0.0-95.0-1.0","null","<p></p>","null","","","","","","","","","","","","","","","","","","",""
"","do_trial","166","650149","0.0-96.0-0.0","366.5","","","","49","0,1,0","1","mountain","45","probe-77","0.16376268267208055","0.6702359310919169","0.33025579915023834","0","","","","","","","",""
"","html-keyboard-response","167","651151","0.0-96.0-1.0","null","<p></p>","null","","","","","","","","","","","","","","","","","","",""
"","do_trial","168","656003","0.0-97.0-0.0","314","","","","50","1,1,1","1","mountain","46","probe-121","0.1322821849869949","0.6037054847197468","0.4489423943624179","1","","","","","","","",""
"","html-keyboard-response","169","657009","0.0-97.0-1.0","null","<p></p>","null","","","","","","","","","","","","","","","","","","",""
"","do_trial","170","662043","0.0-98.0-0.0","491.89999997615814","","","","50","1,1,1","1","mountain","47","probe-13","0.11752995673213383","0.6096678800850136","0.4669157215698026","1","","","","","","","",""
"","html-keyboard-response","171","663048","0.0-98.0-1.0","null","<p></p>","null","","","","","","","","","","","","","","","","","","",""
"","do_trial","172","667992","0.0-99.0-0.0","402","","","","50","0,1,1","1","mountain","48","probe-223","0.12876739547627067","0.6232071352515568","0.41761483807347766","1","","","","","","","",""
"","html-keyboard-response","173","668995","0.0-99.0-1.0","null","<p></p>","null","","","","","","","","","","","","","","","","","","",""
"","do_trial","174","673877","0.0-100.0-0.0","341.69999998807907","","","","50","1,0,0","1","mountain","49","probe-196","0.08734741699409054","0.3847474840698965","0.35455877564984584","0","","","","","","","",""
"","html-keyboard-response","175","674879","0.0-100.0-1.0","null","<p></p>","null","","","","","","","","","","","","","","","","","","",""
"","do_trial","176","679871","0.0-101.0-0.0","450.69999998807907","","","","50","0,0,0","1","mountain","50","probe-198","0.1225389259939697","0.5100618966881012","0.5756943865529887","0","","","","","","","",""
"","html-keyboard-response","177","680877","0.0-101.0-1.0","null","<p></p>","null","","","","","","","","","","","","","","","","","","",""
"","do_trial","178","685994","0.0-102.0-0.0","578.3000000119209","","","","51","0,1,1","1","mountain","51","probe-163","0.13590370488286216","0.646576501139718","0.48133641483238154","1","","","","","","","",""
"","html-keyboard-response","179","687000","0.0-102.0-1.0","null","<p></p>","null","","","","","","","","","","","","","","","","","","",""
"","do_trial","180","691923","0.0-103.0-0.0","385","","","","51","1,1,1","1","mountain","52","probe-186","0.179866301700593","0.641591269679505","0.35614530905835123","1","","","","","","","",""
"","html-keyboard-response","181","692929","0.0-103.0-1.0","null","<p></p>","null","","","","","","","","","","","","","","","","","","",""
"","do_trial","182","697982","0.0-104.0-0.0","510.39999997615814","","","","51","1,1,1","1","mountain","53","probe-57","0.11961660223110121","0.7014796053254837","0.28017180388126633","1","","","","","","","",""
"","html-keyboard-response","183","698988","0.0-104.0-1.0","null","<p></p>","null","","","","","","","","","","","","","","","","","","",""
"","do_trial","184","704044","0.0-105.0-0.0","516.1000000238419","","","","51","0,0,1","1","mountain","54","probe-143","0.05446210254667478","0.5976564297776955","0.39897881471966473","1","","","","","","","",""
"","html-keyboard-response","185","705050","0.0-105.0-1.0","null","<p></p>","null","","","","","","","","","","","","","","","","","","",""
"","do_trial","186","710116","0.0-106.0-0.0","527.6999999880791","","","","51","0,1,1","1","mountain","55","probe-212","0.09284504831691098","0.533246706246017","0.3132369079098234","1","","","","","","","",""
"","html-keyboard-response","187","711123","0.0-106.0-1.0","null","<p></p>","null","","","","","","","","","","","","","","","","","","",""
"","do_trial","188","716161","0.0-107.0-0.0","496.89999997615814","","","","51","0,0,0","1","mountain","56","probe-209","0.051312085084631004","0.5800157432145902","0.30247657073411716","0","","","","","","","",""
"","html-keyboard-response","189","717164","0.0-107.0-1.0","null","<p></p>","null","","","","","","","","","","","","","","","","","","",""
"","do_trial","190","722684","0.0-108.0-0.0","980.3000000119209","","","","51","0,1,0","1","mountain","57","probe-98","0.06227388160093449","0.6838124528874012","0.14244166900071742","0","","","","","","","",""
"","html-keyboard-response","191","723688","0.0-108.0-1.0","null","<p></p>","null","","","","","","","","","","","","","","","","","","",""
"","do_trial","192","729111","0.0-109.0-0.0","885","","","","51","0,0,0","1","mountain","58","probe-171","0.06905189699157771","0.7132025203695596","0.19635248912422945","0","","","","","","","",""
"","html-keyboard-response","193","730117","0.0-109.0-1.0","null","<p></p>","null","","","","","","","","","","","","","","","","","","",""
"","do_trial","194","735121","0.0-110.0-0.0","459.69999998807907","","","","49","0,1,1","1","mountain","59","probe-72","0.2294167120659383","0.725509127217975","0.3191563247825665","0","","","","","","","",""
"","html-keyboard-response","195","736123","0.0-110.0-1.0","null","<p></p>","null","","","","","","","","","","","","","","","","","","",""
"","do_trial","196","741100","0.0-111.0-0.0","434.10000002384186","","","","49","0,0,0","1","mountain","60","probe-03","0.11186113944999601","0.7029537948309015","0.2278635722948136","0","","","","","","","",""
"","html-keyboard-response","197","742102","0.0-111.0-1.0","null","<p></p>","null","","","","","","","","","","","","","","","","","","",""
"","do_trial","198","747025","0.0-112.0-0.0","384.2999999523163","","","","50","0,1,0","1","mountain","61","probe-50","0.06065685281696431","0.633892576748901","0.3718901633898776","1","","","","","","","",""
"","html-keyboard-response","199","748030","0.0-112.0-1.0","null","<p></p>","null","","","","","","","","","","","","","","","","","","",""
"","do_trial","200","753073","0.0-113.0-0.0","500.19999998807907","","","","50","0,1,0","1","mountain","62","probe-167","0.08868867464206069","0.5236520502519021","0.30693499967039867","1","","","","","","","",""
"","html-keyboard-response","201","754079","0.0-113.0-1.0","null","<p></p>","null","","","","","","","","","","","","","","","","","","",""
"","do_trial","202","759390","0.0-114.0-0.0","770.3999999761581","","","","50","0,1,0","1","mountain","63","probe-224","0.1933995611528225","0.6243392628094736","0.34135143251701905","1","","","","","","","",""
"","html-keyboard-response","203","760396","0.0-114.0-1.0","null","<p></p>","null","","","","","","","","","","","","","","","","","","",""
"","do_trial","204","765355","0.0-115.0-0.0","417.7000000476837","","","","50","0,1,1","1","mountain","64","probe-149","0.14723709915007455","0.52367685720521","0.2338813303084908","1","","","","","","","",""
"","html-keyboard-response","205","766357","0.0-115.0-1.0","null","<p></p>","null","","","","","","","","","","","","","","","","","","",""
"","do_trial","206","771785","0.0-116.0-0.0","885.6000000238419","","","","50","0,1,0","1","mountain","65","probe-155","0.1843587987194254","0.5183007687317436","0.13035770164902324","1","","","","","","","",""
"","html-keyboard-response","207","772789","0.0-116.0-1.0","null","<p></p>","null","","","","","","","","","","","","","","","","","","",""
"","do_trial","208","778426","0.0-117.0-0.0","1094.1000000238419","","","","50","0,1,0","1","mountain","66","probe-199","0.13116177621665467","0.5819036153108175","0.3432662490741836","1","","","","","","","",""
"","html-keyboard-response","209","779430","0.0-117.0-1.0","null","<p></p>","null","","","","","","","","","","","","","","","","","","",""
"","do_trial","210","785114","0.0-118.0-0.0","1144.5","","","","50","0,1,0","1","mountain","67","probe-37","0.20990262689016972","0.5318403680821275","0.3895646434462913","1","","","","","","","",""
"","html-keyboard-response","211","786117","0.0-118.0-1.0","null","<p></p>","null","","","","","","","","","","","","","","","","","","",""
"","do_trial","212","791713","0.0-119.0-0.0","1053","","","","50","0,1,0","1","mountain","68","probe-12","0.09247170108955018","0.6924109115214503","0.4583248120921818","1","","","","","","","",""
"","html-keyboard-response","213","792717","0.0-119.0-1.0","null","<p></p>","null","","","","","","","","","","","","","","","","","","",""
"","do_trial","214","797772","0.0-120.0-0.0","512.8000000119209","","","","50","0,1,0","1","mountain","69","probe-101","0.08588227394849308","0.7727517779303689","0.30771361434146777","1","","","","","","","",""
"","html-keyboard-response","215","798779","0.0-120.0-1.0","null","<p></p>","null","","","","","","","","","","","","","","","","","","",""
"","do_bye","216","800284","0.0-121.0-0.0","null","","","","null","","","","","","","","","","","","","","","","",""
"","do_travel","217","806290","0.0-122.0-0.0","null","","","","null","","","","","","","","","","","","","","","","",""
"","do_welcome","218","807794","0.0-122.0-1.0","null","","","","null","","","","","","","","","","","","","","","","",""
"","do_trial","219","813889","0.0-123.0-0.0","1552.8999999761581","","","","51","0,1,0","2","highway","70","probe-31","0.08597447610874323","1","0.31212075185711585","0","","","","","","","",""
"","html-keyboard-response","220","814894","0.0-123.0-1.0","null","<p></p>","null","","","","","","","","","","","","","","","","","","",""
"","do_trial","221","819984","0.0-124.0-0.0","552.9000000357628","","","","51","0,1,0","2","highway","71","probe-74","0.055175933814325034","1","0.34947722085131844","0","","","","","","","",""
"","html-keyboard-response","222","820991","0.0-124.0-1.0","null","<p></p>","null","","","","","","","","","","","","","","","","","","",""
"","do_trial","223","825963","0.0-125.0-0.0","429.69999998807907","","","","49","0,1,0","2","highway","72","probe-197","0.06557368000617841","0.7525466111580381","0.2990706554264617","0","","","","","","","",""
"","html-keyboard-response","224","826966","0.0-125.0-1.0","null","<p></p>","null","","","","","","","","","","","","","","","","","","",""
"","do_trial","225","831943","0.0-126.0-0.0","434.4000000357628","","","","49","0,1,1","2","highway","73","probe-185","0.1678556336458432","0.6242074259009002","0.24168499739413699","0","","","","","","","",""
"","html-keyboard-response","226","832949","0.0-126.0-1.0","null","<p></p>","null","","","","","","","","","","","","","","","","","","",""
"","do_trial","227","837921","0.0-127.0-0.0","430.2999999523163","","","","50","0,1,0","2","highway","74","probe-136","0.09025210783337778","0.5989395753132875","0.20199644865318853","1","","","","","","","",""
"","html-keyboard-response","228","838927","0.0-127.0-1.0","null","<p></p>","null","","","","","","","","","","","","","","","","","","",""
"","do_trial","229","844064","0.0-128.0-0.0","596.3999999761581","","","","50","0,0,0","2","highway","75","probe-213","0.054127805868949296","0.57068556033835","0.18729730874265968","0","","","","","","","",""
"","html-keyboard-response","230","845068","0.0-128.0-1.0","null","<p></p>","null","","","","","","","","","","","","","","","","","","",""
"","do_trial","231","850108","0.0-129.0-0.0","496.9000000357628","","","","50","0,1,1","2","highway","76","probe-190","0.1440794913152766","0.6184524807862006","0.22961838932337128","1","","","","","","","",""
"","html-keyboard-response","232","851111","0.0-129.0-1.0","null","<p></p>","null","","","","","","","","","","","","","","","","","","",""
"","do_trial","233","856157","0.0-130.0-0.0","502.19999998807907","","","","50","0,1,0","2","highway","77","probe-119","0.2691434525096228","0.6824267401631711","0.2507177727296035","1","","","","","","","",""
"","html-keyboard-response","234","857161","0.0-130.0-1.0","null","<p></p>","null","","","","","","","","","","","","","","","","","","",""
"","do_trial","235","862660","0.0-131.0-0.0","961.3999999761581","","","","50","1,1,1","2","highway","78","probe-228","0.30589387308732113","0.7213161100343658","0.2608678015705075","1","","","","","","","",""
"","html-keyboard-response","236","863663","0.0-131.0-1.0","null","<p></p>","null","","","","","","","","","","","","","","","","","","",""
"","do_trial","237","868681","0.0-132.0-0.0","479.19999998807907","","","","50","0,1,0","2","highway","79","probe-125","0.38710171312779573","0.7560633543869688","0.453086921027121","1","","","","","","","",""
"","html-keyboard-response","238","869686","0.0-132.0-1.0","null","<p></p>","null","","","","","","","","","","","","","","","","","","",""
"","do_trial","239","874704","0.0-133.0-0.0","473.5999999642372","","","","50","0,0,0","2","highway","80","probe-85","0.4016166846329685","0.5621263693289523","0.32905383665879284","0","","","","","","","",""
"","html-keyboard-response","240","875706","0.0-133.0-1.0","null","<p></p>","null","","","","","","","","","","","","","","","","","","",""
"","do_trial","241","880705","0.0-134.0-0.0","456.10000002384186","","","","50","1,1,0","2","highway","81","probe-26","0.336651355442424","0.33774727284878014","0.2890604919338039","1","","","","","","","",""
"","html-keyboard-response","242","881709","0.0-134.0-1.0","null","<p></p>","null","","","","","","","","","","","","","","","","","","",""
"","do_trial","243","887116","0.0-135.0-0.0","865.5","","","","50","1,1,1","2","highway","82","probe-39","0.4576996657722098","0.24257981868537198","0.29257829269125174","1","","","","","","","",""
"","html-keyboard-response","244","888122","0.0-135.0-1.0","null","<p></p>","null","","","","","","","","","","","","","","","","","","",""
"","do_trial","245","893548","0.0-136.0-0.0","886.3000000119209","","","","50","0,0,0","2","highway","83","probe-118","0.5279258178598816","0.25770578306547104","0.21446562580949394","0","","","","","","","",""
"","html-keyboard-response","246","894551","0.0-136.0-1.0","null","<p></p>","null","","","","","","","","","","","","","","","","","","",""
"","do_trial","247","899779","0.0-137.0-0.0","685.1999999880791","","","","51","1,0,0","2","highway","84","probe-206","0.4530983965728861","0.18046626048501999","0.13247914607459482","0","","","","","","","",""
"","html-keyboard-response","248","900781","0.0-137.0-1.0","null","<p></p>","null","","","","","","","","","","","","","","","","","","",""
"","do_trial","249","905866","0.0-138.0-0.0","543.6000000238419","","","","51","1,0,0","2","highway","85","probe-25","0.40752281087987086","0.16614486391866787","0.23657950009887704","0","","","","","","","",""
"","html-keyboard-response","250","906870","0.0-138.0-1.0","null","<p></p>","null","","","","","","","","","","","","","","","","","","",""
"","do_trial","251","912321","0.0-139.0-0.0","909.8999999761581","","","","49","0,0,0","2","highway","86","probe-133","0.5521424089665996","0.08107781035426184","0.3367931338065886","0","","","","","","","",""
"","html-keyboard-response","252","913323","0.0-139.0-1.0","null","<p></p>","null","","","","","","","","","","","","","","","","","","",""
"","do_trial","253","918525","0.0-140.0-0.0","662.7999999523163","","","","49","0,0,1","2","highway","87","probe-127","0.5885412089231274","0.09808775354220525","0.32242082571123","0","","","","","","","",""
"","html-keyboard-response","254","919529","0.0-140.0-1.0","null","<p></p>","null","","","","","","","","","","","","","","","","","","",""
"","do_trial","255","925114","0.0-141.0-0.0","1042.3999999761581","","","","49","1,0,0","2","highway","88","probe-11","0.6232161318302583","0.1039790978783066","0.27724235987207124","1","","","","","","","",""
"","html-keyboard-response","256","926115","0.0-141.0-1.0","null","<p></p>","null","","","","","","","","","","","","","","","","","","",""
"","do_trial","257","931327","0.0-142.0-0.0","670.3999999761581","","","","49","1,1,1","2","highway","89","probe-139","0.6464170088582128","0.19681788721666998","0.4427384831497882","1","","","","","","","",""
"","html-keyboard-response","258","932333","0.0-142.0-1.0","null","<p></p>","null","","","","","","","","","","","","","","","","","","",""
"","do_trial","259","937602","0.0-143.0-0.0","730.3000000119209","","","","49","0,0,1","2","highway","90","probe-128","0.6692218143041169","0.14973765300708794","0.38162983877606754","0","","","","","","","",""
"","html-keyboard-response","260","938604","0.0-143.0-1.0","null","<p></p>","null","","","","","","","","","","","","","","","","","","",""
"","do_trial","261","943542","0.0-144.0-0.0","397.69999998807907","","","","49","1,0,0","2","highway","91","probe-158","0.7324131143985979","0.10107938290725726","0.4001109050642117","1","","","","","","","",""
"","html-keyboard-response","262","944545","0.0-144.0-1.0","null","<p></p>","null","","","","","","","","","","","","","","","","","","",""
"","do_trial","263","950627","0.0-145.0-0.0","1541.7999999523163","","","","49","1,0,0","2","highway","92","probe-59","0.4686406834684752","0.09856900356970122","0.45005265531251276","1","","","","","","","",""
"","html-keyboard-response","264","951631","0.0-145.0-1.0","null","<p></p>","null","","","","","","","","","","","","","","","","","","",""
"","do_trial","265","956681","0.0-146.0-0.0","506.9000000357628","","","","49","1,0,1","2","highway","93","probe-56","0.5448406924134515","0.05709756816653736","0.4245141237566225","1","","","","","","","",""
"","html-keyboard-response","266","957683","0.0-146.0-1.0","null","<p></p>","null","","","","","","","","","","","","","","","","","","",""
"","do_trial","267","962966","0.0-147.0-0.0","744","","","","49","1,0,0","2","highway","94","probe-105","0.5942608534992752","0.09094850976928083","0.26328393707654046","1","","","","","","","",""
"","html-keyboard-response","268","963972","0.0-147.0-1.0","null","<p></p>","null","","","","","","","","","","","","","","","","","","",""
"","do_trial","269","969224","0.0-148.0-0.0","715.1000000238419","","","","49","0,0,1","2","highway","95","probe-132","0.6212717786101204","0.08842225586418946","0.30598141629595643","0","","","","","","","",""
"","html-keyboard-response","270","970230","0.0-148.0-1.0","null","<p></p>","null","","","","","","","","","","","","","","","","","","",""
"","do_trial","271","975459","0.0-149.0-0.0","687","","","","50","1,0,1","2","highway","96","probe-08","0.6148523952751408","0.11785301921438547","0.32044772519985104","0","","","","","","","",""
"","html-keyboard-response","272","976465","0.0-149.0-1.0","null","<p></p>","null","","","","","","","","","","","","","","","","","","",""
"","do_trial","273","981786","0.0-150.0-0.0","783.1999999880791","","","","50","1,0,0","2","highway","97","probe-187","0.5992032909968342","0.29350154210075985","0.2822245436143214","0","","","","","","","",""
"","html-keyboard-response","274","982790","0.0-150.0-1.0","null","<p></p>","null","","","","","","","","","","","","","","","","","","",""
"","do_trial","275","987798","0.0-151.0-0.0","465.30000001192093","","","","51","0,0,1","2","highway","98","probe-104","0.5193762645069941","0.15011619663678868","0.26351494137917597","1","","","","","","","",""
"","html-keyboard-response","276","988804","0.0-151.0-1.0","null","<p></p>","null","","","","","","","","","","","","","","","","","","",""
"","do_trial","277","994894","0.0-152.0-0.0","1553.0999999642372","","","","51","1,0,0","2","highway","99","probe-73","0.41808925158463545","0.16449290105524886","0.25285034885340457","0","","","","","","","",""
"","html-keyboard-response","278","995895","0.0-152.0-1.0","null","<p></p>","null","","","","","","","","","","","","","","","","","","",""
"","do_trial","279","1001303","0.0-153.0-0.0","866.5","","","","51","1,0,0","2","highway","100","probe-42","0.4549914017774978","0.08468488672100204","0.27707131940364127","0","","","","","","","",""
"","html-keyboard-response","280","1002305","0.0-153.0-1.0","null","<p></p>","null","","","","","","","","","","","","","","","","","","",""
"","do_trial","281","1007538","0.0-154.0-0.0","691.9000000357628","","","","51","1,0,0","2","highway","101","probe-86","0.5703538648952613","0.09873110117230802","0.3398911180852309","0","","","","","","","",""
"","html-keyboard-response","282","1008544","0.0-154.0-1.0","null","<p></p>","null","","","","","","","","","","","","","","","","","","",""
"","do_trial","283","1013827","0.0-155.0-0.0","740.6999999880791","","","","51","0,0,1","2","highway","102","probe-23","0.5359404361145488","0.1306156632971734","0.29600015239762983","1","","","","","","","",""
"","html-keyboard-response","284","1014829","0.0-155.0-1.0","null","<p></p>","null","","","","","","","","","","","","","","","","","","",""
"","do_trial","285","1020074","0.0-156.0-0.0","704","","","","51","0,0,0","2","highway","103","probe-102","0.48481311496707186","0.11094298259786843","0.24540016312534277","0","","","","","","","",""
"","html-keyboard-response","286","1021075","0.0-156.0-1.0","null","<p></p>","null","","","","","","","","","","","","","","","","","","",""
"","do_trial","287","1026610","0.0-157.0-0.0","991.9000000357628","","","","49","0,1,1","2","highway","104","probe-145","0.5195855805276588","0.12824865227769094","0.19920474726222814","0","","","","","","","",""
"","html-keyboard-response","288","1027612","0.0-157.0-1.0","null","<p></p>","null","","","","","","","","","","","","","","","","","","",""
"","do_trial","289","1032543","0.0-158.0-0.0","392.80000001192093","","","","49","1,1,1","2","highway","105","probe-02","0.40445831847786023","0.12409339803127829","0.16590366320730657","1","","","","","","","",""
"","html-keyboard-response","290","1033545","0.0-158.0-1.0","null","<p></p>","null","","","","","","","","","","","","","","","","","","",""
"","do_trial","291","1038839","0.0-159.0-0.0","754.8000000119209","","","","49","0,0,0","2","highway","106","probe-169","0.38140384171755937","0.09650725101696078","0.3222206957104155","0","","","","","","","",""
"","html-keyboard-response","292","1039845","0.0-159.0-1.0","null","<p></p>","null","","","","","","","","","","","","","","","","","","",""
"","do_trial","293","1045411","0.0-160.0-0.0","1025.4000000357628","","","","49","0,0,0","2","highway","107","probe-112","0.4114014523507325","0.07852820941351561","0.18681615596379808","0","","","","","","","",""
"","html-keyboard-response","294","1046417","0.0-160.0-1.0","null","<p></p>","null","","","","","","","","","","","","","","","","","","",""
"","do_trial","295","1051947","0.0-161.0-0.0","990.1999999880791","","","","49","1,0,1","2","highway","108","probe-135","0.5263966300965913","0.14483935643871085","0.2087717084393587","1","","","","","","","",""
"","html-keyboard-response","296","1052954","0.0-161.0-1.0","null","<p></p>","null","","","","","","","","","","","","","","","","","","",""
"","do_trial","297","1058130","0.0-162.0-0.0","634.0999999642372","","","","50","0,1,0","2","highway","109","probe-144","0.5602307758651968","0.298167184588209","0.17697340946825757","1","","","","","","","",""
"","html-keyboard-response","298","1059134","0.0-162.0-1.0","null","<p></p>","null","","","","","","","","","","","","","","","","","","",""
"","do_bye","299","1060643","0.0-163.0-0.0","null","","","","null","","","","","","","","","","","","","","","","",""
"","do_travel","300","1066646","0.0-164.0-0.0","null","","","","null","","","","","","","","","","","","","","","","",""
"","do_welcome","301","1068155","0.0-164.0-1.0","null","","","","null","","","","","","","","","","","","","","","","",""
"","do_trial","302","1074030","0.0-165.0-0.0","1335.9000000357628","","","","49","1,0,0","3","forest","110","probe-58","1","0.12512484149448988","0.3097829401263318","1","","","","","","","",""
"","html-keyboard-response","303","1075033","0.0-165.0-1.0","null","<p></p>","null","","","","","","","","","","","","","","","","","","",""
"","do_trial","304","1080474","0.0-166.0-0.0","901.2999999523163","","","","49","1,0,1","3","forest","111","probe-27","1","0.09572474155604054","0.12294709177386377","1","","","","","","","",""
"","html-keyboard-response","305","1081478","0.0-166.0-1.0","null","<p></p>","null","","","","","","","","","","","","","","","","","","",""
"","do_trial","306","1086706","0.0-167.0-0.0","685","","","","49","0,1,0","3","forest","112","probe-14","0.7008907495165186","0.23329749961879961","0.07321034171171366","0","","","","","","","",""
"","html-keyboard-response","307","1087708","0.0-167.0-1.0","null","<p></p>","null","","","","","","","","","","","","","","","","","","",""
"","do_trial","308","1093174","0.0-168.0-0.0","924.3000000119209","","","","49","1,0,0","3","forest","113","probe-64","0.7489182348542636","0.2789056859507432","0.18221638456024766","1","","","","","","","",""
"","html-keyboard-response","309","1094181","0.0-168.0-1.0","null","<p></p>","null","","","","","","","","","","","","","","","","","","",""
"","do_trial","310","1099468","0.0-169.0-0.0","744.3000000119209","","","","49","0,0,1","3","forest","114","probe-180","0.7547482030096108","0.24707963675510847","0.32016123294995624","0","","","","","","","",""
"","html-keyboard-response","311","1100470","0.0-169.0-1.0","null","<p></p>","null","","","","","","","","","","","","","","","","","","",""
"","do_trial","312","1105819","0.0-170.0-0.0","809.8000000119209","","","","50","0,0,1","3","forest","115","probe-45","0.6844349360468575","0.27717109448454474","0.4416480771369929","0","","","","","","","",""
"","html-keyboard-response","313","1106825","0.0-170.0-1.0","null","<p></p>","null","","","","","","","","","","","","","","","","","","",""
"","do_trial","314","1111982","0.0-171.0-0.0","613.6999999880791","","","","51","1,0,0","3","forest","116","probe-80","0.7147526007509184","0.15865077157434046","0.3313465136082887","0","","","","","","","",""
"","html-keyboard-response","315","1112983","0.0-171.0-1.0","null","<p></p>","null","","","","","","","","","","","","","","","","","","",""
"","do_trial","316","1118322","0.0-172.0-0.0","799.7999999523163","","","","51","0,0,1","3","forest","117","probe-34","0.629957480969817","0.06360259827175638","0.30134158853864323","1","","","","","","","",""
"","html-keyboard-response","317","1119325","0.0-172.0-1.0","null","<p></p>","null","","","","","","","","","","","","","","","","","","",""
"","do_trial","318","1124573","0.0-173.0-0.0","708.3000000119209","","","","51","1,0,0","3","forest","118","probe-160","0.6600039482002055","0.07569233981932906","0.15195395574460885","0","","","","","","","",""
"","html-keyboard-response","319","1125574","0.0-173.0-1.0","null","<p></p>","null","","","","","","","","","","","","","","","","","","",""
"","do_trial","320","1130747","0.0-174.0-0.0","634.6999999880791","","","","51","1,0,1","3","forest","119","probe-113","0.5773508753634322","0.09285370146995436","0.31510074933570265","1","","","","","","","",""
"","html-keyboard-response","321","1131751","0.0-174.0-1.0","null","<p></p>","null","","","","","","","","","","","","","","","","","","",""
"","do_trial","322","1136962","0.0-175.0-0.0","671.0999999642372","","","","51","0,1,1","3","forest","120","probe-222","0.6129554624271402","0.2420630445095502","0.2805161679746228","1","","","","","","","",""
"","html-keyboard-response","323","1137968","0.0-175.0-1.0","null","<p></p>","null","","","","","","","","","","","","","","","","","","",""
"","do_trial","324","1143155","0.0-176.0-0.0","644.8000000119209","","","","51","1,1,0","3","forest","121","probe-117","0.5728606963314988","0.22592940768261202","0.2142493813677448","0","","","","","","","",""
"","html-keyboard-response","325","1144158","0.0-176.0-1.0","null","<p></p>","null","","","","","","","","","","","","","","","","","","",""
"","do_trial","326","1149172","0.0-177.0-0.0","476.2999999523163","","","","49","0,1,0","3","forest","122","probe-93","0.4239253233253031","0.40852628086762116","0.3567222608645721","0","","","","","","","",""
"","html-keyboard-response","327","1150179","0.0-177.0-1.0","null","<p></p>","null","","","","","","","","","","","","","","","","","","",""
"","do_trial","328","1155150","0.0-178.0-0.0","428.9000000357628","","","","51","0,0,0","3","forest","123","probe-55","0.22494903881752001","0.5034636259102311","0.25599772865615855","0","","","","","","","",""
"","html-keyboard-response","329","1156154","0.0-178.0-1.0","null","<p></p>","null","","","","","","","","","","","","","","","","","","",""
"","do_trial","330","1161154","0.0-179.0-0.0","461.39999997615814","","","","51","0,1,1","3","forest","124","probe-172","0.1685416180144865","0.5806801373011475","0.24966874660286414","1","","","","","","","",""
"","html-keyboard-response","331","1162157","0.0-179.0-1.0","null","<p></p>","null","","","","","","","","","","","","","","","","","","",""
"","do_trial","332","1167420","0.0-180.0-0.0","720.5","","","","51","0,1,0","3","forest","125","probe-63","0.17798263004038234","0.5707272219261259","0.18321882630436492","0","","","","","","","",""
"","html-keyboard-response","333","1168425","0.0-180.0-1.0","null","<p></p>","null","","","","","","","","","","","","","","","","","","",""
"","do_trial","334","1174552","0.0-181.0-0.0","1585","","","","51","1,0,0","3","forest","126","probe-215","0.2429020695635113","0.5303639564250858","0.273320488747953","0","","","","","","","",""
"","html-keyboard-response","335","1175559","0.0-181.0-1.0","null","<p></p>","null","","","","","","","","","","","","","","","","","","",""
"","do_trial","336","1181312","0.0-182.0-0.0","1215.5999999642372","","","","50","0,1,1","3","forest","127","probe-204","0.20368467458056214","0.6292484944729628","0.2612909247292114","1","","","","","","","",""
"","html-keyboard-response","337","1182316","0.0-182.0-1.0","null","<p></p>","null","","","","","","","","","","","","","","","","","","",""
"","do_trial","338","1189146","0.0-183.0-0.0","2291.199999988079","","","","50","0,0,0","3","forest","128","probe-97","0.10561741554847891","0.7667820642533453","0.28226904661753827","0","","","","","","","",""
"","html-keyboard-response","339","1190152","0.0-183.0-1.0","null","<p></p>","null","","","","","","","","","","","","","","","","","","",""
"","do_trial","340","1194693","0.0-184.0-0.0","0.9000000357627869","","","","50","0,1,0","3","forest","129","probe-103","0.17058007742794198","0.6275773175013225","0.22495789791014795","1","","","","","","","",""
"","html-keyboard-response","341","1195695","0.0-184.0-1.0","null","<p></p>","null","","","","","","","","","","","","","","","","","","",""
"","do_trial","342","1201129","0.0-185.0-0.0","894.8000000119209","","","","50","0,1,0","3","forest","130","probe-01","0.06606467611264315","0.6261327642813389","0.2382982730693016","1","","","","","","","",""
"","html-keyboard-response","343","1202133","0.0-185.0-1.0","null","<p></p>","null","","","","","","","","","","","","","","","","","","",""
"","do_trial","344","1207735","0.0-186.0-0.0","1061.5","","","","50","0,0,0","3","forest","131","probe-75","0.09360018654908402","0.5155232111113931","0.2435559667944625","0","","","","","","","",""
"","html-keyboard-response","345","1208741","0.0-186.0-1.0","null","<p></p>","null","","","","","","","","","","","","","","","","","","",""
"","do_trial","346","1213933","0.0-187.0-0.0","650.9000000357628","","","","49","0,1,0","3","forest","132","probe-140","0.05491244884512658","0.6541799658610196","0.3925897760049293","0","","","","","","","",""
"","html-keyboard-response","347","1214939","0.0-187.0-1.0","null","<p></p>","null","","","","","","","","","","","","","","","","","","",""
"","do_trial","348","1219892","0.0-188.0-0.0","413","","","","49","0,1,1","3","forest","133","probe-70","0.05250238261723171","0.7723589080891864","0.42025400670263807","0","","","","","","","",""
"","html-keyboard-response","349","1220895","0.0-188.0-1.0","null","<p></p>","null","","","","","","","","","","","","","","","","","","",""
"","do_trial","350","1225821","0.0-189.0-0.0","383.80000001192093","","","","51","0,0,0","3","forest","134","probe-191","0.051907714029634865","0.6332716196164304","0.43469515402602527","0","","","","","","","",""
"","html-keyboard-response","351","1226822","0.0-189.0-1.0","null","<p></p>","null","","","","","","","","","","","","","","","","","","",""
"","do_trial","352","1231794","0.0-190.0-0.0","434.5","","","","51","0,1,0","3","forest","135","probe-29","0.06546128669262527","0.6430009766012701","0.33185949315398305","0","","","","","","","",""
"","html-keyboard-response","353","1232796","0.0-190.0-1.0","null","<p></p>","null","","","","","","","","","","","","","","","","","","",""
"","do_trial","354","1237666","0.0-191.0-0.0","329.39999997615814","","","","50","0,1,0","3","forest","136","probe-229","0.19831217936432027","0.6300918785388386","0.36612716502602055","1","","","","","","","",""
"","html-keyboard-response","355","1238668","0.0-191.0-1.0","null","<p></p>","null","","","","","","","","","","","","","","","","","","",""
"","do_trial","356","1244632","0.0-192.0-0.0","1420.1000000238419","","","","50","0,0,0","3","forest","137","probe-92","0.12229532151745864","0.5290309073212154","0.2179816310655732","0","","","","","","","",""
"","html-keyboard-response","357","1245634","0.0-192.0-1.0","null","<p></p>","null","","","","","","","","","","","","","","","","","","",""
"","do_trial","358","1250937","0.0-193.0-0.0","763.2000000476837","","","","50","1,1,0","3","forest","138","probe-19","0.2108664252560334","0.44015747684376977","0.30349667999344054","1","","","","","","","",""
"","html-keyboard-response","359","1251943","0.0-193.0-1.0","null","<p></p>","null","","","","","","","","","","","","","","","","","","",""
"","do_trial","360","1257055","0.0-194.0-0.0","570.3999999761581","","","","50","0,0,1","3","forest","139","probe-106","0.1512555142277485","0.4147754786626415","0.3355026002031593","0","","","","","","","",""
"","html-keyboard-response","361","1258061","0.0-194.0-1.0","null","<p></p>","null","","","","","","","","","","","","","","","","","","",""
"","do_trial","362","1263650","0.0-195.0-0.0","1048.5","","","","50","0,0,1","3","forest","140","probe-184","0.0576991257045809","0.4607093540692988","0.20420998141490537","0","","","","","","","",""
"","html-keyboard-response","363","1264655","0.0-195.0-1.0","null","<p></p>","null","","","","","","","","","","","","","","","","","","",""
"","do_trial","364","1271275","0.0-196.0-0.0","2077","","","","50","0,0,0","3","forest","141","probe-129","0.07898523756902398","0.514067369369858","0.38363588930277814","0","","","","","","","",""
"","html-keyboard-response","365","1272276","0.0-196.0-1.0","null","<p></p>","null","","","","","","","","","","","","","","","","","","",""
"","do_trial","366","1277734","0.0-197.0-0.0","914.1999999880791","","","","50","0,1,0","3","forest","142","probe-154","0.07920795996363512","0.6036165871544074","0.39944010604344315","1","","","","","","","",""
"","html-keyboard-response","367","1278740","0.0-197.0-1.0","null","<p></p>","null","","","","","","","","","","","","","","","","","","",""
"","do_trial","368","1284787","0.0-198.0-0.0","null","","","","null","0,0,1","3","forest","143","probe-91","0.0639665315066435","0.6718310896214064","0.2154407589322588","","","","","","","","",""
"","html-keyboard-response","369","1285791","0.0-198.0-1.0","null","<p></p>","null","","","","","","","","","","","","","","","","","","",""
"","do_trial","370","1291049","0.0-199.0-0.0","715.5","","","","50","0,1,0","3","forest","144","probe-176","0.0555554402907679","0.6110017280750479","0.2251197400517863","1","","","","","","","",""
"","html-keyboard-response","371","1292051","0.0-199.0-1.0","null","<p></p>","null","","","","","","","","","","","","","","","","","","",""
"","do_trial","372","1297051","0.0-200.0-0.0","457","","","","50","0,1,1","3","forest","145","probe-44","0.12115946431479704","0.7632461312035854","0.27511224764587755","1","","","","","","","",""
"","html-keyboard-response","373","1298052","0.0-200.0-1.0","null","<p></p>","null","","","","","","","","","","","","","","","","","","",""
"","do_trial","374","1303009","0.0-201.0-0.0","417","","","","50","0,1,0","3","forest","146","probe-111","0.16894928286434852","0.7029076411095748","0.2625586117372405","1","","","","","","","",""
"","html-keyboard-response","375","1304016","0.0-201.0-1.0","null","<p></p>","null","","","","","","","","","","","","","","","","","","",""
"","do_trial","376","1309312","0.0-202.0-0.0","755.9000000357628","","","","50","0,1,0","3","forest","147","probe-109","0.2797970884513915","0.7472120654012888","0.25321181471240406","1","","","","","","","",""
"","html-keyboard-response","377","1310318","0.0-202.0-1.0","null","<p></p>","null","","","","","","","","","","","","","","","","","","",""
"","do_trial","378","1315443","0.0-203.0-0.0","585.5999999642372","","","","50","1,1,0","3","forest","148","probe-71","0.3362858066593516","0.749159379554287","0.128780329005139","1","","","","","","","",""
"","html-keyboard-response","379","1316446","0.0-203.0-1.0","null","<p></p>","null","","","","","","","","","","","","","","","","","","",""
"","do_trial","380","1321516","0.0-204.0-0.0","530.4000000357628","","","","50","0,1,0","3","forest","149","probe-16","0.25369466205178304","0.6759698626919912","0.1084031331132352","1","","","","","","","",""
"","html-keyboard-response","381","1322523","0.0-204.0-1.0","null","<p></p>","null","","","","","","","","","","","","","","","","","","",""
"","do_bye","382","1324032","0.0-205.0-0.0","null","","","","null","","","","","","","","","","","","","","","","",""
"","do_travel","383","1330038","0.0-206.0-0.0","null","","","","null","","","","","","","","","","","","","","","","",""
"","do_welcome","384","1331546","0.0-206.0-1.0","null","","","","null","","","","","","","","","","","","","","","","",""
"","do_trial","385","1337772","0.0-207.0-0.0","1683.1000000238419","","","","49","1,1,0","4","countryside","150","probe-165","0.22371616317769888","1","0.0655781764317434","1","","","","","","","",""
"","html-keyboard-response","386","1338775","0.0-207.0-1.0","null","<p></p>","null","","","","","","","","","","","","","","","","","","",""
"","do_trial","387","1343986","0.0-208.0-0.0","671.5999999642372","","","","49","0,1,0","4","countryside","151","probe-219","0.20941619761032154","1","0.14243604880004324","0","","","","","","","",""
"","html-keyboard-response","388","1344987","0.0-208.0-1.0","null","<p></p>","null","","","","","","","","","","","","","","","","","","",""
"","do_trial","389","1350222","0.0-209.0-0.0","695.8999999761581","","","","49","0,0,1","4","countryside","152","probe-36","0.22170912066706996","0.8012229387237579","0.31468229304192763","0","","","","","","","",""
"","html-keyboard-response","390","1351227","0.0-209.0-1.0","null","<p></p>","null","","","","","","","","","","","","","","","","","","",""
"","do_trial","391","1356352","0.0-210.0-0.0","581.4000000357628","","","","50","0,1,0","4","countryside","153","probe-66","0.19763140847022487","0.6821199155453178","0.3411663523192045","1","","","","","","","",""
"","html-keyboard-response","392","1357355","0.0-210.0-1.0","null","<p></p>","null","","","","","","","","","","","","","","","","","","",""
"","do_trial","393","1362356","0.0-211.0-0.0","460.80000001192093","","","","50","0,1,1","4","countryside","154","probe-53","0.24142184964174435","0.5023567808745201","0.311625502879163","1","","","","","","","",""
"","html-keyboard-response","394","1363358","0.0-211.0-1.0","null","<p></p>","null","","","","","","","","","","","","","","","","","","",""
"","do_trial","395","1368719","0.0-212.0-0.0","821.5","","","","50","1,1,0","4","countryside","155","probe-188","0.14508372034603378","0.5928272597503697","0.1982571554065605","1","","","","","","","",""
"","html-keyboard-response","396","1369725","0.0-212.0-1.0","null","<p></p>","null","","","","","","","","","","","","","","","","","","",""
"","do_trial","397","1374780","0.0-213.0-0.0","513.1999999880791","","","","50","1,1,0","4","countryside","156","probe-200","0.2410271732060056","0.5539004303021399","0.24663959052458784","1","","","","","","","",""
"","html-keyboard-response","398","1375782","0.0-213.0-1.0","null","<p></p>","null","","","","","","","","","","","","","","","","","","",""
"","do_trial","399","1380899","0.0-214.0-0.0","575.8000000119209","","","","50","0,0,1","4","countryside","157","probe-120","0.09138004715805247","0.5638653145513137","0.443166237881579","0","","","","","","","",""
"","html-keyboard-response","400","1381902","0.0-214.0-1.0","null","<p></p>","null","","","","","","","","","","","","","","","","","","",""
"","do_trial","401","1386979","0.0-215.0-0.0","535.6999999880791","","","","50","1,1,0","4","countryside","158","probe-40","0.06280759633239771","0.5955113424177558","0.42676405646231963","1","","","","","","","",""
"","html-keyboard-response","402","1387982","0.0-215.0-1.0","null","<p></p>","null","","","","","","","","","","","","","","","","","","",""
"","do_trial","403","1393152","0.0-216.0-0.0","631.9000000357628","","","","50","0,1,0","4","countryside","159","probe-170","0.15423139745322473","0.6943514151662495","0.3531908238821591","1","","","","","","","",""
"","html-keyboard-response","404","1394158","0.0-216.0-1.0","null","<p></p>","null","","","","","","","","","","","","","","","","","","",""
"","do_trial","405","1399193","0.0-217.0-0.0","496","","","","50","0,0,0","4","countryside","160","probe-156","0.09828241310401888","0.5941358298145287","0.3202238420143086","0","","","","","","","",""
"","html-keyboard-response","406","1400196","0.0-217.0-1.0","null","<p></p>","null","","","","","","","","","","","","","","","","","","",""
"","do_trial","407","1405234","0.0-218.0-0.0","497","","","","50","0,0,0","4","countryside","161","probe-108","0.18746976160046536","0.5917817217967124","0.21341934816979627","0","","","","","","","",""
"","html-keyboard-response","408","1406241","0.0-218.0-1.0","null","<p></p>","null","","","","","","","","","","","","","","","","","","",""
"","do_trial","409","1411165","0.0-219.0-0.0","381.5","","","","51","0,0,0","4","countryside","162","probe-168","0.10242739288581305","0.5086083973337868","0.3408222296912543","0","","","","","","","",""
"","html-keyboard-response","410","1412166","0.0-219.0-1.0","null","<p></p>","null","","","","","","","","","","","","","","","","","","",""
"","do_trial","411","1417073","0.0-220.0-0.0","368","","","","51","0,1,0","4","countryside","163","probe-174","0.05135840624239254","0.5315375575418936","0.46050918752793907","0","","","","","","","",""
"","html-keyboard-response","412","1418076","0.0-220.0-1.0","null","<p></p>","null","","","","","","","","","","","","","","","","","","",""
"","do_trial","413","1423103","0.0-221.0-0.0","485.10000002384186","","","","49","0,1,0","4","countryside","164","probe-17","0.1304298372297121","0.47817820144010825","0.5426102063615127","0","","","","","","","",""
"","html-keyboard-response","414","1424108","0.0-221.0-1.0","null","<p></p>","null","","","","","","","","","","","","","","","","","","",""
"","do_trial","415","1429082","0.0-222.0-0.0","432","","","","49","0,1,1","4","countryside","165","probe-116","0.16851377446105414","0.42826734044987536","0.6581625891130706","0","","","","","","","",""
"","html-keyboard-response","416","1430084","0.0-222.0-1.0","null","<p></p>","null","","","","","","","","","","","","","","","","","","",""
"","do_trial","417","1435015","0.0-223.0-0.0","391.4000000357628","","","","50","0,0,0","4","countryside","166","probe-227","0.24147306654616152","0.3957101227774262","0.6774542977908325","0","","","","","","","",""
"","html-keyboard-response","418","1436021","0.0-223.0-1.0","null","<p></p>","null","","","","","","","","","","","","","","","","","","",""
"","do_trial","419","1440974","0.0-224.0-0.0","412.30000001192093","","","","50","0,1,0","4","countryside","167","probe-208","0.2616688608775712","0.4796718692598477","0.6750637704119649","1","","","","","","","",""
"","html-keyboard-response","420","1441980","0.0-224.0-1.0","null","<p></p>","null","","","","","","","","","","","","","","","","","","",""
"","do_trial","421","1446933","0.0-225.0-0.0","411.4000000357628","","","","50","1,1,1","4","countryside","168","probe-134","0.2049917358174927","0.37917481804425623","0.5804019424537683","1","","","","","","","",""
"","html-keyboard-response","422","1447937","0.0-225.0-1.0","null","<p></p>","null","","","","","","","","","","","","","","","","","","",""
"","do_trial","423","1452860","0.0-226.0-0.0","383.2999999523163","","","","50","0,1,0","4","countryside","169","probe-124","0.2855726267211299","0.4752898278298929","0.6006675083737493","1","","","","","","","",""
"","html-keyboard-response","424","1453866","0.0-226.0-1.0","null","<p></p>","null","","","","","","","","","","","","","","","","","","",""
"","do_trial","425","1458784","0.0-227.0-0.0","377","","","","50","0,1,0","4","countryside","170","probe-65","0.20044784747900782","0.44579613957791914","0.5590844908487275","1","","","","","","","",""
"","html-keyboard-response","426","1459787","0.0-227.0-1.0","null","<p></p>","null","","","","","","","","","","","","","","","","","","",""
"","do_trial","427","1464907","0.0-228.0-0.0","576.6999999880791","","","","50","0,0,1","4","countryside","171","probe-203","0.21288828849086228","0.3505170634678942","0.5310194734964443","0","","","","","","","",""
"","html-keyboard-response","428","1465910","0.0-228.0-1.0","null","<p></p>","null","","","","","","","","","","","","","","","","","","",""
"","do_trial","429","1471037","0.0-229.0-0.0","580.3000000119209","","","","50","0,0,0","4","countryside","172","probe-230","0.1060631645488148","0.2585671317260552","0.46725851042939676","0","","","","","","","",""
"","html-keyboard-response","430","1472040","0.0-229.0-1.0","null","<p></p>","null","","","","","","","","","","","","","","","","","","",""
"","do_trial","431","1477007","0.0-230.0-0.0","423.89999997615814","","","","51","0,0,0","4","countryside","173","probe-151","0.13804209277353593","0.22310190134024258","0.4494156335543492","0","","","","","","","",""
"","html-keyboard-response","432","1478008","0.0-230.0-1.0","null","<p></p>","null","","","","","","","","","","","","","","","","","","",""
"","do_trial","433","1483019","0.0-231.0-0.0","470.30000001192093","","","","51","0,0,0","4","countryside","174","probe-161","0.2450394199791237","0.3886612227055549","0.4470735824676089","0","","","","","","","",""
"","html-keyboard-response","434","1484022","0.0-231.0-1.0","null","<p></p>","null","","","","","","","","","","","","","","","","","","",""
"","do_trial","435","1489049","0.0-232.0-0.0","488.30000001192093","","","","49","0,1,1","4","countryside","175","probe-164","0.14852916316022566","0.46369839320103395","0.3900819669689907","0","","","","","","","",""
"","html-keyboard-response","436","1490056","0.0-232.0-1.0","null","<p></p>","null","","","","","","","","","","","","","","","","","","",""
"","do_trial","437","1496047","0.0-233.0-0.0","1446.800000011921","","","","49","0,1,1","4","countryside","176","probe-211","0.052289868845470114","0.5343842205830505","0.5524040710232206","0","","","","","","","",""
"","html-keyboard-response","438","1497049","0.0-233.0-1.0","null","<p></p>","null","","","","","","","","","","","","","","","","","","",""
"","do_trial","439","1503841","0.0-234.0-0.0","2250.399999976158","","","","49","0,0,1","4","countryside","177","probe-179","0.1116358011337667","0.4984013148909845","0.7308698282383135","0","","","","","","","",""
"","html-keyboard-response","440","1504844","0.0-234.0-1.0","null","<p></p>","null","","","","","","","","","","","","","","","","","","",""
"","do_trial","441","1510079","0.0-235.0-0.0","696.6999999880791","","","","51","1,1,1","4","countryside","178","probe-87","0.15776513893180075","0.29581921014390183","0.6736598067166558","1","","","","","","","",""
"","html-keyboard-response","442","1511085","0.0-235.0-1.0","null","<p></p>","null","","","","","","","","","","","","","","","","","","",""
"","do_trial","443","1516845","0.0-236.0-0.0","1220.5","","","","51","0,0,1","4","countryside","179","probe-138","0.1311018651863139","0.26285694374116153","0.5801265897094233","1","","","","","","","",""
"","html-keyboard-response","444","1517849","0.0-236.0-1.0","null","<p></p>","null","","","","","","","","","","","","","","","","","","",""
"","do_trial","445","1522905","0.0-237.0-0.0","517.5","","","","51","0,0,1","4","countryside","180","probe-54","0.15726100611911414","0.13880611226841855","0.6633382310705782","1","","","","","","","",""
"","html-keyboard-response","446","1523908","0.0-237.0-1.0","null","<p></p>","null","","","","","","","","","","","","","","","","","","",""
"","do_trial","447","1529196","0.0-238.0-0.0","745.1999999880791","","","","51","0,0,1","4","countryside","181","probe-201","0.1589766276463295","0.23768739653922652","0.6382308403749566","1","","","","","","","",""
"","html-keyboard-response","448","1530202","0.0-238.0-1.0","null","<p></p>","null","","","","","","","","","","","","","","","","","","",""
"","do_trial","449","1535224","0.0-239.0-0.0","484.5999999642372","","","","51","0,0,1","4","countryside","182","probe-114","0.10143438088127686","0.2828218676595882","0.6495093107722686","1","","","","","","","",""
"","html-keyboard-response","450","1536230","0.0-239.0-1.0","null","<p></p>","null","","","","","","","","","","","","","","","","","","",""
"","do_trial","451","1541453","0.0-240.0-0.0","679","","","","51","0,0,0","4","countryside","183","probe-221","0.09114821674839513","0.21410423492082234","0.5697786767975592","0","","","","","","","",""
"","html-keyboard-response","452","1542457","0.0-240.0-1.0","null","<p></p>","null","","","","","","","","","","","","","","","","","","",""
"","do_trial","453","1547471","0.0-241.0-0.0","471.69999998807907","","","","51","0,0,1","4","countryside","184","probe-04","0.1687308058827238","0.20915856332886262","0.6387729767470854","1","","","","","","","",""
"","html-keyboard-response","454","1548479","0.0-241.0-1.0","null","<p></p>","null","","","","","","","","","","","","","","","","","","",""
"","do_trial","455","1553656","0.0-242.0-0.0","635","","","","51","0,1,1","4","countryside","185","probe-159","0.25672466539749833","0.3022785522702434","0.6369657023636702","1","","","","","","","",""
"","html-keyboard-response","456","1554659","0.0-242.0-1.0","null","<p></p>","null","","","","","","","","","","","","","","","","","","",""
"","do_trial","457","1559991","0.0-243.0-0.0","794.1999999880791","","","","51","0,0,0","4","countryside","186","probe-24","0.15118996458614292","0.22644857742740307","0.6200218199355022","0","","","","","","","",""
"","html-keyboard-response","458","1560993","0.0-243.0-1.0","null","<p></p>","null","","","","","","","","","","","","","","","","","","",""
"","do_trial","459","1566088","0.0-244.0-0.0","554.3000000119209","","","","51","0,0,0","4","countryside","187","probe-82","0.21584920073776037","0.2577463388140223","0.6787756297235061","0","","","","","","","",""
"","html-keyboard-response","460","1567094","0.0-244.0-1.0","null","<p></p>","null","","","","","","","","","","","","","","","","","","",""
"","do_trial","461","1572087","0.0-245.0-0.0","452.19999998807907","","","","49","0,0,1","4","countryside","188","probe-202","0.0713004516259127","0.22639236274832655","0.7195255397690553","0","","","","","","","",""
"","html-keyboard-response","462","1573092","0.0-245.0-1.0","null","<p></p>","null","","","","","","","","","","","","","","","","","","",""
"","do_trial","463","1578054","0.0-246.0-0.0","422.10000002384186","","","","49","0,1,0","4","countryside","189","probe-131","0.05056727832557606","0.26536980418053235","0.7298550581560174","0","","","","","","","",""
"","html-keyboard-response","464","1579061","0.0-246.0-1.0","null","<p></p>","null","","","","","","","","","","","","","","","","","","",""
"","do_bye","465","1580568","0.0-247.0-0.0","null","","","","null","","","","","","","","","","","","","","","","",""
"","do_travel","466","1586575","0.0-248.0-0.0","null","","","","null","","","","","","","","","","","","","","","","",""
"","do_welcome","467","1588083","0.0-248.0-1.0","null","","","","null","","","","","","","","","","","","","","","","",""
"","do_trial","468","1594409","0.0-249.0-0.0","1783.5999999642372","","","","50","0,0,1","5","coast","190","probe-189","0.06319050793577986","0.3437329552434406","1","0","","","","","","","",""
"","html-keyboard-response","469","1595412","0.0-249.0-1.0","null","<p></p>","null","","","","","","","","","","","","","","","","","","",""
"","do_trial","470","1600996","0.0-250.0-0.0","1045.699999988079","","","","51","0,0,1","5","coast","191","probe-157","0.08770214082490654","0.28421435118246957","1","1","","","","","","","",""
"","html-keyboard-response","471","1602000","0.0-250.0-1.0","null","<p></p>","null","","","","","","","","","","","","","","","","","","",""
"","do_trial","472","1607428","0.0-251.0-0.0","890.6999999880791","","","","51","0,0,1","5","coast","192","probe-148","0.12730610019079364","0.3994523651287034","0.8858722639506046","1","","","","","","","",""
"","html-keyboard-response","473","1608433","0.0-251.0-1.0","null","<p></p>","null","","","","","","","","","","","","","","","","","","",""
"","do_trial","474","1613369","0.0-252.0-0.0","393.69999998807907","","","","51","0,0,0","5","coast","193","probe-194","0.13413667100524163","0.3322496727885765","0.8344571887376792","0","","","","","","","",""
"","html-keyboard-response","475","1614371","0.0-252.0-1.0","null","<p></p>","null","","","","","","","","","","","","","","","","","","",""
"","do_trial","476","1619243","0.0-253.0-0.0","328.69999998807907","","","","51","0,0,1","5","coast","194","probe-38","0.25342724452738596","0.4018352928113425","0.800932467630872","1","","","","","","","",""
"","html-keyboard-response","477","1620247","0.0-253.0-1.0","null","<p></p>","null","","","","","","","","","","","","","","","","","","",""
"","do_trial","478","1625158","0.0-254.0-0.0","372.9000000357628","","","","51","0,0,1","5","coast","195","probe-68","0.055947592590786965","0.2564897964099163","0.7168414670723452","1","","","","","","","",""
"","html-keyboard-response","479","1626161","0.0-254.0-1.0","null","<p></p>","null","","","","","","","","","","","","","","","","","","",""
"","do_trial","480","1631311","0.0-255.0-0.0","608.3000000119209","","","","51","0,1,1","5","coast","196","probe-52","0.07313374096679445","0.3837231857553633","0.6870600552978045","1","","","","","","","",""
"","html-keyboard-response","481","1632317","0.0-255.0-1.0","null","<p></p>","null","","","","","","","","","","","","","","","","","","",""
"","do_trial","482","1639573","0.0-256.0-0.0","2712","","","","51","1,0,1","5","coast","197","probe-89","0.19564508845423187","0.405358232637971","0.6732654502753215","1","","","","","","","",""
"","html-keyboard-response","483","1640576","0.0-256.0-1.0","null","<p></p>","null","","","","","","","","","","","","","","","","","","",""
"","do_trial","484","1645576","0.0-257.0-0.0","457.39999997615814","","","","51","0,0,0","5","coast","198","probe-18","0.09347663105377552","0.33562706010358057","0.6586841888582214","0","","","","","","","",""
"","html-keyboard-response","485","1646578","0.0-257.0-1.0","null","<p></p>","null","","","","","","","","","","","","","","","","","","",""
"","do_trial","486","1651608","0.0-258.0-0.0","490.9000000357628","","","","51","0,0,1","5","coast","199","probe-178","0.05621504364693302","0.21637706010731828","0.634612712019547","1","","","","","","","",""
"","html-keyboard-response","487","1652612","0.0-258.0-1.0","null","<p></p>","null","","","","","","","","","","","","","","","","","","",""
"","do_trial","488","1657804","0.0-259.0-0.0","653.1000000238419","","","","51","0,1,1","5","coast","200","probe-83","0.05874843559097508","0.3387138355689588","0.6773863560402862","1","","","","","","","",""
"","html-keyboard-response","489","1658809","0.0-259.0-1.0","null","<p></p>","null","","","","","","","","","","","","","","","","","","",""
"","do_trial","490","1664214","0.0-260.0-0.0","864.1999999880791","","","","51","0,1,1","5","coast","201","probe-181","0.06833150290086383","0.4594359506971272","0.5626002817918032","1","","","","","","","",""
"","html-keyboard-response","491","1665219","0.0-260.0-1.0","null","<p></p>","null","","","","","","","","","","","","","","","","","","",""
"","do_trial","492","1671297","0.0-261.0-0.0","1535.5999999642372","","","","51","0,1,1","5","coast","202","probe-95","0.2895763963562655","0.3155058769832569","0.3533186792773587","1","","","","","","","",""
"","html-keyboard-response","493","1672303","0.0-261.0-1.0","null","<p></p>","null","","","","","","","","","","","","","","","","","","",""
"","do_trial","494","1677353","0.0-262.0-0.0","506.5","","","","51","1,1,0","5","coast","203","probe-216","0.4129642817223128","0.36133879318955703","0.25221528177879515","0","","","","","","","",""
"","html-keyboard-response","495","1678356","0.0-262.0-1.0","null","<p></p>","null","","","","","","","","","","","","","","","","","","",""
"","do_trial","496","1683254","0.0-263.0-0.0","356.9000000357628","","","","51","0,1,0","5","coast","204","probe-48","0.4745086914001068","0.4374462011479856","0.05886014908434794","0","","","","","","","",""
"","html-keyboard-response","497","1684260","0.0-263.0-1.0","null","<p></p>","null","","","","","","","","","","","","","","","","","","",""
"","do_trial","498","1689072","0.0-264.0-0.0","269.5","","","","49","0,0,0","5","coast","205","probe-21","0.49900384249732355","0.2806529068247789","0.12716498671170381","0","","","","","","","",""
"","html-keyboard-response","499","1690075","0.0-264.0-1.0","null","<p></p>","null","","","","","","","","","","","","","","","","","","",""
"","do_trial","500","1695106","0.0-265.0-0.0","487.5","","","","49","0,1,0","5","coast","206","probe-110","0.6328424983132511","0.25218434580997523","0.11822604301617685","0","","","","","","","",""
"","html-keyboard-response","501","1696108","0.0-265.0-1.0","null","<p></p>","null","","","","","","","","","","","","","","","","","","",""
"","do_trial","502","1701297","0.0-266.0-0.0","646.8000000119209","","","","50","0,0,0","5","coast","207","probe-177","0.6899358415916208","0.3571492303156485","0.16876358659617988","0","","","","","","","",""
"","html-keyboard-response","503","1702302","0.0-266.0-1.0","null","<p></p>","null","","","","","","","","","","","","","","","","","","",""
"","do_trial","504","1707216","0.0-267.0-0.0","370.30000001192093","","","","50","0,1,1","5","coast","208","probe-61","0.6858625772207843","0.4178916143898057","0.27234894532395354","1","","","","","","","",""
"","html-keyboard-response","505","1708218","0.0-267.0-1.0","null","<p></p>","null","","","","","","","","","","","","","","","","","","",""
"","do_trial","506","1713443","0.0-268.0-0.0","685.7999999523163","","","","50","0,0,0","5","coast","209","probe-84","0.6046904401049306","0.29193620562706274","0.2019177459819929","0","","","","","","","",""
"","html-keyboard-response","507","1714449","0.0-268.0-1.0","null","<p></p>","null","","","","","","","","","","","","","","","","","","",""
"","do_trial","508","1719400","0.0-269.0-0.0","413.80000001192093","","","","50","0,0,0","5","coast","210","probe-162","0.6193480578226346","0.29334243653740366","0.11519917365253493","0","","","","","","","",""
"","html-keyboard-response","509","1720407","0.0-269.0-1.0","null","<p></p>","null","","","","","","","","","","","","","","","","","","",""
"","do_trial","510","1725510","0.0-270.0-0.0","561.1999999880791","","","","51","1,1,0","5","coast","211","probe-32","0.5436200478953572","0.29248548135268676","0.10753229885533867","0","","","","","","","",""
"","html-keyboard-response","511","1726515","0.0-270.0-1.0","null","<p></p>","null","","","","","","","","","","","","","","","","","","",""
"","do_trial","512","1731496","0.0-271.0-0.0","442","","","","51","1,0,0","5","coast","212","probe-07","0.4956256357127629","0.39649145548611076","0.09657920836934324","0","","","","","","","",""
"","html-keyboard-response","513","1732500","0.0-271.0-1.0","null","<p></p>","null","","","","","","","","","","","","","","","","","","",""
"","do_trial","514","1737452","0.0-272.0-0.0","410.69999998807907","","","","49","1,0,1","5","coast","213","probe-217","0.473719406971877","0.39155601983214816","0.2952118453398449","1","","","","","","","",""
"","html-keyboard-response","515","1738457","0.0-272.0-1.0","null","<p></p>","null","","","","","","","","","","","","","","","","","","",""
"","do_trial","516","1744805","0.0-273.0-0.0","1808","","","","49","0,0,0","5","coast","214","probe-173","0.36728218579344235","0.3065527988164296","0.07836180993090906","0","","","","","","","",""
"","html-keyboard-response","517","1745807","0.0-273.0-1.0","null","<p></p>","null","","","","","","","","","","","","","","","","","","",""
"","do_trial","518","1750897","0.0-274.0-0.0","551.3000000119209","","","","49","0,0,0","5","coast","215","probe-10","0.527307330568969","0.2539900225100282","0.0833413996029759","0","","","","","","","",""
"","html-keyboard-response","519","1751898","0.0-274.0-1.0","null","<p></p>","null","","","","","","","","","","","","","","","","","","",""
"","do_trial","520","1756945","0.0-275.0-0.0","503.9000000357628","","","","49","1,1,0","5","coast","216","probe-166","0.5560355733512181","0.27781300891768956","0.10133256771669363","1","","","","","","","",""
"","html-keyboard-response","521","1757951","0.0-275.0-1.0","null","<p></p>","null","","","","","","","","","","","","","","","","","","",""
"","do_trial","522","1762972","0.0-276.0-0.0","482.89999997615814","","","","49","0,0,0","5","coast","217","probe-175","0.7106455373046557","0.2825639160937517","0.0915630011344554","0","","","","","","","",""
"","html-keyboard-response","523","1763978","0.0-276.0-1.0","null","<p></p>","null","","","","","","","","","","","","","","","","","","",""
"","do_trial","524","1768984","0.0-277.0-0.0","463.80000001192093","","","","49","1,0,0","5","coast","218","probe-210","0.8106876081547815","0.35934437202646335","0.10498889518306996","1","","","","","","","",""
"","html-keyboard-response","525","1769986","0.0-277.0-1.0","null","<p></p>","null","","","","","","","","","","","","","","","","","","",""
"","do_trial","526","1775244","0.0-278.0-0.0","716","","","","49","0,0,0","5","coast","219","probe-78","0.8027921203911905","0.2697163265972336","0.10965467831944968","0","","","","","","","",""
"","html-keyboard-response","527","1776250","0.0-278.0-1.0","null","<p></p>","null","","","","","","","","","","","","","","","","","","",""
"","do_trial","528","1781293","0.0-279.0-0.0","502.10000002384186","","","","50","1,0,0","5","coast","220","probe-67","0.8388613477334437","0.3097120965414188","0.09316367105312695","0","","","","","","","",""
"","html-keyboard-response","529","1782299","0.0-279.0-1.0","null","<p></p>","null","","","","","","","","","","","","","","","","","","",""
"","do_trial","530","1787272","0.0-280.0-0.0","431.69999998807907","","","","50","0,0,1","5","coast","221","probe-226","0.6921804917415929","0.3185876419347688","0.13923548077708842","0","","","","","","","",""
