"success","trial_type","trial_index","time_elapsed","internal_node_id","rt","stimulus","key_press","subject_id","response","choice_outcomes","context_n","context_img_id","trial_n","probe_img_id","pR_red","pR_white","pR_black","outcome","contextArray_ind","validImageProbes","invalidImageProbes","pRew_Red","pRew_White","pRew_Black","availableForMemProbe","choice_blocks"
"true","fullscreen","0","5052","0.0-0.0","","","","","","","","","","","","","","","","","","","","","",""
"","pavlovia","1","5063","0.0-1.0","","","","","","","","","","","","","","","","","","","","","",""
"","html-keyboard-response","2","23409","0.0-2.0","18341.900000095367","<div class='center'><p>Welcome! This is the first day of the experiment which will last ~30 minutes. In this experiment, you are the head captain of a pirate ship traveling around the world to different places. You will complete several different tasks during this experiment. Here is an overview of these tasks:</p><br><p>Day 1</p><p>1. Tutorial and quiz</p><p>2. Pick a pirate game in 6 different places</p><br><p>Day 2</p><p>3. Pick a pirate game and memory game</p><p>4. Final questions and payment</p><br><p>If you complete the entire experiment, you will receive $15 and a possible bonus payment.</p><p><b>[Press the space bar to begin the tutorial]</b></p></div>","32","61088472610a6fdd9b54fb9d","","","","","","","","","","","","","","","","","",""
"","html-keyboard-response","3","32492","0.0-3.0","9079.5","<div class='center'><p>You are the head captain of a pirate ship.</p><p> Your pirates rob other ships as they leave the marketplace port.</p> These ships have just sold all their goods at the marketplace, so they have lots and lots of gold on them.</p><p><img src='run_exp/static/images/ship_center.png' height='400'></p><p><b>[Press the space bar to continue]</b></p></div>","32","","","","","","","","","","","","","","","","","","",""
"","html-keyboard-response","4","59751","0.0-4.0","27260.5","<div class='center'><p>As the head captain, you do not have to rob any ships yourself.</p><p>You get to choose which pirate you want to rob the next ship. </p><p>If they are successful at robbing the ship, then you will get gold coins.</p><p> If they are not successful, then you will get no gold coins.</p><p> The more coins you collect, the more bonus money you will win. So, choose your pirate wisely.</p><p><img src='run_exp/static/images/goal.png' height='400'></p><p><b>[Press the space bar to continue]</b></p><div>","32","","","","","","","","","","","","","","","","","","",""
"","html-keyboard-response","5","76538","0.0-5.0","16784.299999952316","<div class='center'><p>Even the most skilled pirate will not be able to rob EVERY ship.</p><p> Some ships will have very strong defenses against attacks.</p><p> For example, blue beard, here,  is very good at robbing ships.</p><p> You can press the <b>‘1’</b> button on the keyboard to choose him.</p><p> Try choosing him 10 times to see how often he is successful at robbing ships. </p><p><img src='run_exp/static/images/blue.png' height='500'></p></div>","49","","","","","","","","","","","","","","","","","","",""
"","html-keyboard-response","6","78050","0.0-6.0","null","<br><br><br><br><p><img src='run_exp/static/images/blue_win.png' height='500'></p>","null","","","","","","","","","","","","","","","","","","",""
"","html-keyboard-response","7","79752","0.0-7.0","1698.4000000953674","<br><br><br><br><p><img src='run_exp/static/images/blue.png' height='500'></p>","49","","","","","","","","","","","","","","","","","","",""
"","html-keyboard-response","8","81264","0.0-8.0","null","<br><br><br><br><p><img src='run_exp/static/images/blue_win.png' height='500'></p>","null","","","","","","","","","","","","","","","","","","",""
"","html-keyboard-response","9","82057","0.0-9.0","790.7000000476837","<br><br><br><br><p><img src='run_exp/static/images/blue.png' height='500'></p>","49","","","","","","","","","","","","","","","","","","",""
"","html-keyboard-response","10","83560","0.0-10.0","null","<br><br><br><br><p><img src='run_exp/static/images/blue_win.png' height='500'></p>","null","","","","","","","","","","","","","","","","","","",""
"","html-keyboard-response","11","85223","0.0-11.0","1661.5","<br><br><br><br><p><img src='run_exp/static/images/blue.png' height='500'></p>","49","","","","","","","","","","","","","","","","","","",""
"","html-keyboard-response","12","86738","0.0-12.0","null","<br><br><br><br><p><img src='run_exp/static/images/blue_no_win.png' height='500'></p>","null","","","","","","","","","","","","","","","","","","",""
"","html-keyboard-response","13","88061","0.0-13.0","1320","<br><br><br><br><p><img src='run_exp/static/images/blue.png' height='500'></p>","49","","","","","","","","","","","","","","","","","","",""
"","html-keyboard-response","14","89572","0.0-14.0","null","<br><br><br><br><p><img src='run_exp/static/images/blue_win.png' height='500'></p>","null","","","","","","","","","","","","","","","","","","",""
"","html-keyboard-response","15","90610","0.0-15.0","1035.2000000476837","<br><br><br><br><p><img src='run_exp/static/images/blue.png' height='500'></p>","49","","","","","","","","","","","","","","","","","","",""
"","html-keyboard-response","16","92116","0.0-16.0","null","<br><br><br><br><p><img src='run_exp/static/images/blue_win.png' height='500'></p>","null","","","","","","","","","","","","","","","","","","",""
"","html-keyboard-response","17","94395","0.0-17.0","2276","<br><br><br><br><p><img src='run_exp/static/images/blue.png' height='500'></p>","49","","","","","","","","","","","","","","","","","","",""
"","html-keyboard-response","18","95900","0.0-18.0","null","<br><br><br><br><p><img src='run_exp/static/images/blue_win.png' height='500'></p>","null","","","","","","","","","","","","","","","","","","",""
"","html-keyboard-response","19","97344","0.0-19.0","1442.6000001430511","<br><br><br><br><p><img src='run_exp/static/images/blue.png' height='500'></p>","49","","","","","","","","","","","","","","","","","","",""
"","html-keyboard-response","20","98855","0.0-20.0","null","<br><br><br><br><p><img src='run_exp/static/images/blue_no_win.png' height='500'></p>","null","","","","","","","","","","","","","","","","","","",""
"","html-keyboard-response","21","99778","0.0-21.0","921.2999999523163","<br><br><br><br><p><img src='run_exp/static/images/blue.png' height='500'></p>","49","","","","","","","","","","","","","","","","","","",""
"","html-keyboard-response","22","101295","0.0-22.0","null","<br><br><br><br><p><img src='run_exp/static/images/blue_win.png' height='500'></p>","null","","","","","","","","","","","","","","","","","","",""
"","html-keyboard-response","23","102091","0.0-23.0","794","<br><br><br><br><p><img src='run_exp/static/images/blue.png' height='500'></p>","49","","","","","","","","","","","","","","","","","","",""
"","html-keyboard-response","24","103602","0.0-24.0","null","<br><br><br><br><p><img src='run_exp/static/images/blue_win.png' height='500'></p>","null","","","","","","","","","","","","","","","","","","",""
"","html-keyboard-response","25","105543","0.0-25.0","1938.7000000476837","<div class='center'><p> See, he was successful at robbing the ships most of the time but not every time. </p><p><b>[Press the space bar to continue]</b></p></div>","32","","","","","","","","","","","","","","","","","","",""
"","html-keyboard-response","26","111521","0.0-26.0","5974.100000143051","<div class='center'><p>In the game, you will get to choose which of three pirates you want to rob the next ship. <p>Press the <b>‘1’</b> button on your keyboard to pick the pirate with the red beard.</p><p> Press <b>‘2’</b> to pick the pirate with the white beard.</p><p> Press <b>‘3’</b> to pick the pirate with the black beard.</p><p>Try picking a pirate now!</p><p><img src='run_exp/static/images/all_pirates.png' height='500'></p></div>","51","","","","","","","","","","","","","","","","","","",""
"","html-keyboard-response","27","117604","0.0-27.0-0.0","6078","<div class='center'><p>This pirate was successful at robbing the ship!</p><p><img src='run_exp/static/images/black_win.png' height='500'></p><p><b>[Press the space bar to continue]</b></p></div>","32","","","","","","","","","","","","","","","","","","",""
"","html-keyboard-response","28","119253","0.0-27.0-1.0","1646.5999999046326","<div class='center'><p>Now try choosing another</p><p><img src='run_exp/static/images/all_pirates.png' height='500'></p></div>","49","","","","","","","","","","","","","","","","","","",""
"","html-keyboard-response","29","121742","0.0-28.0-0.0","2481.5","<div class='center'><p>This pirate was not successful at robbing the ship!</p><p><img src='run_exp/static/images/red_no_win.png' height='500'></p><p><b>[Press the space bar to continue]</b></p></div>","32","","","","","","","","","","","","","","","","","","",""
"","html-keyboard-response","30","124913","0.0-29.0-0.0","3169.7000000476837","<div class='center'><p>You’ll stop at these 6 places on your journey.</p><p><img src='run_exp/static/images/all_contexts.png' height='500'></p><p><b>[Press the space bar to continue]</b></p></div>","32","","","","","","","","","","","","","","","","","","",""
"","html-keyboard-response","31","129490","0.0-29.0-1.0","4575","<div class='center'><p>How good a pirate is at robbing ships will depend on the current place.</p><p> Some pirates will have been to the place before, and will have more experience robbing ships there.</p><p>So, they will be more successful at stealing gold and bringing it back to you.</p><p><b>[Press the space bar to continue]</b></p></div>","32","","","","","","","","","","","","","","","","","","",""
"","html-keyboard-response","32","144087","0.0-29.0-2.0","14595.5","<div class='center'><p>How successful a pirate is at robbing ships can also change in a place.<p> Ships may hear about the pirates coming and will improve their defenses. This may make it more difficult to rob them.</p><p> Ships may also grow lazy and lower their defenses. This may make it easier to rob them.</p><br><p>Things are always changing on the high seas! So, try your best to pay attention!</p><p><img src='run_exp/static/images/contingency.png' height='500'></p><p><b>[Press the space bar to continue]</b></p></div>","32","","","","","","","","","","","","","","","","","","",""
"","html-keyboard-response","33","219494","0.0-29.0-3.0","75408.19999980927","<div class='center'><p>Once you choose a pirate to rob a ship, you’ll be shown the ship they are robbing.</p><p>The ship will have a picture of the item they sold at the marketplace.</p><p> Try your best to remember the ship and where you saw the ship.</p><p> You’ll have to remember this for later, and remembering this correctly will help you win more bonus money!</p><p>You can remember the ship by remembering the item they sold at the marketplace</p><p>A helpful strategy is to try to come up with a story of the chosen pirate and ship’s item interacting with the scene.</p><p> For example, a ship might have sold travel mugs and you could imagine red beard walking through the city with a travel mug. </p><p>Or imagine an apple falling from a tree into white beard's hands in the forest.</p><p><img src='run_exp/static/images/example_probe.png' height='500'></p><p><b>[Press the space bar to continue]</b></p></div>","32","","","","","","","","","","","","","","","","","","",""
"","html-keyboard-response","34","223859","0.0-29.0-4.0","4363.5","<div class='center'><p>If you don’t make your choice fast enough, you’ll have to wait a few seconds before you can make another one. </p><p>You can’t win more gold. You just have to sit and wait.</p><p><img src='run_exp/static/images/hurry_up.png' height='500'></p><p><b>[Press the space bar to continue]</b></p></div>","32","","","","","","","","","","","","","","","","","","",""
"","html-keyboard-response","35","299858","0.0-29.0-5.0","75997","<div class='center'><p>Again, you have two important things to do: </p><b><p> 1. Pick the pirate who you think will be most successful at robbing the next ship.</p></b><b><p> 2. Remember where a pirate robbed a ship.</p> </b><p>Both are important in determining how much bonus money you’ll win.</p><br><p>Let’s try a practice game. The game will start by showing you the pirates. First pick a pirate using the <b> 1, 2, 3 </b> buttons on your keyboard. When you are shown a ship, try to remember the place you’re in by making up a story.</p><p> You only have 3 seconds to pick a pirate, so please make a choice quickly! If you are too slow, you’ll have to wait a bit during the time out.</p><p> Don’t feel rushed, but please do try to make a choice every time.</p><p>How good a pirate is at robbing a ship will change depending on the place they are in and how good the defenses are of the ship.</p> <p>This is just a practice game, so you’re not playing for money. </p><p>You’ll receive a bag which may or may not contain gold coins.</p><p> In the real game, though, you’ll be able to see whether or not you received the gold coins.</p><p> Good luck, remember press <b>'1'</b> to choose red beard, <b>'2'</b> to choose white beard, and <b>'3'</b> to choose black beard</p><p><b>[Press the space bar to begin the practice game]</b></p></div>","32","","","","","","","","","","","","","","","","","","",""
"","do_trial_prac","36","305884","0.0-29.0-6.0","null","","","","null","","","","","","","","","","","","","","","","",""
"","do_trial_prac","37","311450","0.0-29.0-7.0","1047.8999998569489","","","","51","","","","","","","","","","","","","","","","",""
"","do_trial_prac","38","317572","0.0-29.0-8.0","1607.3999998569489","","","","50","","","","","","","","","","","","","","","","",""
"","do_trial_prac","39","323949","0.0-29.0-9.0","1858.5999999046326","","","","49","","","","","","","","","","","","","","","","",""
"","do_trial_prac","40","329825","0.0-29.0-10.0","1360.4000000953674","","","","50","","","","","","","","","","","","","","","","",""
"","html-keyboard-response","41","334212","0.0-29.0-11.0","4385.800000190735","<div class='center'><p>Great job on the practice game!</p><p> Now, you will be asked you some true or false questions to make sure you really understand the rules of the game.</p><p> Press <b>'1'</b> on the keyboard for true and press <b>'2'</b> for false.</p><p><b>[Press the space bar to begin the quiz]</b></p></div>","32","","","","","","","","","","","","","","","","","","",""
"","html-keyboard-response","42","337607","0.0-29.0-12.0","3392.2999999523163","<div class='center'><p>You win bonus money by making choices as fast as possible.</p><p>Press 1 for true and press  2 for false.</p></div>","49","","","","","","","","","","","","","","","","","","",""
"","html-keyboard-response","43","339507","0.0-30.0-0.0","1898.5","<br><br><br><br><p>That’s incorrect! You win bonus money by collecting as many gold coins as possible!</p><p><b>[press the space bar to continue with the quiz]</b></p>","32","","","","","","","","","","","","","","","","","","",""
"","html-keyboard-response","44","344255","0.0-30.0-1.0","4745.699999809265","<div class='center'><p>You press the <b>‘3’</b> button on the keyboard to choose the red bearded pirate? </p><p>Press 1 for true and press  2 for false.</p></div>","49","","","","","","","","","","","","","","","","","","",""
"","html-keyboard-response","45","345838","0.0-31.0-0.0","1581","<br><br><br><br><p>That’s incorrect! You press the <b>‘1’</b> button to choose the red bearded pirate!</p><p><b>[press the space bar to continue with the quiz]</b></p>","32","","","","","","","","","","","","","","","","","","",""
"","html-keyboard-response","46","348413","0.0-31.0-1.0","2573.699999809265","<div class='center'><p>A pirate will always be equally successful at robbing ships in each place</p><p>Press 1 for true and press  2 for false.</p></div>","50","","","","","","","","","","","","","","","","","","",""
"","html-keyboard-response","47","350008","0.0-32.0-0.0","1592.7000000476837","<br><br><br><br><p>That's correct!</p> <p><b>[press the space bar to continue with the quiz]</b></p>","32","","","","","","","","","","","","","","","","","","",""
"","html-keyboard-response","48","352048","0.0-32.0-1.0","2038.2999999523163","<div class='center'><p>You should remember the place where a pirate robbed a ship.</p><p>Press 1 for true and press  2 for false.</p></div>","49","","","","","","","","","","","","","","","","","","",""
"","html-keyboard-response","49","352762","0.0-33.0-0.0","711","<br><br><br><br><p>That's correct!</p> <p><b>[press the space bar to continue with the quiz]</b></p>","32","","","","","","","","","","","","","","","","","","",""
"","html-keyboard-response","50","356165","0.0-34.0-0.0","3402.199999809265","<br><br><br><br><p>Oops, you missed some questions. Now that you’ve heard the correct answers. Try the quiz again! If you fail the quiz too many times, you won’t be able to do the experiment. </p> <p><br>[press the space bar to repeat the quiz]</br></p>","32","","","","","","","","","","","","","","","","","","",""
"","html-keyboard-response","51","361051","0.0-34.0-1.0","4889.5","<div class='center'><p>You win bonus money by making choices as fast as possible.</p><p>Press 1 for true and press  2 for false.</p></div>","50","","","","","","","","","","","","","","","","","","",""
"","html-keyboard-response","52","362263","0.0-35.0-0.0","1209.7000000476837","<br><br><br><br><p>That's correct!</p> <p><b>[press the space bar to continue with the quiz]</b></p>","32","","","","","","","","","","","","","","","","","","",""
"","html-keyboard-response","53","368213","0.0-35.0-1.0","5948.099999904633","<div class='center'><p>You press the <b>‘3’</b> button on the keyboard to choose the red bearded pirate? </p><p>Press 1 for true and press  2 for false.</p></div>","49","","","","","","","","","","","","","","","","","","",""
"","html-keyboard-response","54","370052","0.0-36.0-0.0","1837.2999999523163","<br><br><br><br><p>That’s incorrect! You press the <b>‘1’</b> button to choose the red bearded pirate!</p><p><b>[press the space bar to continue with the quiz]</b></p>","32","","","","","","","","","","","","","","","","","","",""
"","html-keyboard-response","55","372178","0.0-36.0-1.0","2123.899999856949","<div class='center'><p>A pirate will always be equally successful at robbing ships in each place</p><p>Press 1 for true and press  2 for false.</p></div>","50","","","","","","","","","","","","","","","","","","",""
"","html-keyboard-response","56","373588","0.0-37.0-0.0","1408.0999999046326","<br><br><br><br><p>That's correct!</p> <p><b>[press the space bar to continue with the quiz]</b></p>","32","","","","","","","","","","","","","","","","","","",""
"","html-keyboard-response","57","375243","0.0-37.0-1.0","1653.5","<div class='center'><p>You should remember the place where a pirate robbed a ship.</p><p>Press 1 for true and press  2 for false.</p></div>","49","","","","","","","","","","","","","","","","","","",""
"","html-keyboard-response","58","377658","0.0-38.0-0.0","2412.2999999523163","<br><br><br><br><p>That's correct!</p> <p><b>[press the space bar to continue with the quiz]</b></p>","32","","","","","","","","","","","","","","","","","","",""
"","html-keyboard-response","59","380347","0.0-39.0-0.0","2687.899999856949","<br><br><br><br><p>Oops, you missed some questions. Now that you’ve heard the correct answers. Try the quiz again! If you fail the quiz too many times, you won’t be able to do the experiment. </p> <p><br>[press the space bar to repeat the quiz]</br></p>","32","","","","","","","","","","","","","","","","","","",""
"","html-keyboard-response","60","383481","0.0-39.0-1.0","3131.399999856949","<div class='center'><p>You win bonus money by making choices as fast as possible.</p><p>Press 1 for true and press  2 for false.</p></div>","50","","","","","","","","","","","","","","","","","","",""
"","html-keyboard-response","61","384144","0.0-40.0-0.0","660.5","<br><br><br><br><p>That's correct!</p> <p><b>[press the space bar to continue with the quiz]</b></p>","32","","","","","","","","","","","","","","","","","","",""
"","html-keyboard-response","62","388384","0.0-40.0-1.0","4238","<div class='center'><p>You press the <b>‘3’</b> button on the keyboard to choose the red bearded pirate? </p><p>Press 1 for true and press  2 for false.</p></div>","50","","","","","","","","","","","","","","","","","","",""
"","html-keyboard-response","63","389267","0.0-41.0-0.0","881.1000001430511","<br><br><br><br><p>That's correct!</p> <p><b>[press the space bar to continue with the quiz]</b></p>","32","","","","","","","","","","","","","","","","","","",""
"","html-keyboard-response","64","392510","0.0-41.0-1.0","3241.2999999523163","<div class='center'><p>A pirate will always be equally successful at robbing ships in each place</p><p>Press 1 for true and press  2 for false.</p></div>","50","","","","","","","","","","","","","","","","","","",""
"","html-keyboard-response","65","393255","0.0-42.0-0.0","742.6999998092651","<br><br><br><br><p>That's correct!</p> <p><b>[press the space bar to continue with the quiz]</b></p>","32","","","","","","","","","","","","","","","","","","",""
"","html-keyboard-response","66","394831","0.0-42.0-1.0","1574.3999998569489","<div class='center'><p>You should remember the place where a pirate robbed a ship.</p><p>Press 1 for true and press  2 for false.</p></div>","49","","","","","","","","","","","","","","","","","","",""
"","html-keyboard-response","67","395707","0.0-43.0-0.0","846.1000001430511","<br><br><br><br><p>That's correct!</p> <p><b>[press the space bar to continue with the quiz]</b></p>","32","","","","","","","","","","","","","","","","","","",""
"","html-keyboard-response","68","396511","0.0-44.0-0.0","802.3999998569489","<br><br><br><br><p>Good job! You’re now ready to move on to the real game!</p> <p><br>[press the space bar to begin!]</br></p>","32","","","","","","","","","","","","","","","","","","",""
"","do_welcome","69","398029","0.0-45.0-0.0","null","","","","null","","","","","","","","","","","","","","","","",""
"","do_trial","70","403887","0.0-46.0-0.0","1284.4000000953674","","","","49","1,1,0","0","coast","0","probe-122","1","0.4","0.1","1","","","","","","","",""
"","do_trial","71","410002","0.0-47.0-0.0","1505.5999999046326","","","","51","1,1,1","0","coast","1","probe-190","1","0.4427824221180606","0.059389289919822924","1","","","","","","","",""
"","do_trial","72","416991","0.0-48.0-0.0","2388.5999999046326","","","","51","1,0,0","0","coast","2","probe-163","1","0.4304374509493764","0.09165672883774688","0","","","","","","","",""
"","do_trial","73","422124","0.0-49.0-0.0","525","","","","50","1,1,1","0","coast","3","probe-43","1","0.46101562523478096","0.18252207369723092","1","","","","","","","",""
"","do_trial","74","428597","0.0-50.0-0.0","1885.7000000476837","","","","49","1,1,0","0","coast","4","probe-127","0.9190031820519025","0.3293762086581337","0.07986976810650684","1","","","","","","","",""
"","do_trial","75","435662","0.0-51.0-0.0","2447.5","","","","51","1,0,0","0","coast","5","probe-82","0.9413203414135886","0.3860066158622773","0.07386558737438051","0","","","","","","","",""
"","do_trial","76","441130","0.0-52.0-0.0","871.2999999523163","","","","49","1,0,0","0","coast","6","probe-132","0.8129542542941005","0.3025848980592241","0.14132977338082084","1","","","","","","","",""
"","do_trial","77","446152","0.0-53.0-0.0","426.2999999523163","","","","50","1,0,0","0","coast","7","probe-200","0.8743919551634709","0.3397516457792241","0.12345607913330281","0","","","","","","","",""
"","do_trial","78","450992","0.0-54.0-0.0","228.80000019073486","","","","50","1,1,0","0","coast","8","probe-27","0.8262433371196509","0.33131020935471883","0.16304164897593168","1","","","","","","","",""
"","do_trial","79","456985","0.0-55.0-0.0","1397.0999999046326","","","","49","1,0,0","0","coast","9","probe-185","0.7387692525013518","0.275207913486689","0.16238860041230369","1","","","","","","","",""
"","do_trial","80","462092","0.0-56.0-0.0","515.0999999046326","","","","51","1,1,0","0","coast","10","probe-90","0.53481520156537","0.3580994851653895","0.4277303202408065","0","","","","","","","",""
"","do_trial","81","467214","0.0-57.0-0.0","518.7999999523163","","","","50","1,1,1","0","coast","11","probe-150","0.3313123114617553","0.41184555449805194","0.6049506809874132","1","","","","","","","",""
"","do_trial","82","471882","0.0-58.0-0.0","49.799999952316284","","","","49","0,0,1","0","coast","12","probe-204","0.14174281833212551","0.4578078379983959","0.7074965578290088","0","","","","","","","",""
"","do_trial","83","477392","0.0-59.0-0.0","896.3999998569489","","","","49","1,0,1","0","coast","13","probe-124","0.2274738777221047","0.4131642948338099","0.7166752797050251","1","","","","","","","",""
"","do_trial","84","482812","0.0-60.0-0.0","819.5999999046326","","","","49","0,0,0","0","coast","14","probe-01","0.08310733311311723","0.4236417483323779","0.7258699265648193","0","","","","","","","",""
"","do_trial","85","487809","0.0-61.0-0.0","406.2999999523163","","","","51","0,0,1","0","coast","15","probe-219","0.0782169435183332","0.39378159359758935","0.7595980522287945","1","","","","","","","",""
"","do_trial","86","493140","0.0-62.0-0.0","759.7999999523163","","","","50","0,0,0","0","coast","16","probe-137","0.06550167740505543","0.4968632822090519","0.7343578584208618","0","","","","","","","",""
"","do_trial","87","498208","0.0-63.0-0.0","492.10000014305115","","","","51","0,1,0","0","coast","17","probe-65","0.13146764073867542","0.4479422859996252","0.7764543677770374","0","","","","","","","",""
"","do_trial","88","503328","0.0-64.0-0.0","497.90000009536743","","","","50","0,0,1","0","coast","18","probe-119","0.06257355000753505","0.43196988488417143","0.6483124837653829","0","","","","","","","",""
"","do_trial","89","508472","0.0-65.0-0.0","543.5","","","","49","0,0,1","0","coast","19","probe-13","0.07310097382466603","0.450896573920533","0.6009675609054552","0","","","","","","","",""
"","do_trial","90","513402","0.0-66.0-0.0","322.40000009536743","","","","51","0,0,0","0","coast","20","probe-194","0.26522673975443317","0.5768732481462447","0.43399613312356167","0","","","","","","","",""
"","do_trial","91","518396","0.0-67.0-0.0","399.7999999523163","","","","51","0,0,1","0","coast","21","probe-155","0.11129312126541457","0.3920158130354882","0.6679233359855473","1","","","","","","","",""
"","do_trial","92","523664","0.0-68.0-0.0","673.3999998569489","","","","49","0,0,1","0","coast","22","probe-50","0.18594486595882628","0.23523133429440116","0.7188238793940193","0","","","","","","","",""
"","do_trial","93","528537","0.0-69.0-0.0","256.30000019073486","","","","50","0,1,0","0","coast","23","probe-20","0.22793823160276724","0.3388388666201114","0.8431522361673086","1","","","","","","","",""
"","do_trial","94","533508","0.0-70.0-0.0","370.7000000476837","","","","50","0,0,1","0","coast","24","probe-03","0.2708377559519829","0.48229004613835086","0.8594570697743668","0","","","","","","","",""
"","do_trial","95","538973","0.0-71.0-0.0","876.8999998569489","","","","49","1,1,1","0","coast","25","probe-165","0.10422942154318379","0.4587257991159527","0.8417348231585067","1","","","","","","","",""
"","do_trial","96","544062","0.0-72.0-0.0","503.2000000476837","","","","51","0,1,1","0","coast","26","probe-87","0.18727353229863025","0.35182830344671046","0.7969953764907858","1","","","","","","","",""
"","do_trial","97","548730","0.0-73.0-0.0","87.60000014305115","","","","50","0,1,1","0","coast","27","probe-234","0.11277345859603426","0.3124116151209453","0.7291359402709804","1","","","","","","","",""
"","do_trial","98","554081","0.0-74.0-0.0","754.7999999523163","","","","50","0,0,1","0","coast","28","probe-231","0.15421946356610836","0.4442832871841081","0.7732182687176844","0","","","","","","","",""
"","do_trial","99","559215","0.0-75.0-0.0","544.5","","","","49","0,0,0","0","coast","29","probe-205","0.06649739812739988","0.4713378182678989","0.8956659324711223","0","","","","","","","",""
"","do_trial","100","564658","0.0-76.0-0.0","829.5999999046326","","","","49","1,0,1","0","coast","30","probe-168","0.10192201045074165","0.38143702073365193","0.7843861652005927","1","","","","","","","",""
"","do_trial","101","569533","0.0-77.0-0.0","299.09999990463257","","","","51","0,0,0","0","coast","31","probe-180","0.1175200837293394","0.3271554736055016","0.5960888913503082","0","","","","","","","",""
"","do_trial","102","574587","0.0-78.0-0.0","447.5","","","","51","0,0,1","0","coast","32","probe-14","0.24075525828149175","0.2417428726338082","0.4891474709587543","1","","","","","","","",""
"","do_trial","103","579667","0.0-79.0-0.0","492.7000000476837","","","","50","0,0,1","0","coast","33","probe-141","0.11679035200901602","0.2913292049320564","0.6616604258802824","0","","","","","","","",""
"","do_trial","104","585045","0.0-80.0-0.0","761.0999999046326","","","","51","1,0,0","0","coast","34","probe-115","0.12688895428650546","0.3869492077216552","0.6280482856994871","0","","","","","","","",""
"","do_trial","105","590838","0.0-81.0-0.0","1189.9000000953674","","","","49","0,0,1","0","coast","35","probe-98","0.056722254769044675","0.3987939550837672","0.625594008525909","0","","","","","","","",""
"","do_trial","106","596098","0.0-82.0-0.0","680","","","","50","0,0,1","0","coast","36","probe-218","0.057775840391454225","0.2885925144221188","0.7819443160347784","0","","","","","","","",""
"","do_trial","107","601072","0.0-83.0-0.0","379.89999985694885","","","","51","0,1,0","0","coast","37","probe-92","0.08552295393032516","0.2747388087835841","0.7723594321051234","0","","","","","","","",""
"","do_trial","108","606066","0.0-84.0-0.0","417.7000000476837","","","","51","1,0,0","0","coast","38","probe-152","0.12979588506065498","0.36290054156522566","0.5548650594000698","0","","","","","","","",""
"","do_trial","109","611876","0.0-85.0-0.0","1230.3999998569489","","","","51","0,0,0","0","coast","39","probe-184","0.10756858018842777","0.3910091630328126","0.7752973562040353","0","","","","","","","",""
"","do_bye","110","613404","0.0-86.0-0.0","null","","","","null","","","","","","","","","","","","","","","","",""
"","do_travel","111","619423","0.0-87.0-0.0","null","","","","null","","","","","","","","","","","","","","","","",""
"","do_welcome","112","620938","0.0-87.0-1.0","null","","","","null","","","","","","","","","","","","","","","","",""
"","do_trial","113","627040","0.0-88.0-0.0","null","","","","null","0,0,1","1","city","40","probe-54","0.14481651745291962","0.29914654380645134","1","","","","","","","","",""
"","do_trial","114","631909","0.0-89.0-0.0","292.5","","","","50","0,0,1","1","city","41","probe-68","0.06493080306864626","0.34627064361179033","1","0","","","","","","","",""
"","do_trial","115","636924","0.0-90.0-0.0","427.7000000476837","","","","50","0,1,1","1","city","42","probe-95","0.11523552808081117","0.3774435014490237","1","1","","","","","","","",""
"","do_trial","116","641822","0.0-91.0-0.0","295.5","","","","49","0,1,1","1","city","43","probe-126","0.18464819512047428","0.4387545648934441","1","0","","","","","","","",""
"","do_trial","117","646749","0.0-92.0-0.0","341.39999985694885","","","","51","0,0,1","1","city","44","probe-136","0.29057990170790526","0.4450450961414368","0.9058644711303719","1","","","","","","","",""
"","do_trial","118","651657","0.0-93.0-0.0","327.2999999523163","","","","50","0,1,1","1","city","45","probe-117","0.3330963712455548","0.4672351812469637","0.9424809527603671","1","","","","","","","",""
"","do_trial","119","656551","0.0-94.0-0.0","311.90000009536743","","","","51","1,0,0","1","city","46","probe-64","0.38635949540607883","0.3991004964675806","0.8636344615403229","0","","","","","","","",""
"","do_trial","120","661558","0.0-95.0-0.0","417.7999999523163","","","","50","0,0,0","1","city","47","probe-33","0.24018974967181564","0.3449967722623008","0.6736209164667597","0","","","","","","","",""
"","do_trial","121","666900","0.0-96.0-0.0","722.2000000476837","","","","51","0,0,0","1","city","48","probe-222","0.14264152306480807","0.5187019449405346","0.7237286091726982","0","","","","","","","",""
"","do_trial","122","672504","0.0-97.0-0.0","1010.6000001430511","","","","49","0,0,1","1","city","49","probe-110","0.11388833140908138","0.42116809949858114","0.6905847857131135","0","","","","","","","",""
"","do_trial","123","677404","0.0-98.0-0.0","305.59999990463257","","","","50","0,1,1","1","city","50","probe-189","0.19506456436010366","0.6089469128356185","0.4765220607443574","1","","","","","","","",""
"","do_trial","124","683853","0.0-99.0-0.0","1858.6000001430511","","","","51","0,1,1","1","city","51","probe-91","0.14104100948366566","0.7692863476863709","0.3775567938839373","1","","","","","","","",""
"","do_trial","125","688920","0.0-100.0-0.0","479.60000014305115","","","","51","0,1,0","1","city","52","probe-66","0.16920051244158502","0.6944822244372684","0.2395087565593365","0","","","","","","","",""
"","do_trial","126","693857","0.0-101.0-0.0","350.5","","","","50","1,1,0","1","city","53","probe-175","0.1910747603749308","0.7663734551566093","0.20231780522380433","1","","","","","","","",""
"","do_trial","127","698741","0.0-102.0-0.0","285.09999990463257","","","","49","0,1,0","1","city","54","probe-167","0.314124696376518","0.9492356154910754","0.20548852325202974","0","","","","","","","",""
"","do_trial","128","703600","0.0-103.0-0.0","265.2999999523163","","","","51","0,1,1","1","city","55","probe-239","0.06900076372744439","0.9189374743955261","0.32347091969510144","1","","","","","","","",""
"","do_trial","129","708603","0.0-104.0-0.0","406.7999999523163","","","","51","1,1,1","1","city","56","probe-42","0.1486380918733964","0.876178871614025","0.23770670113730533","1","","","","","","","",""
"","do_trial","130","713418","0.0-105.0-0.0","217","","","","50","0,1,0","1","city","57","probe-213","0.14332583209283786","0.8281186000792604","0.3606030666455366","1","","","","","","","",""
"","do_trial","131","720924","0.0-106.0-0.0","2911.600000143051","","","","51","0,1,0","1","city","58","probe-188","0.11776241041444037","0.878975872254637","0.42634789566243925","0","","","","","","","",""
"","do_trial","132","727034","0.0-107.0-0.0","null","","","","null","0,1,1","1","city","59","probe-140","0.08607547296109613","0.8445156482374669","0.5351912879434751","","","","","","","","",""
"","do_trial","133","733135","0.0-108.0-0.0","null","","","","null","0,1,0","1","city","60","probe-187","0.08547755103330701","0.8674721761435121","0.5477816232556182","","","","","","","","",""
"","do_trial","134","738081","0.0-109.0-0.0","355.7000000476837","","","","50","0,1,0","1","city","61","probe-34","0.19633178357809705","0.8975187665481087","0.6165968132825798","1","","","","","","","",""
"","do_trial","135","742931","0.0-110.0-0.0","261.89999985694885","","","","51","0,1,0","1","city","62","probe-49","0.10198138806193839","0.8127721214921245","0.46093119642808866","0","","","","","","","",""
"","do_trial","136","747894","0.0-111.0-0.0","375.7000000476837","","","","50","0,1,0","1","city","63","probe-233","0.05829183452574793","0.779167321680788","0.4615419553221337","1","","","","","","","",""
"","do_trial","137","752525","0.0-112.0-0.0","0.20000004768371582","","","","51","1,1,0","1","city","64","probe-174","0.09513858764164715","0.7118587312398511","0.41528439675648976","0","","","","","","","",""
"","do_trial","138","757566","0.0-113.0-0.0","462.2000000476837","","","","50","0,1,0","1","city","65","probe-59","0.22613696276884837","0.6197309746324627","0.43572630951067803","1","","","","","","","",""
"","do_trial","139","762768","0.0-114.0-0.0","605.2000000476837","","","","50","0,1,0","1","city","66","probe-125","0.2696322456529868","0.6337071127070645","0.41734756800116257","1","","","","","","","",""
"","do_trial","140","767409","0.0-115.0-0.0","0.20000004768371582","","","","51","0,1,1","1","city","67","probe-134","0.19342082612312683","0.6643484937042407","0.5014713546175525","1","","","","","","","",""
"","do_trial","141","772495","0.0-116.0-0.0","473.59999990463257","","","","49","0,1,1","1","city","68","probe-15","0.1173770803855871","0.8204782929588754","0.4497849417770398","0","","","","","","","",""
"","do_trial","142","777784","0.0-117.0-0.0","682.6000001430511","","","","50","0,0,1","1","city","69","probe-197","0.057722183307403245","0.6787439026234519","0.5322061778429944","0","","","","","","","",""
"","do_trial","143","783858","0.0-118.0-0.0","1486.1000001430511","","","","50","0,1,0","1","city","70","probe-123","0.17863696120281275","0.7707862608620154","0.6150391918538073","1","","","","","","","",""
"","do_trial","144","790377","0.0-119.0-0.0","1933.7000000476837","","","","51","0,1,0","1","city","71","probe-170","0.18420620431075788","0.7741984236116973","0.5933425125603558","0","","","","","","","",""
"","do_trial","145","795050","0.0-120.0-0.0","78.29999995231628","","","","49","0,1,1","1","city","72","probe-80","0.061772571510502576","0.8823984358171687","0.4815277168902695","0","","","","","","","",""
"","do_trial","146","800105","0.0-121.0-0.0","444.7000000476837","","","","50","0,1,0","1","city","73","probe-21","0.07220184156400647","0.8705793124382776","0.49009901494883296","1","","","","","","","",""
"","do_trial","147","804704","0.0-122.0-0.0","1.5","","","","50","0,1,1","1","city","74","probe-28","0.18478629641962876","0.9193657276513965","0.5204574707023735","1","","","","","","","",""
"","do_trial","148","809301","0.0-123.0-0.0","0.20000004768371582","","","","50","0,1,0","1","city","75","probe-51","0.23196825516837125","0.8931653050286711","0.4629480475383061","1","","","","","","","",""
"","do_trial","149","813917","0.0-124.0-0.0","0.20000004768371582","","","","49","0,1,1","1","city","76","probe-48","0.23250953614958939","0.889144794520532","0.5253308946133545","0","","","","","","","",""
"","do_trial","150","818544","0.0-125.0-0.0","36.09999990463257","","","","50","1,1,1","1","city","77","probe-237","0.2207578140649094","0.8500963282485122","0.4615053435676873","1","","","","","","","",""
"","do_trial","151","823138","0.0-126.0-0.0","0.20000004768371582","","","","50","0,1,0","1","city","78","probe-24","0.14103286757351038","0.798170399719393","0.39282467271500665","1","","","","","","","",""
"","do_trial","152","827977","0.0-127.0-0.0","242.10000014305115","","","","50","0,1,1","1","city","79","probe-171","0.09972571287806441","0.8569564198194961","0.4484273128115545","1","","","","","","","",""
"","do_bye","153","829503","0.0-128.0-0.0","null","","","","null","","","","","","","","","","","","","","","","",""
"","do_travel","154","835510","0.0-129.0-0.0","null","","","","null","","","","","","","","","","","","","","","","",""
"","do_welcome","155","837031","0.0-129.0-1.0","null","","","","null","","","","","","","","","","","","","","","","",""
"","do_trial","156","843968","0.0-130.0-0.0","2299.5","","","","49","1,1,0","2","forest","80","probe-16","0.15917735826198592","1","0.33987898409995654","1","","","","","","","",""
"","do_trial","157","849346","0.0-131.0-0.0","771.9000000953674","","","","51","0,1,0","2","forest","81","probe-74","0.16212564605093926","1","0.13926481846781918","0","","","","","","","",""
"","do_trial","158","854621","0.0-132.0-0.0","691.5","","","","51","0,1,0","2","forest","82","probe-178","0.18121916411714625","1","0.14533224270637687","0","","","","","","","",""
"","do_trial","159","859483","0.0-133.0-0.0","272.19999980926514","","","","50","0,1,0","2","forest","83","probe-108","0.060553885266868106","1","0.32302137942404974","1","","","","","","","",""
"","do_trial","160","864581","0.0-134.0-0.0","508.30000019073486","","","","49","1,1,0","2","forest","84","probe-149","0.22593106798623389","0.8628377897317944","0.4007916846063021","1","","","","","","","",""
"","do_trial","161","869483","0.0-135.0-0.0","286.60000014305115","","","","50","0,1,1","2","forest","85","probe-139","0.09159586522407788","0.8789300831819756","0.3437998339135709","1","","","","","","","",""
"","do_trial","162","874204","0.0-136.0-0.0","125.5","","","","49","0,0,1","2","forest","86","probe-38","0.2202505377530227","0.9481218015664838","0.4030539112325882","0","","","","","","","",""
"","do_trial","163","879399","0.0-137.0-0.0","599.5","","","","51","0,1,0","2","forest","87","probe-77","0.26003625724550233","0.9092979290380939","0.34201575300386877","0","","","","","","","",""
"","do_trial","164","886962","0.0-138.0-0.0","2980.600000143051","","","","49","0,1,0","2","forest","88","probe-70","0.12903171967768326","0.8886200788885645","0.4071907925945432","0","","","","","","","",""
"","do_trial","165","892137","0.0-139.0-0.0","599.7000000476837","","","","50","0,0,1","2","forest","89","probe-192","0.20020229479362592","0.7674009826001232","0.33936809523735295","0","","","","","","","",""
"","do_trial","166","897454","0.0-140.0-0.0","682.4000000953674","","","","51","0,1,0","2","forest","90","probe-39","0.5386670983653469","0.39849642004534674","0.4495678733465654","0","","","","","","","",""
"","do_trial","167","902629","0.0-141.0-0.0","577.5","","","","49","0,0,0","2","forest","91","probe-135","0.5135499178107339","0.3610395102597069","0.5064000849850373","0","","","","","","","",""
"","do_trial","168","908871","0.0-142.0-0.0","1635.2999999523163","","","","49","1,0,1","2","forest","92","probe-186","0.6287475558074438","0.42229742862004005","0.5149130851347054","1","","","","","","","",""
"","do_trial","169","914365","0.0-143.0-0.0","920","","","","50","1,0,0","2","forest","93","probe-235","0.589833165611852","0.3929970162675656","0.34810384649764425","0","","","","","","","",""
"","do_trial","170","920576","0.0-144.0-0.0","1618.7999999523163","","","","51","1,0,1","2","forest","94","probe-156","0.686523866572512","0.08224136902130465","0.3687035099820163","1","","","","","","","",""
"","do_trial","171","926987","0.0-145.0-0.0","1820.9000000953674","","","","49","1,0,0","2","forest","95","probe-159","0.810657894175534","0.15518723258813769","0.3947150176220701","1","","","","","","","",""
"","do_trial","172","932627","0.0-146.0-0.0","1022.7999999523163","","","","51","1,0,1","2","forest","96","probe-183","0.8790851347019474","0.2320971302204732","0.5003554997811009","1","","","","","","","",""
"","do_trial","173","938441","0.0-147.0-0.0","1221.3999998569489","","","","50","0,0,1","2","forest","97","probe-148","0.7850487648445394","0.06271806152247811","0.440472860588927","0","","","","","","","",""
"","do_trial","174","943360","0.0-148.0-0.0","326","","","","49","1,0,0","2","forest","98","probe-67","0.8124568574322659","0.10079457540532127","0.3820071029877143","1","","","","","","","",""
"","do_trial","175","948787","0.0-149.0-0.0","831.7000000476837","","","","49","1,0,1","2","forest","99","probe-29","0.6788155298106904","0.1447031512156639","0.41158757365028675","1","","","","","","","",""
"","do_trial","176","955666","0.0-150.0-0.0","2303.0999999046326","","","","51","1,0,0","2","forest","100","probe-56","0.8441006861469177","0.13746473628998146","0.31127069706995253","0","","","","","","","",""
"","do_trial","177","961270","0.0-151.0-0.0","1011.6000001430511","","","","49","1,0,0","2","forest","101","probe-227","0.8602526440125265","0.15310598125874675","0.39824162718733724","1","","","","","","","",""
"","do_trial","178","966367","0.0-152.0-0.0","506","","","","50","1,0,1","2","forest","102","probe-107","0.9044506707235129","0.15491227006338504","0.3295737135032368","0","","","","","","","",""
"","do_trial","179","972242","0.0-153.0-0.0","1267.1000001430511","","","","51","1,0,0","2","forest","103","probe-130","0.7797257326807917","0.10058321143974158","0.3344026481556686","0","","","","","","","",""
"","do_trial","180","977296","0.0-154.0-0.0","470.2000000476837","","","","50","1,0,0","2","forest","104","probe-04","0.8486502177443492","0.08705888103544553","0.26980222795456543","0","","","","","","","",""
"","do_trial","181","982537","0.0-155.0-0.0","635.9000000953674","","","","49","1,0,0","2","forest","105","probe-133","0.9449306508302499","0.2787413054608731","0.255652118325615","1","","","","","","","",""
"","do_trial","182","988730","0.0-156.0-0.0","1602.4000000953674","","","","51","1,0,0","2","forest","106","probe-223","0.8231566537071341","0.17539327991471726","0.168668355199695","0","","","","","","","",""
"","do_trial","183","994844","0.0-157.0-0.0","null","","","","null","1,0,1","2","forest","107","probe-02","0.7826144231780916","0.059775098335976065","0.3626279488503309","","","","","","","","",""
"","do_trial","184","1000536","0.0-158.0-0.0","1102.0999999046326","","","","51","1,0,0","2","forest","108","probe-11","0.7919546716083737","0.17062726025166916","0.6280913937040643","0","","","","","","","",""
"","do_trial","185","1005667","0.0-159.0-0.0","533.0999999046326","","","","49","0,0,1","2","forest","109","probe-238","0.7873321531930881","0.09102912642827182","0.4875555868403893","0","","","","","","","",""
"","do_trial","186","1010260","0.0-160.0-0.0","0.20000004768371582","","","","50","0,0,1","2","forest","110","probe-121","0.6792082134824342","0.17051524335388074","0.3242484554360078","0","","","","","","","",""
"","do_trial","187","1015271","0.0-161.0-0.0","439.2999999523163","","","","51","1,0,0","2","forest","111","probe-226","0.5720988502825191","0.14074312729946548","0.3130551821306262","0","","","","","","","",""
"","do_trial","188","1020383","0.0-162.0-0.0","512.1999998092651","","","","49","1,1,0","2","forest","112","probe-52","0.7558345721863984","0.1531320771004919","0.428985111014885","1","","","","","","","",""
"","do_trial","189","1025407","0.0-163.0-0.0","400","","","","50","1,0,0","2","forest","113","probe-41","0.726625147894274","0.2773995450827152","0.28807933052190315","0","","","","","","","",""
"","do_trial","190","1030379","0.0-164.0-0.0","381.7000000476837","","","","51","1,0,0","2","forest","114","probe-169","0.6447249750681252","0.29957918425036767","0.19318136111551915","0","","","","","","","",""
"","do_trial","191","1035251","0.0-165.0-0.0","284.5","","","","50","1,0,0","2","forest","115","probe-208","0.7079767671446624","0.3271478941214629","0.4018062706223023","0","","","","","","","",""
"","do_trial","192","1040265","0.0-166.0-0.0","415.5","","","","49","1,0,1","2","forest","116","probe-83","0.8478146728484214","0.2842114499621263","0.42076025484230906","1","","","","","","","",""
"","do_trial","193","1045347","0.0-167.0-0.0","509.5","","","","51","1,0,0","2","forest","117","probe-230","0.9210668470182297","0.40014432661798227","0.45532064610565726","0","","","","","","","",""
"","do_trial","194","1050436","0.0-168.0-0.0","491.2000000476837","","","","50","1,0,0","2","forest","118","probe-104","0.8505904392413826","0.3453593638946565","0.36545530073538723","0","","","","","","","",""
"","do_trial","195","1055556","0.0-169.0-0.0","519.6999998092651","","","","51","0,0,0","2","forest","119","probe-88","0.8277366178899287","0.1572359189516041","0.38273183719179876","0","","","","","","","",""
"","do_bye","196","1057079","0.0-170.0-0.0","null","","","","null","","","","","","","","","","","","","","","","",""
"","do_travel","197","1063085","0.0-171.0-0.0","null","","","","null","","","","","","","","","","","","","","","","",""
"","do_welcome","198","1064612","0.0-171.0-1.0","null","","","","null","","","","","","","","","","","","","","","","",""
"","do_trial","199","1070698","0.0-172.0-0.0","null","","","","null","1,0,1","3","countryside","120","probe-25","1","0.09735041598324436","0.45301214685940916","","","","","","","","",""
"","do_trial","200","1075713","0.0-173.0-0.0","422.59999990463257","","","","49","1,0,0","3","countryside","121","probe-63","1","0.10115977299342944","0.47754211907324184","1","","","","","","","",""
"","do_trial","201","1080477","0.0-174.0-0.0","171.79999995231628","","","","50","1,0,1","3","countryside","122","probe-176","1","0.05327398963874221","0.4510605120163493","0","","","","","","","",""
"","do_trial","202","1085324","0.0-175.0-0.0","261","","","","51","1,0,1","3","countryside","123","probe-179","1","0.08232158637230771","0.4033152891069276","1","","","","","","","",""
"","do_trial","203","1090500","0.0-176.0-0.0","570.7000000476837","","","","50","0,0,1","3","countryside","124","probe-07","0.7940503840495639","0.06503189528229048","0.43445888330735316","0","","","","","","","",""
"","do_trial","204","1095664","0.0-177.0-0.0","578.0999999046326","","","","51","1,0,1","3","countryside","125","probe-146","0.8889612381121711","0.050871459239531805","0.4128845304821097","1","","","","","","","",""
"","do_trial","205","1100579","0.0-178.0-0.0","327","","","","49","1,0,1","3","countryside","126","probe-147","0.9443394404592864","0.2565882076446337","0.46420722197100567","1","","","","","","","",""
"","do_trial","206","1105574","0.0-179.0-0.0","387.5","","","","49","1,0,1","3","countryside","127","probe-142","0.9439668740750841","0.25442829420773416","0.5315635435961898","1","","","","","","","",""
"","do_trial","207","1110715","0.0-180.0-0.0","554","","","","51","1,1,1","3","countryside","128","probe-215","0.8224519474681583","0.1525738435868356","0.3477116092380827","1","","","","","","","",""
"","do_trial","208","1115640","0.0-181.0-0.0","337.59999990463257","","","","50","1,1,1","3","countryside","129","probe-151","0.8871061937422373","0.08573588610375248","0.33942191767969265","1","","","","","","","",""
"","do_trial","209","1120564","0.0-182.0-0.0","316.89999985694885","","","","49","1,1,0","3","countryside","130","probe-75","0.5535964063921842","0.1135880579720568","0.48279896191745075","1","","","","","","","",""
"","do_trial","210","1125605","0.0-183.0-0.0","452.2999999523163","","","","51","1,1,0","3","countryside","131","probe-69","0.46185223409100623","0.2202396049275467","0.5541514502135736","0","","","","","","","",""
"","do_trial","211","1130707","0.0-184.0-0.0","528.9000000953674","","","","50","0,0,1","3","countryside","132","probe-143","0.5165130392890596","0.22359655872821663","0.8148535202701486","0","","","","","","","",""
"","do_trial","212","1135605","0.0-185.0-0.0","320.39999985694885","","","","49","1,0,1","3","countryside","133","probe-228","0.3693506910306472","0.2597647610251127","0.7798551896010533","1","","","","","","","",""
"","do_trial","213","1141793","0.0-186.0-0.0","1589.0999999046326","","","","50","1,0,1","3","countryside","134","probe-26","0.4114677002143036","0.25739871091356215","0.7901365277529611","0","","","","","","","",""
"","do_trial","214","1146739","0.0-187.0-0.0","355.39999985694885","","","","51","1,0,1","3","countryside","135","probe-157","0.36561584815128434","0.23459765866451512","0.8734903339444187","1","","","","","","","",""
"","do_trial","215","1151519","0.0-188.0-0.0","185.39999985694885","","","","50","0,0,1","3","countryside","136","probe-118","0.3631847454330431","0.24462925651135847","0.7437970069019443","0","","","","","","","",""
"","do_trial","216","1156209","0.0-189.0-0.0","106.70000004768372","","","","49","1,0,1","3","countryside","137","probe-166","0.4900697758725237","0.2411004326007876","0.7971826931354378","1","","","","","","","",""
"","do_trial","217","1162203","0.0-190.0-0.0","1423","","","","51","0,0,1","3","countryside","138","probe-44","0.5563411047935013","0.11124788776427927","0.652669470303365","1","","","","","","","",""
"","do_trial","218","1167536","0.0-191.0-0.0","754.2999999523163","","","","49","1,1,1","3","countryside","139","probe-109","0.4174897168742364","0.13169338573446115","0.6893205962112297","1","","","","","","","",""
"","do_trial","219","1172818","0.0-192.0-0.0","691.5","","","","51","1,1,1","3","countryside","140","probe-10","0.39913779213954775","0.15716041810100925","0.7025990575708566","1","","","","","","","",""
"","do_trial","220","1178915","0.0-193.0-0.0","null","","","","null","1,0,1","3","countryside","141","probe-73","0.36694710167084893","0.06491738359189257","0.7727486852347357","","","","","","","","",""
"","do_trial","221","1183760","0.0-194.0-0.0","261.80000019073486","","","","51","1,0,1","3","countryside","142","probe-45","0.3565658995308844","0.1357153012698687","0.865009136404129","1","","","","","","","",""
"","do_trial","222","1189303","0.0-195.0-0.0","958.8999998569489","","","","49","1,0,1","3","countryside","143","probe-207","0.4376304473982274","0.17244217668846823","0.9286627259313365","1","","","","","","","",""
"","do_trial","223","1194739","0.0-196.0-0.0","839.2000000476837","","","","51","0,0,1","3","countryside","144","probe-229","0.5180769154858436","0.22088375275332037","0.8316039016327652","1","","","","","","","",""
"","do_trial","224","1201501","0.0-197.0-0.0","2146.7999999523163","","","","51","0,1,1","3","countryside","145","probe-161","0.41070618975311524","0.34582208413825144","0.7684113368925057","1","","","","","","","",""
"","do_trial","225","1206973","0.0-198.0-0.0","851.2000000476837","","","","51","1,0,1","3","countryside","146","probe-236","0.44373062838523936","0.23206315853807813","0.7866763348521522","1","","","","","","","",""
"","do_trial","226","1213053","0.0-199.0-0.0","1484.8000001907349","","","","49","0,0,1","3","countryside","147","probe-153","0.3961057425703878","0.22668266250354335","0.6375331363212218","0","","","","","","","",""
"","do_trial","227","1218104","0.0-200.0-0.0","427.2000000476837","","","","50","0,0,1","3","countryside","148","probe-06","0.5203719765181228","0.07039826023656579","0.5979629196324497","0","","","","","","","",""
"","do_trial","228","1224260","0.0-201.0-0.0","1557.3999998569489","","","","51","0,0,1","3","countryside","149","probe-46","0.3327714273023776","0.1329046184151408","0.5756015947507914","1","","","","","","","",""
"","do_trial","229","1229472","0.0-202.0-0.0","624.2000000476837","","","","49","0,0,1","3","countryside","150","probe-144","0.3006022611343214","0.1445648763775506","0.7237621949114466","0","","","","","","","",""
"","do_trial","230","1236215","0.0-203.0-0.0","2165.9000000953674","","","","51","0,0,0","3","countryside","151","probe-114","0.35424367037587146","0.15899841476824583","0.6820170107077023","0","","","","","","","",""
"","do_trial","231","1242352","0.0-204.0-0.0","null","","","","null","1,1,0","3","countryside","152","probe-57","0.3560013861098459","0.2466964336836552","0.7949531148100794","","","","","","","","",""
"","do_trial","232","1247339","0.0-205.0-0.0","366.19999980926514","","","","50","1,0,1","3","countryside","153","probe-103","0.5200233707486417","0.3418769557233323","0.8407583637396497","0","","","","","","","",""
"","do_trial","233","1253425","0.0-206.0-0.0","null","","","","null","0,0,1","3","countryside","154","probe-116","0.43188675213558464","0.21391001252575947","0.8415239895832981","","","","","","","","",""
"","do_trial","234","1259592","0.0-207.0-0.0","1474.2000000476837","","","","50","0,0,1","3","countryside","155","probe-145","0.38605316837950826","0.2768192110346805","0.8734896239106353","0","","","","","","","",""
"","do_trial","235","1265821","0.0-208.0-0.0","1640.0999999046326","","","","51","1,1,1","3","countryside","156","probe-232","0.3542330384117385","0.08622025066902939","0.7445191255819456","1","","","","","","","",""
"","do_trial","236","1272234","0.0-209.0-0.0","1796.5","","","","49","0,0,1","3","countryside","157","probe-211","0.3145517295510651","0.13070056579158132","0.8626830035238223","0","","","","","","","",""
"","do_trial","237","1279562","0.0-210.0-0.0","2744.7000000476837","","","","51","1,0,1","3","countryside","158","probe-100","0.3406058077855607","0.050375279636122386","0.8845547799740255","1","","","","","","","",""
"","do_trial","238","1285984","0.0-211.0-0.0","1830.6000001430511","","","","50","0,0,1","3","countryside","159","probe-81","0.1816224554361213","0.12768662740630163","0.7881306522845942","0","","","","","","","",""
"","do_bye","239","1287506","0.0-212.0-0.0","null","","","","null","","","","","","","","","","","","","","","","",""
"","do_travel","240","1293524","0.0-213.0-0.0","null","","","","null","","","","","","","","","","","","","","","","",""
"","do_welcome","241","1295050","0.0-213.0-1.0","null","","","","null","","","","","","","","","","","","","","","","",""
"","do_trial","242","1300577","0.0-214.0-0.0","940.7999999523163","","","","51","1,0,1","4","mountain","160","probe-72","0.24700381630710197","0.215549704642037","1","1","","","","","","","",""
"","do_trial","243","1305686","0.0-215.0-0.0","525.8000001907349","","","","49","1,0,1","4","mountain","161","probe-216","0.2702198012310414","0.05077006677208452","1","1","","","","","","","",""
"","do_trial","244","1310875","0.0-216.0-0.0","591.7000000476837","","","","50","0,0,1","4","mountain","162","probe-94","0.3822948771894062","0.12572373743415038","1","0","","","","","","","",""
"","do_trial","245","1316969","0.0-217.0-0.0","null","","","","null","0,0,1","4","mountain","163","probe-08","0.48417974738439257","0.0818208257760872","1","","","","","","","","",""
"","do_trial","246","1323102","0.0-218.0-0.0","null","","","","null","0,0,1","4","mountain","164","probe-225","0.5749733311722632","0.22791462221430572","0.7086375761225194","","","","","","","","",""
"","do_trial","247","1329655","0.0-219.0-0.0","1960.2000000476837","","","","50","0,0,1","4","mountain","165","probe-76","0.5538768314875654","0.24964275894362403","0.7064378087866762","0","","","","","","","",""
"","do_trial","248","1335721","0.0-220.0-0.0","null","","","","null","1,0,1","4","mountain","166","probe-79","0.4501608178234337","0.17976638242702125","0.8735965434353665","","","","","","","","",""
"","do_trial","249","1341824","0.0-221.0-0.0","null","","","","null","1,1,1","4","mountain","167","probe-36","0.4486945350858321","0.1337076393687771","0.8846407768566874","","","","","","","","",""
"","do_trial","250","1347931","0.0-222.0-0.0","null","","","","null","1,0,0","4","mountain","168","probe-224","0.36979533296474226","0.1290422657028622","0.8161597763738379","","","","","","","","",""
"","do_trial","251","1352930","0.0-223.0-0.0","405.40000009536743","","","","49","1,0,0","4","mountain","169","probe-60","0.27933483520488395","0.11417998911983217","0.6940337708304304","1","","","","","","","",""
"","do_trial","252","1359182","0.0-224.0-0.0","1673.9000000953674","","","","51","1,1,0","4","mountain","170","probe-99","0.4122907421137554","0.36829487705489244","0.4408462950769259","0","","","","","","","",""
"","do_trial","253","1363826","0.0-225.0-0.0","44.700000047683716","","","","51","0,0,1","4","mountain","171","probe-40","0.6375150903040493","0.3711910530678091","0.267577768591748","1","","","","","","","",""
"","do_trial","254","1368808","0.0-226.0-0.0","371.7000000476837","","","","50","1,0,0","4","mountain","172","probe-120","0.7562771105854874","0.4190412951779745","0.16942236859322635","0","","","","","","","",""
"","do_trial","255","1374205","0.0-227.0-0.0","803.9000000953674","","","","50","1,1,0","4","mountain","173","probe-86","0.8460276718942619","0.4040110194242726","0.08788374380504006","1","","","","","","","",""
"","do_trial","256","1380862","0.0-228.0-0.0","2077.4000000953674","","","","49","1,0,0","4","mountain","174","probe-22","0.8998561786101743","0.4889522165901529","0.06767878387986158","1","","","","","","","",""
"","do_trial","257","1388187","0.0-229.0-0.0","2720.100000143051","","","","51","1,0,0","4","mountain","175","probe-212","0.8870901377730485","0.4150710481987052","0.1111842358273148","0","","","","","","","",""
"","do_trial","258","1393788","0.0-230.0-0.0","989.5","","","","49","0,1,0","4","mountain","176","probe-220","0.7945074308737284","0.3133214548670687","0.09540479428433418","0","","","","","","","",""
"","do_trial","259","1398552","0.0-231.0-0.0","165.5","","","","50","1,1,0","4","mountain","177","probe-162","0.848426431775669","0.3489870120098242","0.05199164995747279","1","","","","","","","",""
"","do_trial","260","1404164","0.0-232.0-0.0","980.0999999046326","","","","49","1,1,0","4","mountain","178","probe-113","0.93560510965208","0.3600666962293352","0.12262997360908884","1","","","","","","","",""
"","do_trial","261","1409373","0.0-233.0-0.0","624","","","","50","1,0,1","4","mountain","179","probe-89","0.8945864846926884","0.21624340985487056","0.11128316919290067","0","","","","","","","",""
"","do_trial","262","1414390","0.0-234.0-0.0","417.2999999523163","","","","50","1,0,0","4","mountain","180","probe-106","0.7699735365861524","0.30223888227604845","0.07353743219346714","0","","","","","","","",""
"","do_trial","263","1419664","0.0-235.0-0.0","678.2999999523163","","","","49","1,1,0","4","mountain","181","probe-112","0.8218693722447913","0.2719291338117358","0.09263453122543122","1","","","","","","","",""
"","do_trial","264","1424693","0.0-236.0-0.0","427.7999999523163","","","","50","0,0,0","4","mountain","182","probe-105","0.6817502766122506","0.2750592256574111","0.13874490907328504","0","","","","","","","",""
"","do_trial","265","1429755","0.0-237.0-0.0","476.69999980926514","","","","51","1,0,0","4","mountain","183","probe-101","0.7473678749714121","0.42581442298909544","0.15892332230192474","0","","","","","","","",""
"","do_trial","266","1436082","0.0-238.0-0.0","1714.0999999046326","","","","49","1,0,0","4","mountain","184","probe-210","0.7131586679165582","0.31066619129926554","0.0650331995615095","1","","","","","","","",""
"","do_trial","267","1442187","0.0-239.0-0.0","null","","","","null","1,0,0","4","mountain","185","probe-111","0.5982059265065207","0.24940304649201075","0.08860557782365698","","","","","","","","",""
"","do_trial","268","1447247","0.0-240.0-0.0","442.10000014305115","","","","50","1,1,0","4","mountain","186","probe-78","0.6570143479254621","0.4491440863512461","0.22015800264646412","1","","","","","","","",""
"","do_trial","269","1452552","0.0-241.0-0.0","716.0999999046326","","","","51","1,1,0","4","mountain","187","probe-203","0.8879343591802791","0.498235414572032","0.0958802447380844","0","","","","","","","",""
"","do_trial","270","1457629","0.0-242.0-0.0","487.7999999523163","","","","49","1,0,0","4","mountain","188","probe-182","0.8619529635561892","0.4820498413380312","0.17221222299508063","1","","","","","","","",""
"","do_trial","271","1464819","0.0-243.0-0.0","2610.100000143051","","","","50","1,1,0","4","mountain","189","probe-128","0.7517857142718289","0.47347777929303747","0.10703706948130723","1","","","","","","","",""
"","do_trial","272","1471263","0.0-244.0-0.0","1869.7999999523163","","","","51","0,0,1","4","mountain","190","probe-195","0.8085385680448303","0.41539874178081226","0.07226466293445477","1","","","","","","","",""
"","do_trial","273","1477807","0.0-245.0-0.0","1967.1999998092651","","","","49","0,1,0","4","mountain","191","probe-158","0.745421742489193","0.4022869361955355","0.10200486821258112","0","","","","","","","",""
"","do_trial","274","1482388","0.0-246.0-0.0","0.20000004768371582","","","","51","0,0,0","4","mountain","192","probe-32","0.6949172869757597","0.46470615642908886","0.10643979504073336","0","","","","","","","",""
"","do_trial","275","1487416","0.0-247.0-0.0","440.7999999523163","","","","50","1,0,0","4","mountain","193","probe-37","0.6979274991421938","0.4061165937968928","0.06395159327549126","0","","","","","","","",""
"","do_trial","276","1492707","0.0-248.0-0.0","698.7000000476837","","","","51","1,0,0","4","mountain","194","probe-206","0.856248753288293","0.4603927836802209","0.16805711812892823","0","","","","","","","",""
"","do_trial","277","1497944","0.0-249.0-0.0","650.3000001907349","","","","49","1,1,0","4","mountain","195","probe-61","0.8686430923346748","0.40295238484562235","0.06205499408432409","1","","","","","","","",""
"","do_trial","278","1502612","0.0-250.0-0.0","89.70000004768372","","","","50","1,0,0","4","mountain","196","probe-221","0.8457934879109322","0.5634622795416567","0.06919032247555999","0","","","","","","","",""
"","do_trial","279","1507546","0.0-251.0-0.0","342.5","","","","49","1,1,1","4","mountain","197","probe-202","0.588442184692172","0.45702021723251224","0.08921813093285724","1","","","","","","","",""
"","do_trial","280","1512818","0.0-252.0-0.0","685.4000000953674","","","","49","0,0,1","4","mountain","198","probe-172","0.4904186323901365","0.4361762416015846","0.12404520085018848","0","","","","","","","",""
"","do_trial","281","1517449","0.0-253.0-0.0","51.299999952316284","","","","49","0,0,0","4","mountain","199","probe-96","0.6301712069161317","0.4203840242672615","0.14902675433434467","0","","","","","","","",""
"","do_bye","282","1518977","0.0-254.0-0.0","null","","","","null","","","","","","","","","","","","","","","","",""
"","do_travel","283","1524984","0.0-255.0-0.0","null","","","","null","","","","","","","","","","","","","","","","",""
"","do_welcome","284","1526504","0.0-255.0-1.0","null","","","","null","","","","","","","","","","","","","","","","",""
"","do_trial","285","1531330","0.0-256.0-0.0","248.90000009536743","","","","50","1,1,1","5","highway","200","probe-131","1","0.4509147610269163","0.05352295164757079","1","","","","","","","",""
"","do_trial","286","1536324","0.0-257.0-0.0","414.2000000476837","","","","51","1,0,1","5","highway","201","probe-12","1","0.4082645557413498","0.1703229875161476","1","","","","","","","",""
"","do_trial","287","1541402","0.0-258.0-0.0","434.7999999523163","","","","49","1,0,0","5","highway","202","probe-164","1","0.36554301243043014","0.1276103258339685","1","","","","","","","",""
"","do_trial","288","1546705","0.0-259.0-0.0","702.8000001907349","","","","51","1,0,0","5","highway","203","probe-240","1","0.332459691749812","0.13433168550669988","0","","","","","","","",""
"","do_trial","289","1551570","0.0-260.0-0.0","256.69999980926514","","","","50","1,0,0","5","highway","204","probe-05","0.8019961806314342","0.5850336314398603","0.12327383563329603","0","","","","","","","",""
"","do_trial","290","1556601","0.0-261.0-0.0","421","","","","49","1,1,0","5","highway","205","probe-217","0.5981386564243332","0.37693399418046","0.11557982499068226","1","","","","","","","",""
"","do_trial","291","1561696","0.0-262.0-0.0","505.09999990463257","","","","51","1,0,0","5","highway","206","probe-97","0.9495568019751888","0.3774965120992746","0.21459619633506916","0","","","","","","","",""
"","do_trial","292","1566570","0.0-263.0-0.0","291","","","","49","1,0,0","5","highway","207","probe-154","0.8913212539433379","0.2918505947189706","0.277472206562903","1","","","","","","","",""
"","do_trial","293","1571446","0.0-264.0-0.0","295.7000000476837","","","","50","1,1,0","5","highway","208","probe-47","0.8020752361582709","0.3119634338716834","0.10551207844399019","1","","","","","","","",""
"","do_trial","294","1576644","0.0-265.0-0.0","594.6999998092651","","","","49","1,0,0","5","highway","209","probe-09","0.8137975139430784","0.32217681891049466","0.08157107530336237","1","","","","","","","",""
"","do_trial","295","1582147","0.0-266.0-0.0","917.0999999046326","","","","50","0,0,0","5","highway","210","probe-181","0.5666275032113157","0.25734895834511295","0.33426355031515154","0","","","","","","","",""
"","do_trial","296","1587812","0.0-267.0-0.0","1064.0999999046326","","","","51","1,0,0","5","highway","211","probe-23","0.6193299437223043","0.08547921185618979","0.4063065228647384","0","","","","","","","",""
"","do_trial","297","1594308","0.0-268.0-0.0","1912","","","","49","1,0,0","5","highway","212","probe-53","0.5196678938307882","0.0945820821744773","0.6095932366166262","1","","","","","","","",""
"","do_trial","298","1599493","0.0-269.0-0.0","607","","","","51","0,0,0","5","highway","213","probe-199","0.5698919488118801","0.09435038382027891","0.7010170625401889","0","","","","","","","",""
"","do_trial","299","1604412","0.0-270.0-0.0","330.7000000476837","","","","49","1,0,1","5","highway","214","probe-177","0.5477617239106728","0.12075129903927581","0.652046075688327","1","","","","","","","",""
"","do_trial","300","1609977","0.0-271.0-0.0","975.5","","","","51","0,0,1","5","highway","215","probe-35","0.41292923644980983","0.08561366181836016","0.6096625693354314","1","","","","","","","",""
"","do_trial","301","1616101","0.0-272.0-0.0","1541.5","","","","49","0,0,0","5","highway","216","probe-160","0.3936773850517343","0.1262550561046075","0.6172999259371338","0","","","","","","","",""
"","do_trial","302","1621135","0.0-273.0-0.0","447","","","","51","1,0,0","5","highway","217","probe-102","0.4372362019581337","0.11608849750037697","0.6497856507537896","0","","","","","","","",""
"","do_trial","303","1625922","0.0-274.0-0.0","198","","","","50","0,0,1","5","highway","218","probe-55","0.3118174949036043","0.06551924501593781","0.7719804763138371","0","","","","","","","",""
"","do_trial","304","1630870","0.0-275.0-0.0","346.7000000476837","","","","49","1,0,1","5","highway","219","probe-196","0.29639498923869967","0.051771953685841254","0.7335725970475658","1","","","","","","","",""
"","do_trial","305","1635913","0.0-276.0-0.0","443.59999990463257","","","","50","0,1,1","5","highway","220","probe-129","0.2021413062954123","0.17663432754607833","0.7916227537444612","1","","","","","","","",""
"","do_trial","306","1640963","0.0-277.0-0.0","458.5","","","","51","1,0,1","5","highway","221","probe-85","0.236830937732758","0.18061789355338617","0.84893229006522","1","","","","","","","",""
"","do_trial","307","1645927","0.0-278.0-0.0","341.5","","","","50","1,0,1","5","highway","222","probe-214","0.24814840513653433","0.22224948083442914","0.8840964071850431","0","","","","","","","",""
"","do_trial","308","1651287","0.0-279.0-0.0","771.7999999523163","","","","50","1,0,1","5","highway","223","probe-71","0.4364677932762469","0.05567873275239517","0.6552191784899981","0","","","","","","","",""
"","do_trial","309","1656136","0.0-280.0-0.0","273.2000000476837","","","","49","0,0,0","5","highway","224","probe-209","0.3245309963829051","0.09127719326322867","0.7424997917557786","0","","","","","","","",""
"","do_trial","310","1660712","0.0-281.0-0.0","0.09999990463256836","","","","51","0,0,1","5","highway","225","probe-18","0.46040657191775874","0.18785683435353442","0.826059083746979","1","","","","","","","",""
"","do_trial","311","1666701","0.0-282.0-0.0","1406.7000000476837","","","","50","1,0,1","5","highway","226","probe-17","0.4719634498632363","0.08474333189680765","0.9005344111192846","0","","","","","","","",""
"","do_trial","312","1672217","0.0-283.0-0.0","922","","","","51","0,0,1","5","highway","227","probe-58","0.4594793636132223","0.05466750158350422","0.875485331300993","1","","","","","","","",""
"","do_trial","313","1676889","0.0-284.0-0.0","86.89999985694885","","","","49","0,0,1","5","highway","228","probe-93","0.3896264989637008","0.0548625992957329","0.7805975866630399","0","","","","","","","",""
"","do_trial","314","1681990","0.0-285.0-0.0","507.40000009536743","","","","51","1,0,1","5","highway","229","probe-84","0.48751024339999866","0.15659798340511627","0.7599000665745791","1","","","","","","","",""
"","do_trial","315","1687055","0.0-286.0-0.0","466","","","","51","0,0,1","5","highway","230","probe-62","0.41068120041822737","0.08517823634385684","0.83080143238113","1","","","","","","","",""
"","do_trial","316","1691774","0.0-287.0-0.0","125.60000014305115","","","","50","0,0,1","5","highway","231","probe-193","0.3803771636673622","0.06325846029793437","0.9054968343162741","0","","","","","","","",""
"","do_trial","317","1697081","0.0-288.0-0.0","727.5","","","","49","0,0,1","5","highway","232","probe-201","0.3557243219319288","0.057679615202988206","0.8233628612856506","0","","","","","","","",""
"","do_trial","318","1701818","0.0-289.0-0.0","157.59999990463257","","","","49","1,0,1","5","highway","233","probe-30","0.47124338405267713","0.10527848236290308","0.7907811883092116","1","","","","","","","",""
"","do_trial","319","1707659","0.0-290.0-0.0","1257.5999999046326","","","","51","0,0,1","5","highway","234","probe-173","0.28999808283263323","0.16787468864851307","0.7972824724978353","1","","","","","","","",""
"","do_trial","320","1712552","0.0-291.0-0.0","305","","","","50","0,0,0","5","highway","235","probe-138","0.28570745577631984","0.08139483305375976","0.8612715925096075","0","","","","","","","",""
"","do_trial","321","1717182","0.0-292.0-0.0","41","","","","49","0,0,1","5","highway","236","probe-191","0.14608539678384774","0.08815068904463816","0.9189424596856718","0","","","","","","","",""
"","do_trial","322","1722625","0.0-293.0-0.0","859.4000000953674","","","","50","0,0,1","5","highway","237","probe-31","0.20906998009837563","0.13813370377425344","0.9421492074044993","0","","","","","","","",""
"","do_trial","323","1728637","0.0-294.0-0.0","1430.7999999523163","","","","51","0,0,1","5","highway","238","probe-198","0.39824578427337254","0.14587890172914164","0.872361393044375","1","","","","","","","",""
"","do_trial","324","1733320","0.0-295.0-0.0","88.09999990463257","","","","50","1,0,1","5","highway","239","probe-19","0.3995251928976011","0.08552377249077713","0.8322558406117478","0","","","","","","","",""
"","do_bye","325","1734835","0.0-296.0-0.0","null","","","","null","","","","","","","","","","","","","","","","",""
"","html-keyboard-response","326","1738525","0.0-296.0-1.0","3686.600000143051","<div class='center'>You are all done with the first part of the experiment! Thank you for participating. Tomorrow, you will recieve an invite to participate in the next phase of the experiment which you must complete by the end of the day. <p><b>[Press the space bar to end the experiment]</b></p></div>","32","","","","","","","","","","","","0,5,3,1,2,4","121,189,162,42,126,81,131,199,26,184,89,149,203,123,0,218,136,64,118,12,193,154,49,19,2,164,86,233,230,204,167,179,13,140,114,97,217,91,151,183,53,67,94,125,135,116,63,32,221,109,188,90,65,174,166,238,41,212,187,139,186,33,48,232,173,58,124,133,14,196,122,169,79,20,27,50,47,236,23,170,15,73,177,107,148,138,37,76,69,191,38,134,185,234,155,158,182,147,66,28,55,226,106,129,3,132,222,1,10,237,120,225,51,40,168,207,82,229,103,87,24,62,175,178,6,145,146,141,214,150,74,68,142,227,25,156,117,165,43,108,9,72,44,206,228,160,235,152,5,45,143,113,56,102,115,144,231,210,99,80,71,215,93,7,224,75,78,35,223,59,98,39,119,85,21,211,219,161,112,88,105,111,104,100,209,110,77,202,181,127,194,157,31,36,205,60,220,201,171,95,130,11,163,239,4,216,96,153,46,8,180,22,52,198,176,34,159,101,54,195,128,84,213,70,208,17,16,57,92,83,61,192,200,29,172,137,190,30,197,18","13,17,11,4,18,7,3,5,0,14,6,1,8,15,10,12,16,2,9","0.30066496054959385,0.29096449117593504,0.28115242681655656,0.46148556110961636,0.47474169002403566,0.5765541159242725,0.5189078414598091,0.5302162320819237,0.5447009681213176,0.5071198310415924,0.6830785616942318,0.5854062690064639,0.7014998202916866,0.7829292508639901,0.7215337569859793,0.7969082322498332,0.9056792267924254,0.8782015472817717,0.7746392685920587,0.7946967107743241,0.752722526781763,0.8109296507714256,0.7777742476818347,0.7442871531600995,0.8014177648950104,0.8310960331435924,0.7531939627273162,0.7736563077229177,0.6724972874305685,0.7714825361119312,1,0.9045089692679337,0.6940735556036658,0.7517062124291125,0.6610043542598446,0.7616947119062141,0.7739298580192986,0.7794801506132174,0.7683499238805968,0.7327254172169638,0.8153774342972363,0.77355552842125,0.5159006269067282,0.35380775744912507,0.2546574110595904,0.12015005412521738,0.15831757358191714,0.3096083833941406,0.06589064854368722,0.20897114946621906,0.13866904444045544,0.07963776993500805,0.14391812892640307,0.20858543938297375,0.1220587528360997,0.13648868642801038,0.08844698503078417,0.06859496469446759,0.0884925009437399,0.1192515087833917,0.10096719427780616,0.11554810877570615,0.25449276131174986,0.22804681889117068,0.29000181472335024,0.2472826372459525,0.16426372540694809,0.20748424275551294,0.08430073870984389,0.062214093253538105,0.4295158894190877,0.48205143528511224,0.5483098937482938,0.6276000364750599,0.606245372943781,0.6878161182923946,0.5966884186254832,0.6391590875320995,0.5440256170523281,0.5816338604501405,0.5643484840617096,0.5682831191968165,0.6509291361072492,0.7065585612484152,0.682570555283557,0.7436094787120772,0.7180808312284171,0.9255253501532977,0.8669292180970442,0.9058296929417019,1,0.8966739278319042,0.8541822743579699,0.7318473662112668,0.6790946254933445,0.7571016364023418,0.7145490852794751,0.6180927415972749,0.543961102570032,0.5833623052529829,0.43560399201217365,0.2527067265544782,0.17150547435390462,0.16056893969595798,0.19555524034985297,0.2752459696803091,0.06541648788560052,0.07203584197268112,0.08790232042102492,0.12752250711263138,0.26063535152215633,0.20754435336031005,0.15099646636323258,0.08777092045672577,0.08094680646799234,0.13037450321358685,0.08185306975221288,0.06755859852931076,0.050285568753640486,0.053851814912497104,0.06915087602668296,0.05669937349368544,0.12536585552649152,0.07581131806050546,0.11009192862600975,0.11745592946551064,0.06302707261783792,0.06297466896977369,0.1876541349659103,0.251049121154396,0.10777321071908498,0.22674122323038462,0.18742463731367665,0.13169117128299854,0.13152343070785114,0.23110852877782273,0.16220187921131823,0.2390090821862315,0.125220548409363,0.3176484053674789,0.32823540260632905,0.4813524971518384,0.48057429146231206,0.36761489046238566,0.4818217642371232,0.5741693931345416,0.557004863402723,0.6876182924409203,0.5443545130552679,0.5034418205662948,0.541134591956399,0.40034782321697754,0.53233375670192,0.43780834394161433,0.37676502743783136,0.46197552893080845,0.4854358401657575,0.5703931212297116,0.435967796232343,0.27369994577463813,0.1871769958627818,0.12942830714739795,0.3921642101832628,0.4250852025826587,0.767520329081838,0.8343309391036355,0.888653786452882,0.8664642540495479,0.8296623066673472,0.8230006447952924,0.7893706810110213,0.8200395824527695,0.868228457982022,0.880084374983613,0.9002983006195739,0.7913086128509353,0.7707368776044057,0.7111801908604914,0.6772989712600842,0.7458550657309796","0.13314235280108272,0.08781156886424828,0.05656919868579931,0.14031254967052215,0.27660217229206696,0.1588658065754389,0.06362867800385794,0.12905197931794188,0.0800011668391507,0.09430635615544926,0.24298247448994942,0.3097575838087157,0.338134667294949,0.39731672709182764,0.432000798851888,0.4655151374970344,0.4306913952608769,0.42494040319577,0.3791260080142345,0.423129414472843,0.4180521967601438,0.4417304528198356,0.42490624642395647,0.45958687743656584,0.326842152050054,0.28775121541793147,0.4119303697520156,0.613964950752928,0.5639253096905139,0.6267131728125007,0.6009773758446143,0.4039632113383899,0.5050217941486738,0.5270097746561906,0.25872831970005883,0.34379228438760573,0.3265939192747009,0.318186462366228,0.37038761959246563,0.24060750559026,0.36488439088697744,0.22847664262258058,0.3460735272958586,0.3525311818641506,0.4412687758302113,0.4217807651101929,0.36227829677058965,0.2930989605265694,0.29212316632079643,0.36333522713239824,0.2404722556159984,0.39780321786655365,0.33936287164616447,0.33434901013465146,0.3631870170499343,0.5108889860340287,0.33975807293097676,0.31959633059422293,0.1796471273428505,0.2964976340410286,0.1922879751809432,0.3164901653324222,0.21874834959498812,0.3329299488944685,0.18588505002251457,0.2104902458331105,0.1695801879053804,0.3585902213921054,0.4727806332090514,0.3266343853345432,0.15025499997983333,0.1347137545847565,0.10898921391657379,0.10540501240816372,0.15185660360949654,0.09135015860800713,0.06744374683884018,0.0870242670693571,0.08848647925426431,0.11189617943303237,0.11771871914494035,0.13602871112899054,0.08247452169186208,0.07169778488433293,0.06963868616438963,0.16492595823713052,0.16988050743520514,0.079192057908454,0.1530146464440925,0.3374066922508159,0.3320089309709231,0.15336391149091705,0.17418663393740227,0.07179949463549568,0.07121576608062659,0.10537300512568466,0.06297066148184585,0.17464705233926495,0.19026390357801198,0.2586241107215786,0.3268954051522273,0.30681502393473425,0.4608892414935858,0.3303371320276342,0.5184827777716008,0.5038270688634097,0.3821060806015472,0.3300002991589079,0.3750701165667664,0.39593297927863136,0.37924032737863356,0.41762842015938995,0.5768979440087004,0.6204427510822942,0.3953721495973667,0.34412968947743006,0.3817035375694703,0.513452921296718,0.5514794746075622,0.5235029218307335,0.4955446175049877,0.5848133589402454,0.4883582115497499,0.35706293094458014,0.41436128519474485,0.4241522410202422,0.31197823027373867,0.27625629435653964,0.4119374953181164,0.4499450082565109,0.4251999528541566,0.35310302482941774,0.4399647903676272,0.49689211976519126,0.4320971994371432,0.5682123523446617,0.5504495817744866,0.47314242307484883,0.5425271154282661,0.6250388867556802,0.772131708285242,0.8099578544614573,0.7563611665916257,0.7361268839818936,0.7438073709067792,0.66049844949148,0.7468250835806649,0.7203220866048791,0.8065831654576191,0.8328653485790162,1,0.9406315631697203,0.7965644188803706,0.7785335773991945,0.8393835839553104,0.8142610340859792,0.9352864860869281,0.8601050465358446,0.8932322603295626,0.7927016588874929,0.7873347860040489,0.7305084057908668,0.5076130243508369,0.4474066801573979,0.3932268825623579,0.23017821565095575,0.21037039756209075,0.1404414178551287,0.11703692526548208,0.20111811421603598,0.17748202198131247,0.2275539247264041,0.16288815216877595,0.08804650217218264,0.09219900356516485,0.1235755416306645,0.18167910351972708,0.19334438335360676,0.12572048095443836,0.08447159502583274","1,0.8731467478059678,0.7736190949259918,0.7743941951475223,0.8111912663685813,0.7586269092396077,0.7267811035848125,0.7882219050865197,0.7959875317925739,0.8760462594727781,0.5195708530901131,0.23022242575420804,0.1198237874937508,0.10949024596527532,0.09151328129600263,0.19023254044065646,0.29183258542639595,0.21405385389425888,0.06827716034273999,0.15699246270743256,0.16288197149381398,0.158785672203705,0.07800639510332515,0.1081993379278957,0.16993977398964227,0.19055928159539876,0.05827805342638799,0.06268961582446952,0.0587379629371622,0.0937235407226385,0.05527905046488913,0.08324645254771941,0.21304880294792625,0.053609691523509966,0.1088363110831162,0.24528226287709778,0.1259942538193943,0.08428883316921476,0.07267980700205123,0.08031399033548775,0.05006906913846475,0.19911971800053344,0.5074737591432482,0.6537226853699662,0.5775814192935933,0.5277580114110594,0.6486722349615385,0.6300304631399556,0.6880620200867744,0.7397734863249015,0.8546343547922588,0.8125593871457762,0.8063264357100376,0.7077662700367006,0.7624802960784929,0.7070579560211013,0.7811561771781835,0.800712893709541,0.6516007984392969,0.7219590038226292,1,0.8620922411007252,0.8093860056547126,0.7449530202243346,0.8092395061637507,0.7565257505756411,0.6978284354210136,0.7850375245145185,0.7177033751592601,0.7804827393838575,0.5678882696255556,0.6167501186487835,0.5826941837221655,0.49461150214534627,0.45950522430012064,0.34856969878961946,0.4161564391642461,0.39297130398200714,0.36395343410781666,0.4647104037913954,0.46689120006860985,0.7176340095357024,0.610640598553643,0.5227599272591702,0.550567766768634,0.42761081485402863,0.43864850427507157,0.2724481936503298,0.25083662942508583,0.26820160839129037,0.4053241138513336,0.19671449279933217,0.2614263452124421,0.26257159411412145,0.2472402996766758,0.34007415022393794,0.35858927009760605,0.23827966425936167,0.30137845985231304,0.41772990273938876,0.49915609482029094,0.7134547080842851,0.7015692293461074,0.780850700776984,0.7405093510474252,0.7724657720864697,0.8703443889851632,0.8058275418443122,0.7488833372331564,0.856878101566175,0.7311535598476974,0.781237884957444,0.651684017723213,0.6785412923454698,0.6319270334063802,0.7744140552365418,0.6947004220666148,0.8211115780563327,0.7351013748643296,0.8562470449205846,1,0.8447448728663455,0.9367423475218507,0.8897028018451186,0.9059152532290868,0.9027049491480856,0.8901443487552545,0.7953761895177606,0.887248953266564,0.8047226028916273,0.8561411788772635,0.80850024809484,0.7248181453990314,0.8846297973959208,0.6974091441386506,0.7672475099280067,0.8692843672317512,0.9138043178878346,0.9494302969425554,0.6252509703841231,0.4841127295666665,0.2268395614783408,0.3189410619640108,0.2562526589287494,0.1879088630410104,0.16504105839324873,0.09682812769809836,0.11428996542822495,0.06143713473946587,0.07967750229149884,0.1556575368331248,0.177087056263764,0.1754741824895437,0.15821685118474085,0.11123948449527309,0.20970363690361132,0.3134730981933146,0.22670433194082001,0.19020422053907682,0.062219187033200785,0.09989519447412797,0.2412233326463818,0.31077236272649733,0.2743480822986302,0.3262104959233496,0.34437215359135503,0.44959701732114427,0.2533052741721238,0.39336875868116083,0.48359293624194544,0.4888325374568765,0.4686854714323034,0.5522979222253185,0.5489306248166804,0.4228763843179041,0.434505851792041,0.387991233141733,0.39822965262511006,0.34400750118169326,0.438778040212137","204,200,128,82,84,47,203,126,201,81,46,123,207,85,88,161,122,87,129,169,44,80,41,160,83,124,86,208,127,89,48,202,205,209,45,162,121,165,43,42,49,125,206","1,1,1,3,1,1,1,6,4,5,1,1,1,1,1,1,1,1,1,5,4,4,1,2,1,2,1,1,1,4,4,1,1,5,1,2,2,1,1,1,1,2,1,5,1,1,1,1,3,1,5,1,1,6,1,1,1,2,4,3"
