"success","trial_type","trial_index","time_elapsed","internal_node_id","rt","stimulus","key_press","subject_id","response","choice_outcomes","context_n","context_img_id","trial_n","probe_img_id","pR_red","pR_white","pR_black","outcome","contextArray_ind","validImageProbes","invalidImageProbes","pRew_Red","pRew_White","pRew_Black","availableForMemProbe","choice_blocks"
"true","fullscreen","0","3500","0.0-0.0","","","","","","","","","","","","","","","","","","","","","",""
"","pavlovia","1","3503","0.0-1.0","","","","","","","","","","","","","","","","","","","","","",""
"","html-keyboard-response","2","15885","0.0-2.0","12380","<div class='center'><p>Welcome! This is the first day of the experiment which will last ~30 minutes. In this experiment, you are the head captain of a pirate ship traveling around the world to different places. You will complete several different tasks during this experiment. Here is an overview of these tasks:</p><br><p>Day 1</p><p>1. Tutorial and quiz</p><p>2. Pick a pirate game in 6 different places</p><br><p>Day 2</p><p>3. Pick a pirate game and memory game</p><p>4. Final questions and payment</p><br><p>If you complete the entire experiment, you will receive $15 and a possible bonus payment.</p><p><b>[Press the space bar to begin the tutorial]</b></p></div>","32","565c931eba63db00051cd52d","","","","","","","","","","","","","","","","","",""
"","html-keyboard-response","3","22786","0.0-3.0","6900","<div class='center'><p>You’ll stop at these 6 islands on your journey. You'll be able to see them in the distance from your ship.</p><p><img src='run_exp/static/images/contexts/all_contexts.png' height='500'></p><p><b>[Press the space bar to continue]</b></p></div>","32","","","","","","","","","","","","","","","","","","",""
"","html-keyboard-response","4","30875","0.0-4.0","8088","<div class='center'><p> The pirates on your ship will rob other ships as they leave island</p> These ships have just sold their things to the people living on the island, so they will have lots and lots of gold on them.</p><p><img src='run_exp/static/images/tutorial/ship_center.png' height='400'></p><p><b>[Press the space bar to continue]</b></p></div>","32","","","","","","","","","","","","","","","","","","",""
"","html-keyboard-response","5","44151","0.0-5.0","13274","<div class='center'><p>As the head captain, you do not have to rob any ships yourself.</p><p>Another pirate will be doing the robbing for you. </p><p><img src='run_exp/static/images/tutorial/pirates_all_crop.png' height='200'></p><p>If they could rob the ship, then you will get a stack of gold coins like this:</p><p><img src='run_exp/static/images/tutorial/reward.png' height='150'></p><p> If they couldn't rob the ship, then you will get no gold coins and you'll see a big red x like this: </p><p><img src='run_exp/static/images/tutorial/reward_no.png' height='150'></p><p> How much bonus money you make is based on how many gold coins you collect.</p><p><b>[Press the space bar to continue]</b></p><div>","32","","","","","","","","","","","","","","","","","","",""
"","html-keyboard-response","6","55685","0.0-6.0","11533","<div class='center'><p>Even the most skilled pirate can not rob EVERY ship.</p><p> Some ships will have very strong defenses against pirate attacks.</p><p> For example, blue beard, here, is very, very good at robbing ships.</p><p> You can press the <b>‘1’</b> button on the keyboard to choose him.</p><p> Try choosing him 10 times to see how often he can rob a ship. </p><p><img src='run_exp/static/images/tutorial/blue.png' height='500'></p></div>","49","","","","","","","","","","","","","","","","","","",""
"","html-keyboard-response","7","57190","0.0-7.0","null","<div class='center'><p><img src='run_exp/static/images/tutorial/blue_win.png' height='500'></p></div>","null","","","","","","","","","","","","","","","","","","",""
"","html-keyboard-response","8","58375","0.0-8.0","1185","<div class='center'><img src='run_exp/static/images/tutorial/blue.png' height='500'></p></div>","49","","","","","","","","","","","","","","","","","","",""
"","html-keyboard-response","9","59885","0.0-9.0","null","<div class='center'><p><img src='run_exp/static/images/tutorial/blue_win.png' height='500'></p></div>","null","","","","","","","","","","","","","","","","","","",""
"","html-keyboard-response","10","60212","0.0-10.0","325","<div class='center'><img src='run_exp/static/images/tutorial/blue.png' height='500'></p></div>","49","","","","","","","","","","","","","","","","","","",""
"","html-keyboard-response","11","61721","0.0-11.0","null","<div class='center'><p><img src='run_exp/static/images/tutorial/blue_win.png' height='500'></p></div>","null","","","","","","","","","","","","","","","","","","",""
"","html-keyboard-response","12","62380","0.0-12.0","658","<div class='center'><img src='run_exp/static/images/tutorial/blue.png' height='500'></p></div>","49","","","","","","","","","","","","","","","","","","",""
"","html-keyboard-response","13","63886","0.0-13.0","null","<div class='center'><p><img src='run_exp/static/images/tutorial/blue_no_win.png' height='500'></p></div>","null","","","","","","","","","","","","","","","","","","",""
"","html-keyboard-response","14","64373","0.0-14.0","486","<div class='center'><img src='run_exp/static/images/tutorial/blue.png' height='500'></p></div>","49","","","","","","","","","","","","","","","","","","",""
"","html-keyboard-response","15","65885","0.0-15.0","null","<div class='center'><p><img src='run_exp/static/images/tutorial/blue_win.png' height='500'></p></div>","null","","","","","","","","","","","","","","","","","","",""
"","html-keyboard-response","16","66362","0.0-16.0","477","<div class='center'><img src='run_exp/static/images/tutorial/blue.png' height='500'></p></div>","49","","","","","","","","","","","","","","","","","","",""
"","html-keyboard-response","17","67874","0.0-17.0","null","<div class='center'><p><img src='run_exp/static/images/tutorial/blue_win.png' height='500'></p></div>","null","","","","","","","","","","","","","","","","","","",""
"","html-keyboard-response","18","68156","0.0-18.0","282","<div class='center'><img src='run_exp/static/images/tutorial/blue.png' height='500'></p></div>","49","","","","","","","","","","","","","","","","","","",""
"","html-keyboard-response","19","69664","0.0-19.0","null","<div class='center'><p><img src='run_exp/static/images/tutorial/blue_win.png' height='500'></p></div>","null","","","","","","","","","","","","","","","","","","",""
"","html-keyboard-response","20","70041","0.0-20.0","375","<div class='center'><img src='run_exp/static/images/tutorial/blue.png' height='500'></p></div>","49","","","","","","","","","","","","","","","","","","",""
"","html-keyboard-response","21","71547","0.0-21.0","null","<div class='center'><p><img src='run_exp/static/images/tutorial/blue_no_win.png' height='500'></p></div>","null","","","","","","","","","","","","","","","","","","",""
"","html-keyboard-response","22","71865","0.0-22.0","317","<div class='center'><img src='run_exp/static/images/tutorial/blue.png' height='500'></p></div>","49","","","","","","","","","","","","","","","","","","",""
"","html-keyboard-response","23","73370","0.0-23.0","null","<div class='center'><p><img src='run_exp/static/images/tutorial/blue_win.png' height='500'></p></div>","null","","","","","","","","","","","","","","","","","","",""
"","html-keyboard-response","24","73740","0.0-24.0","369","<div class='center'><img src='run_exp/static/images/tutorial/blue.png' height='500'></p></div>","49","","","","","","","","","","","","","","","","","","",""
"","html-keyboard-response","25","75254","0.0-25.0","null","<div class='center'><p><img src='run_exp/static/images/tutorial/blue_win.png' height='500'></p></div>","null","","","","","","","","","","","","","","","","","","",""
"","html-keyboard-response","26","78081","0.0-26.0","2827","<div class='center'><p> See, he could rob the ships most of the time but not every time. </p><p><b>[Press the space bar to continue]</b></p></div>","32","","","","","","","","","","","","","","","","","","",""
"","html-keyboard-response","27","84580","0.0-27.0","6499","<div class='center'><p>You will get to choose which of three pirates you want to rob the next ship. <p>Press the <b>‘1’</b> button on your keyboard to pick the pirate with the red beard.</p><p> Press <b>‘2’</b> to pick the pirate with the white beard.</p><p> Press <b>‘3’</b> to pick the pirate with the black beard.</p><p>Try picking a pirate now!</p><p><img src='run_exp/static/images/tutorial/all_pirates.png' height='500'></p></div>","50","","","","","","","","","","","","","","","","","","",""
"","html-keyboard-response","28","86232","0.0-28.0-0.0","1649","<div class='center'><p>This pirate could rob the ship!</p><p><img src='run_exp/static/images/tutorial/white_win.png' height='500'></p><p><b>[Press the space bar to continue]</b></p></div>","32","","","","","","","","","","","","","","","","","","",""
"","html-keyboard-response","29","87575","0.0-28.0-1.0","1343","<div class='center'><p>Now try choosing another</p><p><img src='run_exp/static/images/tutorial/all_pirates.png' height='500'></p></div>","51","","","","","","","","","","","","","","","","","","",""
"","html-keyboard-response","30","89152","0.0-29.0-0.0","1573","<div class='center'><p>This pirate could not rob the ship!</p><p><img src='run_exp/static/images/tutorial/black_no_win.png' height='500'></p><p><b>[Press the space bar to continue]</b></p></div>","32","","","","","","","","","","","","","","","","","","",""
"","html-keyboard-response","31","96270","0.0-30.0-0.0","7117","<div class='center'><p>If you don’t make your choice fast enough, you’ll have to wait a few seconds before you can make another one. </p><p>You can’t collect more gold coins. You just have to sit and wait.</p><p><img src='run_exp/static/images/miscellaneous/hurry_up.png' height='500'></p><p><b>[Press the space bar to continue]</b></p></div>","32","","","","","","","","","","","","","","","","","","",""
"","html-keyboard-response","32","121135","0.0-30.0-1.0","24864","<div class='center'><p>Once you choose a pirate, you’ll be shown the ship they are robbing.</p><p>You will never rob the same ship twice.</p><p>Ships can be told apart from one another by the image on them.</p><p> Every time you see a ship, you will have to remember on which island you saw it.</p><p> Remembering correctly will help you win more bonus money!</p><p>A helpful strategy is to try to come up with a story of the object on the ship interacting with the current island scene.</p><p> For example, here, you could imagine a mug full of water in the desert. </p><p>For a ship with an apple on it on the forest island, you could imagine an apple falling from a tree in the forest.</p><p><img src='run_exp/static/images/tutorial/example_probe.png' height='500'></p><p><b>[Press the space bar to continue]</b></p></div>","32","","","","","","","","","","","","","","","","","","",""
"","html-keyboard-response","33","129385","0.0-30.0-2.0","8250","<div class='center'><p>How good a pirate is at robbing ships will depend on the current island.</p><p> A pirate may have visited the island many times before and gained a lot of practice robbing ships there.</p><p>So, they're more likely to bring back gold coins than a pirate who has never visited this island before. </p><p><b>[Press the space bar to continue]</b></p></div>","32","","","","","","","","","","","","","","","","","","",""
"","html-keyboard-response","34","141441","0.0-30.0-3.0","12055","<div class='center'><p>How good a pirate is at robbing ships can also change over the time spent on the island<p> Ships may hear from islanders about the pirates coming and will improve their protection against the attack. This may make it harder to rob them.</p><p> Ships may also become lazy and lower their protection. This may make it easier to rob them.</p><br><p>Things are always changing on the high seas! So, try your best to pay attention!</p><p><img src='run_exp/static/images/tutorial/contingency.png' height='500'></p><p><b>[Press the space bar to continue]</b></p></div>","32","","","","","","","","","","","","","","","","","","",""
"","html-keyboard-response","35","170111","0.0-30.0-4.0","28670","<div class='center'><p>Let's go over the instructions quickly again.You have two important things to do: </p><b><p> 1. Pick the pirate who is the best at robbing ships on the current island.</p></b><b><p> 2. Remember on which island a ship was robbed.</p> </b><p>How much bonus money you make is based on both. </p><br><p>Let’s try a practice game. The game will start by showing you the pirates. First pick a pirate using the <b> 1, 2, 3 </b> buttons on your keyboard. When you are shown a ship, try to remember the island you’re on by making up a story.</p><p> You only have 3 seconds to pick a pirate, so please make a choice quickly! If you are too slow, you’ll have to wait a bit during the time out.</p><p> Don’t feel rushed, but please do try to make a choice every time.</p><p>This is just a practice game, so you’re not playing for money. </p><p> Good luck, remember press <b>'1'</b> to choose red beard, <b>'2'</b> to choose white beard, and <b>'3'</b> to choose black beard</p><p><b>[Press the space bar to begin the practice game]</b></p></div>","32","","","","","","","","","","","","","","","","","","",""
"","do_welcome","36","171621","0.0-30.0-5.0","null","","","","null","","","","","","","","","","","","","","","","",""
"","do_trial","37","177355","0.0-30.0-6.0","1221","","","","50","1,0,0","","","","","","","","","","","","","","","",""
"","html-keyboard-response","38","178370","0.0-31.0-0.0","null","<p></p>","null","","","","","","","","","","","","","","","","","","",""
"","do_trial","39","183624","0.0-31.0-1.0","737","","","","51","1,1,0","","","","","","","","","","","","","","","",""
"","html-keyboard-response","40","184637","0.0-32.0-0.0","null","<p></p>","null","","","","","","","","","","","","","","","","","","",""
"","do_trial","41","189597","0.0-32.0-1.0","441","","","","49","1,0,1","","","","","","","","","","","","","","","",""
"","html-keyboard-response","42","190611","0.0-33.0-0.0","null","<p></p>","null","","","","","","","","","","","","","","","","","","",""
"","do_trial","43","195776","0.0-33.0-1.0","660","","","","50","0,1,0","","","","","","","","","","","","","","","",""
"","html-keyboard-response","44","196788","0.0-34.0-0.0","null","<p></p>","null","","","","","","","","","","","","","","","","","","",""
"","do_trial","45","201683","0.0-34.0-1.0","387","","","","49","1,0,0","","","","","","","","","","","","","","","",""
"","do_bye","46","203194","0.0-35.0-0.0","null","","","","null","","","","","","","","","","","","","","","","",""
"","do_travel","47","209206","0.0-35.0-1.0","null","","","","null","","","","","","","","","","","","","","","","",""
"","do_welcome","48","210722","0.0-35.0-2.0","null","","","","null","","","","","","","","","","","","","","","","",""
"","do_trial","49","215916","0.0-35.0-3.0","684","","","","51","1,0,0","","","","","","","","","","","","","","","",""
"","html-keyboard-response","50","216930","0.0-36.0-0.0","null","<p></p>","null","","","","","","","","","","","","","","","","","","",""
"","do_trial","51","222081","0.0-36.0-1.0","634","","","","51","1,0,1","","","","","","","","","","","","","","","",""
"","html-keyboard-response","52","223084","0.0-37.0-0.0","null","<p></p>","null","","","","","","","","","","","","","","","","","","",""
"","do_trial","53","227922","0.0-37.0-1.0","325","","","","50","1,1,0","","","","","","","","","","","","","","","",""
"","html-keyboard-response","54","228937","0.0-38.0-0.0","null","<p></p>","null","","","","","","","","","","","","","","","","","","",""
"","do_trial","55","234043","0.0-38.0-1.0","592","","","","49","0,0,1","","","","","","","","","","","","","","","",""
"","html-keyboard-response","56","235058","0.0-39.0-0.0","null","<p></p>","null","","","","","","","","","","","","","","","","","","",""
"","do_trial","57","240008","0.0-39.0-1.0","433","","","","50","1,0,1","","","","","","","","","","","","","","","",""
"","html-keyboard-response","58","245224","0.0-40.0-0.0","5214","<div class='center'><p><img src='run_exp/static/images/tutorial/prac_best_pirate.png'  height='500'></p></div>","50","","","","","","","","","","","","","","","","","","",""
"","html-keyboard-response","59","247180","0.0-41.0-0.0","1955","<div class='center'><p>That's incorrect! Red beard was the best.</p><p><b>[Press the space bar to continue]</b></p></div>","32","","","","","","","","","","","","","","","","","","",""
"","html-keyboard-response","60","250706","0.0-41.0-1.0","3525","<div class='center'><p><img src='run_exp/static/images/tutorial/prac_source.png'  height='500'></p></div>","50","","","","","","","","","","","","","","","","","","",""
"","html-keyboard-response","61","251816","0.0-42.0-0.0","1109","<div class='center'><p>That's correct! You saw this ship on the cavern island.</p><p><b>[Press the space bar to continue]</b></p></div>","32","","","","","","","","","","","","","","","","","","",""
"","html-keyboard-response","62","257268","0.0-42.0-1.0","5452","<div class='center'><p>Good job on the practice game! Now, you will be asked you some true or false questions to make sure you really understand the rules of the game.</p><p> Press <b>'1'</b> on the keyboard for true and press <b>'2'</b> for false.</p><p><b>[Press the space bar to begin the quiz]</b></p></div>","32","","","","","","","","","","","","","","","","","","",""
"","html-keyboard-response","63","260947","0.0-42.0-2.0","3679","<div class='center'><p>You win bonus money by making choices as fast as possible.</p><p>Press 1 for true and press  2 for false.</p></div>","50","","","","","","","","","","","","","","","","","","",""
"","html-keyboard-response","64","261908","0.0-43.0-0.0","960","<div class='center'><p>That's correct!</p> <p><b>[press the space bar to continue with the quiz]</b></p></div>","32","","","","","","","","","","","","","","","","","","",""
"","html-keyboard-response","65","264940","0.0-43.0-1.0","3032","<div class='center'><p>You press the <b>‘3’</b> button on the keyboard to choose the red bearded pirate. </p><p>Press 1 for true and press  2 for false.</p></div>","50","","","","","","","","","","","","","","","","","","",""
"","html-keyboard-response","66","266632","0.0-44.0-0.0","1691","<div class='center'><p>That's correct!</p> <p><b>[press the space bar to continue with the quiz]</b></p></div>","32","","","","","","","","","","","","","","","","","","",""
"","html-keyboard-response","67","270041","0.0-44.0-1.0","3408","<div class='center'><p>The pirate who is the best at robbing ships on the first island will be the best on every other island.</p><p>Press 1 for true and press  2 for false.</p></div>","50","","","","","","","","","","","","","","","","","","",""
"","html-keyboard-response","68","270766","0.0-45.0-0.0","725","<div class='center'><p>That's correct!</p> <p><b>[press the space bar to continue with the quiz]</b></p></div>","32","","","","","","","","","","","","","","","","","","",""
"","html-keyboard-response","69","273497","0.0-45.0-1.0","2731","<div class='center'><p>You should remember the island where a pirate robbed a ship.</p><p>Press 1 for true and press  2 for false.</p></div>","49","","","","","","","","","","","","","","","","","","",""
"","html-keyboard-response","70","274333","0.0-46.0-0.0","832","<div class='center'><p>That's correct!</p> <p><b>[press the space bar to continue with the quiz]</b></p></div>","32","","","","","","","","","","","","","","","","","","",""
"","html-keyboard-response","71","276279","0.0-47.0-0.0","1944","<div class='center'><p>Good job! You’re now ready to move on to the real game!</p> <p><br>[press the space bar to begin!]</br></p></div>","32","","","","","","","","","","","","","","","","","","",""
"","do_welcome","72","277796","0.0-48.0-0.0","null","","","","null","","","","","","","","","","","","","","","","",""
"","do_trial","73","282882","0.0-49.0-0.0","553","","","","51","0,0,0","0","countryside","0","probe-96","0.6","0.3","0.1","0","","","","","","","",""
"","html-keyboard-response","74","283885","0.0-49.0-1.0","null","<p></p>","null","","","","","","","","","","","","","","","","","","",""
"","do_trial","75","289003","0.0-50.0-0.0","589","","","","50","1,0,0","0","countryside","1","probe-138","0.6546801343732946","0.16061322221908397","0.18236549698105337","0","","","","","","","",""
"","html-keyboard-response","76","290020","0.0-50.0-1.0","null","<p></p>","null","","","","","","","","","","","","","","","","","","",""
"","do_trial","77","295083","0.0-51.0-0.0","533","","","","49","0,0,0","0","countryside","2","probe-113","0.6950203417784583","0.42750592032855667","0.20345252567910657","0","","","","","","","",""
"","html-keyboard-response","78","296097","0.0-51.0-1.0","null","<p></p>","null","","","","","","","","","","","","","","","","","","",""
"","do_trial","79","300985","0.0-52.0-0.0","358","","","","50","1,1,0","0","countryside","3","probe-174","0.5539696755338658","0.4080810160778925","0.18125519002531826","1","","","","","","","",""
"","html-keyboard-response","80","301999","0.0-52.0-1.0","null","<p></p>","null","","","","","","","","","","","","","","","","","","",""
"","do_trial","81","306793","0.0-53.0-0.0","265","","","","50","1,0,1","0","countryside","4","probe-52","0.6182130168175756","0.358067317643507","0.3182004696447387","0","","","","","","","",""
"","html-keyboard-response","82","307795","0.0-53.0-1.0","null","<p></p>","null","","","","","","","","","","","","","","","","","","",""
"","do_trial","83","312620","0.0-54.0-0.0","305","","","","51","1,0,0","0","countryside","5","probe-177","0.7085108837621762","0.2851367057217178","0.1314748392954636","0","","","","","","","",""
"","html-keyboard-response","84","313632","0.0-54.0-1.0","null","<p></p>","null","","","","","","","","","","","","","","","","","","",""
"","do_trial","85","318528","0.0-55.0-0.0","368","","","","50","1,0,0","0","countryside","6","probe-102","0.7695186628557009","0.2934045702669685","0.11030049039073456","0","","","","","","","",""
"","html-keyboard-response","86","319543","0.0-55.0-1.0","null","<p></p>","null","","","","","","","","","","","","","","","","","","",""
"","do_trial","87","324392","0.0-56.0-0.0","305","","","","49","1,0,1","0","countryside","7","probe-07","0.6140766793923158","0.28902819175763217","0.2792844501950983","1","","","","","","","",""
"","html-keyboard-response","88","325405","0.0-56.0-1.0","null","<p></p>","null","","","","","","","","","","","","","","","","","","",""
"","do_trial","89","330408","0.0-57.0-0.0","478","","","","49","1,0,1","0","countryside","8","probe-41","0.49725531359318875","0.27663257350575127","0.15700422079268553","1","","","","","","","",""
"","html-keyboard-response","90","331421","0.0-57.0-1.0","null","<p></p>","null","","","","","","","","","","","","","","","","","","",""
"","do_trial","91","336516","0.0-58.0-0.0","565","","","","49","1,0,0","0","countryside","9","probe-02","0.5428144296207643","0.2012279696346891","0.06610093798283552","1","","","","","","","",""
"","html-keyboard-response","92","337531","0.0-58.0-1.0","null","<p></p>","null","","","","","","","","","","","","","","","","","","",""
"","do_trial","93","342638","0.0-59.0-0.0","574","","","","49","0,0,0","0","countryside","10","probe-201","0.5483689247777087","0.14489546085304716","0.1273895035263501","0","","","","","","","",""
"","html-keyboard-response","94","343652","0.0-59.0-1.0","null","<p></p>","null","","","","","","","","","","","","","","","","","","",""
"","do_trial","95","348470","0.0-60.0-0.0","293","","","","50","1,0,0","0","countryside","11","probe-148","0.729307858791382","0.17133681274139026","0.12914018693619314","0","","","","","","","",""
"","html-keyboard-response","96","349485","0.0-60.0-1.0","null","<p></p>","null","","","","","","","","","","","","","","","","","","",""
"","do_trial","97","354388","0.0-61.0-0.0","374","","","","49","1,0,1","0","countryside","12","probe-66","0.6457860852757941","0.18822818551723622","0.1573173838776069","1","","","","","","","",""
"","html-keyboard-response","98","355399","0.0-61.0-1.0","null","<p></p>","null","","","","","","","","","","","","","","","","","","",""
"","do_trial","99","360304","0.0-62.0-0.0","387","","","","49","0,0,1","0","countryside","13","probe-149","0.592932589902282","0.35114303928505763","0.1586599273558335","0","","","","","","","",""
"","html-keyboard-response","100","361318","0.0-62.0-1.0","null","<p></p>","null","","","","","","","","","","","","","","","","","","",""
"","do_trial","101","366269","0.0-63.0-0.0","425","","","","49","0,1,0","0","countryside","14","probe-123","0.6145028436116988","0.4777026883886738","0.24894748305451647","0","","","","","","","",""
"","html-keyboard-response","102","367279","0.0-63.0-1.0","null","<p></p>","null","","","","","","","","","","","","","","","","","","",""
"","do_trial","103","372139","0.0-64.0-0.0","327","","","","51","0,0,1","0","countryside","15","probe-06","0.5253392258121972","0.3238071407571952","0.28509186768765993","1","","","","","","","",""
"","html-keyboard-response","104","373149","0.0-64.0-1.0","null","<p></p>","null","","","","","","","","","","","","","","","","","","",""
"","do_trial","105","378062","0.0-65.0-0.0","381","","","","51","0,0,1","0","countryside","16","probe-189","0.6448889217072216","0.38076025816516407","0.24815779701263427","1","","","","","","","",""
"","html-keyboard-response","106","379075","0.0-65.0-1.0","null","<p></p>","null","","","","","","","","","","","","","","","","","","",""
"","do_trial","107","384011","0.0-66.0-0.0","414","","","","51","1,1,1","0","countryside","17","probe-49","0.6813074282756857","0.1267787798232557","0.3037933851782179","1","","","","","","","",""
"","html-keyboard-response","108","385023","0.0-66.0-1.0","null","<p></p>","null","","","","","","","","","","","","","","","","","","",""
"","do_trial","109","389964","0.0-67.0-0.0","421","","","","51","1,0,0","0","countryside","18","probe-25","0.7771474060755733","0.15518135575856523","0.1427002753384177","0","","","","","","","",""
"","html-keyboard-response","110","390966","0.0-67.0-1.0","null","<p></p>","null","","","","","","","","","","","","","","","","","","",""
"","do_trial","111","396362","0.0-68.0-0.0","866","","","","51","1,0,0","0","countryside","19","probe-116","0.8191150996026484","0.21281874339433876","0.10087089609258809","0","","","","","","","",""
"","html-keyboard-response","112","397374","0.0-68.0-1.0","null","<p></p>","null","","","","","","","","","","","","","","","","","","",""
"","do_trial","113","402211","0.0-69.0-0.0","310","","","","50","1,1,0","0","countryside","20","probe-226","0.8087229051494979","0.35696259832732474","0.12386795192574022","1","","","","","","","",""
"","html-keyboard-response","114","403226","0.0-69.0-1.0","null","<p></p>","null","","","","","","","","","","","","","","","","","","",""
"","do_trial","115","408091","0.0-70.0-0.0","336","","","","50","1,1,0","0","countryside","21","probe-208","0.7582741295538529","0.46493182285918366","0.13496013406600046","1","","","","","","","",""
"","html-keyboard-response","116","409107","0.0-70.0-1.0","null","<p></p>","null","","","","","","","","","","","","","","","","","","",""
"","do_trial","117","414001","0.0-71.0-0.0","339","","","","50","1,1,0","0","countryside","22","probe-129","0.5407897586778725","0.432008230083842","0.063338627922744","1","","","","","","","",""
"","html-keyboard-response","118","415017","0.0-71.0-1.0","null","<p></p>","null","","","","","","","","","","","","","","","","","","",""
"","do_trial","119","420007","0.0-72.0-0.0","458","","","","50","1,0,0","0","countryside","23","probe-140","0.501004537552458","0.4731568408243152","0.10152849638181419","0","","","","","","","",""
"","html-keyboard-response","120","421020","0.0-72.0-1.0","null","<p></p>","null","","","","","","","","","","","","","","","","","","",""
"","do_trial","121","425922","0.0-73.0-0.0","375","","","","50","1,0,0","0","countryside","24","probe-214","0.4895183796190841","0.41120078126387094","0.16779650756766679","0","","","","","","","",""
"","html-keyboard-response","122","426935","0.0-73.0-1.0","null","<p></p>","null","","","","","","","","","","","","","","","","","","",""
"","do_trial","123","431766","0.0-74.0-0.0","306","","","","49","0,1,0","0","countryside","25","probe-218","0.5710705387131949","0.40113439759481956","0.23840104155087816","0","","","","","","","",""
"","html-keyboard-response","124","432778","0.0-74.0-1.0","null","<p></p>","null","","","","","","","","","","","","","","","","","","",""
"","do_trial","125","437581","0.0-75.0-0.0","249","","","","49","1,1,1","0","countryside","26","probe-141","0.5178577440164629","0.3652047134670619","0.23264068804447832","1","","","","","","","",""
"","html-keyboard-response","126","438597","0.0-75.0-1.0","null","<p></p>","null","","","","","","","","","","","","","","","","","","",""
"","do_trial","127","443376","0.0-76.0-0.0","257","","","","49","1,0,0","0","countryside","27","probe-127","0.6622527951134175","0.38760374640392214","0.2959174740835054","1","","","","","","","",""
"","html-keyboard-response","128","444389","0.0-76.0-1.0","null","<p></p>","null","","","","","","","","","","","","","","","","","","",""
"","do_trial","129","449301","0.0-77.0-0.0","379","","","","49","1,0,0","0","countryside","28","probe-230","0.6477488270042396","0.3683685885895606","0.22454961745189608","1","","","","","","","",""
"","html-keyboard-response","130","450313","0.0-77.0-1.0","null","<p></p>","null","","","","","","","","","","","","","","","","","","",""
"","do_trial","131","455199","0.0-78.0-0.0","349","","","","49","1,0,0","0","countryside","29","probe-222","0.5890471968400874","0.24569911084597082","0.0673517750220106","1","","","","","","","",""
"","html-keyboard-response","132","456209","0.0-78.0-1.0","null","<p></p>","null","","","","","","","","","","","","","","","","","","",""
"","do_bye","133","457724","0.0-79.0-0.0","null","","","","null","","","","","","","","","","","","","","","","",""
"","do_travel","134","463738","0.0-80.0-0.0","null","","","","null","","","","","","","","","","","","","","","","",""
"","do_welcome","135","465247","0.0-80.0-1.0","null","","","","null","","","","","","","","","","","","","","","","",""
"","do_trial","136","470923","0.0-81.0-0.0","1152","","","","51","1,0,0","1","city","30","probe-24","1","0.27202684343545674","0.11137966267850842","0","","","","","","","",""
"","html-keyboard-response","137","471938","0.0-81.0-1.0","null","<p></p>","null","","","","","","","","","","","","","","","","","","",""
"","do_trial","138","477019","0.0-82.0-0.0","557","","","","51","1,0,0","1","city","31","probe-152","1","0.233048153171451","0.1743692547862211","0","","","","","","","",""
"","html-keyboard-response","139","478034","0.0-82.0-1.0","null","<p></p>","null","","","","","","","","","","","","","","","","","","",""
"","do_trial","140","483414","0.0-83.0-0.0","859","","","","50","1,0,0","1","city","32","probe-117","1","0.10102760669467056","0.10104241863886276","0","","","","","","","",""
"","html-keyboard-response","141","484427","0.0-83.0-1.0","null","<p></p>","null","","","","","","","","","","","","","","","","","","",""
"","do_trial","142","489214","0.0-84.0-0.0","266","","","","50","1,0,0","1","city","33","probe-182","0.7698101561323998","0.19802821537639317","0.06781310060743512","0","","","","","","","",""
"","html-keyboard-response","143","490228","0.0-84.0-1.0","null","<p></p>","null","","","","","","","","","","","","","","","","","","",""
"","do_trial","144","494927","0.0-85.0-0.0","181","","","","49","1,0,0","1","city","34","probe-94","0.715434707240638","0.39477495543509045","0.05269703483459703","1","","","","","","","",""
"","html-keyboard-response","145","495938","0.0-85.0-1.0","null","<p></p>","null","","","","","","","","","","","","","","","","","","",""
"","do_trial","146","503056","0.0-86.0-0.0","2585","","","","49","1,0,0","1","city","35","probe-60","0.5406024294267593","0.2949363372376958","0.06851624894063778","1","","","","","","","",""
"","html-keyboard-response","147","504072","0.0-86.0-1.0","null","<p></p>","null","","","","","","","","","","","","","","","","","","",""
"","do_trial","148","509032","0.0-87.0-0.0","434","","","","49","0,0,0","1","city","36","probe-37","0.4889499608088167","0.3352127236768703","0.12963313935940873","0","","","","","","","",""
"","html-keyboard-response","149","510047","0.0-87.0-1.0","null","<p></p>","null","","","","","","","","","","","","","","","","","","",""
"","do_trial","150","515161","0.0-88.0-0.0","591","","","","49","0,0,1","1","city","37","probe-130","0.453863891435146","0.3053700678418373","0.248316644608895","0","","","","","","","",""
"","html-keyboard-response","151","516172","0.0-88.0-1.0","null","<p></p>","null","","","","","","","","","","","","","","","","","","",""
"","do_trial","152","520935","0.0-89.0-0.0","222","","","","51","1,1,1","1","city","38","probe-65","0.5280214704183107","0.2807987532910505","0.14513008059065924","1","","","","","","","",""
"","html-keyboard-response","153","521948","0.0-89.0-1.0","null","<p></p>","null","","","","","","","","","","","","","","","","","","",""
"","do_trial","154","527374","0.0-90.0-0.0","896","","","","51","0,0,1","1","city","39","probe-156","0.4986878874945534","0.1737326500761219","0.13568507574445648","1","","","","","","","",""
"","html-keyboard-response","155","528385","0.0-90.0-1.0","null","<p></p>","null","","","","","","","","","","","","","","","","","","",""
"","do_trial","156","533157","0.0-91.0-0.0","247","","","","51","0,0,1","1","city","40","probe-18","0.5410411022200164","0.2660978573268065","0.2955300602238661","1","","","","","","","",""
"","html-keyboard-response","157","534169","0.0-91.0-1.0","null","<p></p>","null","","","","","","","","","","","","","","","","","","",""
"","do_trial","158","539070","0.0-92.0-0.0","366","","","","51","1,0,1","1","city","41","probe-61","0.6398590912738464","0.20249932037228316","0.26452797227973784","1","","","","","","","",""
"","html-keyboard-response","159","540082","0.0-92.0-1.0","null","<p></p>","null","","","","","","","","","","","","","","","","","","",""
"","do_trial","160","544913","0.0-93.0-0.0","305","","","","51","1,1,0","1","city","42","probe-30","0.45193077101419304","0.41453660397713044","0.32469505218524847","0","","","","","","","",""
"","html-keyboard-response","161","545925","0.0-93.0-1.0","null","<p></p>","null","","","","","","","","","","","","","","","","","","",""
"","do_trial","162","550738","0.0-94.0-0.0","291","","","","51","0,1,0","1","city","43","probe-27","0.4616423142376515","0.44536889644466443","0.25045950903609554","0","","","","","","","",""
"","html-keyboard-response","163","551752","0.0-94.0-1.0","null","<p></p>","null","","","","","","","","","","","","","","","","","","",""
"","do_trial","164","556542","0.0-95.0-0.0","262","","","","50","0,0,0","1","city","44","probe-137","0.3475892521600893","0.6476296788971964","0.18996518521877612","0","","","","","","","",""
"","html-keyboard-response","165","557558","0.0-95.0-1.0","null","<p></p>","null","","","","","","","","","","","","","","","","","","",""
"","do_trial","166","562499","0.0-96.0-0.0","414","","","","50","0,1,0","1","city","45","probe-212","0.2875445117066861","0.6494141556067794","0.183215639091128","1","","","","","","","",""
"","html-keyboard-response","167","563513","0.0-96.0-1.0","null","<p></p>","null","","","","","","","","","","","","","","","","","","",""
"","do_trial","168","568481","0.0-97.0-0.0","445","","","","50","0,0,1","1","city","46","probe-21","0.3377551715708742","0.6463383989013461","0.1526559457012727","0","","","","","","","",""
"","html-keyboard-response","169","569499","0.0-97.0-1.0","null","<p></p>","null","","","","","","","","","","","","","","","","","","",""
"","do_trial","170","574318","0.0-98.0-0.0","291","","","","50","0,1,0","1","city","47","probe-193","0.23295194947744663","0.7402897592567257","0.057878918506749866","1","","","","","","","",""
"","html-keyboard-response","171","575332","0.0-98.0-1.0","null","<p></p>","null","","","","","","","","","","","","","","","","","","",""
"","do_trial","172","580233","0.0-99.0-0.0","378","","","","50","0,1,0","1","city","48","probe-78","0.29855187875335865","0.6902293282233539","0.18205465134817458","1","","","","","","","",""
"","html-keyboard-response","173","581248","0.0-99.0-1.0","null","<p></p>","null","","","","","","","","","","","","","","","","","","",""
"","do_trial","174","586108","0.0-100.0-0.0","326","","","","50","1,0,0","1","city","49","probe-62","0.4290023668897522","0.669057170162193","0.10412607685258538","0","","","","","","","",""
"","html-keyboard-response","175","587110","0.0-100.0-1.0","null","<p></p>","null","","","","","","","","","","","","","","","","","","",""
"","do_trial","176","592209","0.0-101.0-0.0","569","","","","50","0,1,0","1","city","50","probe-26","0.522598728489841","0.5598768313126715","0.1543744737109117","1","","","","","","","",""
"","html-keyboard-response","177","593218","0.0-101.0-1.0","null","<p></p>","null","","","","","","","","","","","","","","","","","","",""
"","do_trial","178","598364","0.0-102.0-0.0","616","","","","50","0,0,1","1","city","51","probe-168","0.44882093752886776","0.6045570905947277","0.15546031849886352","0","","","","","","","",""
"","html-keyboard-response","179","599378","0.0-102.0-1.0","null","<p></p>","null","","","","","","","","","","","","","","","","","","",""
"","do_trial","180","604580","0.0-103.0-0.0","683","","","","50","0,1,1","1","city","52","probe-229","0.24762447799535495","0.5832062118915645","0.050372648967013996","1","","","","","","","",""
"","html-keyboard-response","181","605592","0.0-103.0-1.0","null","<p></p>","null","","","","","","","","","","","","","","","","","","",""
"","do_trial","182","610541","0.0-104.0-0.0","421","","","","50","0,0,0","1","city","53","probe-97","0.19285838776392542","0.6224089379728983","0.08271689080169724","0","","","","","","","",""
"","html-keyboard-response","183","611558","0.0-104.0-1.0","null","<p></p>","null","","","","","","","","","","","","","","","","","","",""
"","do_trial","184","616424","0.0-105.0-0.0","342","","","","50","1,0,0","1","city","54","probe-143","0.17175132489148873","0.6519551234501805","0.16916088124623868","0","","","","","","","",""
"","html-keyboard-response","185","617441","0.0-105.0-1.0","null","<p></p>","null","","","","","","","","","","","","","","","","","","",""
"","do_trial","186","622298","0.0-106.0-0.0","324","","","","49","1,1,0","1","city","55","probe-211","0.21939445159389118","0.8711166839854092","0.1152470123120963","1","","","","","","","",""
"","html-keyboard-response","187","623309","0.0-106.0-1.0","null","<p></p>","null","","","","","","","","","","","","","","","","","","",""
"","do_trial","188","628229","0.0-107.0-0.0","398","","","","49","0,0,1","1","city","56","probe-139","0.18642427299052358","0.5905240974187352","0.22527285608725225","0","","","","","","","",""
"","html-keyboard-response","189","629243","0.0-107.0-1.0","null","<p></p>","null","","","","","","","","","","","","","","","","","","",""
"","do_trial","190","634023","0.0-108.0-0.0","260","","","","49","0,1,0","1","city","57","probe-88","0.3537985871621864","0.6344699212897789","0.1572846910937957","0","","","","","","","",""
"","html-keyboard-response","191","635025","0.0-108.0-1.0","null","<p></p>","null","","","","","","","","","","","","","","","","","","",""
"","do_trial","192","639641","0.0-109.0-0.0","97","","","","51","1,0,0","1","city","58","probe-38","0.3955193890666033","0.7480661962793131","0.055524187436408856","0","","","","","","","",""
"","html-keyboard-response","193","640656","0.0-109.0-1.0","null","<p></p>","null","","","","","","","","","","","","","","","","","","",""
"","do_trial","194","645453","0.0-110.0-0.0","279","","","","51","0,0,0","1","city","59","probe-103","0.3841444188730397","0.6598098582747406","0.0685937652543532","0","","","","","","","",""
"","html-keyboard-response","195","646455","0.0-110.0-1.0","null","<p></p>","null","","","","","","","","","","","","","","","","","","",""
"","do_trial","196","651273","0.0-111.0-0.0","292","","","","50","1,1,0","1","city","60","probe-70","0.49043266705009614","0.7602844742589911","0.06160501014078032","1","","","","","","","",""
"","html-keyboard-response","197","652286","0.0-111.0-1.0","null","<p></p>","null","","","","","","","","","","","","","","","","","","",""
"","do_trial","198","657127","0.0-112.0-0.0","315","","","","50","1,0,0","1","city","61","probe-202","0.4169945860894045","0.5926213293343314","0.12050101813983875","0","","","","","","","",""
"","html-keyboard-response","199","658139","0.0-112.0-1.0","null","<p></p>","null","","","","","","","","","","","","","","","","","","",""
"","do_trial","200","662908","0.0-113.0-0.0","250","","","","50","1,1,0","1","city","62","probe-59","0.2599351954306531","0.5456742644214105","0.1296701182297905","1","","","","","","","",""
"","html-keyboard-response","201","663923","0.0-113.0-1.0","null","<p></p>","null","","","","","","","","","","","","","","","","","","",""
"","do_trial","202","668925","0.0-114.0-0.0","443","","","","50","1,1,0","1","city","63","probe-73","0.37195093624036896","0.6249333833904817","0.13887223023913875","1","","","","","","","",""
"","html-keyboard-response","203","669938","0.0-114.0-1.0","null","<p></p>","null","","","","","","","","","","","","","","","","","","",""
"","do_trial","204","674758","0.0-115.0-0.0","289","","","","50","0,1,0","1","city","64","probe-147","0.38003275810135506","0.6093025708579078","0.09092393356730784","1","","","","","","","",""
"","html-keyboard-response","205","675771","0.0-115.0-1.0","null","<p></p>","null","","","","","","","","","","","","","","","","","","",""
"","do_trial","206","680584","0.0-116.0-0.0","264","","","","50","0,0,0","1","city","65","probe-155","0.422938207266666","0.5807463510671752","0.07717133904706229","0","","","","","","","",""
"","html-keyboard-response","207","681597","0.0-116.0-1.0","null","<p></p>","null","","","","","","","","","","","","","","","","","","",""
"","do_trial","208","686481","0.0-117.0-0.0","356","","","","50","0,1,0","1","city","66","probe-23","0.3212426472260252","0.4570872616633049","0.1598453447026012","1","","","","","","","",""
"","html-keyboard-response","209","687483","0.0-117.0-1.0","null","<p></p>","null","","","","","","","","","","","","","","","","","","",""
"","do_trial","210","692369","0.0-118.0-0.0","352","","","","50","0,1,0","1","city","67","probe-176","0.3585835280762779","0.3224309749110105","0.09712200503693375","1","","","","","","","",""
"","html-keyboard-response","211","693379","0.0-118.0-1.0","null","<p></p>","null","","","","","","","","","","","","","","","","","","",""
"","do_trial","212","698179","0.0-119.0-0.0","272","","","","50","0,0,0","1","city","68","probe-20","0.371095222294124","0.43659616099826765","0.05145571429024107","0","","","","","","","",""
"","html-keyboard-response","213","699193","0.0-119.0-1.0","null","<p></p>","null","","","","","","","","","","","","","","","","","","",""
"","do_trial","214","703997","0.0-120.0-0.0","262","","","","50","0,0,0","1","city","69","probe-185","0.49396536235225524","0.44011958312978733","0.14611002933606293","0","","","","","","","",""
"","html-keyboard-response","215","705011","0.0-120.0-1.0","null","<p></p>","null","","","","","","","","","","","","","","","","","","",""
"","do_bye","216","706524","0.0-121.0-0.0","null","","","","null","","","","","","","","","","","","","","","","",""
"","do_travel","217","712530","0.0-122.0-0.0","null","","","","null","","","","","","","","","","","","","","","","",""
"","do_welcome","218","714045","0.0-122.0-1.0","null","","","","null","","","","","","","","","","","","","","","","",""
"","do_trial","219","719276","0.0-123.0-0.0","702","","","","51","0,1,0","2","coast","70","probe-217","0.5181828811154752","1","0.10160086785608172","0","","","","","","","",""
"","html-keyboard-response","220","720290","0.0-123.0-1.0","null","<p></p>","null","","","","","","","","","","","","","","","","","","",""
"","do_trial","221","725082","0.0-124.0-0.0","269","","","","51","0,1,0","2","coast","71","probe-120","0.22424885915919052","1","0.05423949712320888","0","","","","","","","",""
"","html-keyboard-response","222","726096","0.0-124.0-1.0","null","<p></p>","null","","","","","","","","","","","","","","","","","","",""
"","do_trial","223","730877","0.0-125.0-0.0","259","","","","50","1,1,0","2","coast","72","probe-215","0.24394518393916825","0.8338326906901548","0.0596607715672081","1","","","","","","","",""
"","html-keyboard-response","224","731894","0.0-125.0-1.0","null","<p></p>","null","","","","","","","","","","","","","","","","","","",""
"","do_trial","225","736904","0.0-126.0-0.0","464","","","","50","0,1,0","2","coast","73","probe-115","0.3464724251892311","0.7933050666227791","0.17310594300877083","1","","","","","","","",""
"","html-keyboard-response","226","737916","0.0-126.0-1.0","null","<p></p>","null","","","","","","","","","","","","","","","","","","",""
"","do_trial","227","742767","0.0-127.0-0.0","329","","","","50","0,1,0","2","coast","74","probe-51","0.35778325573494874","0.55391978199627","0.14962877285086104","1","","","","","","","",""
"","html-keyboard-response","228","743770","0.0-127.0-1.0","null","<p></p>","null","","","","","","","","","","","","","","","","","","",""
"","do_trial","229","748562","0.0-128.0-0.0","270","","","","50","0,0,0","2","coast","75","probe-209","0.380500644770927","0.4619309145744025","0.11725432969415145","0","","","","","","","",""
"","html-keyboard-response","230","749575","0.0-128.0-1.0","null","<p></p>","null","","","","","","","","","","","","","","","","","","",""
"","do_trial","231","754415","0.0-129.0-0.0","307","","","","50","1,1,0","2","coast","76","probe-109","0.3273298533729218","0.4758480629534773","0.07561024357997184","1","","","","","","","",""
"","html-keyboard-response","232","755429","0.0-129.0-1.0","null","<p></p>","null","","","","","","","","","","","","","","","","","","",""
"","do_trial","233","760457","0.0-130.0-0.0","508","","","","50","0,1,0","2","coast","77","probe-04","0.2089986323837848","0.5551280218952828","0.1184910245325587","1","","","","","","","",""
"","html-keyboard-response","234","761473","0.0-130.0-1.0","null","<p></p>","null","","","","","","","","","","","","","","","","","","",""
"","do_trial","235","766281","0.0-131.0-0.0","273","","","","50","0,0,0","2","coast","78","probe-225","0.2529939962392871","0.5306921988115638","0.08408841772110197","0","","","","","","","",""
"","html-keyboard-response","236","767294","0.0-131.0-1.0","null","<p></p>","null","","","","","","","","","","","","","","","","","","",""
"","do_trial","237","772176","0.0-132.0-0.0","364","","","","50","0,1,0","2","coast","79","probe-142","0.23062696678794953","0.6634312893030881","0.08800361813461184","1","","","","","","","",""
"","html-keyboard-response","238","773190","0.0-132.0-1.0","null","<p></p>","null","","","","","","","","","","","","","","","","","","",""
"","do_trial","239","777994","0.0-133.0-0.0","256","","","","50","1,1,0","2","coast","80","probe-191","0.19501922363025886","0.6329619183174704","0.07339845511883308","1","","","","","","","",""
"","html-keyboard-response","240","779004","0.0-133.0-1.0","null","<p></p>","null","","","","","","","","","","","","","","","","","","",""
"","do_trial","241","783814","0.0-134.0-0.0","278","","","","50","0,1,0","2","coast","81","probe-154","0.1788449213899654","0.6743473922684363","0.06837298756090307","1","","","","","","","",""
"","html-keyboard-response","242","784825","0.0-134.0-1.0","null","<p></p>","null","","","","","","","","","","","","","","","","","","",""
"","do_trial","243","789726","0.0-135.0-0.0","344","","","","50","0,0,1","2","coast","82","probe-67","0.08300807098607767","0.6696777043755213","0.28767776067357653","0","","","","","","","",""
"","html-keyboard-response","244","790737","0.0-135.0-1.0","null","<p></p>","null","","","","","","","","","","","","","","","","","","",""
"","do_trial","245","795569","0.0-136.0-0.0","308","","","","50","0,0,0","2","coast","83","probe-106","0.08023418188767298","0.5483013952757642","0.36636438119643955","0","","","","","","","",""
"","html-keyboard-response","246","796586","0.0-136.0-1.0","null","<p></p>","null","","","","","","","","","","","","","","","","","","",""
"","do_trial","247","801444","0.0-137.0-0.0","324","","","","50","1,1,0","2","coast","84","probe-95","0.07224531975274931","0.40255801827177484","0.42185296141260603","1","","","","","","","",""
"","html-keyboard-response","248","802460","0.0-137.0-1.0","null","<p></p>","null","","","","","","","","","","","","","","","","","","",""
"","do_trial","249","807276","0.0-138.0-0.0","293","","","","50","1,0,1","2","coast","85","probe-132","0.059814164536956885","0.21813945097035686","0.4347797957876615","0","","","","","","","",""
"","html-keyboard-response","250","808288","0.0-138.0-1.0","null","<p></p>","null","","","","","","","","","","","","","","","","","","",""
"","do_trial","251","812825","0.0-139.0-0.0","0","","","","50","0,1,0","2","coast","86","probe-151","0.15922323259643528","0.21860388047613843","0.45654308810820715","1","","","","","","","",""
"","html-keyboard-response","252","813830","0.0-139.0-1.0","null","<p></p>","null","","","","","","","","","","","","","","","","","","",""
"","do_trial","253","818790","0.0-140.0-0.0","436","","","","50","0,0,1","2","coast","87","probe-110","0.09963853857385317","0.26974544484665886","0.5250254966446128","0","","","","","","","",""
"","html-keyboard-response","254","819803","0.0-140.0-1.0","null","<p></p>","null","","","","","","","","","","","","","","","","","","",""
"","do_trial","255","824919","0.0-141.0-0.0","587","","","","50","0,0,1","2","coast","88","probe-48","0.1549080446130166","0.21258759892781673","0.6933257785981886","0","","","","","","","",""
"","html-keyboard-response","256","825926","0.0-141.0-1.0","null","<p></p>","null","","","","","","","","","","","","","","","","","","",""
"","do_trial","257","830830","0.0-142.0-0.0","383","","","","50","0,0,1","2","coast","89","probe-179","0.19608920714300093","0.3904989205588257","0.4494899700572619","0","","","","","","","",""
"","html-keyboard-response","258","831844","0.0-142.0-1.0","null","<p></p>","null","","","","","","","","","","","","","","","","","","",""
"","do_trial","259","836745","0.0-143.0-0.0","368","","","","49","0,0,1","2","coast","90","probe-150","0.13889640374854853","0.3916350076433072","0.5624706918510313","0","","","","","","","",""
"","html-keyboard-response","260","837747","0.0-143.0-1.0","null","<p></p>","null","","","","","","","","","","","","","","","","","","",""
"","do_trial","261","842613","0.0-144.0-0.0","340","","","","49","0,1,1","2","coast","91","probe-112","0.15096930580308968","0.36615235801531903","0.571698802557253","0","","","","","","","",""
"","html-keyboard-response","262","843625","0.0-144.0-1.0","null","<p></p>","null","","","","","","","","","","","","","","","","","","",""
"","do_trial","263","848436","0.0-145.0-0.0","290","","","","51","0,1,0","2","coast","92","probe-205","0.051468257558593","0.4375239868795264","0.5171801605013139","0","","","","","","","",""
"","html-keyboard-response","264","849449","0.0-145.0-1.0","null","<p></p>","null","","","","","","","","","","","","","","","","","","",""
"","do_trial","265","854448","0.0-146.0-0.0","476","","","","51","0,1,0","2","coast","93","probe-192","0.10965056427194929","0.46183163165773994","0.5743206297512728","0","","","","","","","",""
"","html-keyboard-response","266","855459","0.0-146.0-1.0","null","<p></p>","null","","","","","","","","","","","","","","","","","","",""
"","do_trial","267","860528","0.0-147.0-0.0","535","","","","50","0,0,0","2","coast","94","probe-87","0.2126609621262696","0.5059823398763598","0.6057081563355583","0","","","","","","","",""
"","html-keyboard-response","268","861544","0.0-147.0-1.0","null","<p></p>","null","","","","","","","","","","","","","","","","","","",""
"","do_trial","269","866423","0.0-148.0-0.0","347","","","","50","0,1,1","2","coast","95","probe-85","0.07314009576554628","0.3559822286296784","0.5564418925818065","1","","","","","","","",""
"","html-keyboard-response","270","867433","0.0-148.0-1.0","null","<p></p>","null","","","","","","","","","","","","","","","","","","",""
"","do_trial","271","872438","0.0-149.0-0.0","474","","","","50","0,1,1","2","coast","96","probe-11","0.0987913260449576","0.27438440257633434","0.6068283138862707","1","","","","","","","",""
"","html-keyboard-response","272","873449","0.0-149.0-1.0","null","<p></p>","null","","","","","","","","","","","","","","","","","","",""
"","do_trial","273","878574","0.0-150.0-0.0","599","","","","50","1,0,0","2","coast","97","probe-81","0.1637834489197294","0.36332148179170765","0.5599942563741034","0","","","","","","","",""
"","html-keyboard-response","274","879587","0.0-150.0-1.0","null","<p></p>","null","","","","","","","","","","","","","","","","","","",""
"","do_trial","275","884525","0.0-151.0-0.0","419","","","","50","0,0,1","2","coast","98","probe-01","0.2262507399220651","0.3372076884806341","0.5129659627393187","0","","","","","","","",""
"","html-keyboard-response","276","885537","0.0-151.0-1.0","null","<p></p>","null","","","","","","","","","","","","","","","","","","",""
"","do_trial","277","890440","0.0-152.0-0.0","371","","","","50","0,0,0","2","coast","99","probe-03","0.09061088046530681","0.3972444587299055","0.5390922342235372","0","","","","","","","",""
"","html-keyboard-response","278","891454","0.0-152.0-1.0","null","<p></p>","null","","","","","","","","","","","","","","","","","","",""
"","do_trial","279","896353","0.0-153.0-0.0","350","","","","49","0,0,0","2","coast","100","probe-47","0.1885381310955082","0.22361103058037107","0.4727466297976069","0","","","","","","","",""
"","html-keyboard-response","280","897365","0.0-153.0-1.0","null","<p></p>","null","","","","","","","","","","","","","","","","","","",""
"","do_trial","281","902498","0.0-154.0-0.0","603","","","","49","0,0,1","2","coast","101","probe-19","0.10653172104440567","0.1561649912734465","0.48470110667690103","0","","","","","","","",""
"","html-keyboard-response","282","903515","0.0-154.0-1.0","null","<p></p>","null","","","","","","","","","","","","","","","","","","",""
"","do_trial","283","908304","0.0-155.0-0.0","264","","","","51","0,0,0","2","coast","102","probe-63","0.28055816430321495","0.16594479550491012","0.4873624483451385","0","","","","","","","",""
"","html-keyboard-response","284","909315","0.0-155.0-1.0","null","<p></p>","null","","","","","","","","","","","","","","","","","","",""
"","do_trial","285","914287","0.0-156.0-0.0","442","","","","51","0,0,1","2","coast","103","probe-83","0.19403036894904055","0.15495870680300716","0.4937443620099681","1","","","","","","","",""
"","html-keyboard-response","286","915288","0.0-156.0-1.0","null","<p></p>","null","","","","","","","","","","","","","","","","","","",""
"","do_trial","287","920277","0.0-157.0-0.0","458","","","","51","0,1,0","2","coast","104","probe-57","0.2106451964359175","0.22897365540534612","0.4429422038403956","0","","","","","","","",""
"","html-keyboard-response","288","921279","0.0-157.0-1.0","null","<p></p>","null","","","","","","","","","","","","","","","","","","",""
"","do_trial","289","926185","0.0-158.0-0.0","361","","","","51","0,1,0","2","coast","105","probe-29","0.12272643244878197","0.31251552665633736","0.4807678648483972","0","","","","","","","",""
"","html-keyboard-response","290","927198","0.0-158.0-1.0","null","<p></p>","null","","","","","","","","","","","","","","","","","","",""
"","do_trial","291","931989","0.0-159.0-0.0","237","","","","50","0,0,0","2","coast","106","probe-207","0.11696299382679126","0.24866222513764658","0.4082482259356597","0","","","","","","","",""
"","html-keyboard-response","292","933001","0.0-159.0-1.0","null","<p></p>","null","","","","","","","","","","","","","","","","","","",""
"","do_trial","293","937840","0.0-160.0-0.0","323","","","","50","0,1,0","2","coast","107","probe-172","0.1834973405115252","0.235916389397122","0.42383774095071214","1","","","","","","","",""
"","html-keyboard-response","294","938851","0.0-160.0-1.0","null","<p></p>","null","","","","","","","","","","","","","","","","","","",""
"","do_trial","295","944238","0.0-161.0-0.0","857","","","","50","1,1,0","2","coast","108","probe-114","0.13138779276353937","0.31098241139080524","0.3982165674052164","1","","","","","","","",""
"","html-keyboard-response","296","945240","0.0-161.0-1.0","null","<p></p>","null","","","","","","","","","","","","","","","","","","",""
"","do_trial","297","950162","0.0-162.0-0.0","390","","","","50","0,0,1","2","coast","109","probe-86","0.12303734719992662","0.3059599139988562","0.6346902468957705","0","","","","","","","",""
"","html-keyboard-response","298","951169","0.0-162.0-1.0","null","<p></p>","null","","","","","","","","","","","","","","","","","","",""
"","do_bye","299","952680","0.0-163.0-0.0","null","","","","null","","","","","","","","","","","","","","","","",""
"","do_travel","300","958683","0.0-164.0-0.0","null","","","","null","","","","","","","","","","","","","","","","",""
"","do_welcome","301","960193","0.0-164.0-1.0","null","","","","null","","","","","","","","","","","","","","","","",""
"","do_trial","302","966890","0.0-165.0-0.0","2166","","","","49","0,0,1","3","highway","110","probe-216","0.13068971110896857","0.24869981378458433","1","0","","","","","","","",""
"","html-keyboard-response","303","967902","0.0-165.0-1.0","null","<p></p>","null","","","","","","","","","","","","","","","","","","",""
"","do_trial","304","972791","0.0-166.0-0.0","361","","","","49","0,1,1","3","highway","111","probe-44","0.15997192360510348","0.253384720619562","1","0","","","","","","","",""
"","html-keyboard-response","305","973806","0.0-166.0-1.0","null","<p></p>","null","","","","","","","","","","","","","","","","","","",""
"","do_trial","306","978451","0.0-167.0-0.0","101","","","","50","0,0,0","3","highway","112","probe-15","0.18551769676610255","0.2967609929624012","0.7802339225656454","0","","","","","","","",""
"","html-keyboard-response","307","979468","0.0-167.0-1.0","null","<p></p>","null","","","","","","","","","","","","","","","","","","",""
"","do_trial","308","984224","0.0-168.0-0.0","225","","","","50","0,0,0","3","highway","113","probe-175","0.21927152506982317","0.24773943737299714","0.6777287578978511","0","","","","","","","",""
"","html-keyboard-response","309","985241","0.0-168.0-1.0","null","<p></p>","null","","","","","","","","","","","","","","","","","","",""
"","do_trial","310","990171","0.0-169.0-0.0","409","","","","51","1,1,1","3","highway","114","probe-42","0.18157829649164878","0.311049995139314","0.5233617420301956","1","","","","","","","",""
"","html-keyboard-response","311","991183","0.0-169.0-1.0","null","<p></p>","null","","","","","","","","","","","","","","","","","","",""
"","do_trial","312","996171","0.0-170.0-0.0","464","","","","51","1,0,1","3","highway","115","probe-190","0.3068424340414379","0.20961080599248658","0.5923913357876491","1","","","","","","","",""
"","html-keyboard-response","313","997184","0.0-170.0-1.0","null","<p></p>","null","","","","","","","","","","","","","","","","","","",""
"","do_trial","314","1001917","0.0-171.0-0.0","207","","","","51","1,0,0","3","highway","116","probe-74","0.2880197279576024","0.2788146483972435","0.7235360547023443","0","","","","","","","",""
"","html-keyboard-response","315","1002932","0.0-171.0-1.0","null","<p></p>","null","","","","","","","","","","","","","","","","","","",""
"","do_trial","316","1007848","0.0-172.0-0.0","381","","","","51","1,0,1","3","highway","117","probe-36","0.3521536874411939","0.27427506433130544","0.6459939892507321","1","","","","","","","",""
"","html-keyboard-response","317","1008861","0.0-172.0-1.0","null","<p></p>","null","","","","","","","","","","","","","","","","","","",""
"","do_trial","318","1013639","0.0-173.0-0.0","248","","","","51","0,1,1","3","highway","118","probe-45","0.2820462801986721","0.2269706217288022","0.5910700650141343","1","","","","","","","",""
"","html-keyboard-response","319","1014650","0.0-173.0-1.0","null","<p></p>","null","","","","","","","","","","","","","","","","","","",""
"","do_trial","320","1019722","0.0-174.0-0.0","542","","","","51","1,0,1","3","highway","119","probe-118","0.18494389420428045","0.12078988525525149","0.6320262478205708","1","","","","","","","",""
"","html-keyboard-response","321","1020739","0.0-174.0-1.0","null","<p></p>","null","","","","","","","","","","","","","","","","","","",""
"","do_trial","322","1025686","0.0-175.0-0.0","412","","","","51","0,0,1","3","highway","120","probe-34","0.16884304267929193","0.1697193070016054","0.4871142769606911","1","","","","","","","",""
"","html-keyboard-response","323","1026699","0.0-175.0-1.0","null","<p></p>","null","","","","","","","","","","","","","","","","","","",""
"","do_trial","324","1031652","0.0-176.0-0.0","426","","","","51","0,0,1","3","highway","121","probe-05","0.11019106862067604","0.20002049692587473","0.5645804263255704","1","","","","","","","",""
"","html-keyboard-response","325","1032663","0.0-176.0-1.0","null","<p></p>","null","","","","","","","","","","","","","","","","","","",""
"","do_trial","326","1037589","0.0-177.0-0.0","394","","","","51","1,0,0","3","highway","122","probe-68","0.3505014348803999","0.13847647144864048","0.34361012538588975","0","","","","","","","",""
"","html-keyboard-response","327","1038600","0.0-177.0-1.0","null","<p></p>","null","","","","","","","","","","","","","","","","","","",""
"","do_trial","328","1043439","0.0-178.0-0.0","314","","","","51","1,0,0","3","highway","123","probe-32","0.41299018620617634","0.28196128783276336","0.31455514754746905","0","","","","","","","",""
"","html-keyboard-response","329","1044452","0.0-178.0-1.0","null","<p></p>","null","","","","","","","","","","","","","","","","","","",""
"","do_trial","330","1049239","0.0-179.0-0.0","260","","","","49","1,1,0","3","highway","124","probe-199","0.2674570189192043","0.4637642365133181","0.31379300825648876","1","","","","","","","",""
"","html-keyboard-response","331","1050252","0.0-179.0-1.0","null","<p></p>","null","","","","","","","","","","","","","","","","","","",""
"","do_trial","332","1055676","0.0-180.0-0.0","899","","","","49","1,1,0","3","highway","125","probe-224","0.5890472425697848","0.5154439186583173","0.061005694122178586","1","","","","","","","",""
"","html-keyboard-response","333","1056679","0.0-180.0-1.0","null","<p></p>","null","","","","","","","","","","","","","","","","","","",""
"","do_trial","334","1061559","0.0-181.0-0.0","349","","","","49","1,0,0","3","highway","126","probe-164","0.6188601776355828","0.4906243410572341","0.11191115718780399","1","","","","","","","",""
"","html-keyboard-response","335","1062571","0.0-181.0-1.0","null","<p></p>","null","","","","","","","","","","","","","","","","","","",""
"","do_trial","336","1067607","0.0-182.0-0.0","504","","","","49","1,1,1","3","highway","127","probe-134","0.7808355377307811","0.47291816132313275","0.12455054188749008","1","","","","","","","",""
"","html-keyboard-response","337","1068622","0.0-182.0-1.0","null","<p></p>","null","","","","","","","","","","","","","","","","","","",""
"","do_trial","338","1073550","0.0-183.0-0.0","408","","","","49","1,1,1","3","highway","128","probe-163","0.7410174907899197","0.41412531714502626","0.27821552404137456","1","","","","","","","",""
"","html-keyboard-response","339","1074564","0.0-183.0-1.0","null","<p></p>","null","","","","","","","","","","","","","","","","","","",""
"","do_trial","340","1079655","0.0-184.0-0.0","559","","","","49","0,1,0","3","highway","129","probe-181","0.674745579121934","0.4312450303223286","0.24028726811539614","0","","","","","","","",""
"","html-keyboard-response","341","1080671","0.0-184.0-1.0","null","<p></p>","null","","","","","","","","","","","","","","","","","","",""
"","do_trial","342","1085588","0.0-185.0-0.0","394","","","","49","0,1,0","3","highway","130","probe-221","0.5569598426857357","0.5263141039849931","0.1931630937492022","0","","","","","","","",""
"","html-keyboard-response","343","1086600","0.0-185.0-1.0","null","<p></p>","null","","","","","","","","","","","","","","","","","","",""
"","do_trial","344","1091416","0.0-186.0-0.0","278","","","","50","1,1,1","3","highway","131","probe-56","0.5309613051068633","0.461069224269049","0.2589578268468371","1","","","","","","","",""
"","html-keyboard-response","345","1092429","0.0-186.0-1.0","null","<p></p>","null","","","","","","","","","","","","","","","","","","",""
"","do_trial","346","1097302","0.0-187.0-0.0","340","","","","50","1,1,0","3","highway","132","probe-105","0.5918805837744964","0.3121631614117803","0.1105573461349271","1","","","","","","","",""
"","html-keyboard-response","347","1098316","0.0-187.0-1.0","null","<p></p>","null","","","","","","","","","","","","","","","","","","",""
"","do_trial","348","1103182","0.0-188.0-0.0","334","","","","50","1,0,0","3","highway","133","probe-194","0.6425166108605079","0.33931576592110424","0.06205866471990415","0","","","","","","","",""
"","html-keyboard-response","349","1104194","0.0-188.0-1.0","null","<p></p>","null","","","","","","","","","","","","","","","","","","",""
"","do_trial","350","1109105","0.0-189.0-0.0","383","","","","50","1,0,0","3","highway","134","probe-161","0.7314599827177208","0.33926104229486553","0.08830780029228676","0","","","","","","","",""
"","html-keyboard-response","351","1110115","0.0-189.0-1.0","null","<p></p>","null","","","","","","","","","","","","","","","","","","",""
"","do_trial","352","1114970","0.0-190.0-0.0","325","","","","50","1,1,0","3","highway","135","probe-170","0.5281076279598439","0.26838647983158725","0.08928077035601031","1","","","","","","","",""
"","html-keyboard-response","353","1115983","0.0-190.0-1.0","null","<p></p>","null","","","","","","","","","","","","","","","","","","",""
"","do_trial","354","1120853","0.0-191.0-0.0","343","","","","50","1,1,0","3","highway","136","probe-111","0.6959058926908499","0.3906844355312012","0.050954359185734176","1","","","","","","","",""
"","html-keyboard-response","355","1121863","0.0-191.0-1.0","null","<p></p>","null","","","","","","","","","","","","","","","","","","",""
"","do_trial","356","1126718","0.0-192.0-0.0","324","","","","50","1,0,0","3","highway","137","probe-186","0.6035350714258313","0.28338962863434164","0.054383968069859685","0","","","","","","","",""
"","html-keyboard-response","357","1127732","0.0-192.0-1.0","null","<p></p>","null","","","","","","","","","","","","","","","","","","",""
"","do_trial","358","1132680","0.0-193.0-0.0","410","","","","50","1,1,0","3","highway","138","probe-72","0.7459998096143624","0.22900979898709817","0.11232523225345821","1","","","","","","","",""
"","html-keyboard-response","359","1133690","0.0-193.0-1.0","null","<p></p>","null","","","","","","","","","","","","","","","","","","",""
"","do_trial","360","1138611","0.0-194.0-0.0","398","","","","50","1,1,0","3","highway","139","probe-165","0.7378432390731645","0.24970810995806642","0.14402594512045772","1","","","","","","","",""
"","html-keyboard-response","361","1139623","0.0-194.0-1.0","null","<p></p>","null","","","","","","","","","","","","","","","","","","",""
"","do_trial","362","1144739","0.0-195.0-0.0","587","","","","50","1,0,0","3","highway","140","probe-35","0.6733232561008146","0.287933021767265","0.16159996827271164","0","","","","","","","",""
"","html-keyboard-response","363","1145747","0.0-195.0-1.0","null","<p></p>","null","","","","","","","","","","","","","","","","","","",""
"","do_trial","364","1150578","0.0-196.0-0.0","279","","","","50","1,1,1","3","highway","141","probe-121","0.7491286905146548","0.40397751663799136","0.3065387254352522","1","","","","","","","",""
"","html-keyboard-response","365","1151588","0.0-196.0-1.0","null","<p></p>","null","","","","","","","","","","","","","","","","","","",""
"","do_trial","366","1156479","0.0-197.0-0.0","358","","","","50","0,0,0","3","highway","142","probe-17","0.7883351637446588","0.2885349169718087","0.2227137902909236","0","","","","","","","",""
"","html-keyboard-response","367","1157493","0.0-197.0-1.0","null","<p></p>","null","","","","","","","","","","","","","","","","","","",""
"","do_trial","368","1162327","0.0-198.0-0.0","306","","","","50","1,0,0","3","highway","143","probe-22","0.6845091864068129","0.347881910397865","0.16013167374339657","0","","","","","","","",""
"","html-keyboard-response","369","1163338","0.0-198.0-1.0","null","<p></p>","null","","","","","","","","","","","","","","","","","","",""
"","do_trial","370","1168101","0.0-199.0-0.0","241","","","","51","1,0,0","3","highway","144","probe-159","0.6227357514668074","0.3813027748525966","0.08541256722708868","0","","","","","","","",""
"","html-keyboard-response","371","1169109","0.0-199.0-1.0","null","<p></p>","null","","","","","","","","","","","","","","","","","","",""
"","do_trial","372","1174191","0.0-200.0-0.0","557","","","","51","1,1,0","3","highway","145","probe-12","0.6588720589144942","0.4188160054233378","0.21035545814764028","0","","","","","","","",""
"","html-keyboard-response","373","1175199","0.0-200.0-1.0","null","<p></p>","null","","","","","","","","","","","","","","","","","","",""
"","do_trial","374","1179950","0.0-201.0-0.0","224","","","","49","1,1,0","3","highway","146","probe-31","0.7498279416789672","0.33351769919618807","0.19758066923707415","1","","","","","","","",""
"","html-keyboard-response","375","1180959","0.0-201.0-1.0","null","<p></p>","null","","","","","","","","","","","","","","","","","","",""
"","do_trial","376","1185862","0.0-202.0-0.0","358","","","","49","1,0,0","3","highway","147","probe-167","0.5518278170748832","0.3729680605276612","0.05719102669714534","1","","","","","","","",""
"","html-keyboard-response","377","1186870","0.0-202.0-1.0","null","<p></p>","null","","","","","","","","","","","","","","","","","","",""
"","do_trial","378","1191669","0.0-203.0-0.0","277","","","","49","0,0,0","3","highway","148","probe-92","0.6805061927322966","0.2398464514835817","0.13194078853431504","0","","","","","","","",""
"","html-keyboard-response","379","1192681","0.0-203.0-1.0","null","<p></p>","null","","","","","","","","","","","","","","","","","","",""
"","do_trial","380","1197597","0.0-204.0-0.0","387","","","","49","1,0,0","3","highway","149","probe-53","0.7765290817611364","0.22836035719783318","0.2634829509434111","1","","","","","","","",""
"","html-keyboard-response","381","1198607","0.0-204.0-1.0","null","<p></p>","null","","","","","","","","","","","","","","","","","","",""
"","do_bye","382","1200116","0.0-205.0-0.0","null","","","","null","","","","","","","","","","","","","","","","",""
"","do_travel","383","1206134","0.0-206.0-0.0","null","","","","null","","","","","","","","","","","","","","","","",""
"","do_welcome","384","1207645","0.0-206.0-1.0","null","","","","null","","","","","","","","","","","","","","","","",""
"","do_trial","385","1213329","0.0-207.0-0.0","1158","","","","50","1,1,0","4","mountain","150","probe-77","1","0.28950379553942895","0.21011795261240476","1","","","","","","","",""
"","html-keyboard-response","386","1214345","0.0-207.0-1.0","null","<p></p>","null","","","","","","","","","","","","","","","","","","",""
"","do_trial","387","1219614","0.0-208.0-0.0","746","","","","50","1,0,0","4","mountain","151","probe-173","1","0.3722433348133098","0.19160719549045546","0","","","","","","","",""
"","html-keyboard-response","388","1220626","0.0-208.0-1.0","null","<p></p>","null","","","","","","","","","","","","","","","","","","",""
"","do_trial","389","1225453","0.0-209.0-0.0","302","","","","50","1,1,0","4","mountain","152","probe-195","0.9151806216530861","0.23531154659627657","0.16307395870209054","1","","","","","","","",""
"","html-keyboard-response","390","1226467","0.0-209.0-1.0","null","<p></p>","null","","","","","","","","","","","","","","","","","","",""
"","do_trial","391","1231286","0.0-210.0-0.0","297","","","","50","1,0,0","4","mountain","153","probe-100","0.7315137757249736","0.3081661943271093","0.18362910759641882","0","","","","","","","",""
"","html-keyboard-response","392","1232300","0.0-210.0-1.0","null","<p></p>","null","","","","","","","","","","","","","","","","","","",""
"","do_trial","393","1237152","0.0-211.0-0.0","319","","","","50","0,0,0","4","mountain","154","probe-91","0.7433145723124538","0.30633181214569155","0.10843406604052476","0","","","","","","","",""
"","html-keyboard-response","394","1238162","0.0-211.0-1.0","null","<p></p>","null","","","","","","","","","","","","","","","","","","",""
"","do_trial","395","1242923","0.0-212.0-0.0","241","","","","51","0,0,0","4","mountain","155","probe-79","0.5953876228670817","0.2848581388287298","0.09938660076859","0","","","","","","","",""
"","html-keyboard-response","396","1243935","0.0-212.0-1.0","null","<p></p>","null","","","","","","","","","","","","","","","","","","",""
"","do_trial","397","1248751","0.0-213.0-0.0","284","","","","51","0,0,0","4","mountain","156","probe-46","0.5857947260912866","0.24177328147289312","0.2099989024044917","0","","","","","","","",""
"","html-keyboard-response","398","1249761","0.0-213.0-1.0","null","<p></p>","null","","","","","","","","","","","","","","","","","","",""
"","do_trial","399","1254515","0.0-214.0-0.0","222","","","","49","0,0,0","4","mountain","157","probe-125","0.42024722737008946","0.41609542139416106","0.1390489094178424","0","","","","","","","",""
"","html-keyboard-response","400","1255529","0.0-214.0-1.0","null","<p></p>","null","","","","","","","","","","","","","","","","","","",""
"","do_trial","401","1260399","0.0-215.0-0.0","337","","","","49","0,0,0","4","mountain","158","probe-188","0.4266971917149354","0.21456851048307762","0.09007145049522987","0","","","","","","","",""
"","html-keyboard-response","402","1261401","0.0-215.0-1.0","null","<p></p>","null","","","","","","","","","","","","","","","","","","",""
"","do_trial","403","1266162","0.0-216.0-0.0","231","","","","50","1,0,0","4","mountain","159","probe-197","0.7131914483597048","0.3432332280534528","0.11435623958102621","0","","","","","","","",""
"","html-keyboard-response","404","1267172","0.0-216.0-1.0","null","<p></p>","null","","","","","","","","","","","","","","","","","","",""
"","do_trial","405","1271989","0.0-217.0-0.0","296","","","","50","1,0,0","4","mountain","160","probe-39","0.7540471487152794","0.40040539779349643","0.12568843154147005","0","","","","","","","",""
"","html-keyboard-response","406","1272997","0.0-217.0-1.0","null","<p></p>","null","","","","","","","","","","","","","","","","","","",""
"","do_trial","407","1277784","0.0-218.0-0.0","264","","","","51","1,0,0","4","mountain","161","probe-131","0.6886690915891114","0.41648287978837845","0.1896490646423328","0","","","","","","","",""
"","html-keyboard-response","408","1278796","0.0-218.0-1.0","null","<p></p>","null","","","","","","","","","","","","","","","","","","",""
"","do_trial","409","1284028","0.0-219.0-0.0","707","","","","51","0,1,0","4","mountain","162","probe-158","0.5668396398501772","0.5956106233700241","0.3309066098747918","0","","","","","","","",""
"","html-keyboard-response","410","1285039","0.0-219.0-1.0","null","<p></p>","null","","","","","","","","","","","","","","","","","","",""
"","do_trial","411","1289789","0.0-220.0-0.0","226","","","","49","0,1,0","4","mountain","163","probe-107","0.5087274043633603","0.5782869950357361","0.27553215438837364","0","","","","","","","",""
"","html-keyboard-response","412","1290800","0.0-220.0-1.0","null","<p></p>","null","","","","","","","","","","","","","","","","","","",""
"","do_trial","413","1295560","0.0-221.0-0.0","232","","","","49","0,1,0","4","mountain","164","probe-203","0.3009755488425999","0.4973956199474362","0.15933621471864245","0","","","","","","","",""
"","html-keyboard-response","414","1296569","0.0-221.0-1.0","null","<p></p>","null","","","","","","","","","","","","","","","","","","",""
"","do_trial","415","1301588","0.0-222.0-0.0","496","","","","50","1,0,0","4","mountain","165","probe-178","0.23609071497614323","0.48320036812110184","0.11689423151757461","0","","","","","","","",""
"","html-keyboard-response","416","1302600","0.0-222.0-1.0","null","<p></p>","null","","","","","","","","","","","","","","","","","","",""
"","do_trial","417","1307396","0.0-223.0-0.0","249","","","","50","0,0,0","4","mountain","166","probe-187","0.29502621857544725","0.42822176632852293","0.0713593620482315","0","","","","","","","",""
"","html-keyboard-response","418","1308408","0.0-223.0-1.0","null","<p></p>","null","","","","","","","","","","","","","","","","","","",""
"","do_trial","419","1313176","0.0-224.0-0.0","238","","","","51","0,0,0","4","mountain","167","probe-136","0.3502612021776074","0.4896048642070654","0.05919038963919781","0","","","","","","","",""
"","html-keyboard-response","420","1314186","0.0-224.0-1.0","null","<p></p>","null","","","","","","","","","","","","","","","","","","",""
"","do_trial","421","1319027","0.0-225.0-0.0","311","","","","51","0,0,0","4","mountain","168","probe-126","0.4341366617305085","0.4595990654856767","0.06054894207920127","0","","","","","","","",""
"","html-keyboard-response","422","1320041","0.0-225.0-1.0","null","<p></p>","null","","","","","","","","","","","","","","","","","","",""
"","do_trial","423","1324885","0.0-226.0-0.0","298","","","","49","1,1,0","4","mountain","169","probe-82","0.33530473555703255","0.47398760377856813","0.08187524035874413","1","","","","","","","",""
"","html-keyboard-response","424","1325886","0.0-226.0-1.0","null","<p></p>","null","","","","","","","","","","","","","","","","","","",""
"","do_trial","425","1330752","0.0-227.0-0.0","331","","","","49","1,1,0","4","mountain","170","probe-184","0.2584514582448195","0.5660597380263639","0.09061565109052619","1","","","","","","","",""
"","html-keyboard-response","426","1331764","0.0-227.0-1.0","null","<p></p>","null","","","","","","","","","","","","","","","","","","",""
"","do_trial","427","1336593","0.0-228.0-0.0","297","","","","49","0,1,0","4","mountain","171","probe-145","0.2672547276292475","0.5542333324031294","0.2338767332250762","0","","","","","","","",""
"","html-keyboard-response","428","1337607","0.0-228.0-1.0","null","<p></p>","null","","","","","","","","","","","","","","","","","","",""
"","do_trial","429","1342445","0.0-229.0-0.0","317","","","","49","0,0,0","4","mountain","172","probe-122","0.09262063253803003","0.4685493166352077","0.19896249827381357","0","","","","","","","",""
"","html-keyboard-response","430","1343458","0.0-229.0-1.0","null","<p></p>","null","","","","","","","","","","","","","","","","","","",""
"","do_trial","431","1348269","0.0-230.0-0.0","289","","","","50","1,0,0","4","mountain","173","probe-99","0.2511514423184003","0.48433575516589894","0.21836561538894483","0","","","","","","","",""
"","html-keyboard-response","432","1349281","0.0-230.0-1.0","null","<p></p>","null","","","","","","","","","","","","","","","","","","",""
"","do_trial","433","1354382","0.0-231.0-0.0","570","","","","50","0,1,0","4","mountain","174","probe-90","0.20279111309401565","0.39210579387303635","0.12877072643137782","1","","","","","","","",""
"","html-keyboard-response","434","1355395","0.0-231.0-1.0","null","<p></p>","null","","","","","","","","","","","","","","","","","","",""
"","do_trial","435","1361219","0.0-232.0-0.0","1303","","","","50","0,0,0","4","mountain","175","probe-196","0.2838283490528935","0.4043353373474239","0.14242224370144055","0","","","","","","","",""
"","html-keyboard-response","436","1362220","0.0-232.0-1.0","null","<p></p>","null","","","","","","","","","","","","","","","","","","",""
"","do_trial","437","1367333","0.0-233.0-0.0","575","","","","50","0,1,0","4","mountain","176","probe-54","0.3398270257144408","0.532761844536735","0.12454636617904642","1","","","","","","","",""
"","html-keyboard-response","438","1368343","0.0-233.0-1.0","null","<p></p>","null","","","","","","","","","","","","","","","","","","",""
"","do_trial","439","1373524","0.0-234.0-0.0","661","","","","50","0,0,0","4","mountain","177","probe-198","0.3797363077467758","0.6997556125768383","0.14249293834582058","0","","","","","","","",""
"","html-keyboard-response","440","1374538","0.0-234.0-1.0","null","<p></p>","null","","","","","","","","","","","","","","","","","","",""
"","do_trial","441","1379862","0.0-235.0-0.0","797","","","","51","0,1,0","4","mountain","178","probe-69","0.3281669924258343","0.7692393961915555","0.11356516264471994","0","","","","","","","",""
"","html-keyboard-response","442","1380875","0.0-235.0-1.0","null","<p></p>","null","","","","","","","","","","","","","","","","","","",""
"","do_trial","443","1385837","0.0-236.0-0.0","440","","","","51","1,0,0","4","mountain","179","probe-227","0.3072194888923612","0.6781796051523189","0.11218376174073992","0","","","","","","","",""
"","html-keyboard-response","444","1386853","0.0-236.0-1.0","null","<p></p>","null","","","","","","","","","","","","","","","","","","",""
"","do_trial","445","1391778","0.0-237.0-0.0","397","","","","49","1,1,0","4","mountain","180","probe-33","0.32102833104778566","0.6305524438247595","0.20809946357187262","1","","","","","","","",""
"","html-keyboard-response","446","1392788","0.0-237.0-1.0","null","<p></p>","null","","","","","","","","","","","","","","","","","","",""
"","do_trial","447","1397585","0.0-238.0-0.0","274","","","","49","0,1,0","4","mountain","181","probe-153","0.18498551468009358","0.5498378128606559","0.22332838109936431","0","","","","","","","",""
"","html-keyboard-response","448","1398596","0.0-238.0-1.0","null","<p></p>","null","","","","","","","","","","","","","","","","","","",""
"","do_trial","449","1403659","0.0-239.0-0.0","535","","","","49","1,0,0","4","mountain","182","probe-08","0.29362710401002706","0.540360896040138","0.18212639612144543","1","","","","","","","",""
"","html-keyboard-response","450","1404670","0.0-239.0-1.0","null","<p></p>","null","","","","","","","","","","","","","","","","","","",""
"","do_trial","451","1409450","0.0-240.0-0.0","260","","","","49","0,0,0","4","mountain","183","probe-180","0.23075153797764636","0.6486850448577807","0.09880737855278962","0","","","","","","","",""
"","html-keyboard-response","452","1410458","0.0-240.0-1.0","null","<p></p>","null","","","","","","","","","","","","","","","","","","",""
"","do_trial","453","1415067","0.0-241.0-0.0","92","","","","49","0,0,0","4","mountain","184","probe-124","0.373417647385463","0.5914992974007545","0.14106791386634215","0","","","","","","","",""
"","html-keyboard-response","454","1416080","0.0-241.0-1.0","null","<p></p>","null","","","","","","","","","","","","","","","","","","",""
"","do_trial","455","1420876","0.0-242.0-0.0","268","","","","50","0,0,1","4","mountain","185","probe-210","0.2658890668455842","0.5156323661788489","0.08018747842900713","0","","","","","","","",""
"","html-keyboard-response","456","1421888","0.0-242.0-1.0","null","<p></p>","null","","","","","","","","","","","","","","","","","","",""
"","do_trial","457","1426664","0.0-243.0-0.0","248","","","","50","0,1,0","4","mountain","186","probe-228","0.26918425160935483","0.5510544246045797","0.08655274251858967","1","","","","","","","",""
"","html-keyboard-response","458","1427680","0.0-243.0-1.0","null","<p></p>","null","","","","","","","","","","","","","","","","","","",""
"","do_trial","459","1432570","0.0-244.0-0.0","362","","","","50","0,1,0","4","mountain","187","probe-219","0.3187816046567107","0.5844577018026849","0.1402939884789546","1","","","","","","","",""
"","html-keyboard-response","460","1433581","0.0-244.0-1.0","null","<p></p>","null","","","","","","","","","","","","","","","","","","",""
"","do_trial","461","1438466","0.0-245.0-0.0","359","","","","50","1,0,0","4","mountain","188","probe-71","0.372471420020919","0.48281843455725615","0.11494595889618087","0","","","","","","","",""
"","html-keyboard-response","462","1439474","0.0-245.0-1.0","null","<p></p>","null","","","","","","","","","","","","","","","","","","",""
"","do_trial","463","1444349","0.0-246.0-0.0","342","","","","50","1,0,0","4","mountain","189","probe-80","0.35364133691329486","0.5350083949509108","0.11243322518422609","0","","","","","","","",""
"","html-keyboard-response","464","1445360","0.0-246.0-1.0","null","<p></p>","null","","","","","","","","","","","","","","","","","","",""
"","do_bye","465","1446869","0.0-247.0-0.0","null","","","","null","","","","","","","","","","","","","","","","",""
"","do_travel","466","1452875","0.0-248.0-0.0","null","","","","null","","","","","","","","","","","","","","","","",""
"","do_welcome","467","1454387","0.0-248.0-1.0","null","","","","null","","","","","","","","","","","","","","","","",""
"","do_trial","468","1460097","0.0-249.0-0.0","1190","","","","51","1,1,0","5","forest","190","probe-213","0.3007519456377951","1","0.11455351002368794","0","","","","","","","",""
"","html-keyboard-response","469","1461107","0.0-249.0-1.0","null","<p></p>","null","","","","","","","","","","","","","","","","","","",""
"","do_trial","470","1466000","0.0-250.0-0.0","364","","","","51","0,1,1","5","forest","191","probe-128","0.2800704801131632","1","0.10463088926264752","1","","","","","","","",""
"","html-keyboard-response","471","1467009","0.0-250.0-1.0","null","<p></p>","null","","","","","","","","","","","","","","","","","","",""
"","do_trial","472","1471819","0.0-251.0-0.0","279","","","","51","1,1,0","5","forest","192","probe-171","0.21120636780215918","0.7420368791163654","0.08310103743984211","0","","","","","","","",""
"","html-keyboard-response","473","1472828","0.0-251.0-1.0","null","<p></p>","null","","","","","","","","","","","","","","","","","","",""
"","do_trial","474","1477676","0.0-252.0-0.0","319","","","","51","1,1,0","5","forest","193","probe-09","0.2853858539474374","0.709183157998632","0.11965163460095031","0","","","","","","","",""
"","html-keyboard-response","475","1478687","0.0-252.0-1.0","null","<p></p>","null","","","","","","","","","","","","","","","","","","",""
"","do_trial","476","1483668","0.0-253.0-0.0","424","","","","49","0,1,0","5","forest","194","probe-101","0.3221979990642758","0.8654050201787794","0.1482620638048177","0","","","","","","","",""
"","html-keyboard-response","477","1484677","0.0-253.0-1.0","null","<p></p>","null","","","","","","","","","","","","","","","","","","",""
"","do_trial","478","1489527","0.0-254.0-0.0","327","","","","49","1,1,1","5","forest","195","probe-84","0.35027338326730617","0.8254854416632936","0.10725608796035267","1","","","","","","","",""
"","html-keyboard-response","479","1490539","0.0-254.0-1.0","null","<p></p>","null","","","","","","","","","","","","","","","","","","",""
"","do_trial","480","1495376","0.0-255.0-0.0","310","","","","49","0,1,0","5","forest","196","probe-98","0.30000195204553876","0.6518926909125964","0.19273584016522713","0","","","","","","","",""
"","html-keyboard-response","481","1496389","0.0-255.0-1.0","null","<p></p>","null","","","","","","","","","","","","","","","","","","",""
"","do_trial","482","1501222","0.0-256.0-0.0","312","","","","49","1,1,1","5","forest","197","probe-55","0.36640719427389","0.5989940160950658","0.25746603639436755","1","","","","","","","",""
"","html-keyboard-response","483","1502231","0.0-256.0-1.0","null","<p></p>","null","","","","","","","","","","","","","","","","","","",""
"","do_trial","484","1507053","0.0-257.0-0.0","292","","","","49","0,1,0","5","forest","198","probe-108","0.22015744175862698","0.5773390224831504","0.05063361276862528","0","","","","","","","",""
"","html-keyboard-response","485","1508067","0.0-257.0-1.0","null","<p></p>","null","","","","","","","","","","","","","","","","","","",""
"","do_trial","486","1512990","0.0-258.0-0.0","399","","","","49","1,1,0","5","forest","199","probe-160","0.25143821646960574","0.5738133503957462","0.0800995125659325","1","","","","","","","",""
"","html-keyboard-response","487","1514002","0.0-258.0-1.0","null","<p></p>","null","","","","","","","","","","","","","","","","","","",""
"","do_trial","488","1519061","0.0-259.0-0.0","514","","","","49","0,0,0","5","forest","200","probe-135","0.24057407920105714","0.4650015825066643","0.06446590517689553","0","","","","","","","",""
"","html-keyboard-response","489","1520071","0.0-259.0-1.0","null","<p></p>","null","","","","","","","","","","","","","","","","","","",""
"","do_trial","490","1525008","0.0-260.0-0.0","414","","","","49","1,0,0","5","forest","201","probe-169","0.26359227442635347","0.47730009711887894","0.21871478150448842","1","","","","","","","",""
"","html-keyboard-response","491","1526023","0.0-260.0-1.0","null","<p></p>","null","","","","","","","","","","","","","","","","","","",""
"","do_trial","492","1530940","0.0-261.0-0.0","389","","","","49","0,1,0","5","forest","202","probe-89","0.3555650352217093","0.25009977190070076","0.19072422442784948","0","","","","","","","",""
"","html-keyboard-response","493","1531949","0.0-261.0-1.0","null","<p></p>","null","","","","","","","","","","","","","","","","","","",""
"","do_trial","494","1536877","0.0-262.0-0.0","405","","","","49","0,0,0","5","forest","203","probe-50","0.40590026618218816","0.12164407562750792","0.259359340053934","0","","","","","","","",""
"","html-keyboard-response","495","1537892","0.0-262.0-1.0","null","<p></p>","null","","","","","","","","","","","","","","","","","","",""
"","do_trial","496","1542797","0.0-263.0-0.0","378","","","","49","1,1,0","5","forest","204","probe-58","0.5685025653647569","0.14065558743389725","0.3631305924588665","1","","","","","","","",""
"","html-keyboard-response","497","1543806","0.0-263.0-1.0","null","<p></p>","null","","","","","","","","","","","","","","","","","","",""
"","do_trial","498","1548760","0.0-264.0-0.0","406","","","","49","0,0,0","5","forest","205","probe-119","0.47701879309255096","0.1824319956190913","0.36624559595323347","0","","","","","","","",""
"","html-keyboard-response","499","1549769","0.0-264.0-1.0","null","<p></p>","null","","","","","","","","","","","","","","","","","","",""
"","do_trial","500","1554679","0.0-265.0-0.0","387","","","","49","0,0,1","5","forest","206","probe-76","0.4417562143636062","0.19649543921975798","0.3999051591250893","0","","","","","","","",""
"","html-keyboard-response","501","1555691","0.0-265.0-1.0","null","<p></p>","null","","","","","","","","","","","","","","","","","","",""
"","do_trial","502","1560476","0.0-266.0-0.0","267","","","","50","0,0,1","5","forest","207","probe-13","0.5647432907670278","0.17699415081817438","0.3144983216029915","0","","","","","","","",""
"","html-keyboard-response","503","1561489","0.0-266.0-1.0","null","<p></p>","null","","","","","","","","","","","","","","","","","","",""
"","do_trial","504","1566309","0.0-267.0-0.0","294","","","","50","1,0,0","5","forest","208","probe-10","0.5937587329993604","0.229270414974748","0.35269650829776517","0","","","","","","","",""
"","html-keyboard-response","505","1567317","0.0-267.0-1.0","null","<p></p>","null","","","","","","","","","","","","","","","","","","",""
"","do_trial","506","1572293","0.0-268.0-0.0","457","","","","51","0,0,1","5","forest","209","probe-104","0.6661454720672358","0.13615624985388267","0.4527412366599608","1","","","","","","","",""
"","html-keyboard-response","507","1573304","0.0-268.0-1.0","null","<p></p>","null","","","","","","","","","","","","","","","","","","",""
"","do_trial","508","1578188","0.0-269.0-0.0","359","","","","51","1,0,0","5","forest","210","probe-157","0.6499057976229304","0.15397533534212343","0.5112927382481184","0","","","","","","","",""
"","html-keyboard-response","509","1579199","0.0-269.0-1.0","null","<p></p>","null","","","","","","","","","","","","","","","","","","",""
"","do_trial","510","1584062","0.0-270.0-0.0","334","","","","51","1,0,0","5","forest","211","probe-28","0.6816220628918243","0.19292091870392658","0.35189003364373195","0","","","","","","","",""
"","html-keyboard-response","511","1585074","0.0-270.0-1.0","null","<p></p>","null","","","","","","","","","","","","","","","","","","",""
"","do_trial","512","1589849","0.0-271.0-0.0","254","","","","49","0,0,1","5","forest","212","probe-16","0.5659196169334739","0.06592168992555929","0.2622241487965588","0","","","","","","","",""
"","html-keyboard-response","513","1590859","0.0-271.0-1.0","null","<p></p>","null","","","","","","","","","","","","","","","","","","",""
"","do_trial","514","1595704","0.0-272.0-0.0","321","","","","49","1,0,1","5","forest","213","probe-144","0.5385118879653878","0.10587908068931494","0.39253212594425024","1","","","","","","","",""
"","html-keyboard-response","515","1596712","0.0-272.0-1.0","null","<p></p>","null","","","","","","","","","","","","","","","","","","",""
"","do_trial","516","1601664","0.0-273.0-0.0","426","","","","49","1,0,1","5","forest","214","probe-183","0.6448054290513932","0.1350826276879602","0.31902763800875344","1","","","","","","","",""
"","html-keyboard-response","517","1602673","0.0-273.0-1.0","null","<p></p>","null","","","","","","","","","","","","","","","","","","",""
"","do_trial","518","1607951","0.0-274.0-0.0","750","","","","49","0,0,1","5","forest","215","probe-206","0.515059457008837","0.1607063569461544","0.4216686102808276","0","","","","","","","",""
"","html-keyboard-response","519","1608963","0.0-274.0-1.0","null","<p></p>","null","","","","","","","","","","","","","","","","","","",""
"","do_trial","520","1613743","0.0-275.0-0.0","259","","","","49","1,0,1","5","forest","216","probe-166","0.5742628205451725","0.15772605485451027","0.32339857027765023","1","","","","","","","",""
"","html-keyboard-response","521","1614758","0.0-275.0-1.0","null","<p></p>","null","","","","","","","","","","","","","","","","","","",""
"","do_trial","522","1619576","0.0-276.0-0.0","296","","","","49","0,0,0","5","forest","217","probe-200","0.43098875836733924","0.15396003168064545","0.3433113978911731","0","","","","","","","",""
"","html-keyboard-response","523","1620588","0.0-276.0-1.0","null","<p></p>","null","","","","","","","","","","","","","","","","","","",""
"","do_trial","524","1625506","0.0-277.0-0.0","392","","","","49","0,0,0","5","forest","218","probe-14","0.4407020313526874","0.238234062687137","0.22897084600549142","0","","","","","","","",""
"","html-keyboard-response","525","1626519","0.0-277.0-1.0","null","<p></p>","null","","","","","","","","","","","","","","","","","","",""
"","do_trial","526","1631522","0.0-278.0-0.0","485","","","","50","0,0,1","5","forest","219","probe-93","0.4640328588575673","0.11598822189596003","0.31127830364397374","0","","","","","","","",""
"","html-keyboard-response","527","1632536","0.0-278.0-1.0","null","<p></p>","null","","","","","","","","","","","","","","","","","","",""
"","do_trial","528","1637344","0.0-279.0-0.0","283","","","","50","1,0,0","5","forest","220","probe-43","0.5731514374857792","0.16622101706587133","0.31460627706337785","0","","","","","","","",""
"","html-keyboard-response","529","1638356","0.0-279.0-1.0","null","<p></p>","null","","","","","","","","","","","","","","","","","","",""
"","do_trial","530","1642999","0.0-280.0-0.0","121","","","","51","1,1,0","5","forest","221","probe-146","0.5304949510875985","0.20909228953783912","0.3946565536297018","0","","","","","","","",""
"","html-keyboard-response","531","1644009","0.0-280.0-1.0","null","<p></p>","null","","","","","","","","","","","","","","","","","","",""
"","do_trial","532","1648952","0.0-281.0-0.0","408","","","","51","1,0,0","5","forest","222","probe-133","0.45308315108728453","0.14628091274728933","0.48335938108864873","0","","","","","","","",""
"","html-keyboard-response","533","1649963","0.0-281.0-1.0","null","<p></p>","null","","","","","","","","","","","","","","","","","","",""
"","do_trial","534","1654817","0.0-282.0-0.0","304","","","","49","1,1,0","5","forest","223","probe-204","0.6219724174336266","0.1817079505890696","0.5280645813798944","1","","","","","","","",""
"","html-keyboard-response","535","1655829","0.0-282.0-1.0","null","<p></p>","null","","","","","","","","","","","","","","","","","","",""
"","do_trial","536","1660708","0.0-283.0-0.0","352","","","","49","1,0,0","5","forest","224","probe-40","0.6639238308797445","0.12704557064584646","0.39100201919994293","1","","","","","","","",""
"","html-keyboard-response","537","1661719","0.0-283.0-1.0","null","<p></p>","null","","","","","","","","","","","","","","","","","","",""
"","do_trial","538","1666556","0.0-284.0-0.0","309","","","","49","1,0,1","5","forest","225","probe-223","0.5603882036544013","0.08283657507985932","0.398276110352053","1","","","","","","","",""
"","html-keyboard-response","539","1667566","0.0-284.0-1.0","null","<p></p>","null","","","","","","","","","","","","","","","","","","",""
"","do_trial","540","1672545","0.0-285.0-0.0","445","","","","49","0,0,0","5","forest","226","probe-162","0.4591338406242251","0.20090975737823116","0.3348228386508751","0","","","","","","","",""
"","html-keyboard-response","541","1673552","0.0-285.0-1.0","null","<p></p>","null","","","","","","","","","","","","","","","","","","",""
"","do_trial","542","1678981","0.0-286.0-0.0","902","","","","49","1,0,0","5","forest","227","probe-220","0.49259708704672267","0.15839519375581357","0.40556468371488136","1","","","","","","","",""
"","html-keyboard-response","543","1679994","0.0-286.0-1.0","null","<p></p>","null","","","","","","","","","","","","","","","","","","",""
"","do_trial","544","1684914","0.0-287.0-0.0","380","","","","49","1,0,1","5","forest","228","probe-64","0.4705154373596199","0.10836063702365423","0.3259862542003173","1","","","","","","","",""
"","html-keyboard-response","545","1685921","0.0-287.0-1.0","null","<p></p>","null","","","","","","","","","","","","","","","","","","",""
"","do_trial","546","1690979","0.0-288.0-0.0","538","","","","49","0,0,1","5","forest","229","probe-75","0.6148575799607583","0.12967525151008819","0.25280166297499046","0","","","","","","","",""
"","html-keyboard-response","547","1691992","0.0-288.0-1.0","null","<p></p>","null","","","","","","","","","","","","","","","","","","",""
"","do_bye","548","1693500","0.0-289.0-0.0","null","","","","null","","","","","","","","","","","","","","","","",""
