success,trial_type,trial_index,time_elapsed,internal_node_id,interactions,blur_events,focus_events,fullscreenenter_events,fullscreenexit_events,rt,stimulus,key_press,subject_id,participant_id,age,gender,prompt,response,choice_outcomes,context_n,context_img_id,trial_n,probe_img_id,pR_red,pR_white,pR_black,outcome,contextArray_ind,validImageProbes,invalidImageProbes,pRew_Red,pRew_White,pRew_Black,availableForMemProbe,choice_blocks
TRUE,fullscreen,0,3683,0.0-0.0,"""event"",""trial"",""time""
""fullscreenenter"",""0"",""2717""
","
","
","""event"",""trial"",""time""
""fullscreenenter"",""0"",""2717""
","
",,,,,,,,,,,,,,,,,,,,,,,,,,
,pavlovia,1,3689,0.0-1.0,"""event"",""trial"",""time""
""fullscreenenter"",""0"",""2717""
","
","
","""event"",""trial"",""time""
""fullscreenenter"",""0"",""2717""
","
",,,,,,,,,,,,,,,,,,,,,,,,,,
,instruc1,2,48854,0.0-2.0,"""event"",""trial"",""time""
""fullscreenenter"",""0"",""2717""
","
","
","""event"",""trial"",""time""
""fullscreenenter"",""0"",""2717""
","
",null,run_exp/static/audio/clip_1_welcome.m4a,null,348,918,22,male,"<div class='center'><p>Welcome! This is the first part of the study. It will last ~30 minutes. In part 1 and part 2 of the study, you are the head captain of a pirate ship traveling around the world to different islands. You will play a few different games throughout these two parts. Here is an overview of them:</p><br><p>Part 1 (today)</p><p>1. Instructions, practice game, and quiz</p><p>2. Pick a pirate game on 6 different islands</p><br><p>Part 2 (tomorrow)</p><p>3. Pick a pirate game and memory game</p><p>4. Where did you see this ship? </p></div>",,,,,,,,,,,,,,,,,,
,html-keyboard-response,3,49862,0.0-3.0,"""event"",""trial"",""time""
""fullscreenenter"",""0"",""2717""
","
","
","""event"",""trial"",""time""
""fullscreenenter"",""0"",""2717""
","
",1005.9,"<div class='center'><p>Welcome! This is the first part of the study. It will last ~30 minutes. In part 1 and part 2 of the study, you are the head captain of a pirate ship traveling around the world to different islands. You will play a few different games throughout these two parts. Here is an overview of them:</p><br><p>Part 1 (today)</p><p>1. Instructions, practice game, and quiz</p><p>2. Pick a pirate game on 6 different islands</p><br><p>Part 2 (tomorrow)</p><p>3. Pick a pirate game and memory game</p><p>4. Where did you see this ship? </p><p><b>[Press the space bar to continue]</b></p></div>",32,,,,,,,,,,,,,,,,,,,,,,,
,instruc2,4,55193,0.0-4.0,"""event"",""trial"",""time""
""fullscreenenter"",""0"",""2717""
","
","
","""event"",""trial"",""time""
""fullscreenenter"",""0"",""2717""
","
",null,run_exp/static/audio/clip_2_different_places.m4a,null,,,,,"<div class='center'><p>Today, you’ll visit these 6 islands on your journey. You'll be able to see these islands from your ship.</p><p><img src='run_exp/static/images/contexts/all_contexts.png' height='500'></p></div>",,,,,,,,,,,,,,,,,,
,html-keyboard-response,5,58111,0.0-5.0,"""event"",""trial"",""time""
""fullscreenenter"",""0"",""2717""
","
","
","""event"",""trial"",""time""
""fullscreenenter"",""0"",""2717""
","
",2916.8,"<div class='center'><p>Today, you’ll visit these 6 islands on your journey. You'll be able to see these islands from your ship.</p><p><img src='run_exp/static/images/contexts/all_contexts.png' height='500'></p><p><b>[Press the space bar to continue]</b></p></div>",32,,,,,,,,,,,,,,,,,,,,,,,
,instruc3,6,67824,0.0-6.0,"""event"",""trial"",""time""
""fullscreenenter"",""0"",""2717""
","
","
","""event"",""trial"",""time""
""fullscreenenter"",""0"",""2717""
","
",null,run_exp/static/audio/clip_3_goal_of_game_1.m4a,null,,,,,"<div class='center'><p> The pirates on your ship will rob other ships as they leave the island.</p> These ships have just sold their goods to the islanders, so they will be filled with lots and lots of gold.</p><p><img src='run_exp/static/images/tutorial/ship_center.png' height='400'></p></div>",,,,,,,,,,,,,,,,,,
,html-keyboard-response,7,68862,0.0-7.0,"""event"",""trial"",""time""
""fullscreenenter"",""0"",""2717""
","
","
","""event"",""trial"",""time""
""fullscreenenter"",""0"",""2717""
","
",1036.2,"<div class='center'><p> The pirates on your ship will rob other ships as they leave the island.</p> These ships have just sold their goods to the islanders, so they will be filled with lots and lots of gold.</p><p><img src='run_exp/static/images/tutorial/ship_center.png' height='400'></p><p><b>[Press the space bar to continue]</b></p></div>",32,,,,,,,,,,,,,,,,,,,,,,,
,instruc4,8,96873,0.0-8.0,"""event"",""trial"",""time""
""fullscreenenter"",""0"",""2717""
","
","
","""event"",""trial"",""time""
""fullscreenenter"",""0"",""2717""
","
",null,run_exp/static/audio/clip_4_goal_of_game_2.m4a,null,,,,,"<div class='center'><p>As the head captain, you do not have to rob any ships yourself. Another pirate will be doing the robbing for you. First, you will choose a pirate to rob the next ship.</p><p><img src='run_exp/static/images/tutorial/pirates_all_crop.png' height='200'></p><p>Then, you'll see if the pirate successfully robbed the ship of their gold. If they were successful, then you'll get a stack of gold coins like this:</p><p><img src='run_exp/static/images/tutorial/reward.png' height='150'></p><p> If they were <b>not</b> successful, then you'll get no gold coins, and you'll see a big red x like this: </p><p><img src='run_exp/static/images/tutorial/reward_no.png' height='150'></p><p> How much bonus money you make is based on how many gold coins you collect.</p><div>",,,,,,,,,,,,,,,,,,
,html-keyboard-response,9,100115,0.0-9.0,"""event"",""trial"",""time""
""fullscreenenter"",""0"",""2717""
","
","
","""event"",""trial"",""time""
""fullscreenenter"",""0"",""2717""
","
",3240.3,"<div class='center'><p>As the head captain, you do not have to rob any ships yourself. Another pirate will be doing the robbing for you. First, you will choose a pirate to rob the next ship.</p><p><img src='run_exp/static/images/tutorial/pirates_all_crop.png' height='200'></p><p>Then, you'll see if the pirate successfully robbed the ship of their gold. If they were successful, then you'll get a stack of gold coins like this:</p><p><img src='run_exp/static/images/tutorial/reward.png' height='150'></p><p> If they were <b>not</b> successful, then you'll get no gold coins, and you'll see a big red x like this: </p><p><img src='run_exp/static/images/tutorial/reward_no.png' height='150'></p><p> How much bonus money you make is based on how many gold coins you collect.</p<p><b>[Press the space bar to continue]</b></p></div>",32,,,,,,,,,,,,,,,,,,,,,,,
,instruc5,10,122093,0.0-10.0,"""event"",""trial"",""time""
""fullscreenenter"",""0"",""2717""
","
","
","""event"",""trial"",""time""
""fullscreenenter"",""0"",""2717""
","
",21976.8,run_exp/static/audio/clip_5_probabilistic.m4a,49,,,,,"<div class='center'><p>Even the most skilled pirate can not rob EVERY ship.</p><p> Some ships will have very strong protections against pirate attacks.</p><p> Blue beard, here, is very, very good at robbing ships, but he won't be successful every time he tries to rob one.</p><p> You can press the <b>‘1’</b> key on the keyboard to choose him.</p><p> Try choosing him 10 times to see how often he succeeds at robbing a ship. </p><p><img src='run_exp/static/images/tutorial/blue.png' height='500'></p></div>",,,,,,,,,,,,,,,,,,
,html-keyboard-response,11,123599,0.0-11.0,"""event"",""trial"",""time""
""fullscreenenter"",""0"",""2717""
","
","
","""event"",""trial"",""time""
""fullscreenenter"",""0"",""2717""
","
",null,<div class='center'><p><img src='run_exp/static/images/tutorial/blue_win.png' height='500'></p></div>,null,,,,,,,,,,,,,,,,,,,,,,,
,html-keyboard-response,12,124715,0.0-12.0,"""event"",""trial"",""time""
""fullscreenenter"",""0"",""2717""
","
","
","""event"",""trial"",""time""
""fullscreenenter"",""0"",""2717""
","
",1114.2,<div class='center'><img src='run_exp/static/images/tutorial/blue.png' height='500'></p></div>,49,,,,,,,,,,,,,,,,,,,,,,,
,html-keyboard-response,13,126221,0.0-13.0,"""event"",""trial"",""time""
""fullscreenenter"",""0"",""2717""
","
","
","""event"",""trial"",""time""
""fullscreenenter"",""0"",""2717""
","
",null,<div class='center'><p><img src='run_exp/static/images/tutorial/blue_win.png' height='500'></p></div>,null,,,,,,,,,,,,,,,,,,,,,,,
,html-keyboard-response,14,126854,0.0-14.0,"""event"",""trial"",""time""
""fullscreenenter"",""0"",""2717""
","
","
","""event"",""trial"",""time""
""fullscreenenter"",""0"",""2717""
","
",632.6,<div class='center'><img src='run_exp/static/images/tutorial/blue.png' height='500'></p></div>,49,,,,,,,,,,,,,,,,,,,,,,,
,html-keyboard-response,15,128360,0.0-15.0,"""event"",""trial"",""time""
""fullscreenenter"",""0"",""2717""
","
","
","""event"",""trial"",""time""
""fullscreenenter"",""0"",""2717""
","
",null,<div class='center'><p><img src='run_exp/static/images/tutorial/blue_win.png' height='500'></p></div>,null,,,,,,,,,,,,,,,,,,,,,,,
,html-keyboard-response,16,128672,0.0-16.0,"""event"",""trial"",""time""
""fullscreenenter"",""0"",""2717""
","
","
","""event"",""trial"",""time""
""fullscreenenter"",""0"",""2717""
","
",310.8,<div class='center'><img src='run_exp/static/images/tutorial/blue.png' height='500'></p></div>,49,,,,,,,,,,,,,,,,,,,,,,,
,html-keyboard-response,17,130175,0.0-17.0,"""event"",""trial"",""time""
""fullscreenenter"",""0"",""2717""
","
","
","""event"",""trial"",""time""
""fullscreenenter"",""0"",""2717""
","
",null,<div class='center'><p><img src='run_exp/static/images/tutorial/blue_no_win.png' height='500'></p></div>,null,,,,,,,,,,,,,,,,,,,,,,,
,html-keyboard-response,18,130736,0.0-18.0,"""event"",""trial"",""time""
""fullscreenenter"",""0"",""2717""
","
","
","""event"",""trial"",""time""
""fullscreenenter"",""0"",""2717""
","
",559.6,<div class='center'><img src='run_exp/static/images/tutorial/blue.png' height='500'></p></div>,49,,,,,,,,,,,,,,,,,,,,,,,
,html-keyboard-response,19,132242,0.0-19.0,"""event"",""trial"",""time""
""fullscreenenter"",""0"",""2717""
","
","
","""event"",""trial"",""time""
""fullscreenenter"",""0"",""2717""
","
",null,<div class='center'><p><img src='run_exp/static/images/tutorial/blue_win.png' height='500'></p></div>,null,,,,,,,,,,,,,,,,,,,,,,,
,html-keyboard-response,20,132882,0.0-20.0,"""event"",""trial"",""time""
""fullscreenenter"",""0"",""2717""
","
","
","""event"",""trial"",""time""
""fullscreenenter"",""0"",""2717""
","
",638.7,<div class='center'><img src='run_exp/static/images/tutorial/blue.png' height='500'></p></div>,49,,,,,,,,,,,,,,,,,,,,,,,
,html-keyboard-response,21,134386,0.0-21.0,"""event"",""trial"",""time""
""fullscreenenter"",""0"",""2717""
","
","
","""event"",""trial"",""time""
""fullscreenenter"",""0"",""2717""
","
",null,<div class='center'><p><img src='run_exp/static/images/tutorial/blue_win.png' height='500'></p></div>,null,,,,,,,,,,,,,,,,,,,,,,,
,html-keyboard-response,22,135706,0.0-22.0,"""event"",""trial"",""time""
""fullscreenenter"",""0"",""2717""
","
","
","""event"",""trial"",""time""
""fullscreenenter"",""0"",""2717""
","
",1318.8,<div class='center'><img src='run_exp/static/images/tutorial/blue.png' height='500'></p></div>,49,,,,,,,,,,,,,,,,,,,,,,,
,html-keyboard-response,23,137212,0.0-23.0,"""event"",""trial"",""time""
""fullscreenenter"",""0"",""2717""
","
","
","""event"",""trial"",""time""
""fullscreenenter"",""0"",""2717""
","
",null,<div class='center'><p><img src='run_exp/static/images/tutorial/blue_win.png' height='500'></p></div>,null,,,,,,,,,,,,,,,,,,,,,,,
,html-keyboard-response,24,137946,0.0-24.0,"""event"",""trial"",""time""
""fullscreenenter"",""0"",""2717""
","
","
","""event"",""trial"",""time""
""fullscreenenter"",""0"",""2717""
","
",732.2,<div class='center'><img src='run_exp/static/images/tutorial/blue.png' height='500'></p></div>,49,,,,,,,,,,,,,,,,,,,,,,,
,html-keyboard-response,25,139450,0.0-25.0,"""event"",""trial"",""time""
""fullscreenenter"",""0"",""2717""
","
","
","""event"",""trial"",""time""
""fullscreenenter"",""0"",""2717""
","
",null,<div class='center'><p><img src='run_exp/static/images/tutorial/blue_no_win.png' height='500'></p></div>,null,,,,,,,,,,,,,,,,,,,,,,,
,html-keyboard-response,26,140068,0.0-26.0,"""event"",""trial"",""time""
""fullscreenenter"",""0"",""2717""
","
","
","""event"",""trial"",""time""
""fullscreenenter"",""0"",""2717""
","
",616.9,<div class='center'><img src='run_exp/static/images/tutorial/blue.png' height='500'></p></div>,49,,,,,,,,,,,,,,,,,,,,,,,
,html-keyboard-response,27,141572,0.0-27.0,"""event"",""trial"",""time""
""fullscreenenter"",""0"",""2717""
","
","
","""event"",""trial"",""time""
""fullscreenenter"",""0"",""2717""
","
",null,<div class='center'><p><img src='run_exp/static/images/tutorial/blue_win.png' height='500'></p></div>,null,,,,,,,,,,,,,,,,,,,,,,,
,html-keyboard-response,28,142321,0.0-28.0,"""event"",""trial"",""time""
""fullscreenenter"",""0"",""2717""
","
","
","""event"",""trial"",""time""
""fullscreenenter"",""0"",""2717""
","
",747.8,<div class='center'><img src='run_exp/static/images/tutorial/blue.png' height='500'></p></div>,49,,,,,,,,,,,,,,,,,,,,,,,
,html-keyboard-response,29,143823,0.0-29.0,"""event"",""trial"",""time""
""fullscreenenter"",""0"",""2717""
","
","
","""event"",""trial"",""time""
""fullscreenenter"",""0"",""2717""
","
",null,<div class='center'><p><img src='run_exp/static/images/tutorial/blue_win.png' height='500'></p></div>,null,,,,,,,,,,,,,,,,,,,,,,,
,instruc6,30,149283,0.0-30.0,"""event"",""trial"",""time""
""fullscreenenter"",""0"",""2717""
","
","
","""event"",""trial"",""time""
""fullscreenenter"",""0"",""2717""
","
",null,run_exp/static/audio/clip_6_blue_beard_outcome.m4a,null,,,,,"<div class='center'><p> See, he succeeded in robbing the ships most of the time but not every time. </p></div>",,,,,,,,,,,,,,,,,,
,html-keyboard-response,31,151064,0.0-31.0,"""event"",""trial"",""time""
""fullscreenenter"",""0"",""2717""
","
","
","""event"",""trial"",""time""
""fullscreenenter"",""0"",""2717""
","
",1779.4,"<div class='center'><p> See, he succeeded in robbing the ships most of the time but not every time. </p><p><b>[Press the space bar to continue]</b></p></div>",32,,,,,,,,,,,,,,,,,,,,,,,
,audio-keyboard-response,32,168296,0.0-32.0,"""event"",""trial"",""time""
""fullscreenenter"",""0"",""2717""
","
","
","""event"",""trial"",""time""
""fullscreenenter"",""0"",""2717""
","
",17230.9,run_exp/static/audio/clip_7_pick_pirate.m4a,51,,,,,,,,,,,,,,,,,,,,,,,
,audio-keyboard-response,33,174937,0.0-33.0-0.0,"""event"",""trial"",""time""
""fullscreenenter"",""0"",""2717""
","
","
","""event"",""trial"",""time""
""fullscreenenter"",""0"",""2717""
","
",6638.2,run_exp/static/audio/clip_8_chosen_pirate_win.m4a,32,,,,,,,,,,,,,,,,,,,,,,,
,audio-keyboard-response,34,179506,0.0-33.0-1.0,"""event"",""trial"",""time""
""fullscreenenter"",""0"",""2717""
","
","
","""event"",""trial"",""time""
""fullscreenenter"",""0"",""2717""
","
",4567.2,run_exp/static/audio/clip_9_pick_a_pirate_again.m4a,49,,,,,,,,,,,,,,,,,,,,,,,
,audio-keyboard-response,35,184542,0.0-34.0-0.0,"""event"",""trial"",""time""
""fullscreenenter"",""0"",""2717""
","
","
","""event"",""trial"",""time""
""fullscreenenter"",""0"",""2717""
","
",5034,run_exp/static/audio/clip_10_chosen_pirate_loss.m4a,32,,,,,,,,,,,,,,,,,,,,,,,
,instruc9,36,190057,0.0-35.0-0.0,"""event"",""trial"",""time""
""fullscreenenter"",""0"",""2717""
","
","
","""event"",""trial"",""time""
""fullscreenenter"",""0"",""2717""
","
",null,run_exp/static/audio/clip_11_time_out.m4a,null,,,,,"<div class='center'><p>If you don’t make your choice fast enough, you’ll have to wait a few seconds before you can make another one. </p><p><img src='run_exp/static/images/miscellaneous/hurry_up.png' height='500'></p></div>",,,,,,,,,,,,,,,,,,
,html-keyboard-response,37,191108,0.0-35.0-1.0,"""event"",""trial"",""time""
""fullscreenenter"",""0"",""2717""
","
","
","""event"",""trial"",""time""
""fullscreenenter"",""0"",""2717""
","
",1049.5,"<div class='center'><p>If you don’t make your choice fast enough, you’ll have to wait a few seconds before you can make another one. </p><p><img src='run_exp/static/images/miscellaneous/hurry_up.png' height='500'></p><p><b>[Press the space bar to continue]</b></p></div>",32,,,,,,,,,,,,,,,,,,,,,,,
,instruc10,38,230205,0.0-35.0-2.0,"""event"",""trial"",""time""
""fullscreenenter"",""0"",""2717""
","
","
","""event"",""trial"",""time""
""fullscreenenter"",""0"",""2717""
","
",null,run_exp/static/audio/clip_12_probe.m4a,null,,,,,"<div class='center'><p>Once you've chosen a pirate, you’ll be shown the ship they are robbing. You will never rob the same ship twice. Ships can be told apart from one another by the image on them. These are the goods that they sell. See, this ship has a travel mug on it. </p><p> You’ll have to remember which island you saw each ship on. You will win more gold coins and hence more bonus money if you remember correctly! To help you remember, you can imagine a story. For example, here, you could imagine a mug full of water in the desert. Or, as another example, if on the forest island, your pirate robbed a ship with an apple on it, you could imagine an apple falling from a tree in the forest. </p><p><img src='run_exp/static/images/tutorial/example_probe.png' height='500'></p></div>",,,,,,,,,,,,,,,,,,
,html-keyboard-response,39,233508,0.0-35.0-3.0,"""event"",""trial"",""time""
""fullscreenenter"",""0"",""2717""
","
","
","""event"",""trial"",""time""
""fullscreenenter"",""0"",""2717""
","
",3301.4,"<div class='center'><p>Once you've chosen a pirate, you’ll be shown the ship they are robbing. You will never rob the same ship twice. Ships can be told apart from one another by the image on them. These are the goods that they sell. See, this ship has a travel mug on it. </p><p> You’ll have to remember which island you saw each ship on. You will win more gold coins and hence more bonus money if you remember correctly! To help you remember, you can imagine a story. For example, here, you could imagine a mug full of water in the desert. Or, as another example, if on the forest island, your pirate robbed a ship with an apple on it, you could imagine an apple falling from a tree in the forest. </p><p><img src='run_exp/static/images/tutorial/example_probe.png' height='500'></p><p><b>[Press the space bar to continue]</b></p></div>",32,,,,,,,,,,,,,,,,,,,,,,,
,instruc11,40,249919,0.0-35.0-4.0,"""event"",""trial"",""time""
""fullscreenenter"",""0"",""2717""
","
","
","""event"",""trial"",""time""
""fullscreenenter"",""0"",""2717""
","
",null,run_exp/static/audio/clip_13_changepoint.m4a,null,,,,,"<div class='center'><p>How successful a pirate is at robbing ships will depend on the island you’re on.</p><p> A pirate may have visited this island many times before and gained a lot of practice robbing ships there.</p><p>So, they’re more likely to be successful than a pirate who has never visited the island before.</p></div>",,,,,,,,,,,,,,,,,,
,html-keyboard-response,41,250855,0.0-35.0-5.0,"""event"",""trial"",""time""
""fullscreenenter"",""0"",""2717""
","
","
","""event"",""trial"",""time""
""fullscreenenter"",""0"",""2717""
","
",934.9,"<div class='center'><p>How successful a pirate is at robbing ships will depend on the island you’re on.</p><p> A pirate may have visited this island many times before and gained a lot of practice robbing ships there.</p><p>So, they’re more likely to be successful than a pirate who has never visited the island before.</p><p><b>[Press the space bar to continue]</b></p></div>",32,,,,,,,,,,,,,,,,,,,,,,,
,instruc12,42,291971,0.0-35.0-6.0,"""event"",""trial"",""time""
""fullscreenenter"",""0"",""2717""
","
","
","""event"",""trial"",""time""
""fullscreenenter"",""0"",""2717""
","
",null,run_exp/static/audio/clip_14_drift.m4a,null,,,,,"<div class='center'><p>How successful a pirate is at robbing ships can also change over the time spent on the island. </p><p> Ships may hear from islanders about the pirates coming and will improve their protections against the attack. This may make it harder to rob them.</p><p> Ships may also become lazy and weaken the strength of their protections. This may make it easier to rob them.</p><br><p>Things are always changing on the high seas! So, try your best to pay attention!</p><p><img src='run_exp/static/images/tutorial/contingency.png' height='500'></p></div>",,,,,,,,,,,,,,,,,,
,html-keyboard-response,43,300756,0.0-35.0-7.0,"""event"",""trial"",""time""
""fullscreenenter"",""0"",""2717""
","
","
","""event"",""trial"",""time""
""fullscreenenter"",""0"",""2717""
","
",8782.6,"<div class='center'><p>How successful a pirate is at robbing ships can also change over the time spent on the island. </p><p> Ships may hear from islanders about the pirates coming and will improve their protections against the attack. This may make it harder to rob them.</p><p> Ships may also become lazy and weaken the strength of their protections. This may make it easier to rob them.</p><br><p>Things are always changing on the high seas! So, try your best to pay attention!</p><p><img src='run_exp/static/images/tutorial/contingency.png' height='500'></p><p><b>[Press the space bar to continue]</b></p></div>",32,,,,,,,,,,,,,,,,,,,,,,,
,instruc13,44,335973,0.0-35.0-8.0,"""event"",""trial"",""time""
""fullscreenenter"",""0"",""2717""
","
","
","""event"",""trial"",""time""
""fullscreenenter"",""0"",""2717""
","
",null,run_exp/static/audio/clip_15_summary.m4a,null,,,,,"<div class='center'><p>Let's go over the instructions quickly again. You have two important things to do: </p><b><p> 1. Pick the pirate who is the best at robbing ships on the current island. </p></b><b><p> 2. Remember on which island a ship was robbed.</p> </b><p>The amount of bonus money you can win depends on both.</p><p><br><p>Let’s try a practice game. The game will start by showing you the pirates. First, pick a pirate using the <b> 1, 2, 3 </b> keys on your keyboard. When you are shown a ship, try to remember which island you’re on by making up a story.</p><p>This is just a practice game, so you’re not playing for money. </p><p> Good luck! This game will be very difficult but try your best!</p></div>",,,,,,,,,,,,,,,,,,
,html-keyboard-response,45,340415,0.0-35.0-9.0,"""event"",""trial"",""time""
""fullscreenenter"",""0"",""2717""
","
","
","""event"",""trial"",""time""
""fullscreenenter"",""0"",""2717""
","
",4440.8,"<div class='center'><p>Let's go over the instructions quickly again. You have two important things to do: </p><b><p> 1. Pick the pirate who is the best at robbing ships on the current island. </p></b><b><p> 2. Remember on which island a ship was robbed.</p> </b><p>The amount of bonus money you can win depends on both.</p><p><br><p>Let’s try a practice game. The game will start by showing you the pirates. First, pick a pirate using the <b> 1, 2, 3 </b> keys on your keyboard. When you are shown a ship, try to remember which island you’re on by making up a story.</p><p>This is just a practice game, so you’re not playing for money. </p><p> Good luck! This game will be very difficult but try your best!</p><p><b>[Press the space bar to continue]</b></p></div>",32,,,,,,,,,,,,,,,,,,,,,,,
,do_welcome,46,344425,0.0-35.0-10.0,"""event"",""trial"",""time""
""fullscreenenter"",""0"",""2717""
","
","
","""event"",""trial"",""time""
""fullscreenenter"",""0"",""2717""
","
",null,,,,,,,,null,,,,,,,,,,,,,,,,,
,do_trial,47,350794,0.0-35.0-11.0,"""event"",""trial"",""time""
""fullscreenenter"",""0"",""2717""
","
","
","""event"",""trial"",""time""
""fullscreenenter"",""0"",""2717""
","
",1855.6,,,,,,,,51,"1,0,0",,,,,,,,,,,,,,,,
,html-keyboard-response,48,351800,0.0-36.0-0.0,"""event"",""trial"",""time""
""fullscreenenter"",""0"",""2717""
","
","
","""event"",""trial"",""time""
""fullscreenenter"",""0"",""2717""
","
",null,<p></p>,null,,,,,,,,,,,,,,,,,,,,,,,
,do_trial,49,357345,0.0-36.0-1.0,"""event"",""trial"",""time""
""fullscreenenter"",""0"",""2717""
","
","
","""event"",""trial"",""time""
""fullscreenenter"",""0"",""2717""
","
",1033,,,,,,,,51,"1,1,0",,,,,,,,,,,,,,,,
,html-keyboard-response,50,358352,0.0-37.0-0.0,"""event"",""trial"",""time""
""fullscreenenter"",""0"",""2717""
","
","
","""event"",""trial"",""time""
""fullscreenenter"",""0"",""2717""
","
",null,<p></p>,null,,,,,,,,,,,,,,,,,,,,,,,
,do_trial,51,364080,0.0-37.0-1.0,"""event"",""trial"",""time""
""fullscreenenter"",""0"",""2717""
","
","
","""event"",""trial"",""time""
""fullscreenenter"",""0"",""2717""
","
",1215.3,,,,,,,,50,"1,0,1",,,,,,,,,,,,,,,,
,html-keyboard-response,52,365083,0.0-38.0-0.0,"""event"",""trial"",""time""
""fullscreenenter"",""0"",""2717""
","
","
","""event"",""trial"",""time""
""fullscreenenter"",""0"",""2717""
","
",null,<p></p>,null,,,,,,,,,,,,,,,,,,,,,,,
,do_trial,53,370723,0.0-38.0-1.0,"""event"",""trial"",""time""
""fullscreenenter"",""0"",""2717""
","
","
","""event"",""trial"",""time""
""fullscreenenter"",""0"",""2717""
","
",1130.1,,,,,,,,49,"0,1,0",,,,,,,,,,,,,,,,
,html-keyboard-response,54,371729,0.0-39.0-0.0,"""event"",""trial"",""time""
""fullscreenenter"",""0"",""2717""
","
","
","""event"",""trial"",""time""
""fullscreenenter"",""0"",""2717""
","
",null,<p></p>,null,,,,,,,,,,,,,,,,,,,,,,,
,do_trial,55,377266,0.0-39.0-1.0,"""event"",""trial"",""time""
""fullscreenenter"",""0"",""2717""
","
","
","""event"",""trial"",""time""
""fullscreenenter"",""0"",""2717""
","
",1022.1,,,,,,,,49,"1,0,0",,,,,,,,,,,,,,,,
,do_bye,56,378774,0.0-40.0-0.0,"""event"",""trial"",""time""
""fullscreenenter"",""0"",""2717""
","
","
","""event"",""trial"",""time""
""fullscreenenter"",""0"",""2717""
","
",null,,,,,,,,null,,,,,,,,,,,,,,,,,
,do_travel,57,387780,0.0-40.0-1.0,"""event"",""trial"",""time""
""fullscreenenter"",""0"",""2717""
","
","
","""event"",""trial"",""time""
""fullscreenenter"",""0"",""2717""
","
",null,,,,,,,,null,,,,,,,,,,,,,,,,,
,do_welcome,58,391787,0.0-40.0-2.0,"""event"",""trial"",""time""
""fullscreenenter"",""0"",""2717""
","
","
","""event"",""trial"",""time""
""fullscreenenter"",""0"",""2717""
","
",null,,,,,,,,null,,,,,,,,,,,,,,,,,
,do_trial,59,397832,0.0-40.0-3.0,"""event"",""trial"",""time""
""fullscreenenter"",""0"",""2717""
","
","
","""event"",""trial"",""time""
""fullscreenenter"",""0"",""2717""
","
",1532.6,,,,,,,,49,"1,0,0",,,,,,,,,,,,,,,,
,html-keyboard-response,60,398839,0.0-41.0-0.0,"""event"",""trial"",""time""
""fullscreenenter"",""0"",""2717""
","
","
","""event"",""trial"",""time""
""fullscreenenter"",""0"",""2717""
","
",null,<p></p>,null,,,,,,,,,,,,,,,,,,,,,,,
,do_trial,61,404174,0.0-41.0-1.0,"""event"",""trial"",""time""
""fullscreenenter"",""0"",""2717""
","
","
","""event"",""trial"",""time""
""fullscreenenter"",""0"",""2717""
","
",826.5,,,,,,,,49,"1,0,1",,,,,,,,,,,,,,,,
,html-keyboard-response,62,405181,0.0-42.0-0.0,"""event"",""trial"",""time""
""fullscreenenter"",""0"",""2717""
","
","
","""event"",""trial"",""time""
""fullscreenenter"",""0"",""2717""
","
",null,<p></p>,null,,,,,,,,,,,,,,,,,,,,,,,
,do_trial,63,410830,0.0-42.0-1.0,"""event"",""trial"",""time""
""fullscreenenter"",""0"",""2717""
","
","
","""event"",""trial"",""time""
""fullscreenenter"",""0"",""2717""
","
",1136.5,,,,,,,,51,"1,1,0",,,,,,,,,,,,,,,,
,html-keyboard-response,64,411837,0.0-43.0-0.0,"""event"",""trial"",""time""
""fullscreenenter"",""0"",""2717""
","
","
","""event"",""trial"",""time""
""fullscreenenter"",""0"",""2717""
","
",null,<p></p>,null,,,,,,,,,,,,,,,,,,,,,,,
,do_trial,65,416534,0.0-43.0-1.0,"""event"",""trial"",""time""
""fullscreenenter"",""0"",""2717""
","
","
","""event"",""trial"",""time""
""fullscreenenter"",""0"",""2717""
","
",185.1,,,,,,,,50,"0,0,1",,,,,,,,,,,,,,,,
,html-keyboard-response,66,417541,0.0-44.0-0.0,"""event"",""trial"",""time""
""fullscreenenter"",""0"",""2717""
","
","
","""event"",""trial"",""time""
""fullscreenenter"",""0"",""2717""
","
",null,<p></p>,null,,,,,,,,,,,,,,,,,,,,,,,
,do_trial,67,422468,0.0-44.0-1.0,"""event"",""trial"",""time""
""fullscreenenter"",""0"",""2717""
","
","
","""event"",""trial"",""time""
""fullscreenenter"",""0"",""2717""
","
",416,,,,,,,,49,"1,0,1",,,,,,,,,,,,,,,,
,html-keyboard-response,68,425257,0.0-45.0-0.0,"""event"",""trial"",""time""
""fullscreenenter"",""0"",""2717""
","
","
","""event"",""trial"",""time""
""fullscreenenter"",""0"",""2717""
","
",2786,<div class='center'><p><img src='run_exp/static/images/tutorial/prac_best_pirate.png'  height='500'></p></div>,49,,,,,,,,,,,,,,,,,,,,,,,
,html-keyboard-response,69,427644,0.0-46.0-0.0,"""event"",""trial"",""time""
""fullscreenenter"",""0"",""2717""
","
","
","""event"",""trial"",""time""
""fullscreenenter"",""0"",""2717""
","
",2385.6,<div class='center'><p>That's correct! Red beard was the best.</p><p><b>[Press the space bar to continue]</b></p></div>,32,,,,,,,,,,,,,,,,,,,,,,,
,html-keyboard-response,70,430398,0.0-46.0-1.0,"""event"",""trial"",""time""
""fullscreenenter"",""0"",""2717""
","
","
","""event"",""trial"",""time""
""fullscreenenter"",""0"",""2717""
","
",2753,<div class='center'><p><img src='run_exp/static/images/tutorial/prac_source.png'  height='500'></p></div>,50,,,,,,,,,,,,,,,,,,,,,,,
,html-keyboard-response,71,431642,0.0-47.0-0.0,"""event"",""trial"",""time""
""fullscreenenter"",""0"",""2717""
","
","
","""event"",""trial"",""time""
""fullscreenenter"",""0"",""2717""
","
",1242.6,<div class='center'><p>That's correct! You saw this ship on the cavern island.</p><p><b>[Press the space bar to continue]</b></p></div>,32,,,,,,,,,,,,,,,,,,,,,,,
,quiz_beginning,72,442895,0.0-47.0-1.0,"""event"",""trial"",""time""
""fullscreenenter"",""0"",""2717""
","
","
","""event"",""trial"",""time""
""fullscreenenter"",""0"",""2717""
","
",null,run_exp/static/audio/clip_16_quiz_intro.m4a,null,,,,,"<div class='center'><p>Good job on the practice game! Now, you will be asked some true or false questions to make sure you really understand the rules of the game.</p><p> Press <b>'1'</b> on the keyboard for true and press <b>'2'</b> for false.</p></div>",,,,,,,,,,,,,,,,,,
,audio-keyboard-response,73,449716,0.0-47.0-2.0,"""event"",""trial"",""time""
""fullscreenenter"",""0"",""2717""
","
","
","""event"",""trial"",""time""
""fullscreenenter"",""0"",""2717""
","
",6819.9,run_exp/static/audio/clip_17_q1.m4a,49,,,,,,,,,,,,,,,,,,,,,,,
,correct,74,452136,0.0-48.0-0.0,"""event"",""trial"",""time""
""fullscreenenter"",""0"",""2717""
","
","
","""event"",""trial"",""time""
""fullscreenenter"",""0"",""2717""
","
",null,run_exp/static/audio/clip_18_correct.m4a,null,,,,,<div class='center'><p>That's correct!</p></div>,,,,,,,,,,,,,,,,,,
,html-keyboard-response,75,453734,0.0-48.0-1.0,"""event"",""trial"",""time""
""fullscreenenter"",""0"",""2717""
","
","
","""event"",""trial"",""time""
""fullscreenenter"",""0"",""2717""
","
",1596.7,<div class='center'><p>That's correct!</p><p><b>[Press the space bar to continue]</b></p></div>,32,,,,,,,,,,,,,,,,,,,,,,,
,audio-keyboard-response,76,461171,0.0-48.0-2.0,"""event"",""trial"",""time""
""fullscreenenter"",""0"",""2717""
","
","
","""event"",""trial"",""time""
""fullscreenenter"",""0"",""2717""
","
",7436.6,run_exp/static/audio/clip_20_q2.m4a,50,,,,,,,,,,,,,,,,,,,,,,,
,correct,77,463584,0.0-49.0-0.0,"""event"",""trial"",""time""
""fullscreenenter"",""0"",""2717""
","
","
","""event"",""trial"",""time""
""fullscreenenter"",""0"",""2717""
","
",null,run_exp/static/audio/clip_18_correct.m4a,null,,,,,<div class='center'><p>That's correct!</p></div>,,,,,,,,,,,,,,,,,,
,html-keyboard-response,78,464324,0.0-49.0-1.0,"""event"",""trial"",""time""
""fullscreenenter"",""0"",""2717""
","
","
","""event"",""trial"",""time""
""fullscreenenter"",""0"",""2717""
","
",739.6,<div class='center'><p>That's correct!</p><p><b>[Press the space bar to continue]</b></p></div>,32,,,,,,,,,,,,,,,,,,,,,,,
,audio-keyboard-response,79,469124,0.0-49.0-2.0,"""event"",""trial"",""time""
""fullscreenenter"",""0"",""2717""
","
","
","""event"",""trial"",""time""
""fullscreenenter"",""0"",""2717""
","
",4799.1,run_exp/static/audio/clip_22_q3.m4a,50,,,,,,,,,,,,,,,,,,,,,,,
,correct,80,471525,0.0-50.0-0.0,"""event"",""trial"",""time""
""fullscreenenter"",""0"",""2717""
","
","
","""event"",""trial"",""time""
""fullscreenenter"",""0"",""2717""
","
",null,run_exp/static/audio/clip_18_correct.m4a,null,,,,,<div class='center'><p>That's correct!</p></div>,,,,,,,,,,,,,,,,,,
,html-keyboard-response,81,472290,0.0-50.0-1.0,"""event"",""trial"",""time""
""fullscreenenter"",""0"",""2717""
","
","
","""event"",""trial"",""time""
""fullscreenenter"",""0"",""2717""
","
",764.6,<div class='center'><p>That's correct!</p><p><b>[Press the space bar to continue]</b></p></div>,32,,,,,,,,,,,,,,,,,,,,,,,
,audio-keyboard-response,82,476008,0.0-50.0-2.0,"""event"",""trial"",""time""
""fullscreenenter"",""0"",""2717""
","
","
","""event"",""trial"",""time""
""fullscreenenter"",""0"",""2717""
","
",3716.5,run_exp/static/audio/clip_24_q4.m4a,49,,,,,,,,,,,,,,,,,,,,,,,
,correct,83,478445,0.0-51.0-0.0,"""event"",""trial"",""time""
""fullscreenenter"",""0"",""2717""
","
","
","""event"",""trial"",""time""
""fullscreenenter"",""0"",""2717""
","
",null,run_exp/static/audio/clip_18_correct.m4a,null,,,,,<div class='center'><p>That's correct!</p></div>,,,,,,,,,,,,,,,,,,
,html-keyboard-response,84,479233,0.0-51.0-1.0,"""event"",""trial"",""time""
""fullscreenenter"",""0"",""2717""
","
","
","""event"",""trial"",""time""
""fullscreenenter"",""0"",""2717""
","
",786.9,<div class='center'><p>That's correct!</p><p><b>[Press the space bar to continue]</b></p></div>,32,,,,,,,,,,,,,,,,,,,,,,,
,q_all_corr,85,487733,0.0-52.0-0.0,"""event"",""trial"",""time""
""fullscreenenter"",""0"",""2717""
","
","
","""event"",""trial"",""time""
""fullscreenenter"",""0"",""2717""
","
",null,run_exp/static/audio/clip_27_quiz_all_correct.m4a,null,,,,,<div class='center'><p>Good job! You’re now ready to move on to the real game! Remember this game will be difficult but don't get discouraged and try your best!</p></div>,,,,,,,,,,,,,,,,,,
,html-keyboard-response,86,488279,0.0-52.0-1.0,"""event"",""trial"",""time""
""fullscreenenter"",""0"",""2717""
","
","
","""event"",""trial"",""time""
""fullscreenenter"",""0"",""2717""
","
",544.7,<div class='center'><p>Good job! You’re now ready to move on to the real game! Remember this game will be difficult but don't get discouraged and try your best!</p><p><b>[Press the space bar to continue]</b></p></div>,32,,,,,,,,,,,,,,,,,,,,,,,
,do_welcome,87,492290,0.0-53.0-0.0,"""event"",""trial"",""time""
""fullscreenenter"",""0"",""2717""
","
","
","""event"",""trial"",""time""
""fullscreenenter"",""0"",""2717""
","
",null,,,,,,,,null,,,,,,,,,,,,,,,,,
,do_trial,88,497875,0.0-54.0-0.0,"""event"",""trial"",""time""
""fullscreenenter"",""0"",""2717""
","
","
","""event"",""trial"",""time""
""fullscreenenter"",""0"",""2717""
","
",1039.5,,,,,,,,49,"0,1,0",0,city,0,probe-139,0.6,0.3,0.1,0,,,,,,,,
,html-keyboard-response,89,498878,0.0-54.0-1.0,"""event"",""trial"",""time""
""fullscreenenter"",""0"",""2717""
","
","
","""event"",""trial"",""time""
""fullscreenenter"",""0"",""2717""
","
",null,<p></p>,null,,,,,,,,,,,,,,,,,,,,,,,
,do_trial,90,504589,0.0-55.0-0.0,"""event"",""trial"",""time""
""fullscreenenter"",""0"",""2717""
","
","
","""event"",""trial"",""time""
""fullscreenenter"",""0"",""2717""
","
",1161.2,,,,,,,,50,"1,0,0",0,city,1,probe-186,0.739919832,0.209559198,0.132125593,0,,,,,,,,
,html-keyboard-response,91,505595,0.0-55.0-1.0,"""event"",""trial"",""time""
""fullscreenenter"",""0"",""2717""
","
","
","""event"",""trial"",""time""
""fullscreenenter"",""0"",""2717""
","
",null,<p></p>,null,,,,,,,,,,,,,,,,,,,,,,,
,do_trial,92,510901,0.0-56.0-0.0,"""event"",""trial"",""time""
""fullscreenenter"",""0"",""2717""
","
","
","""event"",""trial"",""time""
""fullscreenenter"",""0"",""2717""
","
",754.7,,,,,,,,51,"1,1,0",0,city,2,probe-89,0.713187257,0.256292025,0.065573871,0,,,,,,,,
,html-keyboard-response,93,511904,0.0-56.0-1.0,"""event"",""trial"",""time""
""fullscreenenter"",""0"",""2717""
","
","
","""event"",""trial"",""time""
""fullscreenenter"",""0"",""2717""
","
",null,<p></p>,null,,,,,,,,,,,,,,,,,,,,,,,
,do_trial,94,517134,0.0-57.0-0.0,"""event"",""trial"",""time""
""fullscreenenter"",""0"",""2717""
","
","
","""event"",""trial"",""time""
""fullscreenenter"",""0"",""2717""
","
",679.7,,,,,,,,49,"0,0,0",0,city,3,probe-16,0.800198123,0.289733547,0.127846519,0,,,,,,,,
,html-keyboard-response,95,518141,0.0-57.0-1.0,"""event"",""trial"",""time""
""fullscreenenter"",""0"",""2717""
","
","
","""event"",""trial"",""time""
""fullscreenenter"",""0"",""2717""
","
",null,<p></p>,null,,,,,,,,,,,,,,,,,,,,,,,
,do_trial,96,523260,0.0-58.0-0.0,"""event"",""trial"",""time""
""fullscreenenter"",""0"",""2717""
","
","
","""event"",""trial"",""time""
""fullscreenenter"",""0"",""2717""
","
",571.9,,,,,,,,50,"1,0,0",0,city,4,probe-69,0.612140519,0.287598853,0.075399435,0,,,,,,,,
,html-keyboard-response,97,524267,0.0-58.0-1.0,"""event"",""trial"",""time""
""fullscreenenter"",""0"",""2717""
","
","
","""event"",""trial"",""time""
""fullscreenenter"",""0"",""2717""
","
",null,<p></p>,null,,,,,,,,,,,,,,,,,,,,,,,
,do_trial,98,529753,0.0-59.0-0.0,"""event"",""trial"",""time""
""fullscreenenter"",""0"",""2717""
","
","
","""event"",""trial"",""time""
""fullscreenenter"",""0"",""2717""
","
",939.5,,,,,,,,51,"0,0,0",0,city,5,probe-136,0.593470749,0.251623814,0.072044329,0,,,,,,,,
,html-keyboard-response,99,530757,0.0-59.0-1.0,"""event"",""trial"",""time""
""fullscreenenter"",""0"",""2717""
","
","
","""event"",""trial"",""time""
""fullscreenenter"",""0"",""2717""
","
",null,<p></p>,null,,,,,,,,,,,,,,,,,,,,,,,
,do_trial,100,536128,0.0-60.0-0.0,"""event"",""trial"",""time""
""fullscreenenter"",""0"",""2717""
","
","
","""event"",""trial"",""time""
""fullscreenenter"",""0"",""2717""
","
",827.4,,,,,,,,51,"1,1,1",0,city,6,probe-211,0.651638452,0.259009139,0.283668983,1,,,,,,,,
,html-keyboard-response,101,537135,0.0-60.0-1.0,"""event"",""trial"",""time""
""fullscreenenter"",""0"",""2717""
","
","
","""event"",""trial"",""time""
""fullscreenenter"",""0"",""2717""
","
",null,<p></p>,null,,,,,,,,,,,,,,,,,,,,,,,
,do_trial,102,542336,0.0-61.0-0.0,"""event"",""trial"",""time""
""fullscreenenter"",""0"",""2717""
","
","
","""event"",""trial"",""time""
""fullscreenenter"",""0"",""2717""
","
",652.8,,,,,,,,51,"1,0,1",0,city,7,probe-04,0.597403762,0.239148846,0.234848135,1,,,,,,,,
,html-keyboard-response,103,543343,0.0-61.0-1.0,"""event"",""trial"",""time""
""fullscreenenter"",""0"",""2717""
","
","
","""event"",""trial"",""time""
""fullscreenenter"",""0"",""2717""
","
",null,<p></p>,null,,,,,,,,,,,,,,,,,,,,,,,
,do_trial,104,548535,0.0-62.0-0.0,"""event"",""trial"",""time""
""fullscreenenter"",""0"",""2717""
","
","
","""event"",""trial"",""time""
""fullscreenenter"",""0"",""2717""
","
",642.9,,,,,,,,51,"1,0,1",0,city,8,probe-137,0.595557152,0.358967776,0.171063678,1,,,,,,,,
,html-keyboard-response,105,549538,0.0-62.0-1.0,"""event"",""trial"",""time""
""fullscreenenter"",""0"",""2717""
","
","
","""event"",""trial"",""time""
""fullscreenenter"",""0"",""2717""
","
",null,<p></p>,null,,,,,,,,,,,,,,,,,,,,,,,
,do_trial,106,554876,0.0-63.0-0.0,"""event"",""trial"",""time""
""fullscreenenter"",""0"",""2717""
","
","
","""event"",""trial"",""time""
""fullscreenenter"",""0"",""2717""
","
",791.1,,,,,,,,51,"1,0,0",0,city,9,probe-167,0.741330674,0.369267419,0.122868568,0,,,,,,,,
,html-keyboard-response,107,555882,0.0-63.0-1.0,"""event"",""trial"",""time""
""fullscreenenter"",""0"",""2717""
","
","
","""event"",""trial"",""time""
""fullscreenenter"",""0"",""2717""
","
",null,<p></p>,null,,,,,,,,,,,,,,,,,,,,,,,
,do_trial,108,560973,0.0-64.0-0.0,"""event"",""trial"",""time""
""fullscreenenter"",""0"",""2717""
","
","
","""event"",""trial"",""time""
""fullscreenenter"",""0"",""2717""
","
",542,,,,,,,,50,"1,0,1",0,city,10,probe-217,0.618303109,0.351291598,0.108634076,0,,,,,,,,
,html-keyboard-response,109,561979,0.0-64.0-1.0,"""event"",""trial"",""time""
""fullscreenenter"",""0"",""2717""
","
","
","""event"",""trial"",""time""
""fullscreenenter"",""0"",""2717""
","
",null,<p></p>,null,,,,,,,,,,,,,,,,,,,,,,,
,do_trial,110,567018,0.0-65.0-0.0,"""event"",""trial"",""time""
""fullscreenenter"",""0"",""2717""
","
","
","""event"",""trial"",""time""
""fullscreenenter"",""0"",""2717""
","
",488.8,,,,,,,,50,"0,0,0",0,city,11,probe-118,0.734481842,0.362528613,0.054649395,0,,,,,,,,
,html-keyboard-response,111,568025,0.0-65.0-1.0,"""event"",""trial"",""time""
""fullscreenenter"",""0"",""2717""
","
","
","""event"",""trial"",""time""
""fullscreenenter"",""0"",""2717""
","
",null,<p></p>,null,,,,,,,,,,,,,,,,,,,,,,,
,do_trial,112,572923,0.0-66.0-0.0,"""event"",""trial"",""time""
""fullscreenenter"",""0"",""2717""
","
","
","""event"",""trial"",""time""
""fullscreenenter"",""0"",""2717""
","
",348.9,,,,,,,,49,"1,1,0",0,city,12,probe-39,0.667002669,0.301336415,0.105702891,1,,,,,,,,
,html-keyboard-response,113,573930,0.0-66.0-1.0,"""event"",""trial"",""time""
""fullscreenenter"",""0"",""2717""
","
","
","""event"",""trial"",""time""
""fullscreenenter"",""0"",""2717""
","
",null,<p></p>,null,,,,,,,,,,,,,,,,,,,,,,,
,do_trial,114,579027,0.0-67.0-0.0,"""event"",""trial"",""time""
""fullscreenenter"",""0"",""2717""
","
","
","""event"",""trial"",""time""
""fullscreenenter"",""0"",""2717""
","
",547.5,,,,,,,,49,"1,1,0",0,city,13,probe-196,0.797740631,0.29915783,0.103880871,1,,,,,,,,
,html-keyboard-response,115,580033,0.0-67.0-1.0,"""event"",""trial"",""time""
""fullscreenenter"",""0"",""2717""
","
","
","""event"",""trial"",""time""
""fullscreenenter"",""0"",""2717""
","
",null,<p></p>,null,,,,,,,,,,,,,,,,,,,,,,,
,do_trial,116,584976,0.0-68.0-0.0,"""event"",""trial"",""time""
""fullscreenenter"",""0"",""2717""
","
","
","""event"",""trial"",""time""
""fullscreenenter"",""0"",""2717""
","
",396.9,,,,,,,,49,"0,0,0",0,city,14,probe-171,0.792595784,0.330209572,0.083142661,0,,,,,,,,
,html-keyboard-response,117,585983,0.0-68.0-1.0,"""event"",""trial"",""time""
""fullscreenenter"",""0"",""2717""
","
","
","""event"",""trial"",""time""
""fullscreenenter"",""0"",""2717""
","
",null,<p></p>,null,,,,,,,,,,,,,,,,,,,,,,,
,do_trial,118,590911,0.0-69.0-0.0,"""event"",""trial"",""time""
""fullscreenenter"",""0"",""2717""
","
","
","""event"",""trial"",""time""
""fullscreenenter"",""0"",""2717""
","
",380.5,,,,,,,,51,"1,0,0",0,city,15,probe-172,0.720013606,0.418143983,0.102258571,0,,,,,,,,
,html-keyboard-response,119,591916,0.0-69.0-1.0,"""event"",""trial"",""time""
""fullscreenenter"",""0"",""2717""
","
","
","""event"",""trial"",""time""
""fullscreenenter"",""0"",""2717""
","
",null,<p></p>,null,,,,,,,,,,,,,,,,,,,,,,,
,do_trial,120,596912,0.0-70.0-0.0,"""event"",""trial"",""time""
""fullscreenenter"",""0"",""2717""
","
","
","""event"",""trial"",""time""
""fullscreenenter"",""0"",""2717""
","
",444.5,,,,,,,,49,"1,1,0",0,city,16,probe-226,0.584355151,0.322445221,0.111377703,1,,,,,,,,
,html-keyboard-response,121,597918,0.0-70.0-1.0,"""event"",""trial"",""time""
""fullscreenenter"",""0"",""2717""
","
","
","""event"",""trial"",""time""
""fullscreenenter"",""0"",""2717""
","
",null,<p></p>,null,,,,,,,,,,,,,,,,,,,,,,,
,do_trial,122,603140,0.0-71.0-0.0,"""event"",""trial"",""time""
""fullscreenenter"",""0"",""2717""
","
","
","""event"",""trial"",""time""
""fullscreenenter"",""0"",""2717""
","
",674.2,,,,,,,,51,"1,1,0",0,city,17,probe-29,0.500619255,0.370948649,0.203955612,0,,,,,,,,
,html-keyboard-response,123,604147,0.0-71.0-1.0,"""event"",""trial"",""time""
""fullscreenenter"",""0"",""2717""
","
","
","""event"",""trial"",""time""
""fullscreenenter"",""0"",""2717""
","
",null,<p></p>,null,,,,,,,,,,,,,,,,,,,,,,,
,do_trial,124,609123,0.0-72.0-0.0,"""event"",""trial"",""time""
""fullscreenenter"",""0"",""2717""
","
","
","""event"",""trial"",""time""
""fullscreenenter"",""0"",""2717""
","
",428.9,,,,,,,,49,"1,0,0",0,city,18,probe-17,0.509958411,0.26531367,0.080721683,1,,,,,,,,
,html-keyboard-response,125,610127,0.0-72.0-1.0,"""event"",""trial"",""time""
""fullscreenenter"",""0"",""2717""
","
","
","""event"",""trial"",""time""
""fullscreenenter"",""0"",""2717""
","
",null,<p></p>,null,,,,,,,,,,,,,,,,,,,,,,,
,do_trial,126,615158,0.0-73.0-0.0,"""event"",""trial"",""time""
""fullscreenenter"",""0"",""2717""
","
","
","""event"",""trial"",""time""
""fullscreenenter"",""0"",""2717""
","
",485.9,,,,,,,,49,"1,0,0",0,city,19,probe-97,0.573950511,0.421851504,0.166661135,1,,,,,,,,
,html-keyboard-response,127,616160,0.0-73.0-1.0,"""event"",""trial"",""time""
""fullscreenenter"",""0"",""2717""
","
","
","""event"",""trial"",""time""
""fullscreenenter"",""0"",""2717""
","
",null,<p></p>,null,,,,,,,,,,,,,,,,,,,,,,,
,do_trial,128,621891,0.0-74.0-0.0,"""event"",""trial"",""time""
""fullscreenenter"",""0"",""2717""
","
","
","""event"",""trial"",""time""
""fullscreenenter"",""0"",""2717""
","
",1182.5,,,,,,,,49,"1,0,0",0,city,20,probe-64,0.748596577,0.326139532,0.260370126,1,,,,,,,,
,html-keyboard-response,129,622897,0.0-74.0-1.0,"""event"",""trial"",""time""
""fullscreenenter"",""0"",""2717""
","
","
","""event"",""trial"",""time""
""fullscreenenter"",""0"",""2717""
","
",null,<p></p>,null,,,,,,,,,,,,,,,,,,,,,,,
,do_trial,130,628101,0.0-75.0-0.0,"""event"",""trial"",""time""
""fullscreenenter"",""0"",""2717""
","
","
","""event"",""trial"",""time""
""fullscreenenter"",""0"",""2717""
","
",657.1,,,,,,,,49,"0,1,0",0,city,21,probe-149,0.694304503,0.427212433,0.299886662,0,,,,,,,,
,html-keyboard-response,131,629108,0.0-75.0-1.0,"""event"",""trial"",""time""
""fullscreenenter"",""0"",""2717""
","
","
","""event"",""trial"",""time""
""fullscreenenter"",""0"",""2717""
","
",null,<p></p>,null,,,,,,,,,,,,,,,,,,,,,,,
,do_trial,132,634143,0.0-76.0-0.0,"""event"",""trial"",""time""
""fullscreenenter"",""0"",""2717""
","
","
","""event"",""trial"",""time""
""fullscreenenter"",""0"",""2717""
","
",487.6,,,,,,,,51,"1,1,1",0,city,22,probe-201,0.690860129,0.35237165,0.289061562,1,,,,,,,,
,html-keyboard-response,133,635148,0.0-76.0-1.0,"""event"",""trial"",""time""
""fullscreenenter"",""0"",""2717""
","
","
","""event"",""trial"",""time""
""fullscreenenter"",""0"",""2717""
","
",null,<p></p>,null,,,,,,,,,,,,,,,,,,,,,,,
,do_trial,134,640262,0.0-77.0-0.0,"""event"",""trial"",""time""
""fullscreenenter"",""0"",""2717""
","
","
","""event"",""trial"",""time""
""fullscreenenter"",""0"",""2717""
","
",567,,,,,,,,51,"1,1,0",0,city,23,probe-92,0.697874003,0.374782092,0.251339684,0,,,,,,,,
,html-keyboard-response,135,641267,0.0-77.0-1.0,"""event"",""trial"",""time""
""fullscreenenter"",""0"",""2717""
","
","
","""event"",""trial"",""time""
""fullscreenenter"",""0"",""2717""
","
",null,<p></p>,null,,,,,,,,,,,,,,,,,,,,,,,
,do_trial,136,646317,0.0-78.0-0.0,"""event"",""trial"",""time""
""fullscreenenter"",""0"",""2717""
","
","
","""event"",""trial"",""time""
""fullscreenenter"",""0"",""2717""
","
",499.4,,,,,,,,49,"1,0,0",0,city,24,probe-198,0.820130835,0.129294568,0.254103614,1,,,,,,,,
,html-keyboard-response,137,647324,0.0-78.0-1.0,"""event"",""trial"",""time""
""fullscreenenter"",""0"",""2717""
","
","
","""event"",""trial"",""time""
""fullscreenenter"",""0"",""2717""
","
",null,<p></p>,null,,,,,,,,,,,,,,,,,,,,,,,
,do_trial,138,652278,0.0-79.0-0.0,"""event"",""trial"",""time""
""fullscreenenter"",""0"",""2717""
","
","
","""event"",""trial"",""time""
""fullscreenenter"",""0"",""2717""
","
",405.9,,,,,,,,51,"1,0,0",0,city,25,probe-110,0.70114961,0.11210418,0.177984159,0,,,,,,,,
,html-keyboard-response,139,653282,0.0-79.0-1.0,"""event"",""trial"",""time""
""fullscreenenter"",""0"",""2717""
","
","
","""event"",""trial"",""time""
""fullscreenenter"",""0"",""2717""
","
",null,<p></p>,null,,,,,,,,,,,,,,,,,,,,,,,
,do_trial,140,658181,0.0-80.0-0.0,"""event"",""trial"",""time""
""fullscreenenter"",""0"",""2717""
","
","
","""event"",""trial"",""time""
""fullscreenenter"",""0"",""2717""
","
",353.3,,,,,,,,49,"0,1,0",0,city,26,probe-129,0.701556615,0.251255434,0.18604352,0,,,,,,,,
,html-keyboard-response,141,659188,0.0-80.0-1.0,"""event"",""trial"",""time""
""fullscreenenter"",""0"",""2717""
","
","
","""event"",""trial"",""time""
""fullscreenenter"",""0"",""2717""
","
",null,<p></p>,null,,,,,,,,,,,,,,,,,,,,,,,
,do_trial,142,664078,0.0-81.0-0.0,"""event"",""trial"",""time""
""fullscreenenter"",""0"",""2717""
","
","
","""event"",""trial"",""time""
""fullscreenenter"",""0"",""2717""
","
",340.5,,,,,,,,49,"0,0,0",0,city,27,probe-79,0.737865176,0.247986285,0.129925609,0,,,,,,,,
,html-keyboard-response,143,665083,0.0-81.0-1.0,"""event"",""trial"",""time""
""fullscreenenter"",""0"",""2717""
","
","
","""event"",""trial"",""time""
""fullscreenenter"",""0"",""2717""
","
",null,<p></p>,null,,,,,,,,,,,,,,,,,,,,,,,
,do_trial,144,670049,0.0-82.0-0.0,"""event"",""trial"",""time""
""fullscreenenter"",""0"",""2717""
","
","
","""event"",""trial"",""time""
""fullscreenenter"",""0"",""2717""
","
",417.8,,,,,,,,51,"1,0,0",0,city,28,probe-170,0.834359703,0.266469005,0.078701667,0,,,,,,,,
,html-keyboard-response,145,671053,0.0-82.0-1.0,"""event"",""trial"",""time""
""fullscreenenter"",""0"",""2717""
","
","
","""event"",""trial"",""time""
""fullscreenenter"",""0"",""2717""
","
",null,<p></p>,null,,,,,,,,,,,,,,,,,,,,,,,
,do_trial,146,676142,0.0-83.0-0.0,"""event"",""trial"",""time""
""fullscreenenter"",""0"",""2717""
","
","
","""event"",""trial"",""time""
""fullscreenenter"",""0"",""2717""
","
",541.4,,,,,,,,51,"1,0,0",0,city,29,probe-105,0.637647622,0.249124722,0.126392445,0,,,,,,,,
,html-keyboard-response,147,677149,0.0-83.0-1.0,"""event"",""trial"",""time""
""fullscreenenter"",""0"",""2717""
","
","
","""event"",""trial"",""time""
""fullscreenenter"",""0"",""2717""
","
",null,<p></p>,null,,,,,,,,,,,,,,,,,,,,,,,
,do_bye,148,678660,0.0-84.0-0.0,"""event"",""trial"",""time""
""fullscreenenter"",""0"",""2717""
","
","
","""event"",""trial"",""time""
""fullscreenenter"",""0"",""2717""
","
",null,,,,,,,,null,,,,,,,,,,,,,,,,,
,break,149,688707,0.0-84.0-1.0,"""event"",""trial"",""time""
""fullscreenenter"",""0"",""2717""
","
","
","""event"",""trial"",""time""
""fullscreenenter"",""0"",""2717""
","
",10046.1,"<div class='center'><p>Time to take a quick break! You have 2 minutes to rest, but you can move on sooner if you'd like.</p><p> Press the <b>space bar</b> to continue.</p></div>",32,,,,,,,,,,,,,,,,,,,,,,,
,do_travel,150,697711,0.0-85.0-0.0,"""event"",""trial"",""time""
""fullscreenenter"",""0"",""2717""
","
","
","""event"",""trial"",""time""
""fullscreenenter"",""0"",""2717""
","
",null,,,,,,,,null,,,,,,,,,,,,,,,,,
,do_welcome,151,701720,0.0-85.0-1.0,"""event"",""trial"",""time""
""fullscreenenter"",""0"",""2717""
","
","
","""event"",""trial"",""time""
""fullscreenenter"",""0"",""2717""
","
",null,,,,,,,,null,,,,,,,,,,,,,,,,,
,do_trial,152,707829,0.0-86.0-0.0,"""event"",""trial"",""time""
""fullscreenenter"",""0"",""2717""
","
","
","""event"",""trial"",""time""
""fullscreenenter"",""0"",""2717""
","
",1564,,,,,,,,50,"1,0,0",1,mountain,30,probe-59,1,0.246386982,0.123126167,0,,,,,,,,
,html-keyboard-response,153,708835,0.0-86.0-1.0,"""event"",""trial"",""time""
""fullscreenenter"",""0"",""2717""
","
","
","""event"",""trial"",""time""
""fullscreenenter"",""0"",""2717""
","
",null,<p></p>,null,,,,,,,,,,,,,,,,,,,,,,,
,do_trial,154,714914,0.0-87.0-0.0,"""event"",""trial"",""time""
""fullscreenenter"",""0"",""2717""
","
","
","""event"",""trial"",""time""
""fullscreenenter"",""0"",""2717""
","
",1529.9,,,,,,,,49,"1,1,0",1,mountain,31,probe-51,1,0.296949059,0.201290433,1,,,,,,,,
,html-keyboard-response,155,715916,0.0-87.0-1.0,"""event"",""trial"",""time""
""fullscreenenter"",""0"",""2717""
","
","
","""event"",""trial"",""time""
""fullscreenenter"",""0"",""2717""
","
",null,<p></p>,null,,,,,,,,,,,,,,,,,,,,,,,
,do_trial,156,721100,0.0-88.0-0.0,"""event"",""trial"",""time""
""fullscreenenter"",""0"",""2717""
","
","
","""event"",""trial"",""time""
""fullscreenenter"",""0"",""2717""
","
",647,,,,,,,,49,"1,0,0",1,mountain,32,probe-111,1,0.346104683,0.127629003,1,,,,,,,,
,html-keyboard-response,157,722102,0.0-88.0-1.0,"""event"",""trial"",""time""
""fullscreenenter"",""0"",""2717""
","
","
","""event"",""trial"",""time""
""fullscreenenter"",""0"",""2717""
","
",null,<p></p>,null,,,,,,,,,,,,,,,,,,,,,,,
,do_trial,158,727053,0.0-89.0-0.0,"""event"",""trial"",""time""
""fullscreenenter"",""0"",""2717""
","
","
","""event"",""trial"",""time""
""fullscreenenter"",""0"",""2717""
","
",402.3,,,,,,,,49,"1,1,0",1,mountain,33,probe-122,0.930547968,0.316370881,0.102141497,1,,,,,,,,
,html-keyboard-response,159,728055,0.0-89.0-1.0,"""event"",""trial"",""time""
""fullscreenenter"",""0"",""2717""
","
","
","""event"",""trial"",""time""
""fullscreenenter"",""0"",""2717""
","
",null,<p></p>,null,,,,,,,,,,,,,,,,,,,,,,,
,do_trial,160,732980,0.0-90.0-0.0,"""event"",""trial"",""time""
""fullscreenenter"",""0"",""2717""
","
","
","""event"",""trial"",""time""
""fullscreenenter"",""0"",""2717""
","
",376.3,,,,,,,,51,"1,0,0",1,mountain,34,probe-192,0.881236718,0.442462482,0.11152189,0,,,,,,,,
,html-keyboard-response,161,733986,0.0-90.0-1.0,"""event"",""trial"",""time""
""fullscreenenter"",""0"",""2717""
","
","
","""event"",""trial"",""time""
""fullscreenenter"",""0"",""2717""
","
",null,<p></p>,null,,,,,,,,,,,,,,,,,,,,,,,
,do_trial,162,738913,0.0-91.0-0.0,"""event"",""trial"",""time""
""fullscreenenter"",""0"",""2717""
","
","
","""event"",""trial"",""time""
""fullscreenenter"",""0"",""2717""
","
",380.6,,,,,,,,49,"0,1,0",1,mountain,35,probe-12,0.768183906,0.43296225,0.05965805,0,,,,,,,,
,html-keyboard-response,163,739916,0.0-91.0-1.0,"""event"",""trial"",""time""
""fullscreenenter"",""0"",""2717""
","
","
","""event"",""trial"",""time""
""fullscreenenter"",""0"",""2717""
","
",null,<p></p>,null,,,,,,,,,,,,,,,,,,,,,,,
,do_trial,164,745346,0.0-92.0-0.0,"""event"",""trial"",""time""
""fullscreenenter"",""0"",""2717""
","
","
","""event"",""trial"",""time""
""fullscreenenter"",""0"",""2717""
","
",882.9,,,,,,,,51,"1,0,0",1,mountain,36,probe-131,0.721018415,0.354427109,0.054365361,0,,,,,,,,
,html-keyboard-response,165,746353,0.0-92.0-1.0,"""event"",""trial"",""time""
""fullscreenenter"",""0"",""2717""
","
","
","""event"",""trial"",""time""
""fullscreenenter"",""0"",""2717""
","
",null,<p></p>,null,,,,,,,,,,,,,,,,,,,,,,,
,do_trial,166,751223,0.0-93.0-0.0,"""event"",""trial"",""time""
""fullscreenenter"",""0"",""2717""
","
","
","""event"",""trial"",""time""
""fullscreenenter"",""0"",""2717""
","
",319.7,,,,,,,,50,"1,0,0",1,mountain,37,probe-157,0.63269451,0.328262158,0.070588307,0,,,,,,,,
,html-keyboard-response,167,752230,0.0-93.0-1.0,"""event"",""trial"",""time""
""fullscreenenter"",""0"",""2717""
","
","
","""event"",""trial"",""time""
""fullscreenenter"",""0"",""2717""
","
",null,<p></p>,null,,,,,,,,,,,,,,,,,,,,,,,
,do_trial,168,757180,0.0-94.0-0.0,"""event"",""trial"",""time""
""fullscreenenter"",""0"",""2717""
","
","
","""event"",""trial"",""time""
""fullscreenenter"",""0"",""2717""
","
",400.8,,,,,,,,50,"0,1,0",1,mountain,38,probe-11,0.729810398,0.418020206,0.143702636,1,,,,,,,,
,html-keyboard-response,169,758183,0.0-94.0-1.0,"""event"",""trial"",""time""
""fullscreenenter"",""0"",""2717""
","
","
","""event"",""trial"",""time""
""fullscreenenter"",""0"",""2717""
","
",null,<p></p>,null,,,,,,,,,,,,,,,,,,,,,,,
,do_trial,170,763292,0.0-95.0-0.0,"""event"",""trial"",""time""
""fullscreenenter"",""0"",""2717""
","
","
","""event"",""trial"",""time""
""fullscreenenter"",""0"",""2717""
","
",566,,,,,,,,50,"1,0,0",1,mountain,39,probe-21,0.703063929,0.361270813,0.073846895,0,,,,,,,,
,html-keyboard-response,171,764296,0.0-95.0-1.0,"""event"",""trial"",""time""
""fullscreenenter"",""0"",""2717""
","
","
","""event"",""trial"",""time""
""fullscreenenter"",""0"",""2717""
","
",null,<p></p>,null,,,,,,,,,,,,,,,,,,,,,,,
,do_trial,172,769148,0.0-96.0-0.0,"""event"",""trial"",""time""
""fullscreenenter"",""0"",""2717""
","
","
","""event"",""trial"",""time""
""fullscreenenter"",""0"",""2717""
","
",309.9,,,,,,,,49,"0,0,0",1,mountain,40,probe-225,0.703779402,0.416652419,0.108359298,0,,,,,,,,
,html-keyboard-response,173,770149,0.0-96.0-1.0,"""event"",""trial"",""time""
""fullscreenenter"",""0"",""2717""
","
","
","""event"",""trial"",""time""
""fullscreenenter"",""0"",""2717""
","
",null,<p></p>,null,,,,,,,,,,,,,,,,,,,,,,,
,do_trial,174,774909,0.0-97.0-0.0,"""event"",""trial"",""time""
""fullscreenenter"",""0"",""2717""
","
","
","""event"",""trial"",""time""
""fullscreenenter"",""0"",""2717""
","
",209.4,,,,,,,,51,"0,0,1",1,mountain,41,probe-98,0.619298,0.347115635,0.200256422,1,,,,,,,,
,html-keyboard-response,175,775916,0.0-97.0-1.0,"""event"",""trial"",""time""
""fullscreenenter"",""0"",""2717""
","
","
","""event"",""trial"",""time""
""fullscreenenter"",""0"",""2717""
","
",null,<p></p>,null,,,,,,,,,,,,,,,,,,,,,,,
,do_trial,176,781132,0.0-98.0-0.0,"""event"",""trial"",""time""
""fullscreenenter"",""0"",""2717""
","
","
","""event"",""trial"",""time""
""fullscreenenter"",""0"",""2717""
","
",667.8,,,,,,,,51,"0,0,0",1,mountain,42,probe-178,0.500659546,0.209756588,0.366391555,0,,,,,,,,
,html-keyboard-response,177,782138,0.0-98.0-1.0,"""event"",""trial"",""time""
""fullscreenenter"",""0"",""2717""
","
","
","""event"",""trial"",""time""
""fullscreenenter"",""0"",""2717""
","
",null,<p></p>,null,,,,,,,,,,,,,,,,,,,,,,,
,do_trial,178,787061,0.0-99.0-0.0,"""event"",""trial"",""time""
""fullscreenenter"",""0"",""2717""
","
","
","""event"",""trial"",""time""
""fullscreenenter"",""0"",""2717""
","
",376.4,,,,,,,,49,"1,0,0",1,mountain,43,probe-141,0.44657212,0.067798306,0.53490613,1,,,,,,,,
,html-keyboard-response,179,788065,0.0-99.0-1.0,"""event"",""trial"",""time""
""fullscreenenter"",""0"",""2717""
","
","
","""event"",""trial"",""time""
""fullscreenenter"",""0"",""2717""
","
",null,<p></p>,null,,,,,,,,,,,,,,,,,,,,,,,
,do_trial,180,793154,0.0-100.0-0.0,"""event"",""trial"",""time""
""fullscreenenter"",""0"",""2717""
","
","
","""event"",""trial"",""time""
""fullscreenenter"",""0"",""2717""
","
",540.3,,,,,,,,49,"1,0,1",1,mountain,44,probe-204,0.424833726,0.070641862,0.591560269,1,,,,,,,,
,html-keyboard-response,181,794161,0.0-100.0-1.0,"""event"",""trial"",""time""
""fullscreenenter"",""0"",""2717""
","
","
","""event"",""trial"",""time""
""fullscreenenter"",""0"",""2717""
","
",null,<p></p>,null,,,,,,,,,,,,,,,,,,,,,,,
,do_trial,182,799078,0.0-101.0-0.0,"""event"",""trial"",""time""
""fullscreenenter"",""0"",""2717""
","
","
","""event"",""trial"",""time""
""fullscreenenter"",""0"",""2717""
","
",366.5,,,,,,,,49,"0,0,1",1,mountain,45,probe-90,0.447648433,0.131330242,0.71829596,0,,,,,,,,
,html-keyboard-response,183,800081,0.0-101.0-1.0,"""event"",""trial"",""time""
""fullscreenenter"",""0"",""2717""
","
","
","""event"",""trial"",""time""
""fullscreenenter"",""0"",""2717""
","
",null,<p></p>,null,,,,,,,,,,,,,,,,,,,,,,,
,do_trial,184,804983,0.0-102.0-0.0,"""event"",""trial"",""time""
""fullscreenenter"",""0"",""2717""
","
","
","""event"",""trial"",""time""
""fullscreenenter"",""0"",""2717""
","
",359,,,,,,,,51,"1,0,1",1,mountain,46,probe-18,0.351162856,0.053114152,0.657997116,1,,,,,,,,
,html-keyboard-response,185,805990,0.0-102.0-1.0,"""event"",""trial"",""time""
""fullscreenenter"",""0"",""2717""
","
","
","""event"",""trial"",""time""
""fullscreenenter"",""0"",""2717""
","
",null,<p></p>,null,,,,,,,,,,,,,,,,,,,,,,,
,do_trial,186,811468,0.0-103.0-0.0,"""event"",""trial"",""time""
""fullscreenenter"",""0"",""2717""
","
","
","""event"",""trial"",""time""
""fullscreenenter"",""0"",""2717""
","
",930,,,,,,,,51,"1,0,1",1,mountain,47,probe-63,0.345623357,0.129024849,0.673193762,1,,,,,,,,
,html-keyboard-response,187,812474,0.0-103.0-1.0,"""event"",""trial"",""time""
""fullscreenenter"",""0"",""2717""
","
","
","""event"",""trial"",""time""
""fullscreenenter"",""0"",""2717""
","
",null,<p></p>,null,,,,,,,,,,,,,,,,,,,,,,,
,do_trial,188,817498,0.0-104.0-0.0,"""event"",""trial"",""time""
""fullscreenenter"",""0"",""2717""
","
","
","""event"",""trial"",""time""
""fullscreenenter"",""0"",""2717""
","
",475.5,,,,,,,,51,"1,0,1",1,mountain,48,probe-10,0.263193822,0.07364057,0.58020188,1,,,,,,,,
,html-keyboard-response,189,818504,0.0-104.0-1.0,"""event"",""trial"",""time""
""fullscreenenter"",""0"",""2717""
","
","
","""event"",""trial"",""time""
""fullscreenenter"",""0"",""2717""
","
",null,<p></p>,null,,,,,,,,,,,,,,,,,,,,,,,
,do_trial,190,823660,0.0-105.0-0.0,"""event"",""trial"",""time""
""fullscreenenter"",""0"",""2717""
","
","
","""event"",""trial"",""time""
""fullscreenenter"",""0"",""2717""
","
",608,,,,,,,,51,"0,0,0",1,mountain,49,probe-140,0.317873377,0.100553021,0.421366516,0,,,,,,,,
,html-keyboard-response,191,824665,0.0-105.0-1.0,"""event"",""trial"",""time""
""fullscreenenter"",""0"",""2717""
","
","
","""event"",""trial"",""time""
""fullscreenenter"",""0"",""2717""
","
",null,<p></p>,null,,,,,,,,,,,,,,,,,,,,,,,
,do_trial,192,829648,0.0-106.0-0.0,"""event"",""trial"",""time""
""fullscreenenter"",""0"",""2717""
","
","
","""event"",""trial"",""time""
""fullscreenenter"",""0"",""2717""
","
",434.5,,,,,,,,50,"0,0,1",1,mountain,50,probe-06,0.434121454,0.151926038,0.527130796,0,,,,,,,,
,html-keyboard-response,193,830650,0.0-106.0-1.0,"""event"",""trial"",""time""
""fullscreenenter"",""0"",""2717""
","
","
","""event"",""trial"",""time""
""fullscreenenter"",""0"",""2717""
","
",null,<p></p>,null,,,,,,,,,,,,,,,,,,,,,,,
,do_trial,194,835516,0.0-107.0-0.0,"""event"",""trial"",""time""
""fullscreenenter"",""0"",""2717""
","
","
","""event"",""trial"",""time""
""fullscreenenter"",""0"",""2717""
","
",322.2,,,,,,,,51,"0,0,1",1,mountain,51,probe-93,0.31959539,0.243969373,0.581413556,1,,,,,,,,
,html-keyboard-response,195,836523,0.0-107.0-1.0,"""event"",""trial"",""time""
""fullscreenenter"",""0"",""2717""
","
","
","""event"",""trial"",""time""
""fullscreenenter"",""0"",""2717""
","
",null,<p></p>,null,,,,,,,,,,,,,,,,,,,,,,,
,do_trial,196,841465,0.0-108.0-0.0,"""event"",""trial"",""time""
""fullscreenenter"",""0"",""2717""
","
","
","""event"",""trial"",""time""
""fullscreenenter"",""0"",""2717""
","
",390.9,,,,,,,,49,"1,0,1",1,mountain,52,probe-107,0.407984406,0.232484145,0.677066002,1,,,,,,,,
,html-keyboard-response,197,842471,0.0-108.0-1.0,"""event"",""trial"",""time""
""fullscreenenter"",""0"",""2717""
","
","
","""event"",""trial"",""time""
""fullscreenenter"",""0"",""2717""
","
",null,<p></p>,null,,,,,,,,,,,,,,,,,,,,,,,
,do_trial,198,847600,0.0-109.0-0.0,"""event"",""trial"",""time""
""fullscreenenter"",""0"",""2717""
","
","
","""event"",""trial"",""time""
""fullscreenenter"",""0"",""2717""
","
",582.4,,,,,,,,49,"0,0,1",1,mountain,53,probe-67,0.102835635,0.069023178,0.676163522,0,,,,,,,,
,html-keyboard-response,199,848607,0.0-109.0-1.0,"""event"",""trial"",""time""
""fullscreenenter"",""0"",""2717""
","
","
","""event"",""trial"",""time""
""fullscreenenter"",""0"",""2717""
","
",null,<p></p>,null,,,,,,,,,,,,,,,,,,,,,,,
,do_trial,200,853658,0.0-110.0-0.0,"""event"",""trial"",""time""
""fullscreenenter"",""0"",""2717""
","
","
","""event"",""trial"",""time""
""fullscreenenter"",""0"",""2717""
","
",502.8,,,,,,,,51,"0,0,1",1,mountain,54,probe-210,0.325276483,0.112564454,0.670488302,1,,,,,,,,
,html-keyboard-response,201,854665,0.0-110.0-1.0,"""event"",""trial"",""time""
""fullscreenenter"",""0"",""2717""
","
","
","""event"",""trial"",""time""
""fullscreenenter"",""0"",""2717""
","
",null,<p></p>,null,,,,,,,,,,,,,,,,,,,,,,,
,do_trial,202,859899,0.0-111.0-0.0,"""event"",""trial"",""time""
""fullscreenenter"",""0"",""2717""
","
","
","""event"",""trial"",""time""
""fullscreenenter"",""0"",""2717""
","
",685.2,,,,,,,,51,"0,1,1",1,mountain,55,probe-45,0.274604569,0.149568761,0.588908818,1,,,,,,,,
,html-keyboard-response,203,860906,0.0-111.0-1.0,"""event"",""trial"",""time""
""fullscreenenter"",""0"",""2717""
","
","
","""event"",""trial"",""time""
""fullscreenenter"",""0"",""2717""
","
",null,<p></p>,null,,,,,,,,,,,,,,,,,,,,,,,
,do_trial,204,865974,0.0-112.0-0.0,"""event"",""trial"",""time""
""fullscreenenter"",""0"",""2717""
","
","
","""event"",""trial"",""time""
""fullscreenenter"",""0"",""2717""
","
",520.2,,,,,,,,51,"0,0,0",1,mountain,56,probe-41,0.242356973,0.12888391,0.662920507,0,,,,,,,,
,html-keyboard-response,205,866977,0.0-112.0-1.0,"""event"",""trial"",""time""
""fullscreenenter"",""0"",""2717""
","
","
","""event"",""trial"",""time""
""fullscreenenter"",""0"",""2717""
","
",null,<p></p>,null,,,,,,,,,,,,,,,,,,,,,,,
,do_trial,206,871848,0.0-113.0-0.0,"""event"",""trial"",""time""
""fullscreenenter"",""0"",""2717""
","
","
","""event"",""trial"",""time""
""fullscreenenter"",""0"",""2717""
","
",320.3,,,,,,,,49,"0,0,0",1,mountain,57,probe-96,0.257054606,0.22710981,0.6637023,0,,,,,,,,
,html-keyboard-response,207,872855,0.0-113.0-1.0,"""event"",""trial"",""time""
""fullscreenenter"",""0"",""2717""
","
","
","""event"",""trial"",""time""
""fullscreenenter"",""0"",""2717""
","
",null,<p></p>,null,,,,,,,,,,,,,,,,,,,,,,,
,do_trial,208,877591,0.0-114.0-0.0,"""event"",""trial"",""time""
""fullscreenenter"",""0"",""2717""
","
","
","""event"",""trial"",""time""
""fullscreenenter"",""0"",""2717""
","
",188,,,,,,,,51,"0,1,1",1,mountain,58,probe-86,0.223261757,0.237899994,0.595344793,1,,,,,,,,
,html-keyboard-response,209,878594,0.0-114.0-1.0,"""event"",""trial"",""time""
""fullscreenenter"",""0"",""2717""
","
","
","""event"",""trial"",""time""
""fullscreenenter"",""0"",""2717""
","
",null,<p></p>,null,,,,,,,,,,,,,,,,,,,,,,,
,do_trial,210,883496,0.0-115.0-0.0,"""event"",""trial"",""time""
""fullscreenenter"",""0"",""2717""
","
","
","""event"",""trial"",""time""
""fullscreenenter"",""0"",""2717""
","
",356.7,,,,,,,,51,"0,0,0",1,mountain,59,probe-127,0.209357729,0.262277654,0.581904956,0,,,,,,,,
,html-keyboard-response,211,884497,0.0-115.0-1.0,"""event"",""trial"",""time""
""fullscreenenter"",""0"",""2717""
","
","
","""event"",""trial"",""time""
""fullscreenenter"",""0"",""2717""
","
",null,<p></p>,null,,,,,,,,,,,,,,,,,,,,,,,
,do_trial,212,889430,0.0-116.0-0.0,"""event"",""trial"",""time""
""fullscreenenter"",""0"",""2717""
","
","
","""event"",""trial"",""time""
""fullscreenenter"",""0"",""2717""
","
",394.7,,,,,,,,49,"1,1,0",1,mountain,60,probe-227,0.333891988,0.458966252,0.433300595,1,,,,,,,,
,html-keyboard-response,213,890432,0.0-116.0-1.0,"""event"",""trial"",""time""
""fullscreenenter"",""0"",""2717""
","
","
","""event"",""trial"",""time""
""fullscreenenter"",""0"",""2717""
","
",null,<p></p>,null,,,,,,,,,,,,,,,,,,,,,,,
,do_trial,214,895595,0.0-117.0-0.0,"""event"",""trial"",""time""
""fullscreenenter"",""0"",""2717""
","
","
","""event"",""trial"",""time""
""fullscreenenter"",""0"",""2717""
","
",610.8,,,,,,,,49,"1,1,1",1,mountain,61,probe-164,0.301833588,0.385645835,0.465542388,1,,,,,,,,
,html-keyboard-response,215,896596,0.0-117.0-1.0,"""event"",""trial"",""time""
""fullscreenenter"",""0"",""2717""
","
","
","""event"",""trial"",""time""
""fullscreenenter"",""0"",""2717""
","
",null,<p></p>,null,,,,,,,,,,,,,,,,,,,,,,,
,do_trial,216,901588,0.0-118.0-0.0,"""event"",""trial"",""time""
""fullscreenenter"",""0"",""2717""
","
","
","""event"",""trial"",""time""
""fullscreenenter"",""0"",""2717""
","
",454.1,,,,,,,,49,"0,0,1",1,mountain,62,probe-151,0.422964161,0.128615598,0.554916162,0,,,,,,,,
,html-keyboard-response,217,902595,0.0-118.0-1.0,"""event"",""trial"",""time""
""fullscreenenter"",""0"",""2717""
","
","
","""event"",""trial"",""time""
""fullscreenenter"",""0"",""2717""
","
",null,<p></p>,null,,,,,,,,,,,,,,,,,,,,,,,
,do_trial,218,907388,0.0-119.0-0.0,"""event"",""trial"",""time""
""fullscreenenter"",""0"",""2717""
","
","
","""event"",""trial"",""time""
""fullscreenenter"",""0"",""2717""
","
",247.5,,,,,,,,49,"0,0,1",1,mountain,63,probe-43,0.316828439,0.168840806,0.685083054,0,,,,,,,,
,html-keyboard-response,219,908390,0.0-119.0-1.0,"""event"",""trial"",""time""
""fullscreenenter"",""0"",""2717""
","
","
","""event"",""trial"",""time""
""fullscreenenter"",""0"",""2717""
","
",null,<p></p>,null,,,,,,,,,,,,,,,,,,,,,,,
,do_trial,220,913209,0.0-120.0-0.0,"""event"",""trial"",""time""
""fullscreenenter"",""0"",""2717""
","
","
","""event"",""trial"",""time""
""fullscreenenter"",""0"",""2717""
","
",268,,,,,,,,51,"1,0,1",1,mountain,64,probe-102,0.353380182,0.068427883,0.739108915,1,,,,,,,,
,html-keyboard-response,221,914216,0.0-120.0-1.0,"""event"",""trial"",""time""
""fullscreenenter"",""0"",""2717""
","
","
","""event"",""trial"",""time""
""fullscreenenter"",""0"",""2717""
","
",null,<p></p>,null,,,,,,,,,,,,,,,,,,,,,,,
,do_trial,222,919921,0.0-121.0-0.0,"""event"",""trial"",""time""
""fullscreenenter"",""0"",""2717""
","
","
","""event"",""trial"",""time""
""fullscreenenter"",""0"",""2717""
","
",1154.5,,,,,,,,51,"0,1,0",1,mountain,65,probe-56,0.401838374,0.148989565,0.798817042,0,,,,,,,,
,html-keyboard-response,223,920928,0.0-121.0-1.0,"""event"",""trial"",""time""
""fullscreenenter"",""0"",""2717""
","
","
","""event"",""trial"",""time""
""fullscreenenter"",""0"",""2717""
","
",null,<p></p>,null,,,,,,,,,,,,,,,,,,,,,,,
,do_trial,224,926344,0.0-122.0-0.0,"""event"",""trial"",""time""
""fullscreenenter"",""0"",""2717""
","
","
","""event"",""trial"",""time""
""fullscreenenter"",""0"",""2717""
","
",870.4,,,,,,,,51,"0,1,1",1,mountain,66,probe-194,0.324417609,0.165916501,0.85432192,1,,,,,,,,
,html-keyboard-response,225,927346,0.0-122.0-1.0,"""event"",""trial"",""time""
""fullscreenenter"",""0"",""2717""
","
","
","""event"",""trial"",""time""
""fullscreenenter"",""0"",""2717""
","
",null,<p></p>,null,,,,,,,,,,,,,,,,,,,,,,,
,do_trial,226,932204,0.0-123.0-0.0,"""event"",""trial"",""time""
""fullscreenenter"",""0"",""2717""
","
","
","""event"",""trial"",""time""
""fullscreenenter"",""0"",""2717""
","
",311.2,,,,,,,,50,"1,1,1",1,mountain,67,probe-175,0.35290109,0.180012229,0.776635647,1,,,,,,,,
,html-keyboard-response,227,933210,0.0-123.0-1.0,"""event"",""trial"",""time""
""fullscreenenter"",""0"",""2717""
","
","
","""event"",""trial"",""time""
""fullscreenenter"",""0"",""2717""
","
",null,<p></p>,null,,,,,,,,,,,,,,,,,,,,,,,
,do_trial,228,938240,0.0-124.0-0.0,"""event"",""trial"",""time""
""fullscreenenter"",""0"",""2717""
","
","
","""event"",""trial"",""time""
""fullscreenenter"",""0"",""2717""
","
",478.8,,,,,,,,51,"0,0,1",1,mountain,68,probe-146,0.310230929,0.059104184,0.826356874,1,,,,,,,,
,html-keyboard-response,229,939247,0.0-124.0-1.0,"""event"",""trial"",""time""
""fullscreenenter"",""0"",""2717""
","
","
","""event"",""trial"",""time""
""fullscreenenter"",""0"",""2717""
","
",null,<p></p>,null,,,,,,,,,,,,,,,,,,,,,,,
,do_trial,230,944511,0.0-125.0-0.0,"""event"",""trial"",""time""
""fullscreenenter"",""0"",""2717""
","
","
","""event"",""trial"",""time""
""fullscreenenter"",""0"",""2717""
","
",713.9,,,,,,,,51,"1,0,1",1,mountain,69,probe-189,0.332336076,0.12818636,0.719153835,1,,,,,,,,
,html-keyboard-response,231,945516,0.0-125.0-1.0,"""event"",""trial"",""time""
""fullscreenenter"",""0"",""2717""
","
","
","""event"",""trial"",""time""
""fullscreenenter"",""0"",""2717""
","
",null,<p></p>,null,,,,,,,,,,,,,,,,,,,,,,,
,do_bye,232,947022,0.0-126.0-0.0,"""event"",""trial"",""time""
""fullscreenenter"",""0"",""2717""
","
","
","""event"",""trial"",""time""
""fullscreenenter"",""0"",""2717""
","
",null,,,,,,,,null,,,,,,,,,,,,,,,,,
,break,233,948860,0.0-126.0-1.0,"""event"",""trial"",""time""
""fullscreenenter"",""0"",""2717""
","
","
","""event"",""trial"",""time""
""fullscreenenter"",""0"",""2717""
","
",1836.4,"<div class='center'><p>Time to take a quick break! You have 2 minutes to rest, but you can move on sooner if you'd like.</p><p> Press the <b>space bar</b> to continue.</p></div>",32,,,,,,,,,,,,,,,,,,,,,,,
,do_travel,234,957865,0.0-127.0-0.0,"""event"",""trial"",""time""
""fullscreenenter"",""0"",""2717""
","
","
","""event"",""trial"",""time""
""fullscreenenter"",""0"",""2717""
","
",null,,,,,,,,null,,,,,,,,,,,,,,,,,
,do_welcome,235,961870,0.0-127.0-1.0,"""event"",""trial"",""time""
""fullscreenenter"",""0"",""2717""
","
","
","""event"",""trial"",""time""
""fullscreenenter"",""0"",""2717""
","
",null,,,,,,,,null,,,,,,,,,,,,,,,,,
,do_trial,236,969192,0.0-128.0-0.0,"""event"",""trial"",""time""
""fullscreenenter"",""0"",""2717""
","
","
","""event"",""trial"",""time""
""fullscreenenter"",""0"",""2717""
","
",2770.8,,,,,,,,49,"0,0,1",2,highway,70,probe-203,0.222003289,0.231367885,1,0,,,,,,,,
,html-keyboard-response,237,970195,0.0-128.0-1.0,"""event"",""trial"",""time""
""fullscreenenter"",""0"",""2717""
","
","
","""event"",""trial"",""time""
""fullscreenenter"",""0"",""2717""
","
",null,<p></p>,null,,,,,,,,,,,,,,,,,,,,,,,
,do_trial,238,975157,0.0-129.0-0.0,"""event"",""trial"",""time""
""fullscreenenter"",""0"",""2717""
","
","
","""event"",""trial"",""time""
""fullscreenenter"",""0"",""2717""
","
",416.5,,,,,,,,51,"0,0,1",2,highway,71,probe-145,0.285529575,0.181881871,1,1,,,,,,,,
,html-keyboard-response,239,976162,0.0-129.0-1.0,"""event"",""trial"",""time""
""fullscreenenter"",""0"",""2717""
","
","
","""event"",""trial"",""time""
""fullscreenenter"",""0"",""2717""
","
",null,<p></p>,null,,,,,,,,,,,,,,,,,,,,,,,
,do_trial,240,981242,0.0-130.0-0.0,"""event"",""trial"",""time""
""fullscreenenter"",""0"",""2717""
","
","
","""event"",""trial"",""time""
""fullscreenenter"",""0"",""2717""
","
",534.4,,,,,,,,51,"0,0,1",2,highway,72,probe-228,0.296354744,0.255573197,0.856146295,1,,,,,,,,
,html-keyboard-response,241,982248,0.0-130.0-1.0,"""event"",""trial"",""time""
""fullscreenenter"",""0"",""2717""
","
","
","""event"",""trial"",""time""
""fullscreenenter"",""0"",""2717""
","
",null,<p></p>,null,,,,,,,,,,,,,,,,,,,,,,,
,do_trial,242,987177,0.0-131.0-0.0,"""event"",""trial"",""time""
""fullscreenenter"",""0"",""2717""
","
","
","""event"",""trial"",""time""
""fullscreenenter"",""0"",""2717""
","
",380.7,,,,,,,,51,"0,0,1",2,highway,73,probe-166,0.242188212,0.244110134,0.760661758,1,,,,,,,,
,html-keyboard-response,243,988183,0.0-131.0-1.0,"""event"",""trial"",""time""
""fullscreenenter"",""0"",""2717""
","
","
","""event"",""trial"",""time""
""fullscreenenter"",""0"",""2717""
","
",null,<p></p>,null,,,,,,,,,,,,,,,,,,,,,,,
,do_trial,244,993228,0.0-132.0-0.0,"""event"",""trial"",""time""
""fullscreenenter"",""0"",""2717""
","
","
","""event"",""trial"",""time""
""fullscreenenter"",""0"",""2717""
","
",494.4,,,,,,,,51,"0,0,1",2,highway,74,probe-101,0.216445829,0.165986472,0.571346716,1,,,,,,,,
,html-keyboard-response,245,994234,0.0-132.0-1.0,"""event"",""trial"",""time""
""fullscreenenter"",""0"",""2717""
","
","
","""event"",""trial"",""time""
""fullscreenenter"",""0"",""2717""
","
",null,<p></p>,null,,,,,,,,,,,,,,,,,,,,,,,
,do_trial,246,999125,0.0-133.0-0.0,"""event"",""trial"",""time""
""fullscreenenter"",""0"",""2717""
","
","
","""event"",""trial"",""time""
""fullscreenenter"",""0"",""2717""
","
",341.5,,,,,,,,51,"1,1,1",2,highway,75,probe-95,0.402860119,0.183839085,0.680610761,1,,,,,,,,
,html-keyboard-response,247,1000127,0.0-133.0-1.0,"""event"",""trial"",""time""
""fullscreenenter"",""0"",""2717""
","
","
","""event"",""trial"",""time""
""fullscreenenter"",""0"",""2717""
","
",null,<p></p>,null,,,,,,,,,,,,,,,,,,,,,,,
,do_trial,248,1005044,0.0-134.0-0.0,"""event"",""trial"",""time""
""fullscreenenter"",""0"",""2717""
","
","
","""event"",""trial"",""time""
""fullscreenenter"",""0"",""2717""
","
",380.7,,,,,,,,51,"0,0,1",2,highway,76,probe-81,0.340135238,0.209934951,0.650090265,1,,,,,,,,
,html-keyboard-response,249,1006051,0.0-134.0-1.0,"""event"",""trial"",""time""
""fullscreenenter"",""0"",""2717""
","
","
","""event"",""trial"",""time""
""fullscreenenter"",""0"",""2717""
","
",null,<p></p>,null,,,,,,,,,,,,,,,,,,,,,,,
,do_trial,250,1010924,0.0-135.0-0.0,"""event"",""trial"",""time""
""fullscreenenter"",""0"",""2717""
","
","
","""event"",""trial"",""time""
""fullscreenenter"",""0"",""2717""
","
",324.3,,,,,,,,51,"1,1,0",2,highway,77,probe-72,0.339500909,0.194951613,0.756517252,0,,,,,,,,
,html-keyboard-response,251,1011931,0.0-135.0-1.0,"""event"",""trial"",""time""
""fullscreenenter"",""0"",""2717""
","
","
","""event"",""trial"",""time""
""fullscreenenter"",""0"",""2717""
","
",null,<p></p>,null,,,,,,,,,,,,,,,,,,,,,,,
,do_trial,252,1017053,0.0-136.0-0.0,"""event"",""trial"",""time""
""fullscreenenter"",""0"",""2717""
","
","
","""event"",""trial"",""time""
""fullscreenenter"",""0"",""2717""
","
",570.7,,,,,,,,49,"1,1,1",2,highway,78,probe-114,0.268826519,0.175381833,0.736452722,1,,,,,,,,
,html-keyboard-response,253,1018059,0.0-136.0-1.0,"""event"",""trial"",""time""
""fullscreenenter"",""0"",""2717""
","
","
","""event"",""trial"",""time""
""fullscreenenter"",""0"",""2717""
","
",null,<p></p>,null,,,,,,,,,,,,,,,,,,,,,,,
,do_trial,254,1023058,0.0-137.0-0.0,"""event"",""trial"",""time""
""fullscreenenter"",""0"",""2717""
","
","
","""event"",""trial"",""time""
""fullscreenenter"",""0"",""2717""
","
",450.6,,,,,,,,50,"0,0,0",2,highway,79,probe-148,0.402000903,0.253384848,0.660238951,0,,,,,,,,
,html-keyboard-response,255,1024065,0.0-137.0-1.0,"""event"",""trial"",""time""
""fullscreenenter"",""0"",""2717""
","
","
","""event"",""trial"",""time""
""fullscreenenter"",""0"",""2717""
","
",null,<p></p>,null,,,,,,,,,,,,,,,,,,,,,,,
,do_trial,256,1029136,0.0-138.0-0.0,"""event"",""trial"",""time""
""fullscreenenter"",""0"",""2717""
","
","
","""event"",""trial"",""time""
""fullscreenenter"",""0"",""2717""
","
",526.3,,,,,,,,49,"0,0,1",2,highway,80,probe-174,0.496152444,0.300010711,0.676168896,0,,,,,,,,
,html-keyboard-response,257,1030143,0.0-138.0-1.0,"""event"",""trial"",""time""
""fullscreenenter"",""0"",""2717""
","
","
","""event"",""trial"",""time""
""fullscreenenter"",""0"",""2717""
","
",null,<p></p>,null,,,,,,,,,,,,,,,,,,,,,,,
,do_trial,258,1034909,0.0-139.0-0.0,"""event"",""trial"",""time""
""fullscreenenter"",""0"",""2717""
","
","
","""event"",""trial"",""time""
""fullscreenenter"",""0"",""2717""
","
",221.4,,,,,,,,51,"1,0,0",2,highway,81,probe-150,0.497318041,0.180747705,0.605598651,0,,,,,,,,
,html-keyboard-response,259,1035912,0.0-139.0-1.0,"""event"",""trial"",""time""
""fullscreenenter"",""0"",""2717""
","
","
","""event"",""trial"",""time""
""fullscreenenter"",""0"",""2717""
","
",null,<p></p>,null,,,,,,,,,,,,,,,,,,,,,,,
,do_trial,260,1040754,0.0-140.0-0.0,"""event"",""trial"",""time""
""fullscreenenter"",""0"",""2717""
","
","
","""event"",""trial"",""time""
""fullscreenenter"",""0"",""2717""
","
",292.2,,,,,,,,51,"1,1,0",2,highway,82,probe-193,0.397565088,0.392630205,0.544011035,0,,,,,,,,
,html-keyboard-response,261,1041758,0.0-140.0-1.0,"""event"",""trial"",""time""
""fullscreenenter"",""0"",""2717""
","
","
","""event"",""trial"",""time""
""fullscreenenter"",""0"",""2717""
","
",null,<p></p>,null,,,,,,,,,,,,,,,,,,,,,,,
,do_trial,262,1046714,0.0-141.0-0.0,"""event"",""trial"",""time""
""fullscreenenter"",""0"",""2717""
","
","
","""event"",""trial"",""time""
""fullscreenenter"",""0"",""2717""
","
",404.5,,,,,,,,49,"0,1,0",2,highway,83,probe-121,0.358881764,0.334913064,0.419173061,0,,,,,,,,
,html-keyboard-response,263,1047716,0.0-141.0-1.0,"""event"",""trial"",""time""
""fullscreenenter"",""0"",""2717""
","
","
","""event"",""trial"",""time""
""fullscreenenter"",""0"",""2717""
","
",null,<p></p>,null,,,,,,,,,,,,,,,,,,,,,,,
,do_trial,264,1052580,0.0-142.0-0.0,"""event"",""trial"",""time""
""fullscreenenter"",""0"",""2717""
","
","
","""event"",""trial"",""time""
""fullscreenenter"",""0"",""2717""
","
",313.8,,,,,,,,49,"0,1,1",2,highway,84,probe-54,0.391152464,0.393499415,0.366031632,0,,,,,,,,
,html-keyboard-response,265,1053585,0.0-142.0-1.0,"""event"",""trial"",""time""
""fullscreenenter"",""0"",""2717""
","
","
","""event"",""trial"",""time""
""fullscreenenter"",""0"",""2717""
","
",null,<p></p>,null,,,,,,,,,,,,,,,,,,,,,,,
,do_trial,266,1058753,0.0-143.0-0.0,"""event"",""trial"",""time""
""fullscreenenter"",""0"",""2717""
","
","
","""event"",""trial"",""time""
""fullscreenenter"",""0"",""2717""
","
",617.5,,,,,,,,51,"1,0,0",2,highway,85,probe-88,0.348103885,0.594700454,0.208284843,0,,,,,,,,
,html-keyboard-response,267,1059755,0.0-143.0-1.0,"""event"",""trial"",""time""
""fullscreenenter"",""0"",""2717""
","
","
","""event"",""trial"",""time""
""fullscreenenter"",""0"",""2717""
","
",null,<p></p>,null,,,,,,,,,,,,,,,,,,,,,,,
,do_trial,268,1064916,0.0-144.0-0.0,"""event"",""trial"",""time""
""fullscreenenter"",""0"",""2717""
","
","
","""event"",""trial"",""time""
""fullscreenenter"",""0"",""2717""
","
",611.9,,,,,,,,51,"1,1,0",2,highway,86,probe-104,0.391077598,0.634632389,0.150551071,0,,,,,,,,
,html-keyboard-response,269,1065921,0.0-144.0-1.0,"""event"",""trial"",""time""
""fullscreenenter"",""0"",""2717""
","
","
","""event"",""trial"",""time""
""fullscreenenter"",""0"",""2717""
","
",null,<p></p>,null,,,,,,,,,,,,,,,,,,,,,,,
,do_trial,270,1071229,0.0-145.0-0.0,"""event"",""trial"",""time""
""fullscreenenter"",""0"",""2717""
","
","
","""event"",""trial"",""time""
""fullscreenenter"",""0"",""2717""
","
",757.3,,,,,,,,50,"0,0,0",2,highway,87,probe-212,0.369911968,0.417988696,0.077703654,0,,,,,,,,
,html-keyboard-response,271,1072235,0.0-145.0-1.0,"""event"",""trial"",""time""
""fullscreenenter"",""0"",""2717""
","
","
","""event"",""trial"",""time""
""fullscreenenter"",""0"",""2717""
","
",null,<p></p>,null,,,,,,,,,,,,,,,,,,,,,,,
,do_trial,272,1077217,0.0-146.0-0.0,"""event"",""trial"",""time""
""fullscreenenter"",""0"",""2717""
","
","
","""event"",""trial"",""time""
""fullscreenenter"",""0"",""2717""
","
",436.2,,,,,,,,51,"0,1,0",2,highway,88,probe-02,0.46235259,0.407757063,0.051894477,0,,,,,,,,
,html-keyboard-response,273,1078219,0.0-146.0-1.0,"""event"",""trial"",""time""
""fullscreenenter"",""0"",""2717""
","
","
","""event"",""trial"",""time""
""fullscreenenter"",""0"",""2717""
","
",null,<p></p>,null,,,,,,,,,,,,,,,,,,,,,,,
,do_trial,274,1083118,0.0-147.0-0.0,"""event"",""trial"",""time""
""fullscreenenter"",""0"",""2717""
","
","
","""event"",""trial"",""time""
""fullscreenenter"",""0"",""2717""
","
",352.8,,,,,,,,51,"0,0,0",2,highway,89,probe-143,0.441353894,0.45444559,0.105536071,0,,,,,,,,
,html-keyboard-response,275,1084120,0.0-147.0-1.0,"""event"",""trial"",""time""
""fullscreenenter"",""0"",""2717""
","
","
","""event"",""trial"",""time""
""fullscreenenter"",""0"",""2717""
","
",null,<p></p>,null,,,,,,,,,,,,,,,,,,,,,,,
,do_trial,276,1089146,0.0-148.0-0.0,"""event"",""trial"",""time""
""fullscreenenter"",""0"",""2717""
","
","
","""event"",""trial"",""time""
""fullscreenenter"",""0"",""2717""
","
",483,,,,,,,,51,"1,1,0",2,highway,90,probe-108,0.382019297,0.464275673,0.184895423,0,,,,,,,,
,html-keyboard-response,277,1090148,0.0-148.0-1.0,"""event"",""trial"",""time""
""fullscreenenter"",""0"",""2717""
","
","
","""event"",""trial"",""time""
""fullscreenenter"",""0"",""2717""
","
",null,<p></p>,null,,,,,,,,,,,,,,,,,,,,,,,
,do_trial,278,1095350,0.0-149.0-0.0,"""event"",""trial"",""time""
""fullscreenenter"",""0"",""2717""
","
","
","""event"",""trial"",""time""
""fullscreenenter"",""0"",""2717""
","
",658.4,,,,,,,,51,"0,0,0",2,highway,91,probe-142,0.31572438,0.64930258,0.12622833,0,,,,,,,,
,html-keyboard-response,279,1096352,0.0-149.0-1.0,"""event"",""trial"",""time""
""fullscreenenter"",""0"",""2717""
","
","
","""event"",""trial"",""time""
""fullscreenenter"",""0"",""2717""
","
",null,<p></p>,null,,,,,,,,,,,,,,,,,,,,,,,
,do_trial,280,1101473,0.0-150.0-0.0,"""event"",""trial"",""time""
""fullscreenenter"",""0"",""2717""
","
","
","""event"",""trial"",""time""
""fullscreenenter"",""0"",""2717""
","
",575.7,,,,,,,,49,"1,1,0",2,highway,92,probe-230,0.315140619,0.798030622,0.065635036,1,,,,,,,,
,html-keyboard-response,281,1102477,0.0-150.0-1.0,"""event"",""trial"",""time""
""fullscreenenter"",""0"",""2717""
","
","
","""event"",""trial"",""time""
""fullscreenenter"",""0"",""2717""
","
",null,<p></p>,null,,,,,,,,,,,,,,,,,,,,,,,
,do_trial,282,1107718,0.0-151.0-0.0,"""event"",""trial"",""time""
""fullscreenenter"",""0"",""2717""
","
","
","""event"",""trial"",""time""
""fullscreenenter"",""0"",""2717""
","
",699.8,,,,,,,,49,"0,0,0",2,highway,93,probe-05,0.358829784,0.717126223,0.111279268,0,,,,,,,,
,html-keyboard-response,283,1108725,0.0-151.0-1.0,"""event"",""trial"",""time""
""fullscreenenter"",""0"",""2717""
","
","
","""event"",""trial"",""time""
""fullscreenenter"",""0"",""2717""
","
",null,<p></p>,null,,,,,,,,,,,,,,,,,,,,,,,
,do_trial,284,1113607,0.0-152.0-0.0,"""event"",""trial"",""time""
""fullscreenenter"",""0"",""2717""
","
","
","""event"",""trial"",""time""
""fullscreenenter"",""0"",""2717""
","
",332.5,,,,,,,,49,"1,1,0",2,highway,94,probe-123,0.332471797,0.844587925,0.050288322,1,,,,,,,,
,html-keyboard-response,285,1114614,0.0-152.0-1.0,"""event"",""trial"",""time""
""fullscreenenter"",""0"",""2717""
","
","
","""event"",""trial"",""time""
""fullscreenenter"",""0"",""2717""
","
",null,<p></p>,null,,,,,,,,,,,,,,,,,,,,,,,
,do_trial,286,1119626,0.0-153.0-0.0,"""event"",""trial"",""time""
""fullscreenenter"",""0"",""2717""
","
","
","""event"",""trial"",""time""
""fullscreenenter"",""0"",""2717""
","
",464.5,,,,,,,,49,"0,1,0",2,highway,95,probe-117,0.353997081,0.787303714,0.072312215,0,,,,,,,,
,html-keyboard-response,287,1120627,0.0-153.0-1.0,"""event"",""trial"",""time""
""fullscreenenter"",""0"",""2717""
","
","
","""event"",""trial"",""time""
""fullscreenenter"",""0"",""2717""
","
",null,<p></p>,null,,,,,,,,,,,,,,,,,,,,,,,
,do_trial,288,1125603,0.0-154.0-0.0,"""event"",""trial"",""time""
""fullscreenenter"",""0"",""2717""
","
","
","""event"",""trial"",""time""
""fullscreenenter"",""0"",""2717""
","
",425.4,,,,,,,,51,"1,0,0",2,highway,96,probe-222,0.33275056,0.619969241,0.165449212,0,,,,,,,,
,html-keyboard-response,289,1126609,0.0-154.0-1.0,"""event"",""trial"",""time""
""fullscreenenter"",""0"",""2717""
","
","
","""event"",""trial"",""time""
""fullscreenenter"",""0"",""2717""
","
",null,<p></p>,null,,,,,,,,,,,,,,,,,,,,,,,
,do_trial,290,1131827,0.0-155.0-0.0,"""event"",""trial"",""time""
""fullscreenenter"",""0"",""2717""
","
","
","""event"",""trial"",""time""
""fullscreenenter"",""0"",""2717""
","
",666.9,,,,,,,,51,"0,1,0",2,highway,97,probe-38,0.144951174,0.798258626,0.187330931,0,,,,,,,,
,html-keyboard-response,291,1132834,0.0-155.0-1.0,"""event"",""trial"",""time""
""fullscreenenter"",""0"",""2717""
","
","
","""event"",""trial"",""time""
""fullscreenenter"",""0"",""2717""
","
",null,<p></p>,null,,,,,,,,,,,,,,,,,,,,,,,
,do_trial,292,1137888,0.0-156.0-0.0,"""event"",""trial"",""time""
""fullscreenenter"",""0"",""2717""
","
","
","""event"",""trial"",""time""
""fullscreenenter"",""0"",""2717""
","
",503.5,,,,,,,,51,"0,1,0",2,highway,98,probe-153,0.124363801,0.856896116,0.13047312,0,,,,,,,,
,html-keyboard-response,293,1138895,0.0-156.0-1.0,"""event"",""trial"",""time""
""fullscreenenter"",""0"",""2717""
","
","
","""event"",""trial"",""time""
""fullscreenenter"",""0"",""2717""
","
",null,<p></p>,null,,,,,,,,,,,,,,,,,,,,,,,
,do_trial,294,1143746,0.0-157.0-0.0,"""event"",""trial"",""time""
""fullscreenenter"",""0"",""2717""
","
","
","""event"",""trial"",""time""
""fullscreenenter"",""0"",""2717""
","
",304.7,,,,,,,,49,"0,0,0",2,highway,99,probe-112,0.20584478,0.649740899,0.201828681,0,,,,,,,,
,html-keyboard-response,295,1144753,0.0-157.0-1.0,"""event"",""trial"",""time""
""fullscreenenter"",""0"",""2717""
","
","
","""event"",""trial"",""time""
""fullscreenenter"",""0"",""2717""
","
",null,<p></p>,null,,,,,,,,,,,,,,,,,,,,,,,
,do_trial,296,1149779,0.0-158.0-0.0,"""event"",""trial"",""time""
""fullscreenenter"",""0"",""2717""
","
","
","""event"",""trial"",""time""
""fullscreenenter"",""0"",""2717""
","
",475.5,,,,,,,,49,"0,1,0",2,highway,100,probe-68,0.272082794,0.59916025,0.155116581,0,,,,,,,,
,html-keyboard-response,297,1150782,0.0-158.0-1.0,"""event"",""trial"",""time""
""fullscreenenter"",""0"",""2717""
","
","
","""event"",""trial"",""time""
""fullscreenenter"",""0"",""2717""
","
",null,<p></p>,null,,,,,,,,,,,,,,,,,,,,,,,
,do_trial,298,1155758,0.0-159.0-0.0,"""event"",""trial"",""time""
""fullscreenenter"",""0"",""2717""
","
","
","""event"",""trial"",""time""
""fullscreenenter"",""0"",""2717""
","
",429.5,,,,,,,,51,"1,0,1",2,highway,101,probe-126,0.339107711,0.611912912,0.211754812,1,,,,,,,,
,html-keyboard-response,299,1156760,0.0-159.0-1.0,"""event"",""trial"",""time""
""fullscreenenter"",""0"",""2717""
","
","
","""event"",""trial"",""time""
""fullscreenenter"",""0"",""2717""
","
",null,<p></p>,null,,,,,,,,,,,,,,,,,,,,,,,
,do_trial,300,1161589,0.0-160.0-0.0,"""event"",""trial"",""time""
""fullscreenenter"",""0"",""2717""
","
","
","""event"",""trial"",""time""
""fullscreenenter"",""0"",""2717""
","
",285.3,,,,,,,,50,"0,0,0",2,highway,102,probe-147,0.465649027,0.594247289,0.188843986,0,,,,,,,,
,html-keyboard-response,301,1162594,0.0-160.0-1.0,"""event"",""trial"",""time""
""fullscreenenter"",""0"",""2717""
","
","
","""event"",""trial"",""time""
""fullscreenenter"",""0"",""2717""
","
",null,<p></p>,null,,,,,,,,,,,,,,,,,,,,,,,
,do_trial,302,1167422,0.0-161.0-0.0,"""event"",""trial"",""time""
""fullscreenenter"",""0"",""2717""
","
","
","""event"",""trial"",""time""
""fullscreenenter"",""0"",""2717""
","
",279.3,,,,,,,,51,"0,0,0",2,highway,103,probe-60,0.382471542,0.586951206,0.094960994,0,,,,,,,,
,html-keyboard-response,303,1168427,0.0-161.0-1.0,"""event"",""trial"",""time""
""fullscreenenter"",""0"",""2717""
","
","
","""event"",""trial"",""time""
""fullscreenenter"",""0"",""2717""
","
",null,<p></p>,null,,,,,,,,,,,,,,,,,,,,,,,
,do_trial,304,1173262,0.0-162.0-0.0,"""event"",""trial"",""time""
""fullscreenenter"",""0"",""2717""
","
","
","""event"",""trial"",""time""
""fullscreenenter"",""0"",""2717""
","
",289.7,,,,,,,,51,"0,0,1",2,highway,104,probe-176,0.406049071,0.413016658,0.11314839,1,,,,,,,,
,html-keyboard-response,305,1174268,0.0-162.0-1.0,"""event"",""trial"",""time""
""fullscreenenter"",""0"",""2717""
","
","
","""event"",""trial"",""time""
""fullscreenenter"",""0"",""2717""
","
",null,<p></p>,null,,,,,,,,,,,,,,,,,,,,,,,
,do_trial,306,1180487,0.0-163.0-0.0,"""event"",""trial"",""time""
""fullscreenenter"",""0"",""2717""
","
","
","""event"",""trial"",""time""
""fullscreenenter"",""0"",""2717""
","
",1667.9,,,,,,,,51,"1,0,0",2,highway,105,probe-94,0.282215873,0.388791458,0.25578605,0,,,,,,,,
,html-keyboard-response,307,1181492,0.0-163.0-1.0,"""event"",""trial"",""time""
""fullscreenenter"",""0"",""2717""
","
","
","""event"",""trial"",""time""
""fullscreenenter"",""0"",""2717""
","
",null,<p></p>,null,,,,,,,,,,,,,,,,,,,,,,,
,do_trial,308,1186505,0.0-164.0-0.0,"""event"",""trial"",""time""
""fullscreenenter"",""0"",""2717""
","
","
","""event"",""trial"",""time""
""fullscreenenter"",""0"",""2717""
","
",464.3,,,,,,,,51,"1,1,0",2,highway,106,probe-125,0.236315657,0.611474249,0.144684388,0,,,,,,,,
,html-keyboard-response,309,1187512,0.0-164.0-1.0,"""event"",""trial"",""time""
""fullscreenenter"",""0"",""2717""
","
","
","""event"",""trial"",""time""
""fullscreenenter"",""0"",""2717""
","
",null,<p></p>,null,,,,,,,,,,,,,,,,,,,,,,,
,do_trial,310,1192595,0.0-165.0-0.0,"""event"",""trial"",""time""
""fullscreenenter"",""0"",""2717""
","
","
","""event"",""trial"",""time""
""fullscreenenter"",""0"",""2717""
","
",532.6,,,,,,,,50,"1,1,1",2,highway,107,probe-13,0.289154088,0.633949672,0.310386398,1,,,,,,,,
,html-keyboard-response,311,1193602,0.0-165.0-1.0,"""event"",""trial"",""time""
""fullscreenenter"",""0"",""2717""
","
","
","""event"",""trial"",""time""
""fullscreenenter"",""0"",""2717""
","
",null,<p></p>,null,,,,,,,,,,,,,,,,,,,,,,,
,do_trial,312,1198698,0.0-166.0-0.0,"""event"",""trial"",""time""
""fullscreenenter"",""0"",""2717""
","
","
","""event"",""trial"",""time""
""fullscreenenter"",""0"",""2717""
","
",546,,,,,,,,50,"0,1,0",2,highway,108,probe-25,0.178689104,0.468414995,0.338324913,1,,,,,,,,
,html-keyboard-response,313,1199705,0.0-166.0-1.0,"""event"",""trial"",""time""
""fullscreenenter"",""0"",""2717""
","
","
","""event"",""trial"",""time""
""fullscreenenter"",""0"",""2717""
","
",null,<p></p>,null,,,,,,,,,,,,,,,,,,,,,,,
,do_trial,314,1204681,0.0-167.0-0.0,"""event"",""trial"",""time""
""fullscreenenter"",""0"",""2717""
","
","
","""event"",""trial"",""time""
""fullscreenenter"",""0"",""2717""
","
",431.3,,,,,,,,50,"0,0,0",2,highway,109,probe-71,0.252479684,0.417376903,0.234857793,0,,,,,,,,
,html-keyboard-response,315,1205687,0.0-167.0-1.0,"""event"",""trial"",""time""
""fullscreenenter"",""0"",""2717""
","
","
","""event"",""trial"",""time""
""fullscreenenter"",""0"",""2717""
","
",null,<p></p>,null,,,,,,,,,,,,,,,,,,,,,,,
,do_bye,316,1207198,0.0-168.0-0.0,"""event"",""trial"",""time""
""fullscreenenter"",""0"",""2717""
","
","
","""event"",""trial"",""time""
""fullscreenenter"",""0"",""2717""
","
",null,,,,,,,,null,,,,,,,,,,,,,,,,,
,break,317,1224250,0.0-168.0-1.0,"""event"",""trial"",""time""
""fullscreenenter"",""0"",""2717""
","
","
","""event"",""trial"",""time""
""fullscreenenter"",""0"",""2717""
","
",17050.2,"<div class='center'><p>Time to take a quick break! You have 2 minutes to rest, but you can move on sooner if you'd like.</p><p> Press the <b>space bar</b> to continue.</p></div>",32,,,,,,,,,,,,,,,,,,,,,,,
,do_travel,318,1233255,0.0-169.0-0.0,"""event"",""trial"",""time""
""fullscreenenter"",""0"",""2717""
","
","
","""event"",""trial"",""time""
""fullscreenenter"",""0"",""2717""
","
",null,,,,,,,,null,,,,,,,,,,,,,,,,,
,do_welcome,319,1237262,0.0-169.0-1.0,"""event"",""trial"",""time""
""fullscreenenter"",""0"",""2717""
","
","
","""event"",""trial"",""time""
""fullscreenenter"",""0"",""2717""
","
",null,,,,,,,,null,,,,,,,,,,,,,,,,,
,do_trial,320,1243621,0.0-170.0-0.0,"""event"",""trial"",""time""
""fullscreenenter"",""0"",""2717""
","
","
","""event"",""trial"",""time""
""fullscreenenter"",""0"",""2717""
","
",1811.1,,,,,,,,51,"0,1,0",3,coast,110,probe-221,0.246273565,1,0.246877019,0,,,,,,,,
,html-keyboard-response,321,1244623,0.0-170.0-1.0,"""event"",""trial"",""time""
""fullscreenenter"",""0"",""2717""
","
","
","""event"",""trial"",""time""
""fullscreenenter"",""0"",""2717""
","
",null,<p></p>,null,,,,,,,,,,,,,,,,,,,,,,,
,do_trial,322,1249653,0.0-171.0-0.0,"""event"",""trial"",""time""
""fullscreenenter"",""0"",""2717""
","
","
","""event"",""trial"",""time""
""fullscreenenter"",""0"",""2717""
","
",483.9,,,,,,,,50,"0,1,0",3,coast,111,probe-55,0.193358237,1,0.051196363,1,,,,,,,,
,html-keyboard-response,323,1250660,0.0-171.0-1.0,"""event"",""trial"",""time""
""fullscreenenter"",""0"",""2717""
","
","
","""event"",""trial"",""time""
""fullscreenenter"",""0"",""2717""
","
",null,<p></p>,null,,,,,,,,,,,,,,,,,,,,,,,
,do_trial,324,1255674,0.0-172.0-0.0,"""event"",""trial"",""time""
""fullscreenenter"",""0"",""2717""
","
","
","""event"",""trial"",""time""
""fullscreenenter"",""0"",""2717""
","
",467.7,,,,,,,,49,"0,1,0",3,coast,112,probe-162,0.137284785,0.923874019,0.056092122,0,,,,,,,,
,html-keyboard-response,325,1256677,0.0-172.0-1.0,"""event"",""trial"",""time""
""fullscreenenter"",""0"",""2717""
","
","
","""event"",""trial"",""time""
""fullscreenenter"",""0"",""2717""
","
",null,<p></p>,null,,,,,,,,,,,,,,,,,,,,,,,
,do_trial,326,1262317,0.0-173.0-0.0,"""event"",""trial"",""time""
""fullscreenenter"",""0"",""2717""
","
","
","""event"",""trial"",""time""
""fullscreenenter"",""0"",""2717""
","
",1090,,,,,,,,50,"1,1,1",3,coast,113,probe-03,0.160068619,0.931486462,0.13548198,1,,,,,,,,
,html-keyboard-response,327,1263322,0.0-173.0-1.0,"""event"",""trial"",""time""
""fullscreenenter"",""0"",""2717""
","
","
","""event"",""trial"",""time""
""fullscreenenter"",""0"",""2717""
","
",null,<p></p>,null,,,,,,,,,,,,,,,,,,,,,,,
,do_trial,328,1268405,0.0-174.0-0.0,"""event"",""trial"",""time""
""fullscreenenter"",""0"",""2717""
","
","
","""event"",""trial"",""time""
""fullscreenenter"",""0"",""2717""
","
",534.9,,,,,,,,50,"1,1,0",3,coast,114,probe-177,0.232014172,0.934114581,0.112309773,1,,,,,,,,
,html-keyboard-response,329,1269411,0.0-174.0-1.0,"""event"",""trial"",""time""
""fullscreenenter"",""0"",""2717""
","
","
","""event"",""trial"",""time""
""fullscreenenter"",""0"",""2717""
","
",null,<p></p>,null,,,,,,,,,,,,,,,,,,,,,,,
,do_trial,330,1274407,0.0-175.0-0.0,"""event"",""trial"",""time""
""fullscreenenter"",""0"",""2717""
","
","
","""event"",""trial"",""time""
""fullscreenenter"",""0"",""2717""
","
",445.5,,,,,,,,50,"0,0,0",3,coast,115,probe-66,0.248106545,0.769777509,0.141157117,0,,,,,,,,
,html-keyboard-response,331,1275414,0.0-175.0-1.0,"""event"",""trial"",""time""
""fullscreenenter"",""0"",""2717""
","
","
","""event"",""trial"",""time""
""fullscreenenter"",""0"",""2717""
","
",null,<p></p>,null,,,,,,,,,,,,,,,,,,,,,,,
,do_trial,332,1280443,0.0-176.0-0.0,"""event"",""trial"",""time""
""fullscreenenter"",""0"",""2717""
","
","
","""event"",""trial"",""time""
""fullscreenenter"",""0"",""2717""
","
",481.2,,,,,,,,50,"0,0,0",3,coast,116,probe-213,0.330964023,0.678811787,0.067014617,0,,,,,,,,
,html-keyboard-response,333,1281448,0.0-176.0-1.0,"""event"",""trial"",""time""
""fullscreenenter"",""0"",""2717""
","
","
","""event"",""trial"",""time""
""fullscreenenter"",""0"",""2717""
","
",null,<p></p>,null,,,,,,,,,,,,,,,,,,,,,,,
,do_trial,334,1286261,0.0-177.0-0.0,"""event"",""trial"",""time""
""fullscreenenter"",""0"",""2717""
","
","
