"success","trial_type","trial_index","time_elapsed","internal_node_id","interactions","blur_events","focus_events","fullscreenenter_events","fullscreenexit_events","rt","stimulus","key_press","subject_id","participant_id","age","gender","prompt","response","choice_outcomes","context_n","context_img_id","trial_n","probe_img_id","pR_red","pR_white","pR_black","outcome","contextArray_ind","validImageProbes","invalidImageProbes","pRew_Red","pRew_White","pRew_Black","availableForMemProbe","choice_blocks"
"true","fullscreen","0","2817","0.0-0.0","""event"",""trial"",""time""
""fullscreenenter"",""0"",""1834""
","
","
","""event"",""trial"",""time""
""fullscreenenter"",""0"",""1834""
","
","","","","","","","","","","","","","","","","","","","","","","","","","",""
"","pavlovia","1","2819","0.0-1.0","""event"",""trial"",""time""
""fullscreenenter"",""0"",""1834""
","
","
","""event"",""trial"",""time""
""fullscreenenter"",""0"",""1834""
","
","","","","","","","","","","","","","","","","","","","","","","","","","",""
"","instruc1","2","53070","0.0-2.0","""event"",""trial"",""time""
""fullscreenenter"",""0"",""1834""
","
","
","""event"",""trial"",""time""
""fullscreenenter"",""0"",""1834""
","
","null","run_exp/static/audio/clip_1_welcome.m4a","null","921","1152","18","Female","<div class='center'><p>Welcome! This is the first part of the study. It will last ~30 minutes. In part 1 and part 2 of the study, you are the head captain of a pirate ship traveling around the world to different islands. You will play a few different games throughout these two parts. Here is an overview of them:</p><br><p>Part 1 (today)</p><p>1. Instructions, practice game, and quiz</p><p>2. Pick a pirate game on 6 different islands</p><br><p>Part 2 (tomorrow)</p><p>3. Pick a pirate game and memory game</p><p>4. Where did you see this ship? </p></div>","","","","","","","","","","","","","","","","","",""
"","html-keyboard-response","3","54939","0.0-3.0","""event"",""trial"",""time""
""fullscreenenter"",""0"",""1834""
","
","
","""event"",""trial"",""time""
""fullscreenenter"",""0"",""1834""
","
","1866.5","<div class='center'><p>Welcome! This is the first part of the study. It will last ~30 minutes. In part 1 and part 2 of the study, you are the head captain of a pirate ship traveling around the world to different islands. You will play a few different games throughout these two parts. Here is an overview of them:</p><br><p>Part 1 (today)</p><p>1. Instructions, practice game, and quiz</p><p>2. Pick a pirate game on 6 different islands</p><br><p>Part 2 (tomorrow)</p><p>3. Pick a pirate game and memory game</p><p>4. Where did you see this ship? </p><p><b>[Press the space bar to continue]</b></p></div>","32","","","","","","","","","","","","","","","","","","","","","","",""
"","instruc2","4","60401","0.0-4.0","""event"",""trial"",""time""
""fullscreenenter"",""0"",""1834""
","
","
","""event"",""trial"",""time""
""fullscreenenter"",""0"",""1834""
","
","null","run_exp/static/audio/clip_2_different_places.m4a","null","","","","","<div class='center'><p>Today, you’ll visit these 6 islands on your journey. You'll be able to see these islands from your ship.</p><p><img src='run_exp/static/images/contexts/all_contexts.png' height='500'></p></div>","","","","","","","","","","","","","","","","","",""
"","html-keyboard-response","5","62177","0.0-5.0","""event"",""trial"",""time""
""fullscreenenter"",""0"",""1834""
","
","
","""event"",""trial"",""time""
""fullscreenenter"",""0"",""1834""
","
","1774.5","<div class='center'><p>Today, you’ll visit these 6 islands on your journey. You'll be able to see these islands from your ship.</p><p><img src='run_exp/static/images/contexts/all_contexts.png' height='500'></p><p><b>[Press the space bar to continue]</b></p></div>","32","","","","","","","","","","","","","","","","","","","","","","",""
"","instruc3","6","72037","0.0-6.0","""event"",""trial"",""time""
""fullscreenenter"",""0"",""1834""
","
","
","""event"",""trial"",""time""
""fullscreenenter"",""0"",""1834""
","
","null","run_exp/static/audio/clip_3_goal_of_game_1.m4a","null","","","","","<div class='center'><p> The pirates on your ship will rob other ships as they leave the island.</p> These ships have just sold their goods to the islanders, so they will be filled with lots and lots of gold.</p><p><img src='run_exp/static/images/tutorial/ship_center.png' height='400'></p></div>","","","","","","","","","","","","","","","","","",""
"","html-keyboard-response","7","72865","0.0-7.0","""event"",""trial"",""time""
""fullscreenenter"",""0"",""1834""
","
","
","""event"",""trial"",""time""
""fullscreenenter"",""0"",""1834""
","
","826.3999999985099","<div class='center'><p> The pirates on your ship will rob other ships as they leave the island.</p> These ships have just sold their goods to the islanders, so they will be filled with lots and lots of gold.</p><p><img src='run_exp/static/images/tutorial/ship_center.png' height='400'></p><p><b>[Press the space bar to continue]</b></p></div>","32","","","","","","","","","","","","","","","","","","","","","","",""
"","instruc4","8","101012","0.0-8.0","""event"",""trial"",""time""
""fullscreenenter"",""0"",""1834""
","
","
","""event"",""trial"",""time""
""fullscreenenter"",""0"",""1834""
","
","null","run_exp/static/audio/clip_4_goal_of_game_2.m4a","null","","","","","<div class='center'><p>As the head captain, you do not have to rob any ships yourself. Another pirate will be doing the robbing for you. First, you will choose a pirate to rob the next ship.</p><p><img src='run_exp/static/images/tutorial/pirates_all_crop.png' height='200'></p><p>Then, you'll see if the pirate successfully robbed the ship of their gold. If they were successful, then you'll get a stack of gold coins like this:</p><p><img src='run_exp/static/images/tutorial/reward.png' height='150'></p><p> If they were <b>not</b> successful, then you'll get no gold coins, and you'll see a big red x like this: </p><p><img src='run_exp/static/images/tutorial/reward_no.png' height='150'></p><p> How much bonus money you make is based on how many gold coins you collect.</p><div>","","","","","","","","","","","","","","","","","",""
"","html-keyboard-response","9","102139","0.0-9.0","""event"",""trial"",""time""
""fullscreenenter"",""0"",""1834""
","
","
","""event"",""trial"",""time""
""fullscreenenter"",""0"",""1834""
","
","1124.8999999985099","<div class='center'><p>As the head captain, you do not have to rob any ships yourself. Another pirate will be doing the robbing for you. First, you will choose a pirate to rob the next ship.</p><p><img src='run_exp/static/images/tutorial/pirates_all_crop.png' height='200'></p><p>Then, you'll see if the pirate successfully robbed the ship of their gold. If they were successful, then you'll get a stack of gold coins like this:</p><p><img src='run_exp/static/images/tutorial/reward.png' height='150'></p><p> If they were <b>not</b> successful, then you'll get no gold coins, and you'll see a big red x like this: </p><p><img src='run_exp/static/images/tutorial/reward_no.png' height='150'></p><p> How much bonus money you make is based on how many gold coins you collect.</p<p><b>[Press the space bar to continue]</b></p></div>","32","","","","","","","","","","","","","","","","","","","","","","",""
"","instruc5","10","110384","0.0-10.0","""event"",""trial"",""time""
""fullscreenenter"",""0"",""1834""
","
","
","""event"",""trial"",""time""
""fullscreenenter"",""0"",""1834""
","
","8242.599999997765","run_exp/static/audio/clip_5_probabilistic.m4a","49","","","","","<div class='center'><p>Even the most skilled pirate can not rob EVERY ship.</p><p> Some ships will have very strong protections against pirate attacks.</p><p> Blue beard, here, is very, very good at robbing ships, but he won't be successful every time he tries to rob one.</p><p> You can press the <b>‘1’</b> key on the keyboard to choose him.</p><p> Try choosing him 10 times to see how often he succeeds at robbing a ship. </p><p><img src='run_exp/static/images/tutorial/blue.png' height='500'></p></div>","","","","","","","","","","","","","","","","","",""
"","html-keyboard-response","11","111887","0.0-11.0","""event"",""trial"",""time""
""fullscreenenter"",""0"",""1834""
","
","
","""event"",""trial"",""time""
""fullscreenenter"",""0"",""1834""
","
","null","<div class='center'><p><img src='run_exp/static/images/tutorial/blue_win.png' height='500'></p></div>","null","","","","","","","","","","","","","","","","","","","","","","",""
"","html-keyboard-response","12","112430","0.0-12.0","""event"",""trial"",""time""
""fullscreenenter"",""0"",""1834""
","
","
","""event"",""trial"",""time""
""fullscreenenter"",""0"",""1834""
","
","541.6000000014901","<div class='center'><img src='run_exp/static/images/tutorial/blue.png' height='500'></p></div>","49","","","","","","","","","","","","","","","","","","","","","","",""
"","html-keyboard-response","13","113938","0.0-13.0","""event"",""trial"",""time""
""fullscreenenter"",""0"",""1834""
","
","
","""event"",""trial"",""time""
""fullscreenenter"",""0"",""1834""
","
","null","<div class='center'><p><img src='run_exp/static/images/tutorial/blue_win.png' height='500'></p></div>","null","","","","","","","","","","","","","","","","","","","","","","",""
"","html-keyboard-response","14","114211","0.0-14.0","""event"",""trial"",""time""
""fullscreenenter"",""0"",""1834""
","
","
","""event"",""trial"",""time""
""fullscreenenter"",""0"",""1834""
","
","271.5999999977648","<div class='center'><img src='run_exp/static/images/tutorial/blue.png' height='500'></p></div>","49","","","","","","","","","","","","","","","","","","","","","","",""
"","html-keyboard-response","15","115721","0.0-15.0","""event"",""trial"",""time""
""fullscreenenter"",""0"",""1834""
","
","
","""event"",""trial"",""time""
""fullscreenenter"",""0"",""1834""
","
","null","<div class='center'><p><img src='run_exp/static/images/tutorial/blue_win.png' height='500'></p></div>","null","","","","","","","","","","","","","","","","","","","","","","",""
"","html-keyboard-response","16","115923","0.0-16.0","""event"",""trial"",""time""
""fullscreenenter"",""0"",""1834""
","
","
","""event"",""trial"",""time""
""fullscreenenter"",""0"",""1834""
","
","200.89999999850988","<div class='center'><img src='run_exp/static/images/tutorial/blue.png' height='500'></p></div>","49","","","","","","","","","","","","","","","","","","","","","","",""
"","html-keyboard-response","17","117435","0.0-17.0","""event"",""trial"",""time""
""fullscreenenter"",""0"",""1834""
","
","
","""event"",""trial"",""time""
""fullscreenenter"",""0"",""1834""
","
","null","<div class='center'><p><img src='run_exp/static/images/tutorial/blue_no_win.png' height='500'></p></div>","null","","","","","","","","","","","","","","","","","","","","","","",""
"","html-keyboard-response","18","117671","0.0-18.0","""event"",""trial"",""time""
""fullscreenenter"",""0"",""1834""
","
","
","""event"",""trial"",""time""
""fullscreenenter"",""0"",""1834""
","
","234.30000000074506","<div class='center'><img src='run_exp/static/images/tutorial/blue.png' height='500'></p></div>","49","","","","","","","","","","","","","","","","","","","","","","",""
"","html-keyboard-response","19","119177","0.0-19.0","""event"",""trial"",""time""
""fullscreenenter"",""0"",""1834""
","
","
","""event"",""trial"",""time""
""fullscreenenter"",""0"",""1834""
","
","null","<div class='center'><p><img src='run_exp/static/images/tutorial/blue_win.png' height='500'></p></div>","null","","","","","","","","","","","","","","","","","","","","","","",""
"","html-keyboard-response","20","119421","0.0-20.0","""event"",""trial"",""time""
""fullscreenenter"",""0"",""1834""
","
","
","""event"",""trial"",""time""
""fullscreenenter"",""0"",""1834""
","
","242","<div class='center'><img src='run_exp/static/images/tutorial/blue.png' height='500'></p></div>","49","","","","","","","","","","","","","","","","","","","","","","",""
"","html-keyboard-response","21","120933","0.0-21.0","""event"",""trial"",""time""
""fullscreenenter"",""0"",""1834""
","
","
","""event"",""trial"",""time""
""fullscreenenter"",""0"",""1834""
","
","null","<div class='center'><p><img src='run_exp/static/images/tutorial/blue_win.png' height='500'></p></div>","null","","","","","","","","","","","","","","","","","","","","","","",""
"","html-keyboard-response","22","121209","0.0-22.0","""event"",""trial"",""time""
""fullscreenenter"",""0"",""1834""
","
","
","""event"",""trial"",""time""
""fullscreenenter"",""0"",""1834""
","
","275.3999999985099","<div class='center'><img src='run_exp/static/images/tutorial/blue.png' height='500'></p></div>","49","","","","","","","","","","","","","","","","","","","","","","",""
"","html-keyboard-response","23","122715","0.0-23.0","""event"",""trial"",""time""
""fullscreenenter"",""0"",""1834""
","
","
","""event"",""trial"",""time""
""fullscreenenter"",""0"",""1834""
","
","null","<div class='center'><p><img src='run_exp/static/images/tutorial/blue_win.png' height='500'></p></div>","null","","","","","","","","","","","","","","","","","","","","","","",""
"","html-keyboard-response","24","122965","0.0-24.0","""event"",""trial"",""time""
""fullscreenenter"",""0"",""1834""
","
","
","""event"",""trial"",""time""
""fullscreenenter"",""0"",""1834""
","
","249","<div class='center'><img src='run_exp/static/images/tutorial/blue.png' height='500'></p></div>","49","","","","","","","","","","","","","","","","","","","","","","",""
"","html-keyboard-response","25","124477","0.0-25.0","""event"",""trial"",""time""
""fullscreenenter"",""0"",""1834""
","
","
","""event"",""trial"",""time""
""fullscreenenter"",""0"",""1834""
","
","null","<div class='center'><p><img src='run_exp/static/images/tutorial/blue_no_win.png' height='500'></p></div>","null","","","","","","","","","","","","","","","","","","","","","","",""
"","html-keyboard-response","26","124698","0.0-26.0","""event"",""trial"",""time""
""fullscreenenter"",""0"",""1834""
","
","
","""event"",""trial"",""time""
""fullscreenenter"",""0"",""1834""
","
","219","<div class='center'><img src='run_exp/static/images/tutorial/blue.png' height='500'></p></div>","49","","","","","","","","","","","","","","","","","","","","","","",""
"","html-keyboard-response","27","126203","0.0-27.0","""event"",""trial"",""time""
""fullscreenenter"",""0"",""1834""
","
","
","""event"",""trial"",""time""
""fullscreenenter"",""0"",""1834""
","
","null","<div class='center'><p><img src='run_exp/static/images/tutorial/blue_win.png' height='500'></p></div>","null","","","","","","","","","","","","","","","","","","","","","","",""
"","html-keyboard-response","28","126414","0.0-28.0","""event"",""trial"",""time""
""fullscreenenter"",""0"",""1834""
","
","
","""event"",""trial"",""time""
""fullscreenenter"",""0"",""1834""
","
","209.70000000298023","<div class='center'><img src='run_exp/static/images/tutorial/blue.png' height='500'></p></div>","49","","","","","","","","","","","","","","","","","","","","","","",""
"","html-keyboard-response","29","127920","0.0-29.0","""event"",""trial"",""time""
""fullscreenenter"",""0"",""1834""
","
","
","""event"",""trial"",""time""
""fullscreenenter"",""0"",""1834""
","
","null","<div class='center'><p><img src='run_exp/static/images/tutorial/blue_win.png' height='500'></p></div>","null","","","","","","","","","","","","","","","","","","","","","","",""
"","instruc6","30","138494","0.0-30.0","""event"",""trial"",""time""
""fullscreenenter"",""0"",""1834""
","
","
","""event"",""trial"",""time""
""fullscreenenter"",""0"",""1834""
","
","null","run_exp/static/audio/clip_6_blue_beard_outcome.m4a","null","","","","","<div class='center'><p> See, he succeeded in robbing the ships most of the time but not every time. </p></div>","","","","","","","","","","","","","","","","","",""
"","html-keyboard-response","31","146624","0.0-31.0","""event"",""trial"",""time""
""fullscreenenter"",""0"",""1834""
","
","
","""event"",""trial"",""time""
""fullscreenenter"",""0"",""1834""
","
","8128.300000000745","<div class='center'><p> See, he succeeded in robbing the ships most of the time but not every time. </p><p><b>[Press the space bar to continue]</b></p></div>","32","","","","","","","","","","","","","","","","","","","","","","",""
"","audio-keyboard-response","32","151376","0.0-32.0","""event"",""trial"",""time""
""fullscreenenter"",""0"",""1834""
","
","
","""event"",""trial"",""time""
""fullscreenenter"",""0"",""1834""
","
","4749.699999999255","run_exp/static/audio/clip_7_pick_pirate.m4a","50","","","","","","","","","","","","","","","","","","","","","","",""
"","audio-keyboard-response","33","153561","0.0-33.0-0.0","""event"",""trial"",""time""
""fullscreenenter"",""0"",""1834""
","
","
","""event"",""trial"",""time""
""fullscreenenter"",""0"",""1834""
","
","2182.60000000149","run_exp/static/audio/clip_8_chosen_pirate_win.m4a","32","","","","","","","","","","","","","","","","","","","","","","",""
"","audio-keyboard-response","34","155573","0.0-33.0-1.0","""event"",""trial"",""time""
""fullscreenenter"",""0"",""1834""
","
","
","""event"",""trial"",""time""
""fullscreenenter"",""0"",""1834""
","
","2010.800000000745","run_exp/static/audio/clip_9_pick_a_pirate_again.m4a","51","","","","","","","","","","","","","","","","","","","","","","",""
"","audio-keyboard-response","35","156742","0.0-34.0-0.0","""event"",""trial"",""time""
""fullscreenenter"",""0"",""1834""
","
","
","""event"",""trial"",""time""
""fullscreenenter"",""0"",""1834""
","
","1167.5","run_exp/static/audio/clip_10_chosen_pirate_loss.m4a","32","","","","","","","","","","","","","","","","","","","","","","",""
"","instruc9","36","162392","0.0-35.0-0.0","""event"",""trial"",""time""
""fullscreenenter"",""0"",""1834""
","
","
","""event"",""trial"",""time""
""fullscreenenter"",""0"",""1834""
","
","null","run_exp/static/audio/clip_11_time_out.m4a","null","","","","","<div class='center'><p>If you don’t make your choice fast enough, you’ll have to wait a few seconds before you can make another one. </p><p><img src='run_exp/static/images/miscellaneous/hurry_up.png' height='500'></p></div>","","","","","","","","","","","","","","","","","",""
"","html-keyboard-response","37","163781","0.0-35.0-1.0","""event"",""trial"",""time""
""fullscreenenter"",""0"",""1834""
","
","
","""event"",""trial"",""time""
""fullscreenenter"",""0"",""1834""
","
","1387.5999999977648","<div class='center'><p>If you don’t make your choice fast enough, you’ll have to wait a few seconds before you can make another one. </p><p><img src='run_exp/static/images/miscellaneous/hurry_up.png' height='500'></p><p><b>[Press the space bar to continue]</b></p></div>","32","","","","","","","","","","","","","","","","","","","","","","",""
"","instruc10","38","203046","0.0-35.0-2.0","""event"",""trial"",""time""
""fullscreenenter"",""0"",""1834""
","
","
","""event"",""trial"",""time""
""fullscreenenter"",""0"",""1834""
","
","null","run_exp/static/audio/clip_12_probe.m4a","null","","","","","<div class='center'><p>Once you've chosen a pirate, you’ll be shown the ship they are robbing. You will never rob the same ship twice. Ships can be told apart from one another by the image on them. These are the goods that they sell. See, this ship has a travel mug on it. </p><p> You’ll have to remember which island you saw each ship on. You will win more gold coins and hence more bonus money if you remember correctly! To help you remember, you can imagine a story. For example, here, you could imagine a mug full of water in the desert. Or, as another example, if on the forest island, your pirate robbed a ship with an apple on it, you could imagine an apple falling from a tree in the forest. </p><p><img src='run_exp/static/images/tutorial/example_probe.png' height='500'></p></div>","","","","","","","","","","","","","","","","","",""
"","html-keyboard-response","39","204229","0.0-35.0-3.0","""event"",""trial"",""time""
""fullscreenenter"",""0"",""1834""
","
","
","""event"",""trial"",""time""
""fullscreenenter"",""0"",""1834""
","
","1180.7999999970198","<div class='center'><p>Once you've chosen a pirate, you’ll be shown the ship they are robbing. You will never rob the same ship twice. Ships can be told apart from one another by the image on them. These are the goods that they sell. See, this ship has a travel mug on it. </p><p> You’ll have to remember which island you saw each ship on. You will win more gold coins and hence more bonus money if you remember correctly! To help you remember, you can imagine a story. For example, here, you could imagine a mug full of water in the desert. Or, as another example, if on the forest island, your pirate robbed a ship with an apple on it, you could imagine an apple falling from a tree in the forest. </p><p><img src='run_exp/static/images/tutorial/example_probe.png' height='500'></p><p><b>[Press the space bar to continue]</b></p></div>","32","","","","","","","","","","","","","","","","","","","","","","",""
"","instruc11","40","220789","0.0-35.0-4.0","""event"",""trial"",""time""
""fullscreenenter"",""0"",""1834""
","
","
","""event"",""trial"",""time""
""fullscreenenter"",""0"",""1834""
","
","null","run_exp/static/audio/clip_13_changepoint.m4a","null","","","","","<div class='center'><p>How successful a pirate is at robbing ships will depend on the island you’re on.</p><p> A pirate may have visited this island many times before and gained a lot of practice robbing ships there.</p><p>So, they’re more likely to be successful than a pirate who has never visited the island before.</p></div>","","","","","","","","","","","","","","","","","",""
"","html-keyboard-response","41","221108","0.0-35.0-5.0","""event"",""trial"",""time""
""fullscreenenter"",""0"",""1834""
","
","
","""event"",""trial"",""time""
""fullscreenenter"",""0"",""1834""
","
","317.6000000014901","<div class='center'><p>How successful a pirate is at robbing ships will depend on the island you’re on.</p><p> A pirate may have visited this island many times before and gained a lot of practice robbing ships there.</p><p>So, they’re more likely to be successful than a pirate who has never visited the island before.</p><p><b>[Press the space bar to continue]</b></p></div>","32","","","","","","","","","","","","","","","","","","","","","","",""
"","instruc12","42","262363","0.0-35.0-6.0","""event"",""trial"",""time""
""fullscreenenter"",""0"",""1834""
","
","
","""event"",""trial"",""time""
""fullscreenenter"",""0"",""1834""
","
","null","run_exp/static/audio/clip_14_drift.m4a","null","","","","","<div class='center'><p>How successful a pirate is at robbing ships can also change over the time spent on the island. </p><p> Ships may hear from islanders about the pirates coming and will improve their protections against the attack. This may make it harder to rob them.</p><p> Ships may also become lazy and weaken the strength of their protections. This may make it easier to rob them.</p><br><p>Things are always changing on the high seas! So, try your best to pay attention!</p><p><img src='run_exp/static/images/tutorial/contingency.png' height='500'></p></div>","","","","","","","","","","","","","","","","","",""
"","html-keyboard-response","43","263938","0.0-35.0-7.0","""event"",""trial"",""time""
""fullscreenenter"",""0"",""1834""
","
","
","""event"",""trial"",""time""
""fullscreenenter"",""0"",""1834""
","
","1574.800000000745","<div class='center'><p>How successful a pirate is at robbing ships can also change over the time spent on the island. </p><p> Ships may hear from islanders about the pirates coming and will improve their protections against the attack. This may make it harder to rob them.</p><p> Ships may also become lazy and weaken the strength of their protections. This may make it easier to rob them.</p><br><p>Things are always changing on the high seas! So, try your best to pay attention!</p><p><img src='run_exp/static/images/tutorial/contingency.png' height='500'></p><p><b>[Press the space bar to continue]</b></p></div>","32","","","","","","","","","","","","","","","","","","","","","","",""
"","instruc13","44","299290","0.0-35.0-8.0","""event"",""trial"",""time""
""fullscreenenter"",""0"",""1834""
","
","
","""event"",""trial"",""time""
""fullscreenenter"",""0"",""1834""
","
","null","run_exp/static/audio/clip_15_summary.m4a","null","","","","","<div class='center'><p>Let's go over the instructions quickly again. You have two important things to do: </p><b><p> 1. Pick the pirate who is the best at robbing ships on the current island. </p></b><b><p> 2. Remember on which island a ship was robbed.</p> </b><p>The amount of bonus money you can win depends on both.</p><p><br><p>Let’s try a practice game. The game will start by showing you the pirates. First, pick a pirate using the <b> 1, 2, 3 </b> keys on your keyboard. When you are shown a ship, try to remember which island you’re on by making up a story.</p><p>This is just a practice game, so you’re not playing for money. </p><p> Good luck! This game will be very difficult but try your best!</p></div>","","","","","","","","","","","","","","","","","",""
"","html-keyboard-response","45","301484","0.0-35.0-9.0","""event"",""trial"",""time""
""fullscreenenter"",""0"",""1834""
","
","
","""event"",""trial"",""time""
""fullscreenenter"",""0"",""1834""
","
","2193.39999999851","<div class='center'><p>Let's go over the instructions quickly again. You have two important things to do: </p><b><p> 1. Pick the pirate who is the best at robbing ships on the current island. </p></b><b><p> 2. Remember on which island a ship was robbed.</p> </b><p>The amount of bonus money you can win depends on both.</p><p><br><p>Let’s try a practice game. The game will start by showing you the pirates. First, pick a pirate using the <b> 1, 2, 3 </b> keys on your keyboard. When you are shown a ship, try to remember which island you’re on by making up a story.</p><p>This is just a practice game, so you’re not playing for money. </p><p> Good luck! This game will be very difficult but try your best!</p><p><b>[Press the space bar to continue]</b></p></div>","32","","","","","","","","","","","","","","","","","","","","","","",""
"","do_welcome","46","305495","0.0-35.0-10.0","""event"",""trial"",""time""
""fullscreenenter"",""0"",""1834""
","
","
","""event"",""trial"",""time""
""fullscreenenter"",""0"",""1834""
","
","null","","","","","","","","null","","","","","","","","","","","","","","","","",""
"","do_trial","47","311316","0.0-35.0-11.0","""event"",""trial"",""time""
""fullscreenenter"",""0"",""1834""
","
","
","""event"",""trial"",""time""
""fullscreenenter"",""0"",""1834""
","
","1297.300000000745","","","","","","","","50","1,0,0","","","","","","","","","","","","","","","",""
"","html-keyboard-response","48","312327","0.0-36.0-0.0","""event"",""trial"",""time""
""fullscreenenter"",""0"",""1834""
","
","
","""event"",""trial"",""time""
""fullscreenenter"",""0"",""1834""
","
","null","<p></p>","null","","","","","","","","","","","","","","","","","","","","","","",""
"","do_trial","49","317924","0.0-36.0-1.0","""event"",""trial"",""time""
""fullscreenenter"",""0"",""1834""
","
","
","""event"",""trial"",""time""
""fullscreenenter"",""0"",""1834""
","
","1086.699999999255","","","","","","","","49","1,1,0","","","","","","","","","","","","","","","",""
"","html-keyboard-response","50","318933","0.0-37.0-0.0","""event"",""trial"",""time""
""fullscreenenter"",""0"",""1834""
","
","
","""event"",""trial"",""time""
""fullscreenenter"",""0"",""1834""
","
","null","<p></p>","null","","","","","","","","","","","","","","","","","","","","","","",""
"","do_trial","51","323735","0.0-37.0-1.0","""event"",""trial"",""time""
""fullscreenenter"",""0"",""1834""
","
","
","""event"",""trial"",""time""
""fullscreenenter"",""0"",""1834""
","
","289.1000000014901","","","","","","","","49","1,0,1","","","","","","","","","","","","","","","",""
"","html-keyboard-response","52","324747","0.0-38.0-0.0","""event"",""trial"",""time""
""fullscreenenter"",""0"",""1834""
","
","
","""event"",""trial"",""time""
""fullscreenenter"",""0"",""1834""
","
","null","<p></p>","null","","","","","","","","","","","","","","","","","","","","","","",""
"","do_trial","53","329559","0.0-38.0-1.0","""event"",""trial"",""time""
""fullscreenenter"",""0"",""1834""
","
","
","""event"",""trial"",""time""
""fullscreenenter"",""0"",""1834""
","
","301.4000000022352","","","","","","","","51","0,1,0","","","","","","","","","","","","","","","",""
"","html-keyboard-response","54","330565","0.0-39.0-0.0","""event"",""trial"",""time""
""fullscreenenter"",""0"",""1834""
","
","
","""event"",""trial"",""time""
""fullscreenenter"",""0"",""1834""
","
","null","<p></p>","null","","","","","","","","","","","","","","","","","","","","","","",""
"","do_trial","55","336295","0.0-39.0-1.0","""event"",""trial"",""time""
""fullscreenenter"",""0"",""1834""
","
","
","""event"",""trial"",""time""
""fullscreenenter"",""0"",""1834""
","
","1214","","","","","","","","50","1,0,0","","","","","","","","","","","","","","","",""
"","do_bye","56","337808","0.0-40.0-0.0","""event"",""trial"",""time""
""fullscreenenter"",""0"",""1834""
","
","
","""event"",""trial"",""time""
""fullscreenenter"",""0"",""1834""
","
","null","","","","","","","","null","","","","","","","","","","","","","","","","",""
"","do_travel","57","346819","0.0-40.0-1.0","""event"",""trial"",""time""
""fullscreenenter"",""0"",""1834""
","
","
","""event"",""trial"",""time""
""fullscreenenter"",""0"",""1834""
","
","null","","","","","","","","null","","","","","","","","","","","","","","","","",""
"","do_welcome","58","350836","0.0-40.0-2.0","""event"",""trial"",""time""
""fullscreenenter"",""0"",""1834""
","
","
","""event"",""trial"",""time""
""fullscreenenter"",""0"",""1834""
","
","null","","","","","","","","null","","","","","","","","","","","","","","","","",""
"","do_trial","59","356776","0.0-40.0-3.0","""event"",""trial"",""time""
""fullscreenenter"",""0"",""1834""
","
","
","""event"",""trial"",""time""
""fullscreenenter"",""0"",""1834""
","
","1419","","","","","","","","51","1,0,0","","","","","","","","","","","","","","","",""
"","html-keyboard-response","60","357791","0.0-41.0-0.0","""event"",""trial"",""time""
""fullscreenenter"",""0"",""1834""
","
","
","""event"",""trial"",""time""
""fullscreenenter"",""0"",""1834""
","
","null","<p></p>","null","","","","","","","","","","","","","","","","","","","","","","",""
"","do_trial","61","362545","0.0-41.0-1.0","""event"",""trial"",""time""
""fullscreenenter"",""0"",""1834""
","
","
","""event"",""trial"",""time""
""fullscreenenter"",""0"",""1834""
","
","238.5","","","","","","","","49","1,0,1","","","","","","","","","","","","","","","",""
"","html-keyboard-response","62","363559","0.0-42.0-0.0","""event"",""trial"",""time""
""fullscreenenter"",""0"",""1834""
","
","
","""event"",""trial"",""time""
""fullscreenenter"",""0"",""1834""
","
","null","<p></p>","null","","","","","","","","","","","","","","","","","","","","","","",""
"","do_trial","63","369574","0.0-42.0-1.0","""event"",""trial"",""time""
""fullscreenenter"",""0"",""1834""
","
","
","""event"",""trial"",""time""
""fullscreenenter"",""0"",""1834""
","
","null","","","","","","","","null","1,1,0","","","","","","","","","","","","","","","",""
"","html-keyboard-response","64","370578","0.0-43.0-0.0","""event"",""trial"",""time""
""fullscreenenter"",""0"",""1834""
","
","
","""event"",""trial"",""time""
""fullscreenenter"",""0"",""1834""
","
","null","<p></p>","null","","","","","","","","","","","","","","","","","","","","","","",""
"","do_trial","65","376217","0.0-43.0-1.0","""event"",""trial"",""time""
""fullscreenenter"",""0"",""1834""
","
","
","""event"",""trial"",""time""
""fullscreenenter"",""0"",""1834""
","
","1124.1000000014901","","","","","","","","50","1,1,0","","","","","","","","","","","","","","","",""
"","html-keyboard-response","66","377225","0.0-44.0-0.0","""event"",""trial"",""time""
""fullscreenenter"",""0"",""1834""
","
","
","""event"",""trial"",""time""
""fullscreenenter"",""0"",""1834""
","
","null","<p></p>","null","","","","","","","","","","","","","","","","","","","","","","",""
"","do_trial","67","381871","0.0-44.0-1.0","""event"",""trial"",""time""
""fullscreenenter"",""0"",""1834""
","
","
","""event"",""trial"",""time""
""fullscreenenter"",""0"",""1834""
","
","137.30000000074506","","","","","","","","51","0,0,1","","","","","","","","","","","","","","","",""
"","html-keyboard-response","68","382874","0.0-45.0-0.0","""event"",""trial"",""time""
""fullscreenenter"",""0"",""1834""
","
","
","""event"",""trial"",""time""
""fullscreenenter"",""0"",""1834""
","
","null","<p></p>","null","","","","","","","","","","","","","","","","","","","","","","",""
"","do_trial","69","387629","0.0-45.0-1.0","""event"",""trial"",""time""
""fullscreenenter"",""0"",""1834""
","
","
","""event"",""trial"",""time""
""fullscreenenter"",""0"",""1834""
","
","245.89999999850988","","","","","","","","49","1,0,1","","","","","","","","","","","","","","","",""
"","html-keyboard-response","70","388136","0.0-46.0-0.0","""event"",""trial"",""time""
""fullscreenenter"",""0"",""1834""
","
","
","""event"",""trial"",""time""
""fullscreenenter"",""0"",""1834""
","
","504.3999999985099","<div class='center'><p><img src='run_exp/static/images/tutorial/prac_best_pirate.png'  height='500'></p></div>","50","","","","","","","","","","","","","","","","","","","","","","",""
"","html-keyboard-response","71","390695","0.0-47.0-0.0","""event"",""trial"",""time""
""fullscreenenter"",""0"",""1834""
","
","
","""event"",""trial"",""time""
""fullscreenenter"",""0"",""1834""
","
","2558.5","<div class='center'><p>That's incorrect! Red beard was the best.</p><p><b>[Press the space bar to continue]</b></p></div>","32","","","","","","","","","","","","","","","","","","","","","","",""
"","html-keyboard-response","72","394728","0.0-47.0-1.0","""event"",""trial"",""time""
""fullscreenenter"",""0"",""1834""
","
","
","""event"",""trial"",""time""
""fullscreenenter"",""0"",""1834""
","
","4031.300000000745","<div class='center'><p><img src='run_exp/static/images/tutorial/prac_source.png'  height='500'></p></div>","50","","","","","","","","","","","","","","","","","","","","","","",""
"","html-keyboard-response","73","395793","0.0-48.0-0.0","""event"",""trial"",""time""
""fullscreenenter"",""0"",""1834""
","
","
","""event"",""trial"",""time""
""fullscreenenter"",""0"",""1834""
","
","1064","<div class='center'><p>That's correct! You saw this ship on the cavern island.</p><p><b>[Press the space bar to continue]</b></p></div>","32","","","","","","","","","","","","","","","","","","","","","","",""
"","quiz_beginning","74","412158","0.0-48.0-1.0","""event"",""trial"",""time""
""fullscreenenter"",""0"",""1834""
","
","
","""event"",""trial"",""time""
""fullscreenenter"",""0"",""1834""
","
","null","run_exp/static/audio/clip_16_quiz_intro.m4a","null","","","","","<div class='center'><p>Good job on the practice game! Now, you will be asked some true or false questions to make sure you really understand the rules of the game.</p><p> Press <b>'1'</b> on the keyboard for true and press <b>'2'</b> for false.</p></div>","","","","","","","","","","","","","","","","","",""
"","audio-keyboard-response","75","424077","0.0-48.0-2.0","""event"",""trial"",""time""
""fullscreenenter"",""0"",""1834""
","
","
","""event"",""trial"",""time""
""fullscreenenter"",""0"",""1834""
","
","11917.900000002235","run_exp/static/audio/clip_17_q1.m4a","49","","","","","","","","","","","","","","","","","","","","","","",""
"","correct","76","426656","0.0-49.0-0.0","""event"",""trial"",""time""
""fullscreenenter"",""0"",""1834""
","
","
","""event"",""trial"",""time""
""fullscreenenter"",""0"",""1834""
","
","null","run_exp/static/audio/clip_18_correct.m4a","null","","","","","<div class='center'><p>That's correct!</p></div>","","","","","","","","","","","","","","","","","",""
"","html-keyboard-response","77","427616","0.0-49.0-1.0","""event"",""trial"",""time""
""fullscreenenter"",""0"",""1834""
","
","
","""event"",""trial"",""time""
""fullscreenenter"",""0"",""1834""
","
","959.5","<div class='center'><p>That's correct!</p><p><b>[Press the space bar to continue]</b></p></div>","32","","","","","","","","","","","","","","","","","","","","","","",""
"","audio-keyboard-response","78","431402","0.0-49.0-2.0","""event"",""trial"",""time""
""fullscreenenter"",""0"",""1834""
","
","
","""event"",""trial"",""time""
""fullscreenenter"",""0"",""1834""
","
","3785.300000000745","run_exp/static/audio/clip_20_q2.m4a","50","","","","","","","","","","","","","","","","","","","","","","",""
"","correct","79","433964","0.0-50.0-0.0","""event"",""trial"",""time""
""fullscreenenter"",""0"",""1834""
","
","
","""event"",""trial"",""time""
""fullscreenenter"",""0"",""1834""
","
","null","run_exp/static/audio/clip_18_correct.m4a","null","","","","","<div class='center'><p>That's correct!</p></div>","","","","","","","","","","","","","","","","","",""
"","html-keyboard-response","80","434294","0.0-50.0-1.0","""event"",""trial"",""time""
""fullscreenenter"",""0"",""1834""
","
","
","""event"",""trial"",""time""
""fullscreenenter"",""0"",""1834""
","
","329.1000000014901","<div class='center'><p>That's correct!</p><p><b>[Press the space bar to continue]</b></p></div>","32","","","","","","","","","","","","","","","","","","","","","","",""
"","audio-keyboard-response","81","439094","0.0-50.0-2.0","""event"",""trial"",""time""
""fullscreenenter"",""0"",""1834""
","
","
","""event"",""trial"",""time""
""fullscreenenter"",""0"",""1834""
","
","4799.800000000745","run_exp/static/audio/clip_22_q3.m4a","50","","","","","","","","","","","","","","","","","","","","","","",""
"","correct","82","441657","0.0-51.0-0.0","""event"",""trial"",""time""
""fullscreenenter"",""0"",""1834""
","
","
","""event"",""trial"",""time""
""fullscreenenter"",""0"",""1834""
","
","null","run_exp/static/audio/clip_18_correct.m4a","null","","","","","<div class='center'><p>That's correct!</p></div>","","","","","","","","","","","","","","","","","",""
"","html-keyboard-response","83","442036","0.0-51.0-1.0","""event"",""trial"",""time""
""fullscreenenter"",""0"",""1834""
","
","
","""event"",""trial"",""time""
""fullscreenenter"",""0"",""1834""
","
","378","<div class='center'><p>That's correct!</p><p><b>[Press the space bar to continue]</b></p></div>","32","","","","","","","","","","","","","","","","","","","","","","",""
"","audio-keyboard-response","84","445364","0.0-51.0-2.0","""event"",""trial"",""time""
""fullscreenenter"",""0"",""1834""
","
","
","""event"",""trial"",""time""
""fullscreenenter"",""0"",""1834""
","
","3326.800000000745","run_exp/static/audio/clip_24_q4.m4a","49","","","","","","","","","","","","","","","","","","","","","","",""
"","correct","85","447981","0.0-52.0-0.0","""event"",""trial"",""time""
""fullscreenenter"",""0"",""1834""
","
","
","""event"",""trial"",""time""
""fullscreenenter"",""0"",""1834""
","
","null","run_exp/static/audio/clip_18_correct.m4a","null","","","","","<div class='center'><p>That's correct!</p></div>","","","","","","","","","","","","","","","","","",""
"","html-keyboard-response","86","448392","0.0-52.0-1.0","""event"",""trial"",""time""
""fullscreenenter"",""0"",""1834""
","
","
","""event"",""trial"",""time""
""fullscreenenter"",""0"",""1834""
","
","409.79999999701977","<div class='center'><p>That's correct!</p><p><b>[Press the space bar to continue]</b></p></div>","32","","","","","","","","","","","","","","","","","","","","","","",""
"","q_all_corr","87","457044","0.0-53.0-0.0","""event"",""trial"",""time""
""fullscreenenter"",""0"",""1834""
","
","
","""event"",""trial"",""time""
""fullscreenenter"",""0"",""1834""
","
","null","run_exp/static/audio/clip_27_quiz_all_correct.m4a","null","","","","","<div class='center'><p>Good job! You’re now ready to move on to the real game! Remember this game will be difficult but don't get discouraged and try your best!</p></div>","","","","","","","","","","","","","","","","","",""
"","html-keyboard-response","88","493960","0.0-53.0-1.0","""event"",""trial"",""time""
""fullscreenenter"",""0"",""1834""
","
","
","""event"",""trial"",""time""
""fullscreenenter"",""0"",""1834""
","
","36914.5","<div class='center'><p>Good job! You’re now ready to move on to the real game! Remember this game will be difficult but don't get discouraged and try your best!</p><p><b>[Press the space bar to continue]</b></p></div>","32","","","","","","","","","","","","","","","","","","","","","","",""
"","do_welcome","89","497974","0.0-54.0-0.0","""event"",""trial"",""time""
""fullscreenenter"",""0"",""1834""
","
","
","""event"",""trial"",""time""
""fullscreenenter"",""0"",""1834""
","
","null","","","","","","","","null","","","","","","","","","","","","","","","","",""
"","do_trial","90","503711","0.0-55.0-0.0","""event"",""trial"",""time""
""fullscreenenter"",""0"",""1834""
","
","
","""event"",""trial"",""time""
""fullscreenenter"",""0"",""1834""
","
","1155.3999999985099","","","","","","","","49","1,0,0","0","countryside","0","probe-164","0.6","0.3","0.1","1","","","","","","","",""
"","html-keyboard-response","91","504722","0.0-55.0-1.0","""event"",""trial"",""time""
""fullscreenenter"",""0"",""1834""
","
","
","""event"",""trial"",""time""
""fullscreenenter"",""0"",""1834""
","
","null","<p></p>","null","","","","","","","","","","","","","","","","","","","","","","",""
"","do_trial","92","509495","0.0-56.0-0.0","""event"",""trial"",""time""
""fullscreenenter"",""0"",""1834""
","
","
","""event"",""trial"",""time""
""fullscreenenter"",""0"",""1834""
","
","232.19999999925494","","","","","","","","51","0,0,0","0","countryside","1","probe-48","0.6008181188499824","0.2575089572065901","0.1841057008314712","0","","","","","","","",""
"","html-keyboard-response","93","510510","0.0-56.0-1.0","""event"",""trial"",""time""
""fullscreenenter"",""0"",""1834""
","
","
","""event"",""trial"",""time""
""fullscreenenter"",""0"",""1834""
","
","null","<p></p>","null","","","","","","","","","","","","","","","","","","","","","","",""
"","do_trial","94","515552","0.0-57.0-0.0","""event"",""trial"",""time""
""fullscreenenter"",""0"",""1834""
","
","
","""event"",""trial"",""time""
""fullscreenenter"",""0"",""1834""
","
","469.5","","","","","","","","50","0,0,0","0","countryside","2","probe-171","0.49797461931808124","0.3630040842492656","0.12403379569663034","0","","","","","","","",""
"","html-keyboard-response","95","516555","0.0-57.0-1.0","""event"",""trial"",""time""
""fullscreenenter"",""0"",""1834""
","
","
","""event"",""trial"",""time""
""fullscreenenter"",""0"",""1834""
","
","null","<p></p>","null","","","","","","","","","","","","","","","","","","","","","","",""
"","do_trial","96","522160","0.0-58.0-0.0","""event"",""trial"",""time""
""fullscreenenter"",""0"",""1834""
","
","
","""event"",""trial"",""time""
""fullscreenenter"",""0"",""1834""
","
","1040.199999999255","","","","","","","","51","1,1,0","0","countryside","3","probe-190","0.5879110302369318","0.3059516334899566","0.12641146981619963","0","","","","","","","",""
"","html-keyboard-response","97","523181","0.0-58.0-1.0","""event"",""trial"",""time""
""fullscreenenter"",""0"",""1834""
","
","
","""event"",""trial"",""time""
""fullscreenenter"",""0"",""1834""
","
","null","<p></p>","null","","","","","","","","","","","","","","","","","","","","","","",""
"","do_trial","98","528893","0.0-59.0-0.0","""event"",""trial"",""time""
""fullscreenenter"",""0"",""1834""
","
","
","""event"",""trial"",""time""
""fullscreenenter"",""0"",""1834""
","
","1145.300000000745","","","","","","","","49","1,0,0","0","countryside","4","probe-30","0.6552581968200377","0.40538343214649103","0.2422710222457252","1","","","","","","","",""
"","html-keyboard-response","99","529908","0.0-59.0-1.0","""event"",""trial"",""time""
""fullscreenenter"",""0"",""1834""
","
","
","""event"",""trial"",""time""
""fullscreenenter"",""0"",""1834""
","
","null","<p></p>","null","","","","","","","","","","","","","","","","","","","","","","",""
"","do_trial","100","534745","0.0-60.0-0.0","""event"",""trial"",""time""
""fullscreenenter"",""0"",""1834""
","
","
","""event"",""trial"",""time""
""fullscreenenter"",""0"",""1834""
","
","292.8999999985099","","","","","","","","50","0,0,0","0","countryside","5","probe-148","0.6156424890442553","0.41354489133409744","0.14268571710129135","0","","","","","","","",""
"","html-keyboard-response","101","535753","0.0-60.0-1.0","""event"",""trial"",""time""
""fullscreenenter"",""0"",""1834""
","
","
","""event"",""trial"",""time""
""fullscreenenter"",""0"",""1834""
","
","null","<p></p>","null","","","","","","","","","","","","","","","","","","","","","","",""
"","do_trial","102","540799","0.0-61.0-0.0","""event"",""trial"",""time""
""fullscreenenter"",""0"",""1834""
","
","
","""event"",""trial"",""time""
""fullscreenenter"",""0"",""1834""
","
","474.8999999985099","","","","","","","","51","0,1,0","0","countryside","6","probe-201","0.5701509277406371","0.35690385219786036","0.06335067849034637","0","","","","","","","",""
"","html-keyboard-response","103","541815","0.0-61.0-1.0","""event"",""trial"",""time""
""fullscreenenter"",""0"",""1834""
","
","
","""event"",""trial"",""time""
""fullscreenenter"",""0"",""1834""
","
","null","<p></p>","null","","","","","","","","","","","","","","","","","","","","","","",""
"","do_trial","104","547869","0.0-62.0-0.0","""event"",""trial"",""time""
""fullscreenenter"",""0"",""1834""
","
","
","""event"",""trial"",""time""
""fullscreenenter"",""0"",""1834""
","
","null","","","","","","","","null","0,0,0","0","countryside","7","probe-86","0.39625688215180005","0.3013186854906566","0.0871161186660428","","","","","","","","",""
"","html-keyboard-response","105","548881","0.0-62.0-1.0","""event"",""trial"",""time""
""fullscreenenter"",""0"",""1834""
","
","
","""event"",""trial"",""time""
""fullscreenenter"",""0"",""1834""
","
","null","<p></p>","null","","","","","","","","","","","","","","","","","","","","","","",""
"","do_trial","106","554965","0.0-63.0-0.0","""event"",""trial"",""time""
""fullscreenenter"",""0"",""1834""
","
","
","""event"",""trial"",""time""
""fullscreenenter"",""0"",""1834""
","
","null","","","","","","","","null","1,1,0","0","countryside","8","probe-134","0.47746792151318274","0.3112664980938332","0.09665445014994012","","","","","","","","",""
"","html-keyboard-response","107","555981","0.0-63.0-1.0","""event"",""trial"",""time""
""fullscreenenter"",""0"",""1834""
","
","
","""event"",""trial"",""time""
""fullscreenenter"",""0"",""1834""
","
","null","<p></p>","null","","","","","","","","","","","","","","","","","","","","","","",""
"","do_trial","108","561798","0.0-64.0-0.0","""event"",""trial"",""time""
""fullscreenenter"",""0"",""1834""
","
","
","""event"",""trial"",""time""
""fullscreenenter"",""0"",""1834""
","
","1276","","","","","","","","50","1,1,1","0","countryside","9","probe-216","0.5681224754073705","0.3650414719959634","0.20605874955385242","1","","","","","","","",""
"","html-keyboard-response","109","562808","0.0-64.0-1.0","""event"",""trial"",""time""
""fullscreenenter"",""0"",""1834""
","
","
","""event"",""trial"",""time""
""fullscreenenter"",""0"",""1834""
","
","null","<p></p>","null","","","","","","","","","","","","","","","","","","","","","","",""
"","do_trial","110","567677","0.0-65.0-0.0","""event"",""trial"",""time""
""fullscreenenter"",""0"",""1834""
","
","
","""event"",""trial"",""time""
""fullscreenenter"",""0"",""1834""
","
","301.80000000074506","","","","","","","","51","1,0,0","0","countryside","10","probe-140","0.6207761028662546","0.404530418917704","0.11439288965030724","0","","","","","","","",""
"","html-keyboard-response","111","568693","0.0-65.0-1.0","""event"",""trial"",""time""
""fullscreenenter"",""0"",""1834""
","
","
","""event"",""trial"",""time""
""fullscreenenter"",""0"",""1834""
","
","null","<p></p>","null","","","","","","","","","","","","","","","","","","","","","","",""
"","do_trial","112","573780","0.0-66.0-0.0","""event"",""trial"",""time""
""fullscreenenter"",""0"",""1834""
","
","
","""event"",""trial"",""time""
""fullscreenenter"",""0"",""1834""
","
","535.6999999992549","","","","","","","","49","1,0,1","0","countryside","11","probe-224","0.7022594653728199","0.37068045165024704","0.1293753201035718","1","","","","","","","",""
"","html-keyboard-response","113","574785","0.0-66.0-1.0","""event"",""trial"",""time""
""fullscreenenter"",""0"",""1834""
","
","
","""event"",""trial"",""time""
""fullscreenenter"",""0"",""1834""
","
","null","<p></p>","null","","","","","","","","","","","","","","","","","","","","","","",""
"","do_trial","114","579766","0.0-67.0-0.0","""event"",""trial"",""time""
""fullscreenenter"",""0"",""1834""
","
","
","""event"",""trial"",""time""
""fullscreenenter"",""0"",""1834""
","
","410.79999999701977","","","","","","","","50","1,1,0","0","countryside","12","probe-03","0.5259326547161023","0.5486503442596539","0.08611058971710012","1","","","","","","","",""
"","html-keyboard-response","115","580774","0.0-67.0-1.0","""event"",""trial"",""time""
""fullscreenenter"",""0"",""1834""
","
","
","""event"",""trial"",""time""
""fullscreenenter"",""0"",""1834""
","
","null","<p></p>","null","","","","","","","","","","","","","","","","","","","","","","",""
"","do_trial","116","585795","0.0-68.0-0.0","""event"",""trial"",""time""
""fullscreenenter"",""0"",""1834""
","
","
","""event"",""trial"",""time""
""fullscreenenter"",""0"",""1834""
","
","445.69999999925494","","","","","","","","50","0,0,0","0","countryside","13","probe-62","0.5624241840069513","0.4439506297232498","0.10863531617809356","0","","","","","","","",""
"","html-keyboard-response","117","586796","0.0-68.0-1.0","""event"",""trial"",""time""
""fullscreenenter"",""0"",""1834""
","
","
","""event"",""trial"",""time""
""fullscreenenter"",""0"",""1834""
","
","null","<p></p>","null","","","","","","","","","","","","","","","","","","","","","","",""
"","do_trial","118","592842","0.0-69.0-0.0","""event"",""trial"",""time""
""fullscreenenter"",""0"",""1834""
","
","
","""event"",""trial"",""time""
""fullscreenenter"",""0"",""1834""
","
","null","","","","","","","","null","0,0,1","0","countryside","14","probe-157","0.5445840759072048","0.4982828135570666","0.16031189791101713","","","","","","","","",""
"","html-keyboard-response","119","593849","0.0-69.0-1.0","""event"",""trial"",""time""
""fullscreenenter"",""0"",""1834""
","
","
","""event"",""trial"",""time""
""fullscreenenter"",""0"",""1834""
","
","null","<p></p>","null","","","","","","","","","","","","","","","","","","","","","","",""
"","do_trial","120","598644","0.0-70.0-0.0","""event"",""trial"",""time""
""fullscreenenter"",""0"",""1834""
","
","
","""event"",""trial"",""time""
""fullscreenenter"",""0"",""1834""
","
","252.69999999925494","","","","","","","","51","0,0,1","0","countryside","15","probe-37","0.5143330189467542","0.4954133781902792","0.19217695807681345","1","","","","","","","",""
"","html-keyboard-response","121","599649","0.0-70.0-1.0","""event"",""trial"",""time""
""fullscreenenter"",""0"",""1834""
","
","
","""event"",""trial"",""time""
""fullscreenenter"",""0"",""1834""
","
","null","<p></p>","null","","","","","","","","","","","","","","","","","","","","","","",""
"","do_trial","122","605191","0.0-71.0-0.0","""event"",""trial"",""time""
""fullscreenenter"",""0"",""1834""
","
","
","""event"",""trial"",""time""
""fullscreenenter"",""0"",""1834""
","
","999.1999999992549","","","","","","","","49","1,0,0","0","countryside","16","probe-178","0.6511064837890451","0.41906790035921815","0.06360628812342327","1","","","","","","","",""
"","html-keyboard-response","123","606207","0.0-71.0-1.0","""event"",""trial"",""time""
""fullscreenenter"",""0"",""1834""
","
","
","""event"",""trial"",""time""
""fullscreenenter"",""0"",""1834""
","
","null","<p></p>","null","","","","","","","","","","","","","","","","","","","","","","",""
"","do_trial","124","610765","0.0-72.0-0.0","""event"",""trial"",""time""
""fullscreenenter"",""0"",""1834""
","
","
","""event"",""trial"",""time""
""fullscreenenter"",""0"",""1834""
","
","13","","","","","","","","50","0,0,0","0","countryside","17","probe-217","0.5425662396560326","0.3359587445355501","0.07174286603024474","0","","","","","","","",""
"","html-keyboard-response","125","611771","0.0-72.0-1.0","""event"",""trial"",""time""
""fullscreenenter"",""0"",""1834""
","
","
","""event"",""trial"",""time""
""fullscreenenter"",""0"",""1834""
","
","null","<p></p>","null","","","","","","","","","","","","","","","","","","","","","","",""
"","do_trial","126","617550","0.0-73.0-0.0","""event"",""trial"",""time""
""fullscreenenter"",""0"",""1834""
","
","
","""event"",""trial"",""time""
""fullscreenenter"",""0"",""1834""
","
","1237.2000000029802","","","","","","","","49","0,1,1","0","countryside","18","probe-26","0.46569393279884436","0.309337319220514","0.20146932529410663","0","","","","","","","",""
"","html-keyboard-response","127","618566","0.0-73.0-1.0","""event"",""trial"",""time""
""fullscreenenter"",""0"",""1834""
","
","
","""event"",""trial"",""time""
""fullscreenenter"",""0"",""1834""
","
","null","<p></p>","null","","","","","","","","","","","","","","","","","","","","","","",""
"","do_trial","128","624611","0.0-74.0-0.0","""event"",""trial"",""time""
""fullscreenenter"",""0"",""1834""
","
","
","""event"",""trial"",""time""
""fullscreenenter"",""0"",""1834""
","
","null","","","","","","","","null","0,1,0","0","countryside","19","probe-188","0.5320577687546372","0.4422387431525718","0.05413647884849679","","","","","","","","",""
"","html-keyboard-response","129","625625","0.0-74.0-1.0","""event"",""trial"",""time""
""fullscreenenter"",""0"",""1834""
","
","
","""event"",""trial"",""time""
""fullscreenenter"",""0"",""1834""
","
","null","<p></p>","null","","","","","","","","","","","","","","","","","","","","","","",""
"","do_trial","130","630553","0.0-75.0-0.0","""event"",""trial"",""time""
""fullscreenenter"",""0"",""1834""
","
","
","""event"",""trial"",""time""
""fullscreenenter"",""0"",""1834""
","
","357.69999999925494","","","","","","","","51","1,0,0","0","countryside","20","probe-163","0.5764461051776396","0.3388002350580983","0.09689982533758766","0","","","","","","","",""
"","html-keyboard-response","131","631560","0.0-75.0-1.0","""event"",""trial"",""time""
""fullscreenenter"",""0"",""1834""
","
","
","""event"",""trial"",""time""
""fullscreenenter"",""0"",""1834""
","
","null","<p></p>","null","","","","","","","","","","","","","","","","","","","","","","",""
"","do_trial","132","637609","0.0-76.0-0.0","""event"",""trial"",""time""
""fullscreenenter"",""0"",""1834""
","
","
","""event"",""trial"",""time""
""fullscreenenter"",""0"",""1834""
","
","null","","","","","","","","null","1,0,0","0","countryside","21","probe-208","0.570637844386833","0.31256636869185617","0.08333342233778325","","","","","","","","",""
"","html-keyboard-response","133","638613","0.0-76.0-1.0","""event"",""trial"",""time""
""fullscreenenter"",""0"",""1834""
","
","
","""event"",""trial"",""time""
""fullscreenenter"",""0"",""1834""
","
","null","<p></p>","null","","","","","","","","","","","","","","","","","","","","","","",""
"","do_trial","134","645497","0.0-77.0-0.0","""event"",""trial"",""time""
""fullscreenenter"",""0"",""1834""
","
","
","""event"",""trial"",""time""
""fullscreenenter"",""0"",""1834""
","
","2340","","","","","","","","51","1,0,0","0","countryside","22","probe-112","0.6400156408127876","0.1770546603716036","0.10020373801502526","0","","","","","","","",""
"","html-keyboard-response","135","646506","0.0-77.0-1.0","""event"",""trial"",""time""
""fullscreenenter"",""0"",""1834""
","
","
","""event"",""trial"",""time""
""fullscreenenter"",""0"",""1834""
","
","null","<p></p>","null","","","","","","","","","","","","","","","","","","","","","","",""
"","do_trial","136","651285","0.0-78.0-0.0","""event"",""trial"",""time""
""fullscreenenter"",""0"",""1834""
","
","
","""event"",""trial"",""time""
""fullscreenenter"",""0"",""1834""
","
","241.69999999925494","","","","","","","","49","0,0,0","0","countryside","23","probe-228","0.6533312341646452","0.15711083891931432","0.17870935248612171","0","","","","","","","",""
"","html-keyboard-response","137","652299","0.0-78.0-1.0","""event"",""trial"",""time""
""fullscreenenter"",""0"",""1834""
","
","
","""event"",""trial"",""time""
""fullscreenenter"",""0"",""1834""
","
","null","<p></p>","null","","","","","","","","","","","","","","","","","","","","","","",""
"","do_trial","138","657005","0.0-79.0-0.0","""event"",""trial"",""time""
""fullscreenenter"",""0"",""1834""
","
","
","""event"",""trial"",""time""
""fullscreenenter"",""0"",""1834""
","
","141.40000000223517","","","","","","","","50","1,0,0","0","countryside","24","probe-162","0.7286221006361967","0.19789154998172503","0.11462539706771686","0","","","","","","","",""
"","html-keyboard-response","139","658008","0.0-79.0-1.0","""event"",""trial"",""time""
""fullscreenenter"",""0"",""1834""
","
","
","""event"",""trial"",""time""
""fullscreenenter"",""0"",""1834""
","
","null","<p></p>","null","","","","","","","","","","","","","","","","","","","","","","",""
"","do_trial","140","664082","0.0-80.0-0.0","""event"",""trial"",""time""
""fullscreenenter"",""0"",""1834""
","
","
","""event"",""trial"",""time""
""fullscreenenter"",""0"",""1834""
","
","null","","","","","","","","null","1,0,0","0","countryside","25","probe-179","0.6953311982748732","0.2734808813366753","0.06451543822138033","","","","","","","","",""
"","html-keyboard-response","141","665086","0.0-80.0-1.0","""event"",""trial"",""time""
""fullscreenenter"",""0"",""1834""
","
","
","""event"",""trial"",""time""
""fullscreenenter"",""0"",""1834""
","
","null","<p></p>","null","","","","","","","","","","","","","","","","","","","","","","",""
"","do_trial","142","670653","0.0-81.0-0.0","""event"",""trial"",""time""
""fullscreenenter"",""0"",""1834""
","
","
","""event"",""trial"",""time""
""fullscreenenter"",""0"",""1834""
","
","1019.8000000007451","","","","","","","","50","1,0,0","0","countryside","26","probe-108","0.6264205676611205","0.29991108727008203","0.09976692236731972","0","","","","","","","",""
"","html-keyboard-response","143","671654","0.0-81.0-1.0","""event"",""trial"",""time""
""fullscreenenter"",""0"",""1834""
","
","
","""event"",""trial"",""time""
""fullscreenenter"",""0"",""1834""
","
","null","<p></p>","null","","","","","","","","","","","","","","","","","","","","","","",""
"","do_trial","144","677700","0.0-82.0-0.0","""event"",""trial"",""time""
""fullscreenenter"",""0"",""1834""
","
","
","""event"",""trial"",""time""
""fullscreenenter"",""0"",""1834""
","
","null","","","","","","","","null","1,1,0","0","countryside","27","probe-227","0.6166399829219067","0.2800074204977481","0.0643511812530186","","","","","","","","",""
"","html-keyboard-response","145","678711","0.0-82.0-1.0","""event"",""trial"",""time""
""fullscreenenter"",""0"",""1834""
","
","
","""event"",""trial"",""time""
""fullscreenenter"",""0"",""1834""
","
","null","<p></p>","null","","","","","","","","","","","","","","","","","","","","","","",""
"","do_trial","146","683599","0.0-83.0-0.0","""event"",""trial"",""time""
""fullscreenenter"",""0"",""1834""
","
","
","""event"",""trial"",""time""
""fullscreenenter"",""0"",""1834""
","
","318.19999999925494","","","","","","","","50","0,0,0","0","countryside","28","probe-116","0.6261474713513726","0.46283590772747424","0.181244192281622","0","","","","","","","",""
"","html-keyboard-response","147","684605","0.0-83.0-1.0","""event"",""trial"",""time""
""fullscreenenter"",""0"",""1834""
","
","
","""event"",""trial"",""time""
""fullscreenenter"",""0"",""1834""
","
","null","<p></p>","null","","","","","","","","","","","","","","","","","","","","","","",""
"","do_trial","148","690686","0.0-84.0-0.0","""event"",""trial"",""time""
""fullscreenenter"",""0"",""1834""
","
","
","""event"",""trial"",""time""
""fullscreenenter"",""0"",""1834""
","
","null","","","","","","","","null","1,0,0","0","countryside","29","probe-51","0.6448170815880967","0.412377391360626","0.1215317453910729","","","","","","","","",""
"","html-keyboard-response","149","691699","0.0-84.0-1.0","""event"",""trial"",""time""
""fullscreenenter"",""0"",""1834""
","
","
","""event"",""trial"",""time""
""fullscreenenter"",""0"",""1834""
","
","null","<p></p>","null","","","","","","","","","","","","","","","","","","","","","","",""
"","do_bye","150","693208","0.0-85.0-0.0","""event"",""trial"",""time""
""fullscreenenter"",""0"",""1834""
","
","
","""event"",""trial"",""time""
""fullscreenenter"",""0"",""1834""
","
","null","","","","","","","","null","","","","","","","","","","","","","","","","",""
"","break","151","697716","0.0-85.0-1.0","""event"",""trial"",""time""
""fullscreenenter"",""0"",""1834""
","
","
","""event"",""trial"",""time""
""fullscreenenter"",""0"",""1834""
","
","4506.60000000149","<div class='center'><p>Time to take a quick break! You have 2 minutes to rest, but you can move on sooner if you'd like.</p><p> Press the <b>space bar</b> to continue.</p></div>","32","","","","","","","","","","","","","","","","","","","","","","",""
"","do_travel","152","706723","0.0-86.0-0.0","""event"",""trial"",""time""
""fullscreenenter"",""0"",""1834""
","
","
","""event"",""trial"",""time""
""fullscreenenter"",""0"",""1834""
","
","null","","","","","","","","null","","","","","","","","","","","","","","","","",""
"","do_welcome","153","710730","0.0-86.0-1.0","""event"",""trial"",""time""
""fullscreenenter"",""0"",""1834""
","
","
","""event"",""trial"",""time""
""fullscreenenter"",""0"",""1834""
","
","null","","","","","","","","null","","","","","","","","","","","","","","","","",""
"","do_trial","154","716288","0.0-87.0-0.0","""event"",""trial"",""time""
""fullscreenenter"",""0"",""1834""
","
","
","""event"",""trial"",""time""
""fullscreenenter"",""0"",""1834""
","
","976.6999999992549","","","","","","","","50","1,0,0","1","forest","30","probe-117","1","0.548551606449148","0.058626793045428664","0","","","","","","","",""
"","html-keyboard-response","155","717297","0.0-87.0-1.0","""event"",""trial"",""time""
""fullscreenenter"",""0"",""1834""
","
","
","""event"",""trial"",""time""
""fullscreenenter"",""0"",""1834""
","
","null","<p></p>","null","","","","","","","","","","","","","","","","","","","","","","",""
"","do_trial","156","722252","0.0-88.0-0.0","""event"",""trial"",""time""
""fullscreenenter"",""0"",""1834""
","
","
","""event"",""trial"",""time""
""fullscreenenter"",""0"",""1834""
","
","387.3999999985099","","","","","","","","49","1,0,0","1","forest","31","probe-125","1","0.48066367028664014","0.07456989627792622","1","","","","","","","",""
"","html-keyboard-response","157","723264","0.0-88.0-1.0","""event"",""trial"",""time""
""fullscreenenter"",""0"",""1834""
","
","
","""event"",""trial"",""time""
""fullscreenenter"",""0"",""1834""
","
","null","<p></p>","null","","","","","","","","","","","","","","","","","","","","","","",""
"","do_trial","158","728737","0.0-89.0-0.0","""event"",""trial"",""time""
""fullscreenenter"",""0"",""1834""
","
","
","""event"",""trial"",""time""
""fullscreenenter"",""0"",""1834""
","
","897.8999999985099","","","","","","","","51","1,1,0","1","forest","32","probe-63","1","0.3558018838853335","0.13972479767890178","0","","","","","","","",""
"","html-keyboard-response","159","729753","0.0-89.0-1.0","""event"",""trial"",""time""
""fullscreenenter"",""0"",""1834""
","
","
","""event"",""trial"",""time""
""fullscreenenter"",""0"",""1834""
","
","null","<p></p>","null","","","","","","","","","","","","","","","","","","","","","","",""
"","do_trial","160","735787","0.0-90.0-0.0","""event"",""trial"",""time""
""fullscreenenter"",""0"",""1834""
","
","
","""event"",""trial"",""time""
""fullscreenenter"",""0"",""1834""
","
","null","","","","","","","","null","1,0,0","1","forest","33","probe-115","0.8896334905379402","0.3787164611938117","0.17981193845022922","","","","","","","","",""
"","html-keyboard-response","161","736796","0.0-90.0-1.0","""event"",""trial"",""time""
""fullscreenenter"",""0"",""1834""
","
","
","""event"",""trial"",""time""
""fullscreenenter"",""0"",""1834""
","
","null","<p></p>","null","","","","","","","","","","","","","","","","","","","","","","",""
"","do_trial","162","743882","0.0-91.0-0.0","""event"",""trial"",""time""
""fullscreenenter"",""0"",""1834""
","
","
","""event"",""trial"",""time""
""fullscreenenter"",""0"",""1834""
","
","2549.89999999851","","","","","","","","51","1,0,0","1","forest","34","probe-185","0.8264877348909199","0.2197766860202225","0.1715611894766263","0","","","","","","","",""
"","html-keyboard-response","163","744889","0.0-91.0-1.0","""event"",""trial"",""time""
""fullscreenenter"",""0"",""1834""
","
","
","""event"",""trial"",""time""
""fullscreenenter"",""0"",""1834""
","
","null","<p></p>","null","","","","","","","","","","","","","","","","","","","","","","",""
"","do_trial","164","750015","0.0-92.0-0.0","""event"",""trial"",""time""
""fullscreenenter"",""0"",""1834""
","
","
","""event"",""trial"",""time""
""fullscreenenter"",""0"",""1834""
","
","595.1999999992549","","","","","","","","49","1,1,1","1","forest","35","probe-152","0.8008575826667224","0.3025297872294859","0.21418579254077819","1","","","","","","","",""
"","html-keyboard-response","165","751024","0.0-92.0-1.0","""event"",""trial"",""time""
""fullscreenenter"",""0"",""1834""
","
","
","""event"",""trial"",""time""
""fullscreenenter"",""0"",""1834""
","
","null","<p></p>","null","","","","","","","","","","","","","","","","","","","","","","",""
"","do_trial","166","757094","0.0-93.0-0.0","""event"",""trial"",""time""
""fullscreenenter"",""0"",""1834""
","
","
","""event"",""trial"",""time""
""fullscreenenter"",""0"",""1834""
","
","null","","","","","","","","null","1,0,0","1","forest","36","probe-165","0.6583636386042078","0.22601786905703555","0.2701216743776235","","","","","","","","",""
"","html-keyboard-response","167","758098","0.0-93.0-1.0","""event"",""trial"",""time""
""fullscreenenter"",""0"",""1834""
","
","
","""event"",""trial"",""time""
""fullscreenenter"",""0"",""1834""
","
","null","<p></p>","null","","","","","","","","","","","","","","","","","","","","","","",""
"","do_trial","168","762774","0.0-94.0-0.0","""event"",""trial"",""time""
""fullscreenenter"",""0"",""1834""
","
","
","""event"",""trial"",""time""
""fullscreenenter"",""0"",""1834""
","
","102.69999999925494","","","","","","","","49","1,1,0","1","forest","37","probe-24","0.5429883939566014","0.22789682807071587","0.16432579472710504","1","","","","","","","",""
"","html-keyboard-response","169","763783","0.0-94.0-1.0","""event"",""trial"",""time""
""fullscreenenter"",""0"",""1834""
","
","
","""event"",""trial"",""time""
""fullscreenenter"",""0"",""1834""
","
","null","<p></p>","null","","","","","","","","","","","","","","","","","","","","","","",""
"","do_trial","170","769292","0.0-95.0-0.0","""event"",""trial"",""time""
""fullscreenenter"",""0"",""1834""
","
","
","""event"",""trial"",""time""
""fullscreenenter"",""0"",""1834""
","
","953.3000000007451","","","","","","","","50","1,0,0","1","forest","38","probe-133","0.5380732545252744","0.2798111212264524","0.09674971773165558","0","","","","","","","",""
"","html-keyboard-response","171","770308","0.0-95.0-1.0","""event"",""trial"",""time""
""fullscreenenter"",""0"",""1834""
","
","
","""event"",""trial"",""time""
""fullscreenenter"",""0"",""1834""
","
","null","<p></p>","null","","","","","","","","","","","","","","","","","","","","","","",""
"","do_trial","172","776062","0.0-96.0-0.0","""event"",""trial"",""time""
""fullscreenenter"",""0"",""1834""
","
","
","""event"",""trial"",""time""
""fullscreenenter"",""0"",""1834""
","
","1205.6000000014901","","","","","","","","51","0,0,0","1","forest","39","probe-04","0.5575239571481633","0.1273167702243223","0.06068773020917422","0","","","","","","","",""
"","html-keyboard-response","173","777075","0.0-96.0-1.0","""event"",""trial"",""time""
""fullscreenenter"",""0"",""1834""
","
","
","""event"",""trial"",""time""
""fullscreenenter"",""0"",""1834""
","
","null","<p></p>","null","","","","","","","","","","","","","","","","","","","","","","",""
"","do_trial","174","782013","0.0-97.0-0.0","""event"",""trial"",""time""
""fullscreenenter"",""0"",""1834""
","
","
","""event"",""trial"",""time""
""fullscreenenter"",""0"",""1834""
","
","386.70000000298023","","","","","","","","49","1,0,0","1","forest","40","probe-02","0.5212744428439197","0.2758011673787273","0.1322360636806299","1","","","","","","","",""
"","html-keyboard-response","175","783022","0.0-97.0-1.0","""event"",""trial"",""time""
""fullscreenenter"",""0"",""1834""
","
","
","""event"",""trial"",""time""
""fullscreenenter"",""0"",""1834""
","
","null","<p></p>","null","","","","","","","","","","","","","","","","","","","","","","",""
"","do_trial","176","787626","0.0-98.0-0.0","""event"",""trial"",""time""
""fullscreenenter"",""0"",""1834""
","
","
","""event"",""trial"",""time""
""fullscreenenter"",""0"",""1834""
","
","41.80000000074506","","","","","","","","49","0,0,0","1","forest","41","probe-123","0.4504256814253986","0.3384499005895188","0.12271491177341416","0","","","","","","","",""
"","html-keyboard-response","177","788632","0.0-98.0-1.0","""event"",""trial"",""time""
""fullscreenenter"",""0"",""1834""
","
","
","""event"",""trial"",""time""
""fullscreenenter"",""0"",""1834""
","
","null","<p></p>","null","","","","","","","","","","","","","","","","","","","","","","",""
"","do_trial","178","794720","0.0-99.0-0.0","""event"",""trial"",""time""
""fullscreenenter"",""0"",""1834""
","
","
","""event"",""trial"",""time""
""fullscreenenter"",""0"",""1834""
","
","null","","","","","","","","null","0,0,1","1","forest","42","probe-41","0.21629272655010046","0.4006457173213734","0.08737814005437727","","","","","","","","",""
"","html-keyboard-response","179","795728","0.0-99.0-1.0","""event"",""trial"",""time""
""fullscreenenter"",""0"",""1834""
","
","
","""event"",""trial"",""time""
""fullscreenenter"",""0"",""1834""
","
","null","<p></p>","null","","","","","","","","","","","","","","","","","","","","","","",""
"","do_trial","180","800815","0.0-100.0-0.0","""event"",""trial"",""time""
""fullscreenenter"",""0"",""1834""
","
","
","""event"",""trial"",""time""
""fullscreenenter"",""0"",""1834""
","
","553.6000000014901","","","","","","","","50","0,0,0","1","forest","43","probe-99","0.20952749364497167","0.5858466077341179","0.20900111344350625","0","","","","","","","",""
"","html-keyboard-response","181","801823","0.0-100.0-1.0","""event"",""trial"",""time""
""fullscreenenter"",""0"",""1834""
","
","
","""event"",""trial"",""time""
""fullscreenenter"",""0"",""1834""
","
","null","<p></p>","null","","","","","","","","","","","","","","","","","","","","","","",""
"","do_trial","182","807076","0.0-101.0-0.0","""event"",""trial"",""time""
""fullscreenenter"",""0"",""1834""
","
","
","""event"",""trial"",""time""
""fullscreenenter"",""0"",""1834""
","
","688.0999999977648","","","","","","","","49","0,0,0","1","forest","44","probe-130","0.22353666181340687","0.6588701018022209","0.13079612453168474","0","","","","","","","",""
"","html-keyboard-response","183","808084","0.0-101.0-1.0","""event"",""trial"",""time""
""fullscreenenter"",""0"",""1834""
","
","
","""event"",""trial"",""time""
""fullscreenenter"",""0"",""1834""
","
","null","<p></p>","null","","","","","","","","","","","","","","","","","","","","","","",""
"","do_trial","184","813718","0.0-102.0-0.0","""event"",""trial"",""time""
""fullscreenenter"",""0"",""1834""
","
","
","""event"",""trial"",""time""
""fullscreenenter"",""0"",""1834""
","
","1068.1000000014901","","","","","","","","51","1,0,0","1","forest","45","probe-151","0.2891031751665987","0.620991472401508","0.11603623791768844","0","","","","","","","",""
"","html-keyboard-response","185","814733","0.0-102.0-1.0","""event"",""trial"",""time""
""fullscreenenter"",""0"",""1834""
","
","
","""event"",""trial"",""time""
""fullscreenenter"",""0"",""1834""
","
","null","<p></p>","null","","","","","","","","","","","","","","","","","","","","","","",""
"","do_trial","186","819844","0.0-103.0-0.0","""event"",""trial"",""time""
""fullscreenenter"",""0"",""1834""
","
","
","""event"",""trial"",""time""
""fullscreenenter"",""0"",""1834""
","
","560.9000000022352","","","","","","","","50","1,0,0","1","forest","46","probe-177","0.18684557352479889","0.5382354168877763","0.33012479784878096","0","","","","","","","",""
"","html-keyboard-response","187","820854","0.0-103.0-1.0","""event"",""trial"",""time""
""fullscreenenter"",""0"",""1834""
","
","
","""event"",""trial"",""time""
""fullscreenenter"",""0"",""1834""
","
","null","<p></p>","null","","","","","","","","","","","","","","","","","","","","","","",""
"","do_trial","188","827373","0.0-104.0-0.0","""event"",""trial"",""time""
""fullscreenenter"",""0"",""1834""
","
","
","""event"",""trial"",""time""
""fullscreenenter"",""0"",""1834""
","
","1945.300000000745","","","","","","","","49","0,1,0","1","forest","47","probe-01","0.22537210003424896","0.5079278870751043","0.24817797964762214","0","","","","","","","",""
"","html-keyboard-response","189","828384","0.0-104.0-1.0","""event"",""trial"",""time""
""fullscreenenter"",""0"",""1834""
","
","
","""event"",""trial"",""time""
""fullscreenenter"",""0"",""1834""
","
","null","<p></p>","null","","","","","","","","","","","","","","","","","","","","","","",""
"","do_trial","190","834476","0.0-105.0-0.0","""event"",""trial"",""time""
""fullscreenenter"",""0"",""1834""
","
","
","""event"",""trial"",""time""
""fullscreenenter"",""0"",""1834""
","
","null","","","","","","","","null","0,1,1","1","forest","48","probe-118","0.07377295193919307","0.5305930046848577","0.38432934549696457","","","","","","","","",""
"","html-keyboard-response","191","835482","0.0-105.0-1.0","""event"",""trial"",""time""
""fullscreenenter"",""0"",""1834""
","
","
","""event"",""trial"",""time""
""fullscreenenter"",""0"",""1834""
","
","null","<p></p>","null","","","","","","","","","","","","","","","","","","","","","","",""
"","do_trial","192","840921","0.0-106.0-0.0","""event"",""trial"",""time""
""fullscreenenter"",""0"",""1834""
","
","
","""event"",""trial"",""time""
""fullscreenenter"",""0"",""1834""
","
","903.4000000022352","","","","","","","","51","1,1,1","1","forest","49","probe-33","0.08001492740637099","0.6059667528344277","0.5228277839732508","1","","","","","","","",""
"","html-keyboard-response","193","841927","0.0-106.0-1.0","""event"",""trial"",""time""
""fullscreenenter"",""0"",""1834""
","
","
","""event"",""trial"",""time""
""fullscreenenter"",""0"",""1834""
","
","null","<p></p>","null","","","","","","","","","","","","","","","","","","","","","","",""
"","do_trial","194","847388","0.0-107.0-0.0","""event"",""trial"",""time""
""fullscreenenter"",""0"",""1834""
","
","
","""event"",""trial"",""time""
""fullscreenenter"",""0"",""1834""
","
","929.5","","","","","","","","50","0,1,0","1","forest","50","probe-221","0.10886763895953003","0.6639146577112135","0.37430243987582246","1","","","","","","","",""
"","html-keyboard-response","195","848404","0.0-107.0-1.0","""event"",""trial"",""time""
""fullscreenenter"",""0"",""1834""
","
","
","""event"",""trial"",""time""
""fullscreenenter"",""0"",""1834""
","
","null","<p></p>","null","","","","","","","","","","","","","","","","","","","","","","",""
"","do_trial","196","854483","0.0-108.0-0.0","""event"",""trial"",""time""
""fullscreenenter"",""0"",""1834""
","
","
","""event"",""trial"",""time""
""fullscreenenter"",""0"",""1834""
","
","null","","","","","","","","null","0,0,0","1","forest","51","probe-155","0.06651177583662155","0.5815115511969109","0.4078888863593217","","","","","","","","",""
"","html-keyboard-response","197","855489","0.0-108.0-1.0","""event"",""trial"",""time""
""fullscreenenter"",""0"",""1834""
","
","
","""event"",""trial"",""time""
""fullscreenenter"",""0"",""1834""
","
","null","<p></p>","null","","","","","","","","","","","","","","","","","","","","","","",""
"","do_trial","198","860159","0.0-109.0-0.0","""event"",""trial"",""time""
""fullscreenenter"",""0"",""1834""
","
","
","""event"",""trial"",""time""
""fullscreenenter"",""0"",""1834""
","
","111.10000000149012","","","","","","","","50","0,1,0","1","forest","52","probe-09","0.0968341244158229","0.684270422532164","0.28511929505097283","1","","","","","","","",""
"","html-keyboard-response","199","861169","0.0-109.0-1.0","""event"",""trial"",""time""
""fullscreenenter"",""0"",""1834""
","
","
","""event"",""trial"",""time""
""fullscreenenter"",""0"",""1834""
","
","null","<p></p>","null","","","","","","","","","","","","","","","","","","","","","","",""
"","do_trial","200","866879","0.0-110.0-0.0","""event"",""trial"",""time""
""fullscreenenter"",""0"",""1834""
","
","
","""event"",""trial"",""time""
""fullscreenenter"",""0"",""1834""
","
","1139.3999999985099","","","","","","","","49","0,1,0","1","forest","53","probe-219","0.12518070822451408","0.6443235187431543","0.3126618696725234","0","","","","","","","",""
"","html-keyboard-response","201","867883","0.0-110.0-1.0","""event"",""trial"",""time""
""fullscreenenter"",""0"",""1834""
","
","
","""event"",""trial"",""time""
""fullscreenenter"",""0"",""1834""
","
","null","<p></p>","null","","","","","","","","","","","","","","","","","","","","","","",""
"","do_trial","202","873824","0.0-111.0-0.0","""event"",""trial"",""time""
""fullscreenenter"",""0"",""1834""
","
","
","""event"",""trial"",""time""
""fullscreenenter"",""0"",""1834""
","
","1403.800000000745","","","","","","","","50","0,1,1","1","forest","54","probe-67","0.12960656020131273","0.7188669076672446","0.33946752530921537","1","","","","","","","",""
"","html-keyboard-response","203","874840","0.0-111.0-1.0","""event"",""trial"",""time""
""fullscreenenter"",""0"",""1834""
","
","
","""event"",""trial"",""time""
""fullscreenenter"",""0"",""1834""
","
","null","<p></p>","null","","","","","","","","","","","","","","","","","","","","","","",""
"","do_trial","204","880909","0.0-112.0-0.0","""event"",""trial"",""time""
""fullscreenenter"",""0"",""1834""
","
","
","""event"",""trial"",""time""
""fullscreenenter"",""0"",""1834""
","
","null","","","","","","","","null","0,1,0","1","forest","55","probe-28","0.11034805828181414","0.6081678999781666","0.24867363574306317","","","","","","","","",""
"","html-keyboard-response","205","881913","0.0-112.0-1.0","""event"",""trial"",""time""
""fullscreenenter"",""0"",""1834""
","
","
","""event"",""trial"",""time""
""fullscreenenter"",""0"",""1834""
","
","null","<p></p>","null","","","","","","","","","","","","","","","","","","","","","","",""
"","do_trial","206","887629","0.0-113.0-0.0","""event"",""trial"",""time""
""fullscreenenter"",""0"",""1834""
","
","
","""event"",""trial"",""time""
""fullscreenenter"",""0"",""1834""
","
","1168.9000000022352","","","","","","","","50","0,0,0","1","forest","56","probe-34","0.12735083647394566","0.7111792186709275","0.2274839420724384","0","","","","","","","",""
"","html-keyboard-response","207","888643","0.0-113.0-1.0","""event"",""trial"",""time""
""fullscreenenter"",""0"",""1834""
","
","
","""event"",""trial"",""time""
""fullscreenenter"",""0"",""1834""
","
","null","<p></p>","null","","","","","","","","","","","","","","","","","","","","","","",""
"","do_trial","208","894708","0.0-114.0-0.0","""event"",""trial"",""time""
""fullscreenenter"",""0"",""1834""
","
","
","""event"",""trial"",""time""
""fullscreenenter"",""0"",""1834""
","
","null","","","","","","","","null","0,0,0","1","forest","57","probe-70","0.14641152333063379","0.5384142185853462","0.2398916529475547","","","","","","","","",""
"","html-keyboard-response","209","895719","0.0-114.0-1.0","""event"",""trial"",""time""
""fullscreenenter"",""0"",""1834""
","
","
","""event"",""trial"",""time""
""fullscreenenter"",""0"",""1834""
","
","null","<p></p>","null","","","","","","","","","","","","","","","","","","","","","","",""
"","do_trial","210","901758","0.0-115.0-0.0","""event"",""trial"",""time""
""fullscreenenter"",""0"",""1834""
","
","
","""event"",""trial"",""time""
""fullscreenenter"",""0"",""1834""
","
","null","","","","","","","","null","0,0,0","1","forest","58","probe-136","0.10679951686129809","0.6191609476459542","0.3249640151103813","","","","","","","","",""
"","html-keyboard-response","211","902765","0.0-115.0-1.0","""event"",""trial"",""time""
""fullscreenenter"",""0"",""1834""
","
","
","""event"",""trial"",""time""
""fullscreenenter"",""0"",""1834""
","
","null","<p></p>","null","","","","","","","","","","","","","","","","","","","","","","",""
"","do_trial","212","907504","0.0-116.0-0.0","""event"",""trial"",""time""
""fullscreenenter"",""0"",""1834""
","
","
","""event"",""trial"",""time""
""fullscreenenter"",""0"",""1834""
","
","203.19999999925494","","","","","","","","51","0,1,0","1","forest","59","probe-18","0.07703449257354214","0.6454515384700044","0.2094118207271068","0","","","","","","","",""
"","html-keyboard-response","213","908512","0.0-116.0-1.0","""event"",""trial"",""time""
""fullscreenenter"",""0"",""1834""
","
","
","""event"",""trial"",""time""
""fullscreenenter"",""0"",""1834""
","
","null","<p></p>","null","","","","","","","","","","","","","","","","","","","","","","",""
"","do_trial","214","913156","0.0-117.0-0.0","""event"",""trial"",""time""
""fullscreenenter"",""0"",""1834""
","
","
","""event"",""trial"",""time""
""fullscreenenter"",""0"",""1834""
","
","75.30000000074506","","","","","","","","49","0,1,1","1","forest","60","probe-64","0.17973856131146476","0.5952125505906551","0.19973771361463524","0","","","","","","","",""
"","html-keyboard-response","215","914169","0.0-117.0-1.0","""event"",""trial"",""time""
""fullscreenenter"",""0"",""1834""
","
","
","""event"",""trial"",""time""
""fullscreenenter"",""0"",""1834""
","
","null","<p></p>","null","","","","","","","","","","","","","","","","","","","","","","",""
"","do_trial","216","919060","0.0-118.0-0.0","""event"",""trial"",""time""
""fullscreenenter"",""0"",""1834""
","
","
","""event"",""trial"",""time""
""fullscreenenter"",""0"",""1834""
","
","358.80000000074506","","","","","","","","50","1,1,0","1","forest","61","probe-127","0.2670802517699262","0.5406153249727936","0.25954122821659464","1","","","","","","","",""
"","html-keyboard-response","217","920066","0.0-118.0-1.0","""event"",""trial"",""time""
""fullscreenenter"",""0"",""1834""
","
","
","""event"",""trial"",""time""
""fullscreenenter"",""0"",""1834""
","
","null","<p></p>","null","","","","","","","","","","","","","","","","","","","","","","",""
"","do_trial","218","924914","0.0-119.0-0.0","""event"",""trial"",""time""
""fullscreenenter"",""0"",""1834""
","
","
","""event"",""trial"",""time""
""fullscreenenter"",""0"",""1834""
","
","305.29999999701977","","","","","","","","50","0,1,0","1","forest","62","probe-229","0.07019161077781608","0.701893341321034","0.2775245522511884","1","","","","","","","",""
"","html-keyboard-response","219","925928","0.0-119.0-1.0","""event"",""trial"",""time""
""fullscreenenter"",""0"",""1834""
","
","
","""event"",""trial"",""time""
""fullscreenenter"",""0"",""1834""
","
","null","<p></p>","null","","","","","","","","","","","","","","","","","","","","","","",""
"","do_trial","220","930841","0.0-120.0-0.0","""event"",""trial"",""time""
""fullscreenenter"",""0"",""1834""
","
","
","""event"",""trial"",""time""
""fullscreenenter"",""0"",""1834""
","
","339.4000000022352","","","","","","","","50","0,1,0","1","forest","63","probe-196","0.08763253572111458","0.6623343258683765","0.3551283518181221","1","","","","","","","",""
"","html-keyboard-response","221","931849","0.0-120.0-1.0","""event"",""trial"",""time""
""fullscreenenter"",""0"",""1834""
","
","
","""event"",""trial"",""time""
""fullscreenenter"",""0"",""1834""
","
","null","<p></p>","null","","","","","","","","","","","","","","","","","","","","","","",""
"","do_trial","222","936844","0.0-121.0-0.0","""event"",""trial"",""time""
""fullscreenenter"",""0"",""1834""
","
","
","""event"",""trial"",""time""
""fullscreenenter"",""0"",""1834""
","
","454.69999999925494","","","","","","","","50","1,1,1","1","forest","64","probe-29","0.24350822304890726","0.6804549087168469","0.3456339831032475","1","","","","","","","",""
"","html-keyboard-response","223","937855","0.0-121.0-1.0","""event"",""trial"",""time""
""fullscreenenter"",""0"",""1834""
","
","
","""event"",""trial"",""time""
""fullscreenenter"",""0"",""1834""
","
","null","<p></p>","null","","","","","","","","","","","","","","","","","","","","","","",""
"","do_trial","224","943680","0.0-122.0-0.0","""event"",""trial"",""time""
""fullscreenenter"",""0"",""1834""
","
","
","""event"",""trial"",""time""
""fullscreenenter"",""0"",""1834""
","
","1283.800000000745","","","","","","","","50","0,1,0","1","forest","65","probe-72","0.0694030533721387","0.6150435687525578","0.21701451247665254","1","","","","","","","",""
"","html-keyboard-response","225","944685","0.0-122.0-1.0","""event"",""trial"",""time""
""fullscreenenter"",""0"",""1834""
","
","
","""event"",""trial"",""time""
""fullscreenenter"",""0"",""1834""
","
","null","<p></p>","null","","","","","","","","","","","","","","","","","","","","","","",""
"","do_trial","226","950723","0.0-123.0-0.0","""event"",""trial"",""time""
""fullscreenenter"",""0"",""1834""
","
","
","""event"",""trial"",""time""
""fullscreenenter"",""0"",""1834""
","
","null","","","","","","","","null","0,1,1","1","forest","66","probe-95","0.1420175611303604","0.5960455130796064","0.21046843248345723","","","","","","","","",""
"","html-keyboard-response","227","951739","0.0-123.0-1.0","""event"",""trial"",""time""
""fullscreenenter"",""0"",""1834""
","
","
","""event"",""trial"",""time""
""fullscreenenter"",""0"",""1834""
","
","null","<p></p>","null","","","","","","","","","","","","","","","","","","","","","","",""
"","do_trial","228","958166","0.0-124.0-0.0","""event"",""trial"",""time""
""fullscreenenter"",""0"",""1834""
","
","
","""event"",""trial"",""time""
""fullscreenenter"",""0"",""1834""
","
","1851.4000000022352","","","","","","","","51","0,1,1","1","forest","67","probe-204","0.2223013994833015","0.5349412669075408","0.410720617327811","1","","","","","","","",""
"","html-keyboard-response","229","959173","0.0-124.0-1.0","""event"",""trial"",""time""
""fullscreenenter"",""0"",""1834""
","
","
","""event"",""trial"",""time""
""fullscreenenter"",""0"",""1834""
","
","null","<p></p>","null","","","","","","","","","","","","","","","","","","","","","","",""
"","do_trial","230","965185","0.0-125.0-0.0","""event"",""trial"",""time""
""fullscreenenter"",""0"",""1834""
","
","
","""event"",""trial"",""time""
""fullscreenenter"",""0"",""1834""
","
","1440.2000000029802","","","","","","","","49","1,1,1","1","forest","68","probe-135","0.3230328460179665","0.5154365863348233","0.4009971541944806","1","","","","","","","",""
"","html-keyboard-response","231","966190","0.0-125.0-1.0","""event"",""trial"",""time""
""fullscreenenter"",""0"",""1834""
","
","
","""event"",""trial"",""time""
""fullscreenenter"",""0"",""1834""
","
","null","<p></p>","null","","","","","","","","","","","","","","","","","","","","","","",""
"","do_trial","232","972354","0.0-126.0-0.0","""event"",""trial"",""time""
""fullscreenenter"",""0"",""1834""
","
","
","""event"",""trial"",""time""
""fullscreenenter"",""0"",""1834""
","
","1626.1000000014901","","","","","","","","50","0,0,1","1","forest","69","probe-183","0.22226418554529304","0.542371580560573","0.49080949584880096","0","","","","","","","",""
"","html-keyboard-response","233","973364","0.0-126.0-1.0","""event"",""trial"",""time""
""fullscreenenter"",""0"",""1834""
","
","
","""event"",""trial"",""time""
""fullscreenenter"",""0"",""1834""
","
","null","<p></p>","null","","","","","","","","","","","","","","","","","","","","","","",""
"","do_bye","234","974880","0.0-127.0-0.0","""event"",""trial"",""time""
""fullscreenenter"",""0"",""1834""
","
","
","""event"",""trial"",""time""
""fullscreenenter"",""0"",""1834""
","
","null","","","","","","","","null","","","","","","","","","","","","","","","","",""
"","break","235","1027140","0.0-127.0-1.0","""event"",""trial"",""time""
""fullscreenenter"",""0"",""1834""
","
","
","""event"",""trial"",""time""
""fullscreenenter"",""0"",""1834""
","
","52257.900000002235","<div class='center'><p>Time to take a quick break! You have 2 minutes to rest, but you can move on sooner if you'd like.</p><p> Press the <b>space bar</b> to continue.</p></div>","32","","","","","","","","","","","","","","","","","","","","","","",""
"","do_travel","236","1036149","0.0-128.0-0.0","""event"",""trial"",""time""
""fullscreenenter"",""0"",""1834""
","
","
","""event"",""trial"",""time""
""fullscreenenter"",""0"",""1834""
","
","null","","","","","","","","null","","","","","","","","","","","","","","","","",""
"","do_welcome","237","1040167","0.0-128.0-1.0","""event"",""trial"",""time""
""fullscreenenter"",""0"",""1834""
","
","
","""event"",""trial"",""time""
""fullscreenenter"",""0"",""1834""
","
","null","","","","","","","","null","","","","","","","","","","","","","","","","",""
"","do_trial","238","1046811","0.0-129.0-0.0","""event"",""trial"",""time""
""fullscreenenter"",""0"",""1834""
","
","
","""event"",""trial"",""time""
""fullscreenenter"",""0"",""1834""
","
","2100","","","","","","","","49","0,1,1","2","coast","70","probe-111","0.0933175626831569","1","0.48722313174735093","0","","","","","","","",""
"","html-keyboard-response","239","1047820","0.0-129.0-1.0","""event"",""trial"",""time""
""fullscreenenter"",""0"",""1834""
","
","
","""event"",""trial"",""time""
""fullscreenenter"",""0"",""1834""
","
","null","<p></p>","null","","","","","","","","","","","","","","","","","","","","","","",""
"","do_trial","240","1053884","0.0-130.0-0.0","""event"",""trial"",""time""
""fullscreenenter"",""0"",""1834""
","
","
","""event"",""trial"",""time""
""fullscreenenter"",""0"",""1834""
","
","null","","","","","","","","null","0,1,1","2","coast","71","probe-10","0.11193063937254563","1","0.4691789395504374","","","","","","","","",""
"","html-keyboard-response","241","1054893","0.0-130.0-1.0","""event"",""trial"",""time""
""fullscreenenter"",""0"",""1834""
","
","
","""event"",""trial"",""time""
""fullscreenenter"",""0"",""1834""
","
","null","<p></p>","null","","","","","","","","","","","","","","","","","","","","","","",""
"","do_trial","242","1060930","0.0-131.0-0.0","""event"",""trial"",""time""
""fullscreenenter"",""0"",""1834""
","
","
","""event"",""trial"",""time""
""fullscreenenter"",""0"",""1834""
","
","null","","","","","","","","null","0,1,0","2","coast","72","probe-22","0.08918615988125522","0.8456952631583878","0.29211702025438807","","","","","","","","",""
"","html-keyboard-response","243","1061944","0.0-131.0-1.0","""event"",""trial"",""time""
""fullscreenenter"",""0"",""1834""
","
","
","""event"",""trial"",""time""
""fullscreenenter"",""0"",""1834""
","
","null","<p></p>","null","","","","","","","","","","","","","","","","","","","","","","",""
"","do_trial","244","1067990","0.0-132.0-0.0","""event"",""trial"",""time""
""fullscreenenter"",""0"",""1834""
","
","
","""event"",""trial"",""time""
""fullscreenenter"",""0"",""1834""
","
","null","","","","","","","","null","1,0,0","2","coast","73","probe-15","0.17166815430190646","0.7384798249251064","0.32748668471845305","","","","","","","","",""
"","html-keyboard-response","245","1069004","0.0-132.0-1.0","""event"",""trial"",""time""
""fullscreenenter"",""0"",""1834""
","
","
","""event"",""trial"",""time""
""fullscreenenter"",""0"",""1834""
","
","null","<p></p>","null","","","","","","","","","","","","","","","","","","","","","","",""
"","do_trial","246","1075083","0.0-133.0-0.0","""event"",""trial"",""time""
""fullscreenenter"",""0"",""1834""
","
","
","""event"",""trial"",""time""
""fullscreenenter"",""0"",""1834""
","
","null","","","","","","","","null","0,1,0","2","coast","74","probe-176","0.21488475091455173","0.7177720029467528","0.2021548027442112","","","","","","","","",""
"","html-keyboard-response","247","1076097","0.0-133.0-1.0","""event"",""trial"",""time""
""fullscreenenter"",""0"",""1834""
","
","
","""event"",""trial"",""time""
""fullscreenenter"",""0"",""1834""
","
","null","<p></p>","null","","","","","","","","","","","","","","","","","","","","","","",""
"","do_trial","248","1082165","0.0-134.0-0.0","""event"",""trial"",""time""
""fullscreenenter"",""0"",""1834""
","
","
","""event"",""trial"",""time""
""fullscreenenter"",""0"",""1834""
","
","null","","","","","","","","null","0,0,0","2","coast","75","probe-110","0.21545452632073153","0.7097971337125146","0.19019271512900793","","","","","","","","",""
"","html-keyboard-response","249","1083167","0.0-134.0-1.0","""event"",""trial"",""time""
""fullscreenenter"",""0"",""1834""
","
","
","""event"",""trial"",""time""
""fullscreenenter"",""0"",""1834""
","
","null","<p></p>","null","","","","","","","","","","","","","","","","","","","","","","",""
"","do_trial","250","1089255","0.0-135.0-0.0","""event"",""trial"",""time""
""fullscreenenter"",""0"",""1834""
","
","
","""event"",""trial"",""time""
""fullscreenenter"",""0"",""1834""
","
","null","","","","","","","","null","0,0,0","2","coast","76","probe-31","0.16578861098569864","0.6578095530476098","0.31199856562622863","","","","","","","","",""
"","html-keyboard-response","251","1090271","0.0-135.0-1.0","""event"",""trial"",""time""
""fullscreenenter"",""0"",""1834""
","
","
","""event"",""trial"",""time""
""fullscreenenter"",""0"",""1834""
","
","null","<p></p>","null","","","","","","","","","","","","","","","","","","","","","","",""
"","do_trial","252","1096332","0.0-136.0-0.0","""event"",""trial"",""time""
""fullscreenenter"",""0"",""1834""
","
","
","""event"",""trial"",""time""
""fullscreenenter"",""0"",""1834""
","
","null","","","","","","","","null","1,1,0","2","coast","77","probe-161","0.19181151887486933","0.46624681758052605","0.36754957879019934","","","","","","","","",""
"","html-keyboard-response","253","1097347","0.0-136.0-1.0","""event"",""trial"",""time""
""fullscreenenter"",""0"",""1834""
","
","
","""event"",""trial"",""time""
""fullscreenenter"",""0"",""1834""
","
","null","<p></p>","null","","","","","","","","","","","","","","","","","","","","","","",""
"","do_trial","254","1102371","0.0-137.0-0.0","""event"",""trial"",""time""
""fullscreenenter"",""0"",""1834""
","
","
","""event"",""trial"",""time""
""fullscreenenter"",""0"",""1834""
","
","453.9000000022352","","","","","","","","50","0,1,0","2","coast","78","probe-159","0.07635260556424915","0.5807966037722821","0.27412140235469784","1","","","","","","","",""
"","html-keyboard-response","255","1103384","0.0-137.0-1.0","""event"",""trial"",""time""
""fullscreenenter"",""0"",""1834""
","
","
","""event"",""trial"",""time""
""fullscreenenter"",""0"",""1834""
","
","null","<p></p>","null","","","","","","","","","","","","","","","","","","","","","","",""
"","do_trial","256","1110802","0.0-138.0-0.0","""event"",""trial"",""time""
""fullscreenenter"",""0"",""1834""
","
","
","""event"",""trial"",""time""
""fullscreenenter"",""0"",""1834""
","
","2851.60000000149","","","","","","","","51","0,0,0","2","coast","79","probe-78","0.05846505839945164","0.5868176060968309","0.06523885242850146","0","","","","","","","",""
"","html-keyboard-response","257","1111817","0.0-138.0-1.0","""event"",""trial"",""time""
""fullscreenenter"",""0"",""1834""
","
","
","""event"",""trial"",""time""
""fullscreenenter"",""0"",""1834""
","
","null","<p></p>","null","","","","","","","","","","","","","","","","","","","","","","",""
"","do_trial","258","1118200","0.0-139.0-0.0","""event"",""trial"",""time""
""fullscreenenter"",""0"",""1834""
","
","
","""event"",""trial"",""time""
""fullscreenenter"",""0"",""1834""
","
","1818","","","","","","","","49","0,1,0","2","coast","80","probe-17","0.06298231683015411","0.6109727664431018","0.05839709460051756","0","","","","","","","",""
"","html-keyboard-response","259","1119211","0.0-139.0-1.0","""event"",""trial"",""time""
""fullscreenenter"",""0"",""1834""
","
","
","""event"",""trial"",""time""
""fullscreenenter"",""0"",""1834""
","
","null","<p></p>","null","","","","","","","","","","","","","","","","","","","","","","",""
"","do_trial","260","1125299","0.0-140.0-0.0","""event"",""trial"",""time""
""fullscreenenter"",""0"",""1834""
","
","
","""event"",""trial"",""time""
""fullscreenenter"",""0"",""1834""
","
","null","","","","","","","","null","0,1,0","2","coast","81","probe-32","0.060175031389469245","0.5690970053225562","0.1782234207502825","","","","","","","","",""
"","html-keyboard-response","261","1126309","0.0-140.0-1.0","""event"",""trial"",""time""
""fullscreenenter"",""0"",""1834""
","
","
","""event"",""trial"",""time""
""fullscreenenter"",""0"",""1834""
","
","null","<p></p>","null","","","","","","","","","","","","","","","","","","","","","","",""
"","do_trial","262","1131169","0.0-141.0-0.0","""event"",""trial"",""time""
""fullscreenenter"",""0"",""1834""
","
","
