"success","trial_type","trial_index","time_elapsed","internal_node_id","rt","stimulus","key_press","subject_id","response","choice_outcomes","context_n","context_img_id","trial_n","probe_img_id","pR_red","pR_white","pR_black","outcome","contextArray_ind","validImageProbes","invalidImageProbes","pRew_Red","pRew_White","pRew_Black","availableForMemProbe","choice_blocks"
"true","fullscreen","0","3669","0.0-0.0","","","","","","","","","","","","","","","","","","","","","",""
"","pavlovia","1","3674","0.0-1.0","","","","","","","","","","","","","","","","","","","","","",""
"","html-keyboard-response","2","21710","0.0-2.0","18034","<div class='center'><p>Welcome! This is the first day of the experiment which will last ~30 minutes. In this experiment, you are the head captain of a pirate ship traveling around the world to different places. You will complete several different tasks during this experiment. Here is an overview of these tasks:</p><br><p>Day 1</p><p>1. Tutorial and quiz</p><p>2. Pick a pirate game in 6 different places</p><br><p>Day 2</p><p>3. Pick a pirate game and memory game</p><p>4. Final questions and payment</p><br><p>If you complete the entire experiment, you will receive $15 and a possible bonus payment.</p><p><b>[Press the space bar to begin the tutorial]</b></p></div>","32","6148c992c6bba7885c57750a","","","","","","","","","","","","","","","","","",""
"","html-keyboard-response","3","36536","0.0-3.0","14823.599999964237","<div class='center'><p>You are the head captain of a pirate ship.</p><p> Your pirates rob other ships as they leave the marketplace port.</p> These ships have just sold all their goods at the marketplace, so they have lots and lots of gold on them.</p><p><img src='run_exp/static/images/ship_center.png' height='400'></p><p><b>[Press the space bar to continue]</b></p></div>","32","","","","","","","","","","","","","","","","","","",""
"","html-keyboard-response","4","51311","0.0-4.0","14778.300000011921","<div class='center'><p>As the head captain, you do not have to rob any ships yourself.</p><p>You get to choose which pirate you want to rob the next ship. </p><p>If they are successful at robbing the ship, then you will get gold coins.</p><p> If they are not successful, then you will get no gold coins.</p><p> The more coins you collect, the more bonus money you will win. So, choose your pirate wisely.</p><p><img src='run_exp/static/images/goal.png' height='400'></p><p><b>[Press the space bar to continue]</b></p><div>","32","","","","","","","","","","","","","","","","","","",""
"","html-keyboard-response","5","67987","0.0-5.0","16674.399999976158","<div class='center'><p>Even the most skilled pirate will not be able to rob EVERY ship.</p><p> Some ships will have very strong defenses against attacks.</p><p> For example, blue beard, here,  is very good at robbing ships.</p><p> You can press the <b>‘1’</b> button on the keyboard to choose him.</p><p> Try choosing him 10 times to see how often he is successful at robbing ships. </p><p><img src='run_exp/static/images/blue.png' height='500'></p></div>","49","","","","","","","","","","","","","","","","","","",""
"","html-keyboard-response","6","69499","0.0-6.0","null","<br><br><br><br><p><img src='run_exp/static/images/blue_win.png' height='500'></p>","null","","","","","","","","","","","","","","","","","","",""
"","html-keyboard-response","7","71534","0.0-7.0","2033.6000000238419","<br><br><br><br><p><img src='run_exp/static/images/blue.png' height='500'></p>","49","","","","","","","","","","","","","","","","","","",""
"","html-keyboard-response","8","73052","0.0-8.0","null","<br><br><br><br><p><img src='run_exp/static/images/blue_win.png' height='500'></p>","null","","","","","","","","","","","","","","","","","","",""
"","html-keyboard-response","9","74006","0.0-9.0","952.6000000238419","<br><br><br><br><p><img src='run_exp/static/images/blue.png' height='500'></p>","49","","","","","","","","","","","","","","","","","","",""
"","html-keyboard-response","10","75514","0.0-10.0","null","<br><br><br><br><p><img src='run_exp/static/images/blue_win.png' height='500'></p>","null","","","","","","","","","","","","","","","","","","",""
"","html-keyboard-response","11","76238","0.0-11.0","721.9000000357628","<br><br><br><br><p><img src='run_exp/static/images/blue.png' height='500'></p>","49","","","","","","","","","","","","","","","","","","",""
"","html-keyboard-response","12","77755","0.0-12.0","null","<br><br><br><br><p><img src='run_exp/static/images/blue_no_win.png' height='500'></p>","null","","","","","","","","","","","","","","","","","","",""
"","html-keyboard-response","13","78575","0.0-13.0","819.1999999880791","<br><br><br><br><p><img src='run_exp/static/images/blue.png' height='500'></p>","49","","","","","","","","","","","","","","","","","","",""
"","html-keyboard-response","14","80077","0.0-14.0","null","<br><br><br><br><p><img src='run_exp/static/images/blue_win.png' height='500'></p>","null","","","","","","","","","","","","","","","","","","",""
"","html-keyboard-response","15","80659","0.0-15.0","580.5","<br><br><br><br><p><img src='run_exp/static/images/blue.png' height='500'></p>","49","","","","","","","","","","","","","","","","","","",""
"","html-keyboard-response","16","82167","0.0-16.0","null","<br><br><br><br><p><img src='run_exp/static/images/blue_win.png' height='500'></p>","null","","","","","","","","","","","","","","","","","","",""
"","html-keyboard-response","17","82559","0.0-17.0","390.5","<br><br><br><br><p><img src='run_exp/static/images/blue.png' height='500'></p>","49","","","","","","","","","","","","","","","","","","",""
"","html-keyboard-response","18","84074","0.0-18.0","null","<br><br><br><br><p><img src='run_exp/static/images/blue_win.png' height='500'></p>","null","","","","","","","","","","","","","","","","","","",""
"","html-keyboard-response","19","84443","0.0-19.0","368.2000000476837","<br><br><br><br><p><img src='run_exp/static/images/blue.png' height='500'></p>","49","","","","","","","","","","","","","","","","","","",""
"","html-keyboard-response","20","85945","0.0-20.0","null","<br><br><br><br><p><img src='run_exp/static/images/blue_no_win.png' height='500'></p>","null","","","","","","","","","","","","","","","","","","",""
"","html-keyboard-response","21","86437","0.0-21.0","490.30000001192093","<br><br><br><br><p><img src='run_exp/static/images/blue.png' height='500'></p>","49","","","","","","","","","","","","","","","","","","",""
"","html-keyboard-response","22","87953","0.0-22.0","null","<br><br><br><br><p><img src='run_exp/static/images/blue_win.png' height='500'></p>","null","","","","","","","","","","","","","","","","","","",""
"","html-keyboard-response","23","88261","0.0-23.0","306.60000002384186","<br><br><br><br><p><img src='run_exp/static/images/blue.png' height='500'></p>","49","","","","","","","","","","","","","","","","","","",""
"","html-keyboard-response","24","89779","0.0-24.0","null","<br><br><br><br><p><img src='run_exp/static/images/blue_win.png' height='500'></p>","null","","","","","","","","","","","","","","","","","","",""
"","html-keyboard-response","25","92537","0.0-25.0","2757.600000023842","<div class='center'><p> See, he was successful at robbing the ships most of the time but not every time. </p><p><b>[Press the space bar to continue]</b></p></div>","32","","","","","","","","","","","","","","","","","","",""
"","html-keyboard-response","26","101308","0.0-26.0","8767.600000023842","<div class='center'><p>In the game, you will get to choose which of three pirates you want to rob the next ship. <p>Press the <b>‘1’</b> button on your keyboard to pick the pirate with the red beard.</p><p> Press <b>‘2’</b> to pick the pirate with the white beard.</p><p> Press <b>‘3’</b> to pick the pirate with the black beard.</p><p>Try picking a pirate now!</p><p><img src='run_exp/static/images/all_pirates.png' height='500'></p></div>","51","","","","","","","","","","","","","","","","","","",""
"","html-keyboard-response","27","105090","0.0-27.0-0.0","3779.5","<div class='center'><p>This pirate was successful at robbing the ship!</p><p><img src='run_exp/static/images/black_win.png' height='500'></p><p><b>[Press the space bar to continue]</b></p></div>","32","","","","","","","","","","","","","","","","","","",""
"","html-keyboard-response","28","106786","0.0-27.0-1.0","1695.8999999761581","<div class='center'><p>Now try choosing another</p><p><img src='run_exp/static/images/all_pirates.png' height='500'></p></div>","50","","","","","","","","","","","","","","","","","","",""
"","html-keyboard-response","29","108079","0.0-28.0-0.0","1291.4000000357628","<div class='center'><p>This pirate was not successful at robbing the ship!</p><p><img src='run_exp/static/images/white_no_win.png' height='500'></p><p><b>[Press the space bar to continue]</b></p></div>","32","","","","","","","","","","","","","","","","","","",""
"","html-keyboard-response","30","120357","0.0-29.0-0.0","12271.899999976158","<div class='center'><p>You’ll stop at these 6 places on your journey.</p><p><img src='run_exp/static/images/all_contexts.png' height='500'></p><p><b>[Press the space bar to continue]</b></p></div>","32","","","","","","","","","","","","","","","","","","",""
"","html-keyboard-response","31","125967","0.0-29.0-1.0","5609.699999988079","<div class='center'><p>How good a pirate is at robbing ships will depend on the current place.</p><p> Some pirates will have been to the place before, and will have more experience robbing ships there.</p><p>So, they will be more successful at stealing gold and bringing it back to you.</p><p><b>[Press the space bar to continue]</b></p></div>","32","","","","","","","","","","","","","","","","","","",""
"","html-keyboard-response","32","138559","0.0-29.0-2.0","12590.900000035763","<div class='center'><p>How successful a pirate is at robbing ships can also change in a place.<p> Ships may hear about the pirates coming and will improve their defenses. This may make it more difficult to rob them.</p><p> Ships may also grow lazy and lower their defenses. This may make it easier to rob them.</p><br><p>Things are always changing on the high seas! So, try your best to pay attention!</p><p><img src='run_exp/static/images/contingency.png' height='500'></p><p><b>[Press the space bar to continue]</b></p></div>","32","","","","","","","","","","","","","","","","","","",""
"","html-keyboard-response","33","198673","0.0-29.0-3.0","60112.60000002384","<div class='center'><p>Once you choose a pirate to rob a ship, you’ll be shown the ship they are robbing.</p><p>The ship will have a picture of the item they sold at the marketplace.</p><p> Try your best to remember the ship and where you saw the ship.</p><p> You’ll have to remember this for later, and remembering this correctly will help you win more bonus money!</p><p>You can remember the ship by remembering the item they sold at the marketplace</p><p>A helpful strategy is to try to come up with a story of the chosen pirate and ship’s item interacting with the scene.</p><p> For example, a ship might have sold travel mugs and you could imagine red beard walking through the city with a travel mug. </p><p>Or imagine an apple falling from a tree into white beard's hands in the forest.</p><p><img src='run_exp/static/images/example_probe.png' height='500'></p><p><b>[Press the space bar to continue]</b></p></div>","32","","","","","","","","","","","","","","","","","","",""
"","html-keyboard-response","34","205412","0.0-29.0-4.0","6737.400000035763","<div class='center'><p>If you don’t make your choice fast enough, you’ll have to wait a few seconds before you can make another one. </p><p>You can’t win more gold. You just have to sit and wait.</p><p><img src='run_exp/static/images/hurry_up.png' height='500'></p><p><b>[Press the space bar to continue]</b></p></div>","32","","","","","","","","","","","","","","","","","","",""
"","html-keyboard-response","35","251371","0.0-29.0-5.0","45958.10000002384","<div class='center'><p>Again, you have two important things to do: </p><b><p> 1. Pick the pirate who you think will be most successful at robbing the next ship.</p></b><b><p> 2. Remember where a pirate robbed a ship.</p> </b><p>Both are important in determining how much bonus money you’ll win.</p><br><p>Let’s try a practice game. The game will start by showing you the pirates. First pick a pirate using the <b> 1, 2, 3 </b> buttons on your keyboard. When you are shown a ship, try to remember the place you’re in by making up a story.</p><p> You only have 3 seconds to pick a pirate, so please make a choice quickly! If you are too slow, you’ll have to wait a bit during the time out.</p><p> Don’t feel rushed, but please do try to make a choice every time.</p><p>How good a pirate is at robbing a ship will change depending on the place they are in and how good the defenses are of the ship.</p> <p>This is just a practice game, so you’re not playing for money. </p><p>You’ll receive a bag which may or may not contain gold coins.</p><p> In the real game, though, you’ll be able to see whether or not you received the gold coins.</p><p> Good luck, remember press <b>'1'</b> to choose red beard, <b>'2'</b> to choose white beard, and <b>'3'</b> to choose black beard</p><p><b>[Press the space bar to begin the practice game]</b></p></div>","32","","","","","","","","","","","","","","","","","","",""
"","do_trial_prac","36","257320","0.0-29.0-6.0","1435.9000000357628","","","","49","","","","","","","","","","","","","","","","",""
"","do_trial_prac","37","263407","0.0-29.0-7.0","1581","","","","50","","","","","","","","","","","","","","","","",""
"","do_trial_prac","38","269276","0.0-29.0-8.0","1351.699999988079","","","","51","","","","","","","","","","","","","","","","",""
"","do_trial_prac","39","275443","0.0-29.0-9.0","1654.2999999523163","","","","51","","","","","","","","","","","","","","","","",""
"","do_trial_prac","40","280644","0.0-29.0-10.0","686.6000000238419","","","","49","","","","","","","","","","","","","","","","",""
"","html-keyboard-response","41","286216","0.0-29.0-11.0","5571.400000035763","<div class='center'><p>Great job on the practice game!</p><p> Now, you will be asked you some true or false questions to make sure you really understand the rules of the game.</p><p> Press <b>'1'</b> on the keyboard for true and press <b>'2'</b> for false.</p><p><b>[Press the space bar to begin the quiz]</b></p></div>","32","","","","","","","","","","","","","","","","","","",""
"","html-keyboard-response","42","289201","0.0-29.0-12.0","2984.099999964237","<div class='center'><p>You win bonus money by making choices as fast as possible.</p><p>Press 1 for true and press  2 for false.</p></div>","50","","","","","","","","","","","","","","","","","","",""
"","html-keyboard-response","43","290488","0.0-30.0-0.0","1284.699999988079","<br><br><br><br><p>That's correct!</p> <p><b>[press the space bar to continue with the quiz]</b></p>","32","","","","","","","","","","","","","","","","","","",""
"","html-keyboard-response","44","297653","0.0-30.0-1.0","7164.599999964237","<div class='center'><p>You press the <b>‘3’</b> button on the keyboard to choose the red bearded pirate? </p><p>Press 1 for true and press  2 for false.</p></div>","50","","","","","","","","","","","","","","","","","","",""
"","html-keyboard-response","45","298918","0.0-31.0-0.0","1264.199999988079","<br><br><br><br><p>That's correct!</p> <p><b>[press the space bar to continue with the quiz]</b></p>","32","","","","","","","","","","","","","","","","","","",""
"","html-keyboard-response","46","302471","0.0-31.0-1.0","3552.600000023842","<div class='center'><p>A pirate will always be equally successful at robbing ships in each place</p><p>Press 1 for true and press  2 for false.</p></div>","50","","","","","","","","","","","","","","","","","","",""
"","html-keyboard-response","47","303114","0.0-32.0-0.0","641.5","<br><br><br><br><p>That's correct!</p> <p><b>[press the space bar to continue with the quiz]</b></p>","32","","","","","","","","","","","","","","","","","","",""
"","html-keyboard-response","48","305623","0.0-32.0-1.0","2507.900000035763","<div class='center'><p>You should remember the place where a pirate robbed a ship.</p><p>Press 1 for true and press  2 for false.</p></div>","49","","","","","","","","","","","","","","","","","","",""
"","html-keyboard-response","49","306921","0.0-33.0-0.0","1279.5999999642372","<br><br><br><br><p>That's correct!</p> <p><b>[press the space bar to continue with the quiz]</b></p>","32","","","","","","","","","","","","","","","","","","",""
"","html-keyboard-response","50","311666","0.0-34.0-0.0","4743.5","<br><br><br><br><p>Good job! You’re now ready to move on to the real game!</p> <p><br>[press the space bar to begin!]</br></p>","32","","","","","","","","","","","","","","","","","","",""
"","do_welcome","51","313184","0.0-35.0-0.0","null","","","","null","","","","","","","","","","","","","","","","",""
"","do_trial","52","320006","0.0-36.0-0.0","2279.300000011921","","","","50","1,0,0","0","countryside","0","probe-116","1","0.4","0.1","0","","","","","","","",""
"","do_trial","53","326267","0.0-37.0-0.0","1709.0999999642372","","","","49","1,0,1","0","countryside","1","probe-61","1","0.41244781000791264","0.13086058587520513","1","","","","","","","",""
"","do_trial","54","332832","0.0-38.0-0.0","2007.699999988079","","","","51","1,0,0","0","countryside","2","probe-176","1","0.38520931837645755","0.11173679033641826","0","","","","","","","",""
"","do_trial","55","339204","0.0-39.0-0.0","1803","","","","49","1,1,1","0","countryside","3","probe-206","1","0.4649965183264333","0.2568442861415292","1","","","","","","","",""
"","do_trial","56","344969","0.0-40.0-0.0","1217.7999999523163","","","","49","1,0,1","0","countryside","4","probe-230","0.851392067651703","0.5143682140270974","0.20952677060739608","1","","","","","","","",""
"","do_trial","57","351855","0.0-41.0-0.0","2335.300000011921","","","","49","1,0,0","0","countryside","5","probe-51","0.9489244368304119","0.678909577989061","0.12854391108773613","1","","","","","","","",""
"","do_trial","58","358073","0.0-42.0-0.0","1661.199999988079","","","","49","1,1,0","0","countryside","6","probe-216","0.9025721598641487","0.5592001184290871","0.06020461569806421","1","","","","","","","",""
"","do_trial","59","364197","0.0-43.0-0.0","1577.9000000357628","","","","49","0,1,0","0","countryside","7","probe-197","0.8399683229113957","0.598795448392435","0.1960390623322559","0","","","","","","","",""
"","do_trial","60","369436","0.0-44.0-0.0","677.6999999880791","","","","49","1,1,1","0","countryside","8","probe-223","0.7817702755241409","0.5041718035898469","0.2532544171521612","1","","","","","","","",""
"","do_trial","61","374578","0.0-45.0-0.0","584.4000000357628","","","","49","1,0,1","0","countryside","9","probe-29","0.9431996339300647","0.5215190793410459","0.35700485769571316","1","","","","","","","",""
"","do_trial","62","379931","0.0-46.0-0.0","805.5","","","","49","0,0,0","0","countryside","10","probe-19","0.6187135347782554","0.6534687827681446","0.16693128784819292","0","","","","","","","",""
"","do_trial","63","385368","0.0-47.0-0.0","882.7999999523163","","","","49","0,1,0","0","countryside","11","probe-127","0.6132219387346064","0.8789508651561119","0.05913353616238238","0","","","","","","","",""
"","do_trial","64","390380","0.0-48.0-0.0","460","","","","49","0,1,0","0","countryside","12","probe-86","0.6193300761294854","0.759549009382552","0.11640511362429273","0","","","","","","","",""
"","do_trial","65","395332","0.0-49.0-0.0","397.30000001192093","","","","51","1,1,0","0","countryside","13","probe-89","0.5598384519812791","0.7967211694868369","0.16213659902607","0","","","","","","","",""
"","do_trial","66","400654","0.0-50.0-0.0","769.3000000119209","","","","51","1,1,0","0","countryside","14","probe-213","0.45511813916042687","0.827708419179029","0.050306664200921766","0","","","","","","","",""
"","do_trial","67","405458","0.0-51.0-0.0","248.79999995231628","","","","50","0,1,0","0","countryside","15","probe-107","0.44728672199953873","0.8675777064493706","0.052315489083682526","1","","","","","","","",""
"","do_trial","68","410943","0.0-52.0-0.0","926.3999999761581","","","","50","1,1,0","0","countryside","16","probe-165","0.29015924289701994","0.9482230814391633","0.08360904112358922","1","","","","","","","",""
"","do_trial","69","415793","0.0-53.0-0.0","284.2000000476837","","","","50","0,1,1","0","countryside","17","probe-186","0.4110207970655799","0.8759202491935291","0.1481748088485483","1","","","","","","","",""
"","do_trial","70","421047","0.0-54.0-0.0","700","","","","50","0,1,1","0","countryside","18","probe-26","0.3375854990607065","0.8954065401795812","0.12055193504136584","1","","","","","","","",""
"","do_trial","71","426119","0.0-55.0-0.0","528","","","","50","0,1,1","0","countryside","19","probe-169","0.4162288363386454","0.8032177495688992","0.3095233841015944","1","","","","","","","",""
"","do_trial","72","430939","0.0-56.0-0.0","265.9000000357628","","","","50","1,1,0","0","countryside","20","probe-151","0.508558090723925","0.7783876413256401","0.1815674680708072","1","","","","","","","",""
"","do_trial","73","435966","0.0-57.0-0.0","477.60000002384186","","","","50","0,1,0","0","countryside","21","probe-02","0.375412777731262","0.9483692104240291","0.16686478954186673","1","","","","","","","",""
"","do_trial","74","441443","0.0-58.0-0.0","918.4000000357628","","","","50","0,1,1","0","countryside","22","probe-214","0.39063481178123255","0.9371459843081756","0.21546723649525373","1","","","","","","","",""
"","do_trial","75","446263","0.0-59.0-0.0","263.2000000476837","","","","50","0,1,0","0","countryside","23","probe-70","0.3918236544665068","0.9261835933450123","0.09825494103940922","1","","","","","","","",""
"","do_trial","76","451081","0.0-60.0-0.0","264.30000001192093","","","","50","0,1,0","0","countryside","24","probe-106","0.3476099230583901","0.94861030825256","0.07482228298537756","1","","","","","","","",""
"","do_trial","77","456414","0.0-61.0-0.0","791.2999999523163","","","","50","1,1,0","0","countryside","25","probe-23","0.2803496990779938","0.7422201720073369","0.05677576070470343","1","","","","","","","",""
"","do_trial","78","462439","0.0-62.0-0.0","1459.199999988079","","","","49","0,1,0","0","countryside","26","probe-01","0.374591279497215","0.792678273847721","0.08934961878911445","0","","","","","","","",""
"","do_trial","79","467303","0.0-63.0-0.0","309.9000000357628","","","","50","0,1,0","0","countryside","27","probe-55","0.49313842456815277","0.7786145334684119","0.18350814832775916","1","","","","","","","",""
"","do_trial","80","472281","0.0-64.0-0.0","411.60000002384186","","","","50","1,1,0","0","countryside","28","probe-198","0.5528978219497458","0.7946954096484196","0.09335227355532386","1","","","","","","","",""
"","do_trial","81","477102","0.0-65.0-0.0","264.5","","","","50","1,1,0","0","countryside","29","probe-226","0.6570755657609498","0.7709802898096971","0.09900709654103179","1","","","","","","","",""
"","do_trial","82","482136","0.0-66.0-0.0","479","","","","50","1,1,0","0","countryside","30","probe-100","0.5520848791124232","0.7817960797644754","0.06007829691521227","1","","","","","","","",""
"","do_trial","83","487578","0.0-67.0-0.0","890.8999999761581","","","","50","0,0,0","0","countryside","31","probe-204","0.5309811962740227","0.5571700475647252","0.052220943376380564","0","","","","","","","",""
"","do_trial","84","492399","0.0-68.0-0.0","259.30000001192093","","","","50","1,1,0","0","countryside","32","probe-85","0.343636832010382","0.8229826558857006","0.05708363198908879","1","","","","","","","",""
"","do_trial","85","497418","0.0-69.0-0.0","455.4000000357628","","","","50","0,1,0","0","countryside","33","probe-168","0.31570017002799494","0.8342199157876787","0.143471180401383","1","","","","","","","",""
"","do_trial","86","502216","0.0-70.0-0.0","235.80000001192093","","","","50","0,1,0","0","countryside","34","probe-137","0.3063303517476445","0.8825265344380021","0.12040760700599049","1","","","","","","","",""
"","do_trial","87","507090","0.0-71.0-0.0","317.2999999523163","","","","50","1,1,0","0","countryside","35","probe-75","0.36505603535033937","0.7242015976222976","0.07649638340532444","1","","","","","","","",""
"","do_trial","88","512563","0.0-72.0-0.0","910.3999999761581","","","","50","1,1,0","0","countryside","36","probe-15","0.6017005509012987","0.7375160121669875","0.1038868799446881","1","","","","","","","",""
"","do_trial","89","518828","0.0-73.0-0.0","1710.4000000357628","","","","50","0,1,0","0","countryside","37","probe-234","0.4916453015838729","0.8433401548219697","0.08999880140072826","1","","","","","","","",""
"","do_trial","90","524058","0.0-74.0-0.0","675.4000000357628","","","","50","0,1,0","0","countryside","38","probe-113","0.46386185854391604","0.9477713037294536","0.1838210560484607","1","","","","","","","",""
"","do_trial","91","528878","0.0-75.0-0.0","265.39999997615814","","","","50","0,1,1","0","countryside","39","probe-125","0.4105653009833077","0.8894307362006312","0.1663861542165655","1","","","","","","","",""
"","do_bye","92","530406","0.0-76.0-0.0","null","","","","null","","","","","","","","","","","","","","","","",""
"","do_travel","93","536412","0.0-77.0-0.0","null","","","","null","","","","","","","","","","","","","","","","",""
"","do_welcome","94","537931","0.0-77.0-1.0","null","","","","null","","","","","","","","","","","","","","","","",""
"","do_trial","95","544657","0.0-78.0-0.0","2166.100000023842","","","","49","1,1,0","1","forest","40","probe-133","0.39855894906133765","1","0.14369162345509445","1","","","","","","","",""
"","do_trial","96","549869","0.0-79.0-0.0","647.3999999761581","","","","49","0,1,0","1","forest","41","probe-149","0.40141708488024636","1","0.16111683983683783","0","","","","","","","",""
"","do_trial","97","554786","0.0-80.0-0.0","368.69999998807907","","","","49","0,1,1","1","forest","42","probe-132","0.4622412725334902","1","0.14172739469273105","0","","","","","","","",""
"","do_trial","98","559576","0.0-81.0-0.0","247","","","","50","1,1,1","1","forest","43","probe-69","0.5833846460683949","1","0.06043460635394135","1","","","","","","","",""
"","do_trial","99","564393","0.0-82.0-0.0","265.5","","","","50","1,0,0","1","forest","44","probe-67","0.578879732463245","0.861280748033766","0.09680842539287277","0","","","","","","","",""
"","do_trial","100","569172","0.0-83.0-0.0","227.10000002384186","","","","50","1,1,0","1","forest","45","probe-09","0.4765452261878615","0.9037070094088856","0.10458051870543551","1","","","","","","","",""
"","do_trial","101","573961","0.0-84.0-0.0","241.5","","","","50","0,1,0","1","forest","46","probe-06","0.5764953548035102","0.8415287867807376","0.0727508853609524","1","","","","","","","",""
"","do_trial","102","578882","0.0-85.0-0.0","365.80000001192093","","","","50","1,0,0","1","forest","47","probe-04","0.45404933283439747","0.9228970412517633","0.16720833526054052","0","","","","","","","",""
"","do_trial","103","583837","0.0-86.0-0.0","403.10000002384186","","","","50","0,1,0","1","forest","48","probe-71","0.4872550128971043","0.9480227502637597","0.2844960862540765","1","","","","","","","",""
"","do_trial","104","589026","0.0-87.0-0.0","636.8000000119209","","","","50","0,1,0","1","forest","49","probe-16","0.43530073216144066","0.9380974161353802","0.188045600965868","1","","","","","","","",""
"","do_trial","105","593863","0.0-88.0-0.0","286.2000000476837","","","","50","1,0,0","1","forest","50","probe-38","0.39530998020577574","0.5642310037389574","0.5541349532253524","0","","","","","","","",""
"","do_trial","106","598902","0.0-89.0-0.0","475","","","","51","0,0,0","1","forest","51","probe-118","0.34127708859309125","0.3997211542509209","0.7276828119158623","0","","","","","","","",""
"","do_trial","107","603624","0.0-90.0-0.0","169.80000001192093","","","","50","0,0,1","1","forest","52","probe-156","0.34541034393367837","0.19915245999757594","0.815596023319673","0","","","","","","","",""
"","do_trial","108","608457","0.0-91.0-0.0","266.4000000357628","","","","50","0,0,1","1","forest","53","probe-232","0.3654871565652292","0.17322179604628887","0.9202561313130571","0","","","","","","","",""
"","do_trial","109","613525","0.0-92.0-0.0","491.10000002384186","","","","50","0,0,1","1","forest","54","probe-96","0.3616468711294893","0.1602461516514275","0.7694789827138697","0","","","","","","","",""
"","do_trial","110","618352","0.0-93.0-0.0","275.5","","","","51","1,0,1","1","forest","55","probe-120","0.3101695390498639","0.10060962467595187","0.7738494742718725","1","","","","","","","",""
"","do_trial","111","623181","0.0-94.0-0.0","278.30000001192093","","","","51","0,0,1","1","forest","56","probe-152","0.4751167955074861","0.08156964484002473","0.7438725721202951","1","","","","","","","",""
"","do_trial","112","628014","0.0-95.0-0.0","277.80000001192093","","","","51","1,0,1","1","forest","57","probe-37","0.4218947082603792","0.07594363944221703","0.8228820270427033","1","","","","","","","",""
"","do_trial","113","632882","0.0-96.0-0.0","309.30000001192093","","","","51","0,0,1","1","forest","58","probe-112","0.30732894773343145","0.10478422666473047","0.804547256036207","1","","","","","","","",""
"","do_trial","114","637706","0.0-97.0-0.0","265.39999997615814","","","","51","1,0,1","1","forest","59","probe-25","0.3503591820149876","0.06630228257339942","0.9480945727450276","1","","","","","","","",""
"","do_trial","115","642520","0.0-98.0-0.0","254.69999998807907","","","","51","0,0,1","1","forest","60","probe-50","0.40611075480734116","0.06020162750394767","0.8463697676658031","1","","","","","","","",""
"","do_trial","116","647375","0.0-99.0-0.0","304.30000001192093","","","","51","0,0,1","1","forest","61","probe-126","0.25454441485271384","0.16255853728186404","0.9083718074424662","1","","","","","","","",""
"","do_trial","117","651989","0.0-100.0-0.0","65.20000004768372","","","","51","0,0,1","1","forest","62","probe-54","0.23497679760853793","0.06381889842845864","0.8553143532264674","1","","","","","","","",""
"","do_trial","118","656964","0.0-101.0-0.0","425.60000002384186","","","","51","0,0,1","1","forest","63","probe-35","0.2781683719081602","0.06698707185779268","0.8161088406479459","1","","","","","","","",""
"","do_trial","119","662122","0.0-102.0-0.0","602.6999999880791","","","","51","1,0,1","1","forest","64","probe-225","0.38859982615706196","0.1086676979484103","0.7362222474312088","1","","","","","","","",""
"","do_trial","120","667010","0.0-103.0-0.0","330","","","","51","0,0,0","1","forest","65","probe-62","0.4214677842720469","0.15683235414518595","0.7593848053979572","0","","","","","","","",""
"","do_trial","121","671839","0.0-104.0-0.0","272.89999997615814","","","","51","0,0,0","1","forest","66","probe-80","0.18258230193716535","0.15034011023762583","0.6285323013765259","0","","","","","","","",""
"","do_trial","122","676713","0.0-105.0-0.0","310.80000001192093","","","","49","0,0,1","1","forest","67","probe-238","0.20448739057273538","0.2036864261084024","0.7015903694421782","0","","","","","","","",""
"","do_trial","123","681619","0.0-106.0-0.0","349","","","","50","1,1,1","1","forest","68","probe-39","0.34245540532759","0.1080975140361252","0.666108717873078","1","","","","","","","",""
"","do_trial","124","686440","0.0-107.0-0.0","271.89999997615814","","","","50","0,0,0","1","forest","69","probe-07","0.2906194933762124","0.07481068585527714","0.5999225809014364","0","","","","","","","",""
"","do_trial","125","691418","0.0-108.0-0.0","422.89999997615814","","","","49","1,0,1","1","forest","70","probe-57","0.3640912205612105","0.09548127185008638","0.6877911686147513","1","","","","","","","",""
"","do_trial","126","696366","0.0-109.0-0.0","402.7000000476837","","","","50","0,0,1","1","forest","71","probe-172","0.34376237598747117","0.07365184436775982","0.7666279955838363","0","","","","","","","",""
"","do_trial","127","701204","0.0-110.0-0.0","289.5","","","","51","0,1,1","1","forest","72","probe-138","0.33051987041324443","0.10773858777223566","0.8272128477547075","1","","","","","","","",""
"","do_trial","128","706007","0.0-111.0-0.0","254.60000002384186","","","","51","1,0,1","1","forest","73","probe-10","0.41991313391050106","0.12718913508267307","0.8161624225785516","1","","","","","","","",""
"","do_trial","129","710835","0.0-112.0-0.0","263.89999997615814","","","","51","0,0,1","1","forest","74","probe-76","0.34799026248000675","0.08109360265600556","0.7218836360140242","1","","","","","","","",""
"","do_trial","130","715655","0.0-113.0-0.0","263.5","","","","51","1,0,1","1","forest","75","probe-142","0.3225607749579348","0.1858253118107397","0.7964335463838704","1","","","","","","","",""
"","do_trial","131","720664","0.0-114.0-0.0","450.9000000357628","","","","51","0,0,1","1","forest","76","probe-209","0.3410002465278074","0.2107213262799086","0.8786113299259896","1","","","","","","","",""
"","do_trial","132","725516","0.0-115.0-0.0","294.89999997615814","","","","51","1,0,1","1","forest","77","probe-181","0.41440055550114385","0.18552336832271768","0.9406408688091898","1","","","","","","","",""
"","do_trial","133","730542","0.0-116.0-0.0","483.80000001192093","","","","51","1,0,1","1","forest","78","probe-154","0.39069964901923726","0.17343272787027122","0.8638558729348017","1","","","","","","","",""
"","do_trial","134","735364","0.0-117.0-0.0","267.5","","","","51","1,0,1","1","forest","79","probe-78","0.30990481326320646","0.056585272668320905","0.9075977242791361","1","","","","","","","",""
"","do_bye","135","736871","0.0-118.0-0.0","null","","","","null","","","","","","","","","","","","","","","","",""
"","do_travel","136","742876","0.0-119.0-0.0","null","","","","null","","","","","","","","","","","","","","","","",""
"","do_welcome","137","744382","0.0-119.0-1.0","null","","","","null","","","","","","","","","","","","","","","","",""
"","do_trial","138","751505","0.0-120.0-0.0","2572.599999964237","","","","50","0,0,1","2","coast","80","probe-46","0.45217583040418374","0.1442456454425835","1","0","","","","","","","",""
"","do_trial","139","756340","0.0-121.0-0.0","281.60000002384186","","","","50","1,0,1","2","coast","81","probe-195","0.48330077157468965","0.23169620198132224","1","0","","","","","","","",""
"","do_trial","140","761145","0.0-122.0-0.0","253.60000002384186","","","","49","1,0,1","2","coast","82","probe-173","0.5850741779041831","0.0865467899710137","1","1","","","","","","","",""
"","do_trial","141","765986","0.0-123.0-0.0","277.39999997615814","","","","49","0,0,1","2","coast","83","probe-150","0.4397270768070371","0.17534111068014419","1","0","","","","","","","",""
"","do_trial","142","770665","0.0-124.0-0.0","131.30000001192093","","","","49","0,0,0","2","coast","84","probe-98","0.47438291905526825","0.09922583175551372","0.855304649971866","0","","","","","","","",""
"","do_trial","143","775472","0.0-125.0-0.0","258.9000000357628","","","","51","0,0,0","2","coast","85","probe-220","0.4309064440354705","0.07397806122926802","0.8618303681616886","0","","","","","","","",""
"","do_trial","144","780281","0.0-126.0-0.0","248.10000002384186","","","","51","0,0,1","2","coast","86","probe-30","0.2622191861007773","0.08858551244336742","0.8036413794791801","1","","","","","","","",""
"","do_trial","145","785090","0.0-127.0-0.0","254.60000002384186","","","","51","1,0,1","2","coast","87","probe-121","0.4306850747834944","0.18622037222420573","0.8311764015038413","1","","","","","","","",""
"","do_trial","146","789906","0.0-128.0-0.0","263.5","","","","51","0,0,1","2","coast","88","probe-64","0.3659645429077022","0.061404798195963936","0.7659986537006327","1","","","","","","","",""
"","do_trial","147","794767","0.0-129.0-0.0","307.9000000357628","","","","51","1,0,1","2","coast","89","probe-201","0.37814120523342426","0.0940667726635126","0.6823556636918859","1","","","","","","","",""
"","do_trial","148","799564","0.0-130.0-0.0","250.79999995231628","","","","51","0,0,0","2","coast","90","probe-44","0.473678717839049","0.15636597490349155","0.49929505671491314","0","","","","","","","",""
"","do_trial","149","804107","0.0-131.0-0.0","0","","","","51","1,0,0","2","coast","91","probe-153","0.6217310755378257","0.09262009374046183","0.4096133138631948","0","","","","","","","",""
"","do_trial","150","809014","0.0-132.0-0.0","355.69999998807907","","","","51","0,0,1","2","coast","92","probe-05","0.8031792128617309","0.06747797459156445","0.4983850150064997","1","","","","","","","",""
"","do_trial","151","813835","0.0-133.0-0.0","272.5999999642372","","","","51","1,0,1","2","coast","93","probe-52","0.6965129019301565","0.09374217330078204","0.564597760048154","1","","","","","","","",""
"","do_trial","152","818687","0.0-134.0-0.0","299.30000001192093","","","","51","1,0,0","2","coast","94","probe-82","0.7386239629116628","0.05078036080490315","0.505983036294657","0","","","","","","","",""
"","do_trial","153","823512","0.0-135.0-0.0","279.7000000476837","","","","51","1,0,1","2","coast","95","probe-159","0.760256286388429","0.13584075411639568","0.4173439764716983","1","","","","","","","",""
"","do_trial","154","828153","0.0-136.0-0.0","96.80000001192093","","","","51","1,0,1","2","coast","96","probe-102","0.7138940542492902","0.18358081724993455","0.47842751855311305","1","","","","","","","",""
"","do_trial","155","832835","0.0-137.0-0.0","131.30000001192093","","","","51","1,0,1","2","coast","97","probe-129","0.730540028723407","0.20075136961164525","0.5432898892164789","1","","","","","","","",""
"","do_trial","156","837559","0.0-138.0-0.0","159.70000004768372","","","","51","1,0,0","2","coast","98","probe-160","0.7426659730979022","0.06276762078983497","0.44167781412795765","0","","","","","","","",""
"","do_trial","157","842399","0.0-139.0-0.0","286.39999997615814","","","","51","1,0,0","2","coast","99","probe-32","0.879789628706345","0.11627866787172474","0.3852780477366464","0","","","","","","","",""
"","do_trial","158","846966","0.0-140.0-0.0","15.800000011920929","","","","51","1,0,0","2","coast","100","probe-12","0.7971778753441625","0.05831374270498781","0.2181391379520692","0","","","","","","","",""
"","do_trial","159","851742","0.0-141.0-0.0","222.4000000357628","","","","50","1,0,0","2","coast","101","probe-208","0.8704620881817544","0.07317249508224259","0.4043218663525751","0","","","","","","","",""
"","do_trial","160","856548","0.0-142.0-0.0","243","","","","49","1,0,0","2","coast","102","probe-192","0.9103696109907871","0.05841749227916781","0.4011338581402374","1","","","","","","","",""
"","do_trial","161","861374","0.0-143.0-0.0","264.4000000357628","","","","49","1,0,0","2","coast","103","probe-101","0.9173950698200724","0.06259671852145235","0.4551887728595718","1","","","","","","","",""
"","do_trial","162","866272","0.0-144.0-0.0","338.89999997615814","","","","49","1,1,1","2","coast","104","probe-240","0.8727094189109821","0.12855936257395706","0.41858186886724374","1","","","","","","","",""
"","do_trial","163","871089","0.0-145.0-0.0","251.69999998807907","","","","49","1,0,0","2","coast","105","probe-187","0.9437099369047977","0.10883822712833024","0.3933194075075146","1","","","","","","","",""
"","do_trial","164","875889","0.0-146.0-0.0","249.5","","","","49","1,0,1","2","coast","106","probe-53","0.8517524420248046","0.0643902095664071","0.3964787131480105","1","","","","","","","",""
"","do_trial","165","880833","0.0-147.0-0.0","386","","","","49","1,0,0","2","coast","107","probe-146","0.7265490697806694","0.0994396026735892","0.46368559647428415","1","","","","","","","",""
"","do_trial","166","885499","0.0-148.0-0.0","96.39999997615814","","","","49","1,0,1","2","coast","108","probe-105","0.7111735828968542","0.21163301254109543","0.43551246181069564","1","","","","","","","",""
"","do_trial","167","890344","0.0-149.0-0.0","287.19999998807907","","","","49","1,0,0","2","coast","109","probe-143","0.8103484712561033","0.22032389854660314","0.3278000846169537","1","","","","","","","",""
"","do_trial","168","895198","0.0-150.0-0.0","311.10000002384186","","","","49","1,0,1","2","coast","110","probe-99","0.8850275902831832","0.29397066223194074","0.5238664987720197","1","","","","","","","",""
"","do_trial","169","900065","0.0-151.0-0.0","312.2000000476837","","","","49","1,0,1","2","coast","111","probe-24","0.8664459409695208","0.2501139328702246","0.5437332334898909","1","","","","","","","",""
"","do_trial","170","904931","0.0-152.0-0.0","319","","","","49","1,1,1","2","coast","112","probe-164","0.8764750454702503","0.270494425640761","0.530937146689375","1","","","","","","","",""
"","do_trial","171","909768","0.0-153.0-0.0","293.19999998807907","","","","49","1,0,1","2","coast","113","probe-183","0.8972093991934845","0.1507182384690204","0.6227855126860942","1","","","","","","","",""
"","do_trial","172","914564","0.0-154.0-0.0","228.5999999642372","","","","49","1,1,1","2","coast","114","probe-196","0.890591552363437","0.12828651424804505","0.46579997393961536","1","","","","","","","",""
"","do_trial","173","919212","0.0-155.0-0.0","92.69999998807907","","","","49","1,0,1","2","coast","115","probe-185","0.9233937420927955","0.2041276214296994","0.449137144032142","1","","","","","","","",""
"","do_trial","174","924072","0.0-156.0-0.0","311.5","","","","49","1,0,0","2","coast","116","probe-74","0.8740429323000549","0.17969515133971853","0.5517167876900474","1","","","","","","","",""
"","do_trial","175","929563","0.0-157.0-0.0","935.9000000357628","","","","49","1,0,1","2","coast","117","probe-224","0.9466784593909938","0.31919621648789415","0.5494002606021463","1","","","","","","","",""
"","do_trial","176","934382","0.0-158.0-0.0","275.19999998807907","","","","49","1,0,1","2","coast","118","probe-158","0.9365900686522239","0.12330318277612298","0.6231679707635823","1","","","","","","","",""
"","do_trial","177","939287","0.0-159.0-0.0","351.5999999642372","","","","49","1,0,1","2","coast","119","probe-68","0.8580557675390833","0.0764748574014414","0.580146456660537","1","","","","","","","",""
"","do_bye","178","940794","0.0-160.0-0.0","null","","","","null","","","","","","","","","","","","","","","","",""
"","do_travel","179","946802","0.0-161.0-0.0","null","","","","null","","","","","","","","","","","","","","","","",""
"","do_welcome","180","948324","0.0-161.0-1.0","null","","","","null","","","","","","","","","","","","","","","","",""
"","do_trial","181","953519","0.0-162.0-0.0","644.6999999880791","","","","50","1,1,0","3","highway","120","probe-84","1","0.10859713140466372","0.5618696053156371","1","","","","","","","",""
"","do_trial","182","958366","0.0-163.0-0.0","297.7999999523163","","","","50","1,0,1","3","highway","121","probe-91","1","0.06287908225335365","0.6736477440843122","0","","","","","","","",""
"","do_trial","183","962910","0.0-164.0-0.0","0","","","","50","1,0,1","3","highway","122","probe-193","1","0.10470339629239458","0.4680946021508852","0","","","","","","","",""
"","do_trial","184","967755","0.0-165.0-0.0","286.10000002384186","","","","49","1,0,1","3","highway","123","probe-199","1","0.14178238045688674","0.3542683353359486","1","","","","","","","",""
"","do_trial","185","972326","0.0-166.0-0.0","20.19999998807907","","","","49","1,0,0","3","highway","124","probe-202","0.9437597264950114","0.2627663822191695","0.44764651085034146","1","","","","","","","",""
"","do_trial","186","977037","0.0-167.0-0.0","152.69999998807907","","","","49","1,0,0","3","highway","125","probe-48","0.7894491520266158","0.24684577792938214","0.3700512007026682","1","","","","","","","",""
"","do_trial","187","981817","0.0-168.0-0.0","238.19999998807907","","","","49","0,0,1","3","highway","126","probe-42","0.8328206404151025","0.1332627011361075","0.5423439571718212","0","","","","","","","",""
"","do_trial","188","986649","0.0-169.0-0.0","260.19999998807907","","","","49","1,0,0","3","highway","127","probe-43","0.7462504705296094","0.16664002673940878","0.4379196929362443","1","","","","","","","",""
"","do_trial","189","991378","0.0-170.0-0.0","171.5999999642372","","","","49","1,1,1","3","highway","128","probe-117","0.6484936504795994","0.2540626348213668","0.378425441823712","1","","","","","","","",""
"","do_trial","190","996181","0.0-171.0-0.0","254.5999999642372","","","","49","0,1,1","3","highway","129","probe-235","0.5388706708652812","0.25718729577833527","0.5088520253379298","0","","","","","","","",""
"","do_trial","191","1001173","0.0-172.0-0.0","437.80000001192093","","","","49","0,0,1","3","highway","130","probe-65","0.5380980491637858","0.4323019405910651","0.37277569457064347","0","","","","","","","",""
"","do_trial","192","1005984","0.0-173.0-0.0","250.39999997615814","","","","49","1,1,0","3","highway","131","probe-148","0.4592904439445576","0.5616089479559067","0.4225087026579022","1","","","","","","","",""
"","do_trial","193","1010663","0.0-174.0-0.0","130.5999999642372","","","","49","0,1,0","3","highway","132","probe-139","0.17309607890931772","0.7167335392819866","0.3229408607165556","0","","","","","","","",""
"","do_trial","194","1015383","0.0-175.0-0.0","168.69999998807907","","","","51","0,1,0","3","highway","133","probe-34","0.23746687544769388","0.7142974459523275","0.24993812192844694","0","","","","","","","",""
"","do_trial","195","1020044","0.0-176.0-0.0","118.30000001192093","","","","51","0,1,0","3","highway","134","probe-222","0.16618519428157708","0.7461302007045489","0.28110895351335663","0","","","","","","","",""
"","do_trial","196","1024846","0.0-177.0-0.0","245.69999998807907","","","","49","0,0,1","3","highway","135","probe-190","0.18928475180457668","0.6645625054228854","0.20498099207225542","0","","","","","","","",""
"","do_trial","197","1029465","0.0-178.0-0.0","73.5","","","","50","0,1,0","3","highway","136","probe-122","0.314357641356261","0.6713304199060471","0.40739569731810565","1","","","","","","","",""
"","do_trial","198","1034284","0.0-179.0-0.0","259","","","","50","0,0,0","3","highway","137","probe-134","0.15821745125666156","0.7081347237273995","0.17470561126126563","0","","","","","","","",""
"","do_trial","199","1039037","0.0-180.0-0.0","202.4000000357628","","","","50","0,0,1","3","highway","138","probe-72","0.28587347320115397","0.7690936272282314","0.2789163957249599","0","","","","","","","",""
"","do_trial","200","1043827","0.0-181.0-0.0","233.4000000357628","","","","50","0,0,0","3","highway","139","probe-189","0.2683044285323318","0.7781314106342865","0.24807209015526505","0","","","","","","","",""
"","do_trial","201","1048551","0.0-182.0-0.0","155","","","","49","0,1,1","3","highway","140","probe-236","0.12613115482703158","0.8429158733902861","0.35883002969428646","0","","","","","","","",""
"","do_trial","202","1053470","0.0-183.0-0.0","361.4000000357628","","","","51","0,0,1","3","highway","141","probe-144","0.0787989219558538","0.9070281805436912","0.3098858654582821","1","","","","","","","",""
"","do_trial","203","1058290","0.0-184.0-0.0","265.5999999642372","","","","51","1,1,1","3","highway","142","probe-207","0.05630568363590682","0.9102596757988013","0.32517540512702864","1","","","","","","","",""
"","do_trial","204","1063079","0.0-185.0-0.0","233.29999995231628","","","","51","0,1,1","3","highway","143","probe-171","0.0787949009920674","0.9257890190990946","0.333723360887154","1","","","","","","","",""
"","do_trial","205","1067925","0.0-186.0-0.0","296.69999998807907","","","","51","0,1,0","3","highway","144","probe-88","0.09423681494974664","0.9236404440099674","0.3018741540956771","0","","","","","","","",""
"","do_trial","206","1072821","0.0-187.0-0.0","348.0999999642372","","","","49","0,0,0","3","highway","145","probe-95","0.1792322506111728","0.884818077360781","0.26887092312769495","0","","","","","","","",""
"","do_trial","207","1077752","0.0-188.0-0.0","381.89999997615814","","","","51","0,1,1","3","highway","146","probe-161","0.07733267610954762","0.7598447053052685","0.4342500219221709","1","","","","","","","",""
"","do_trial","208","1082416","0.0-189.0-0.0","105.10000002384186","","","","51","0,1,0","3","highway","147","probe-73","0.09108839825416813","0.8687534154260586","0.3541494298163096","0","","","","","","","",""
"","do_trial","209","1087162","0.0-190.0-0.0","184.10000002384186","","","","51","0,0,0","3","highway","148","probe-58","0.12756170545240228","0.7645779949507892","0.29528917753850503","0","","","","","","","",""
"","do_trial","210","1091814","0.0-191.0-0.0","105.69999998807907","","","","51","0,1,1","3","highway","149","probe-157","0.10791584515526469","0.7587151316486273","0.4826664156859545","1","","","","","","","",""
"","do_trial","211","1096605","0.0-192.0-0.0","240.89999997615814","","","","51","0,1,1","3","highway","150","probe-191","0.14068674167844208","0.9212026215590123","0.5096908266390274","1","","","","","","","",""
"","do_trial","212","1101317","0.0-193.0-0.0","165.5","","","","51","1,1,0","3","highway","151","probe-47","0.14546506721583893","0.9253627061495578","0.4092660707203512","0","","","","","","","",""
"","do_trial","213","1105881","0.0-194.0-0.0","13.399999976158142","","","","51","0,1,0","3","highway","152","probe-87","0.11317918357349159","0.8263252311501872","0.3938792222259743","0","","","","","","","",""
"","do_trial","214","1110434","0.0-195.0-0.0","2.600000023841858","","","","51","0,1,0","3","highway","153","probe-63","0.15207144111535417","0.9494033805101917","0.448446640713848","0","","","","","","","",""
"","do_trial","215","1114977","0.0-196.0-0.0","0.10000002384185791","","","","51","0,0,0","3","highway","154","probe-147","0.10509931530500981","0.9223460736296817","0.34605282952781774","0","","","","","","","",""
"","do_trial","216","1119796","0.0-197.0-0.0","275.2999999523163","","","","50","0,1,0","3","highway","155","probe-83","0.23092266957262816","0.8980878469944922","0.39360152470068854","1","","","","","","","",""
"","do_trial","217","1124588","0.0-198.0-0.0","236.5","","","","50","0,1,0","3","highway","156","probe-41","0.15216918736866814","0.8903421385816971","0.2968508516044376","1","","","","","","","",""
"","do_trial","218","1129182","0.0-199.0-0.0","39.30000001192093","","","","50","0,1,1","3","highway","157","probe-123","0.08259532548781107","0.8025663597469249","0.46754364657507685","1","","","","","","","",""
"","do_trial","219","1133956","0.0-200.0-0.0","218.20000004768372","","","","50","0,1,1","3","highway","158","probe-90","0.10665725943722983","0.6793717585607787","0.34423341253218903","1","","","","","","","",""
"","do_trial","220","1138769","0.0-201.0-0.0","244.4000000357628","","","","50","0,0,1","3","highway","159","probe-229","0.07416950282275787","0.6186191384220534","0.3602535412503381","0","","","","","","","",""
"","do_bye","221","1140289","0.0-202.0-0.0","null","","","","null","","","","","","","","","","","","","","","","",""
"","do_travel","222","1146302","0.0-203.0-0.0","null","","","","null","","","","","","","","","","","","","","","","",""
"","do_welcome","223","1147821","0.0-203.0-1.0","null","","","","null","","","","","","","","","","","","","","","","",""
"","do_trial","224","1155016","0.0-204.0-0.0","2642.699999988079","","","","50","0,1,1","4","mountain","160","probe-33","0.2003425309383797","1","0.3453121228379096","1","","","","","","","",""
"","do_trial","225","1159767","0.0-205.0-0.0","205","","","","50","1,1,1","4","mountain","161","probe-170","0.18265882932300997","1","0.34780160030120216","1","","","","","","","",""
"","do_trial","226","1164568","0.0-206.0-0.0","250.19999998807907","","","","50","0,1,1","4","mountain","162","probe-200","0.24014685145034392","1","0.3552325981603249","1","","","","","","","",""
"","do_trial","227","1169448","0.0-207.0-0.0","318.5","","","","50","0,1,0","4","mountain","163","probe-217","0.17222812750172606","1","0.4916085570982074","1","","","","","","","",""
"","do_trial","228","1174336","0.0-208.0-0.0","331.80000001192093","","","","50","0,1,1","4","mountain","164","probe-239","0.10597133314300151","0.8982061687375528","0.48646195181801083","1","","","","","","","",""
"","do_trial","229","1179047","0.0-209.0-0.0","152.60000002384186","","","","50","1,1,1","4","mountain","165","probe-81","0.29782406906994535","0.8775415225399472","0.577137469599275","1","","","","","","","",""
"","do_trial","230","1183688","0.0-210.0-0.0","92","","","","50","0,0,1","4","mountain","166","probe-13","0.15610153821065623","0.8654129039228853","0.6579877594352089","0","","","","","","","",""
"","do_trial","231","1188331","0.0-211.0-0.0","87.69999998807907","","","","50","0,1,0","4","mountain","167","probe-141","0.12962661797696812","0.9299000290067935","0.5829980463699617","1","","","","","","","",""
"","do_trial","232","1192878","0.0-212.0-0.0","0","","","","50","0,1,0","4","mountain","168","probe-18","0.05548690106541398","0.9279085374497593","0.491392444421058","1","","","","","","","",""
"","do_trial","233","1197716","0.0-213.0-0.0","285.69999998807907","","","","50","0,1,1","4","mountain","169","probe-162","0.0844078566174602","0.8965173328707209","0.3125244953666549","1","","","","","","","",""
"","do_trial","234","1202285","0.0-214.0-0.0","0.19999998807907104","","","","50","0,1,1","4","mountain","170","probe-119","0.31911324624684917","0.7095509654493627","0.2851026487420827","1","","","","","","","",""
"","do_trial","235","1207130","0.0-215.0-0.0","294.30000001192093","","","","50","0,1,0","4","mountain","171","probe-11","0.48261518992881935","0.7045009347268311","0.2627356712429992","1","","","","","","","",""
"","do_trial","236","1212066","0.0-216.0-0.0","384.5","","","","50","1,0,0","4","mountain","172","probe-205","0.6807167666200351","0.48893765185631083","0.3022756612561602","0","","","","","","","",""
"","do_trial","237","1216766","0.0-217.0-0.0","146.60000002384186","","","","50","1,0,0","4","mountain","173","probe-08","0.7009340647289429","0.4324261776202712","0.28557832338578826","0","","","","","","","",""
"","do_trial","238","1221849","0.0-218.0-0.0","526.6000000238419","","","","51","1,0,0","4","mountain","174","probe-128","0.9088442370025218","0.4043432483079241","0.18839660370046862","0","","","","","","","",""
"","do_trial","239","1226468","0.0-219.0-0.0","57.799999952316284","","","","49","1,1,1","4","mountain","175","probe-60","0.8995953325967443","0.5723600911863738","0.057156399080228314","1","","","","","","","",""
"","do_trial","240","1231141","0.0-220.0-0.0","118.39999997615814","","","","49","1,0,0","4","mountain","176","probe-97","0.8538003713903511","0.5543017963171709","0.16481838767125748","1","","","","","","","",""
"","do_trial","241","1235758","0.0-221.0-0.0","59.80000001192093","","","","49","1,1,0","4","mountain","177","probe-22","0.7466578293338455","0.49152107295867775","0.14366524100470587","1","","","","","","","",""
"","do_trial","242","1240608","0.0-222.0-0.0","296.19999998807907","","","","49","1,0,1","4","mountain","178","probe-31","0.7703589301882076","0.45211994024405655","0.08009958008805512","1","","","","","","","",""
"","do_trial","243","1245914","0.0-223.0-0.0","756.5999999642372","","","","49","1,0,0","4","mountain","179","probe-115","0.7195552848909595","0.3933467007673035","0.10162028903170477","1","","","","","","","",""
"","do_trial","244","1251484","0.0-224.0-0.0","1019.1000000238419","","","","49","0,0,0","4","mountain","180","probe-228","0.6934966171166751","0.37476972295691563","0.06322395589150759","0","","","","","","","",""
"","do_trial","245","1256500","0.0-225.0-0.0","467","","","","49","0,1,0","4","mountain","181","probe-36","0.7783311402553048","0.3623111700790908","0.1108834326117847","0","","","","","","","",""
"","do_trial","246","1261322","0.0-226.0-0.0","271.30000001192093","","","","50","0,1,0","4","mountain","182","probe-215","0.6983375337082883","0.3700575935455735","0.08534490588772936","1","","","","","","","",""
"","do_trial","247","1266025","0.0-227.0-0.0","155.29999995231628","","","","50","1,0,0","4","mountain","183","probe-136","0.9191650784621951","0.4507990148050167","0.16745772057894176","0","","","","","","","",""
"","do_trial","248","1270941","0.0-228.0-0.0","357.39999997615814","","","","50","1,0,1","4","mountain","184","probe-114","0.7897064874859561","0.5027327054400412","0.07022110204929702","0","","","","","","","",""
"","do_trial","249","1275484","0.0-229.0-0.0","0","","","","49","1,1,0","4","mountain","185","probe-180","0.6934199571335254","0.40766770067667907","0.08175390057304029","1","","","","","","","",""
"","do_trial","250","1280161","0.0-230.0-0.0","123.39999997615814","","","","49","0,0,1","4","mountain","186","probe-210","0.7074411808349567","0.46164556154858155","0.08724404019374044","0","","","","","","","",""
"","do_trial","251","1284973","0.0-231.0-0.0","247.70000004768372","","","","49","0,1,0","4","mountain","187","probe-194","0.7433590409649584","0.42884389648425675","0.08446443517681679","0","","","","","","","",""
"","do_trial","252","1289685","0.0-232.0-0.0","140.9000000357628","","","","51","0,0,0","4","mountain","188","probe-17","0.6673461528985347","0.3350724385438755","0.06215986861890763","0","","","","","","","",""
"","do_trial","253","1294506","0.0-233.0-0.0","271.5","","","","49","1,1,1","4","mountain","189","probe-167","0.7804575441769888","0.47424391634815005","0.2402353098070885","1","","","","","","","",""
"","do_trial","254","1299119","0.0-234.0-0.0","68","","","","49","1,1,0","4","mountain","190","probe-110","0.714037335527654","0.37898506880434213","0.3131251497859761","1","","","","","","","",""
"","do_trial","255","1303892","0.0-235.0-0.0","231.60000002384186","","","","49","1,1,0","4","mountain","191","probe-79","0.8658232418314741","0.5365703668760635","0.23500897544150356","1","","","","","","","",""
"","do_trial","256","1308639","0.0-236.0-0.0","194","","","","49","1,0,1","4","mountain","192","probe-179","0.8948034901832069","0.5225636139118934","0.2671061746195578","1","","","","","","","",""
"","do_trial","257","1313451","0.0-237.0-0.0","261.19999998807907","","","","49","1,1,0","4","mountain","193","probe-104","0.9392962060484724","0.6653464569238545","0.12148479455859976","1","","","","","","","",""
"","do_trial","258","1318047","0.0-238.0-0.0","35.5","","","","49","1,0,0","4","mountain","194","probe-130","0.8156995285281792","0.5454868510019449","0.11850447355757573","1","","","","","","","",""
"","do_trial","259","1323038","0.0-239.0-0.0","430.5","","","","49","0,0,0","4","mountain","195","probe-182","0.712060887041712","0.4719656609795569","0.08515414755129078","0","","","","","","","",""
"","do_trial","260","1327671","0.0-240.0-0.0","80.80000001192093","","","","49","0,0,0","4","mountain","196","probe-140","0.5464952440100491","0.3287298247344172","0.1795730419882504","0","","","","","","","",""
"","do_trial","261","1332497","0.0-241.0-0.0","273.69999998807907","","","","49","0,0,0","4","mountain","197","probe-66","0.5302117295028308","0.3422937975720699","0.19457674528837693","0","","","","","","","",""
"","do_trial","262","1337402","0.0-242.0-0.0","357.9000000357628","","","","50","1,0,0","4","mountain","198","probe-21","0.6217485092048289","0.22378805782530614","0.11094728724573699","0","","","","","","","",""
"","do_trial","263","1342151","0.0-243.0-0.0","199","","","","51","1,0,0","4","mountain","199","probe-108","0.5718713804975692","0.34168370241507545","0.11743778485794099","0","","","","","","","",""
"","do_bye","264","1343671","0.0-244.0-0.0","null","","","","null","","","","","","","","","","","","","","","","",""
"","do_travel","265","1349683","0.0-245.0-0.0","null","","","","null","","","","","","","","","","","","","","","","",""
"","do_welcome","266","1351192","0.0-245.0-1.0","null","","","","null","","","","","","","","","","","","","","","","",""
"","do_trial","267","1357205","0.0-246.0-0.0","1459.8999999761581","","","","49","1,0,0","5","city","200","probe-135","1","0.4473244528757374","0.08880200303175909","1","","","","","","","",""
"","do_trial","268","1362052","0.0-247.0-0.0","288","","","","49","1,0,0","5","city","201","probe-177","1","0.4896410319923603","0.1111429469491236","1","","","","","","","",""
"","do_trial","269","1366908","0.0-248.0-0.0","298.4000000357628","","","","49","1,1,0","5","city","202","probe-45","1","0.4300956598927064","0.06645584913417675","1","","","","","","","",""
"","do_trial","270","1371462","0.0-249.0-0.0","0.10000002384185791","","","","49","1,0,0","5","city","203","probe-174","1","0.41876249646640107","0.11307185955138342","1","","","","","","","",""
"","do_trial","271","1376046","0.0-250.0-0.0","33.700000047683716","","","","49","1,1,0","5","city","204","probe-27","0.7347083775764099","0.5385389925567617","0.07088585468453745","1","","","","","","","",""
"","do_trial","272","1380737","0.0-251.0-0.0","134.69999998807907","","","","49","1,1,1","5","city","205","probe-227","0.8062356279104655","0.48438973289946435","0.05785792547540014","1","","","","","","","",""
"","do_trial","273","1385556","0.0-252.0-0.0","265.89999997615814","","","","49","0,1,0","5","city","206","probe-163","0.7908214425581143","0.6184635746020244","0.2374048133293354","0","","","","","","","",""
"","do_trial","274","1390443","0.0-253.0-0.0","338.5999999642372","","","","49","1,0,0","5","city","207","probe-20","0.7474189869546517","0.43874045656753774","0.13525472748611603","1","","","","","","","",""
"","do_trial","275","1395284","0.0-254.0-0.0","285.60000002384186","","","","49","1,1,0","5","city","208","probe-145","0.8412846213785473","0.22525713995440153","0.07382398904520546","1","","","","","","","",""
"","do_trial","276","1400134","0.0-255.0-0.0","298","","","","49","0,0,0","5","city","209","probe-40","0.7212794913828444","0.25727532941895825","0.1522615400678218","0","","","","","","","",""
"","do_trial","277","1404687","0.0-256.0-0.0","0.20000004768371582","","","","49","0,0,1","5","city","210","probe-28","0.5700537469760645","0.2445353046560782","0.4145113029031869","0","","","","","","","",""
"","do_trial","278","1409491","0.0-257.0-0.0","238.5","","","","49","0,0,1","5","city","211","probe-233","0.317073942109358","0.32924894517519626","0.5794702380994295","0","","","","","","","",""
"","do_trial","279","1414310","0.0-258.0-0.0","273.60000002384186","","","","50","0,0,1","5","city","212","probe-77","0.05323726474895413","0.25955350729262594","0.7687616542004951","0","","","","","","","",""
"","do_trial","280","1419435","0.0-259.0-0.0","573.9000000357628","","","","51","0,1,1","5","city","213","probe-124","0.05444961272699465","0.19015053326399695","0.6939688016476894","1","","","","","","","",""
"","do_trial","281","1424411","0.0-260.0-0.0","415.19999998807907","","","","51","1,0,1","5","city","214","probe-212","0.07333705421677189","0.29326552676828793","0.6706436977798785","1","","","","","","","",""
"","do_trial","282","1429346","0.0-261.0-0.0","372.10000002384186","","","","51","0,1,1","5","city","215","probe-178","0.14227776856570554","0.4221558427950143","0.7237683587049111","1","","","","","","","",""
"","do_trial","283","1433929","0.0-262.0-0.0","30.100000023841858","","","","51","0,1,1","5","city","216","probe-219","0.0932113836860574","0.5473449734697046","0.7251603767675829","1","","","","","","","",""
"","do_trial","284","1438929","0.0-263.0-0.0","451.5","","","","51","0,0,1","5","city","217","probe-231","0.09666497289128108","0.5123625202200104","0.7637402160595383","1","","","","","","","",""
"","do_trial","285","1443617","0.0-264.0-0.0","138.19999998807907","","","","51","0,1,0","5","city","218","probe-111","0.13892128438685564","0.4769258207172162","0.7800266092470493","0","","","","","","","",""
"","do_trial","286","1448173","0.0-265.0-0.0","0.10000002384185791","","","","51","0,0,1","5","city","219","probe-188","0.17521535809761582","0.5659070234462843","0.8904378370411508","1","","","","","","","",""
"","do_trial","287","1452722","0.0-266.0-0.0","0.10000002384185791","","","","51","0,0,1","5","city","220","probe-109","0.08280089156598228","0.5406482582207123","0.7846429498169092","1","","","","","","","",""
"","do_trial","288","1459124","0.0-267.0-0.0","1851.5","","","","51","0,1,0","5","city","221","probe-237","0.12516292879794255","0.4125188635954426","0.6283274739227336","0","","","","","","","",""
"","do_trial","289","1463950","0.0-268.0-0.0","280.80000001192093","","","","51","0,1,0","5","city","222","probe-175","0.05919908641964372","0.2985321440673317","0.640574787525936","0","","","","","","","",""
"","do_trial","290","1468697","0.0-269.0-0.0","189.60000002384186","","","","49","1,0,1","5","city","223","probe-56","0.1557100983830115","0.38104060245513977","0.8222808243879987","1","","","","","","","",""
"","do_trial","291","1473501","0.0-270.0-0.0","256.60000002384186","","","","49","0,0,1","5","city","224","probe-203","0.05147594111560379","0.33845363764506636","0.8061440330720656","0","","","","","","","",""
"","do_trial","292","1478129","0.0-271.0-0.0","77","","","","49","0,0,1","5","city","225","probe-184","0.2079069396645874","0.348386965463535","0.7745911671723572","0","","","","","","","",""
"","do_trial","293","1482695","0.0-272.0-0.0","3.799999952316284","","","","50","1,0,0","5","city","226","probe-49","0.14310591188161673","0.361362749883159","0.7390201208835092","0","","","","","","","",""
"","do_trial","294","1487249","0.0-273.0-0.0","0.10000002384185791","","","","51","0,0,1","5","city","227","probe-03","0.14611315462313876","0.39691081017290475","0.9215662480754387","1","","","","","","","",""
"","do_trial","295","1492075","0.0-274.0-0.0","252","","","","51","0,1,1","5","city","228","probe-166","0.1574946638261228","0.4220933556368521","0.8442000830570074","1","","","","","","","",""
"","do_trial","296","1496706","0.0-275.0-0.0","63.09999996423721","","","","51","0,0,1","5","city","229","probe-103","0.09446700578250421","0.46046347692757644","0.9139362638662472","1","","","","","","","",""
"","do_trial","297","1501546","0.0-276.0-0.0","286","","","","51","0,0,1","5","city","230","probe-155","0.1560119722652233","0.26849305426704995","0.9033786841970795","1","","","","","","","",""
"","do_trial","298","1506349","0.0-277.0-0.0","246.5","","","","51","0,1,1","5","city","231","probe-94","0.1292440472861784","0.3664320010793297","0.8859707052283874","1","","","","","","","",""
"","do_trial","299","1511067","0.0-278.0-0.0","159.9000000357628","","","","51","0,1,1","5","city","232","probe-92","0.16586859728950282","0.3976857902353415","0.788322162856278","1","","","","","","","",""
"","do_trial","300","1515941","0.0-279.0-0.0","313.0999999642372","","","","51","0,0,1","5","city","233","probe-93","0.10910810195496179","0.4445309688046092","0.7181862601355999","1","","","","","","","",""
"","do_trial","301","1520776","0.0-280.0-0.0","286.30000001192093","","","","51","0,0,1","5","city","234","probe-131","0.11060950140227636","0.4076302586531887","0.7804938645052651","1","","","","","","","",""
"","do_trial","302","1525596","0.0-281.0-0.0","277.60000002384186","","","","51","0,0,0","5","city","235","probe-221","0.2969413046179149","0.3789719313980504","0.6348235242625784","0","","","","","","","",""
"","do_trial","303","1530710","0.0-282.0-0.0","555.1000000238419","","","","49","0,0,1","5","city","236","probe-211","0.2730979532097756","0.41379568510839093","0.805995920384409","0","","","","","","","",""
"","do_trial","304","1535266","0.0-283.0-0.0","0","","","","51","0,1,1","5","city","237","probe-59","0.1377770343178243","0.46927191535066776","0.8074908825643042","1","","","","","","","",""
"","do_trial","305","1539816","0.0-284.0-0.0","0.09999996423721313","","","","51","0,1,0","5","city","238","probe-218","0.08883968691692673","0.48884548095617675","0.6920260832038909","0","","","","","","","",""
"","do_trial","306","1544523","0.0-285.0-0.0","164.80000001192093","","","","51","0,0,1","5","city","239","probe-14","0.09214147415807504","0.507521585507236","0.6721555835559958","1","","","","","","","",""
"","do_bye","307","1546032","0.0-286.0-0.0","null","","","","null","","","","","","","","","","","","","","","","",""
"","html-keyboard-response","308","1550954","0.0-286.0-1.0","4920.799999952316","<div class='center'>You are all done with the first part of the experiment! Thank you for participating. Tomorrow, you will recieve an invite to participate in the next phase of the experiment which you must complete by the end of the day. <p><b>[Press the space bar to end the experiment]</b></p></div>","32","","","","","","","","","","","","1,3,0,4,2,5","115,60,175,205,229,50,215,196,222,28,18,126,85,88,212,106,164,185,25,168,150,1,213,69,105,22,0,54,197,225,99,203,84,167,136,74,14,233,112,124,132,148,131,68,66,8,5,3,70,15,37,117,155,231,95,119,151,36,111,24,49,125,53,34,224,61,79,237,38,6,56,171,137,9,75,141,208,180,153,77,45,194,172,149,97,219,29,120,63,200,43,152,4,51,81,158,101,128,159,31,11,207,191,100,239,186,52,145,104,142,98,23,163,182,195,184,73,223,157,67,83,90,192,198,201,47,41,42,116,234,64,147,138,33,221,189,121,133,71,188,235,143,206,170,87,94,160,72,57,156,190,46,86,62,146,82,40,122,89,228,32,169,199,216,238,80,12,140,17,161,118,10,204,7,127,59,96,21,30,114,227,35,214,135,113,179,209,193,16,166,109,78,178,103,129,181,139,65,20,107,134,176,44,173,26,226,162,19,144,39,27,232,76,123,211,177,218,230,110,187,108,236,174,55,202,183,48,2,165,102,154,93,91,92,130,220,210,58,217,13","12,11,4,1,13,8,17,10,3,0,2,14,16,15,18,9,7,6,5","0.07723206666724712,0.07853317112004726,0.19973034518254665,0.18857302516921898,0.1891063954719745,0.2956539952594975,0.17653143071975705,0.12086512529733998,0.0830669287681686,0.0659745843401297,0.21215983950568926,0.27205957844091694,0.32949459929941927,0.41567433692083333,0.3887090836949296,0.3496882983044501,0.39739475668808816,0.3426842824213022,0.353468868595068,0.3990558696403983,0.461401197701738,0.5570688900684297,0.4167868971474146,0.4085100165232139,0.3876717182147082,0.41089448609457463,0.4307963894381419,0.4802356121477723,0.39897713410065166,0.3205891656481529,0.395395870199209,0.4438939409586432,0.5308963127402211,0.4955098850529892,0.2582639058610363,0.3949730199903053,0.4982238049294496,0.539597144974537,0.5251350682122561,0.45167769304325495,0.3000931640068616,0.21661062597551492,0.45040536162532396,0.7939380811940427,0.8307947641143748,0.7037550346228446,0.7110210989570612,0.7142034899029761,0.729978514888594,0.8606419019044635,0.7517957456666169,0.8594210194503942,0.9361311416227003,0.8414028983674372,0.8504445147602269,0.859972241462456,0.8763136704123647,0.759948812521483,0.6835853247033898,0.7071789273914919,1,0.8915605214013453,0.9401505629450851,0.8487643675188312,0.9317632098033617,0.8825871095122325,0.8230269321470983,0.6810952422289275,0.7081400701004136,0.7652326885946475,0.6414607355722687,0.4459949429658581,0.4601427526980875,0.4210922789853766,0.5042264387599465,0.4254405658112094,0.23136725266437888,0.34990758624851964,0.4126834508556327,0.3197005203434779,0.2109486973054143,0.05539431432381239,0.22305758967642533,0.350610917680626,0.2676301135892058,0.37411458926004726,0.20280043471795403,0.24955756720720587,0.3142694005857302,0.3728436089222801,0.3038266193204772,0.36706895847843285,0.4478752168113932,0.5102889899278569,0.6249484610486927,0.4968261051957258,0.36614483228482514,0.3871484826061353,0.39421737790724537,0.4819694909748091,0.4265243344458496,0.4841112274467501,0.4395759337690635,0.5348665460343501,0.6118927337237516,0.39595965873042394,0.47036804709543184,0.46928689492948783,0.5017741359598658,0.4832122341635316,0.45037268547991327,0.46762752624465626,0.5075841398991433,0.6305287492999277,0.5946336916108553,0.5651735681625666,0.5205999967544118,0.5774983170287741,0.417352466232523,0.34037425133160215,0.36908281070472226,0.3320503991996504,0.26740049855053066,0.3753564324175928,0.35656778477611384,0.26478885288882026,0.31496293955556964,0.3902963732652634,0.3219676220899559,0.41331560317757315,0.3625533143556086,0.5317506673628626,0.366825632826777,0.41798704936340103,0.37501320216853834,0.3462118580522604,0.4083943640219427,0.3108178253841925,0.31819474357676825,0.5284385660857742,0.5633943806445213,0.5848358169605264,0.5084770896951473,0.6298590832548735,0.6006028037579139,0.7735111413024364,0.8696450545505855,0.8665056763907544,0.8622605696745196,0.9462789620970244,1,0.7072367036294648,0.6758412674336602,0.825900606077096,0.7384226734428958,0.8969582376579108,0.786400943100308,0.7265071816097779,0.8393815238597317,0.7933807439403681,0.7938504124423805,0.8009876105849345,0.595964730339908,0.5297934933559126,0.40540643200209014,0.2526687434235688,0.0701906320937777,0.11623967958593769,0.08516089557884556,0.2586053416885658,0.1590176581341485,0.0791599121157064,0.1862846141447141,0.10858472432971411,0.1468878828522485,0.10889466485079892,0.20625011403955282,0.09183327365737402,0.10503060497256278,0.07012465577709416","0.43787020152110806,0.3157029962780324,0.37370760128335845,0.29260245859573336,0.35049134666307064,0.27269215791778484,0.3595701990152782,0.3798148907929497,0.2655957697214836,0.28988957117104214,0.4428627081153737,0.5997509430801382,0.5705157448364487,0.5581769878185695,0.8623722160559804,0.8723050788359262,0.7816550189958374,0.7758177275756871,0.690392093863497,0.7536981750301619,0.7367577016811159,0.6586964391765582,0.6796045481209465,0.8122968241910343,0.755199378669524,0.889692743523085,0.8733514990112956,0.8814151661538939,0.8031610556880233,0.6949481058139527,1,0.8930209774869813,0.9467650321005862,0.9222566173113792,0.8827576916046127,0.7702958065499101,0.7635036140701732,0.7774472514321066,0.8806765490338367,0.9308304740929499,0.8976321021102847,0.8876516428704507,0.5463035273884345,0.41141663011484114,0.44182063258650617,0.09313922645858387,0.19427856755058173,0.15646974163546193,0.19683349717593893,0.12941780057642224,0.24739805696955558,0.27108738184962455,0.22043059598164697,0.13682266255857614,0.10659405122471467,0.11950512593212156,0.08267480555426929,0.05015049990335898,0.1420509948953443,0.1792932305262169,0.12074422079915559,0.0832884439791041,0.12568330917570603,0.0950231262447326,0.18323631887998623,0.18175372348295576,0.1902219468132662,0.13706076347721646,0.1163254762878145,0.07491878903527095,0.07658160963462242,0.2618620729929201,0.05138326393317698,0.1065451430187753,0.08480194798878993,0.266969963795406,0.2636555724405303,0.20567527198588179,0.08058267530200187,0.058552733755761796,0.0989190343710018,0.16263255077834324,0.2368637152529886,0.27783973098748027,0.17889709382886804,0.17981191166764124,0.15861353776647522,0.08706842005752098,0.12923802048437322,0.1066620232197903,0.1702719518780251,0.23311860061436507,0.1356069892127858,0.12432337676642073,0.1366508016560509,0.06254149399113114,0.16872879607385888,0.24829840869157133,0.1894795661018256,0.27285085068277204,0.4665846317738673,0.5020027038172732,0.6716505288182348,0.8374443816174356,0.803217160131554,0.7073053927014755,0.7435760857324263,0.7361208022176995,0.6814302816247988,0.8056025820394599,0.8578057185450777,0.8029295983688743,0.9122042584318615,0.9297533533806196,0.9403462253962728,0.9473315192553267,0.9292616713811238,0.9326215801897185,0.9139332369612412,0.8305014520657763,1,0.838672409621379,0.7887218805822709,0.7591319779390773,0.6818374904717343,0.771265300332186,0.7526196640560612,0.7701217709496182,0.7595559103406464,0.8300643178135204,0.7196076813348088,0.8774893453788143,0.9450346363516652,0.9198856357637359,0.7508574050260471,0.7419098860930954,0.7101765904968267,0.7113722531011564,0.7638523390023096,0.515096820924074,0.2926651738469849,0.32789155594110414,0.2624390399547834,0.25500537744616725,0.1447197101874357,0.0951161675510835,0.12127925577287642,0.06883206885097992,0.0926093155924486,0.2620601562004206,0.14124853640867296,0.19820313449043622,0.117984572960126,0.14248030821118568,0.11366287276973697,0.17630287039127196,0.06008146064814906,0.054216837803336804,0.05320512168292158,0.05047146138911834,0.15185790580182082,0.05105201102533933,0.3034664904376528,0.18113620559700722,0.3780364609396438,0.36222328646364105,0.4242279913049686,0.3827780624298302,0.5123721026336436,0.48627901039838284,0.4433119647544297,0.44797976552317265,0.3530544163738233,0.23324740684037865,0.36374351884256534,0.36359170740570507,0.3730804537780935,0.4001339841899626,0.2945136303885876,0.3684647752478277","1,0.8340867522124605,0.8733525482694738,0.8293916092698689,0.7433725509169803,0.7747718328555377,0.6968285875052399,0.6303315704881426,0.5902909201355326,0.7583384526297196,0.5174342602833546,0.3588404732370681,0.21652707398276552,0.2523344524499138,0.17426261082625621,0.25384968601544367,0.1826800257761632,0.11012681057522251,0.17406389877440406,0.18259317804812994,0.14331203967098513,0.2008224922464314,0.17136173725392184,0.14794319455289803,0.2526140706195576,0.1637990217694302,0.09637093931603609,0.07268101940848852,0.24180702114743433,0.1260637079907903,0.18828074140353518,0.24519289909167857,0.11430459302297429,0.10012523372215588,0.15284613718872705,0.1866222389193682,0.0797794718629144,0.1767939508492361,0.1295035096094518,0.18300098310769458,0.219582455933223,0.1980167495715154,0.3241699374261385,0.2878172965622089,0.2689476636187989,0.367475729325448,0.42251705036059384,0.4949946775620878,0.38275032681006016,0.42164153438233726,0.5398134017080892,0.4747528117254867,0.4471233817472416,0.30514514769599,0.23619603742143233,0.2661297698363288,0.43543670656429156,0.4782398163335841,0.3948973125875422,0.4990942843144048,0.38675706572271323,0.2918728107654438,0.4584217798635215,0.31817155297884375,0.35503772465862876,0.41750356168416164,0.4659693569016757,0.4750571185223181,0.3301595603760951,0.30155444485652033,0.4288814648943803,0.6478457963632601,0.9442462617938255,0.9135301850745599,0.9149724448410776,0.9240120495477144,0.7467615394321534,0.7669920806506367,0.8820920261944413,0.8150989170422049,0.8988059607988709,0.836913554274598,0.8698884087472366,0.629579568767246,0.765368051230101,0.73588478825962,0.7238612977201521,0.7284650512198239,0.8109048733058978,0.8509048362091595,1,0.8875980285254732,0.772507334766403,0.945608097453689,0.9052016212414676,0.7957856053997974,0.8605729560491353,0.8809631870233321,0.892918476550239,0.9469465888780032,0.6706848217781886,0.4834148010993248,0.4159711999132759,0.3468104524859737,0.2516978019372018,0.13149956192154508,0.08534979299065429,0.0809656754144652,0.07505542822099943,0.08765738293350717,0.08183029391075966,0.06983931027978882,0.06949583295367766,0.07202394707910982,0.06651046117355143,0.08734351146996719,0.06577103705785682,0.06713801152998243,0.08444194503587724,0.13544133741116976,0.17429838929096342,0.13184579148227085,0.22888274556449126,0.22325823099590394,0.22113757234923037,0.2417416554344484,0.08740840945649764,0.11209084095403014,0.11293358482962186,0.10052484697925007,0.07046277436060121,0.0831417569755205,0.05605505233018278,0.06502835688719731,0.20512928133247463,0.16537569756549098,0.1800215769379002,0.1328122892892878,0.08189722132931243,0.2214008506785281,0.3137575501122652,0.3456987384381351,0.2928732007423281,0.4528922833896707,0.3524795006857637,0.37089197888705655,0.4195010130642235,0.4954997163134112,0.4132208783324154,0.21753306019487562,0.22313141484233295,0.3496406606631006,0.26848108660605435,0.35427798195142013,0.2860731566417403,0.3373405119954737,0.34576652124364676,0.3943909573946107,0.32932473208677626,0.2221920213359263,0.2202153815738111,0.3956126731309653,0.5622091191958024,0.7211783219215547,0.6448531047564005,0.599976092115542,0.6580275619684973,0.7605344941098536,0.7510477453521949,0.7092852969274229,0.8211810062309667,0.7797725137411732,0.9253651629909012,0.8559165048386307,0.6838010223270514,0.7062624732227382,0.6729667585494034,0.7044987521339608,0.5607662467652652,0.6474074490377622","127,89,202,49,126,121,84,128,204,166,83,163,41,164,201,200,120,47,124,161,81,85,45,123,125,169,80,206,40,48,87,88,168,207,86,46,162,44,43,208,167,129,209,203,165,205,122,82,160,42","4,1,4,1,1,4,3,1,4,1,5,2,1,2,2,1,3,4,1,1,1,1,1,5,1,1,1,2,1,6,4,1,4,3,1,1,1,1,1,5,1,1,1,1,4,1,1,4,3,2,1,1,4,1,1,1,1,1,1,1"
