"success","trial_type","trial_index","time_elapsed","internal_node_id","rt","stimulus","key_press","subject_id","response","choice_outcomes","context_n","context_img_id","trial_n","probe_img_id","pR_red","pR_white","pR_black","outcome","contextArray_ind","validImageProbes","invalidImageProbes","pRew_Red","pRew_White","pRew_Black","availableForMemProbe","choice_blocks"
"true","fullscreen","0","73909","0.0-0.0","","","","","","","","","","","","","","","","","","","","","",""
"","pavlovia","1","73913","0.0-1.0","","","","","","","","","","","","","","","","","","","","","",""
"","html-keyboard-response","2","87345","0.0-2.0","13432","<div class='center'><p>Welcome! This is the first day of the experiment which will last ~30 minutes. In this experiment, you are the head captain of a pirate ship traveling around the world to different places. You will complete several different tasks during this experiment. Here is an overview of these tasks:</p><br><p>Day 1</p><p>1. Tutorial and quiz</p><p>2. Pick a pirate game in 6 different places</p><br><p>Day 2</p><p>3. Pick a pirate game and memory game</p><p>4. Final questions and payment</p><br><p>If you complete the entire experiment, you will receive $15 and a possible bonus payment.</p><p><b>[Press the space bar to begin the tutorial]</b></p></div>","32","612c330bcefb80896133254b","","","","","","","","","","","","","","","","","",""
"","html-keyboard-response","3","100087","0.0-3.0","12742","<div class='center'><p>You are the head captain of a pirate ship.</p><p> Your pirates rob other ships as they leave the marketplace port.</p> These ships have just sold all their goods at the marketplace, so they have lots and lots of gold on them.</p><p><img src='run_exp/static/images/ship_center.png' height='400'></p><p><b>[Press the space bar to continue]</b></p></div>","32","","","","","","","","","","","","","","","","","","",""
"","html-keyboard-response","4","111863","0.0-4.0","11775.000000000015","<div class='center'><p>As the head captain, you do not have to rob any ships yourself.</p><p>You get to choose which pirate you want to rob the next ship. </p><p>If they are successful at robbing the ship, then you will get gold coins.</p><p> If they are not successful, then you will get no gold coins.</p><p> The more coins you collect, the more bonus money you will win. So, choose your pirate wisely.</p><p><img src='run_exp/static/images/goal.png' height='400'></p><p><b>[Press the space bar to continue]</b></p><div>","32","","","","","","","","","","","","","","","","","","",""
"","html-keyboard-response","5","128614","0.0-5.0","16751.00000000003","<div class='center'><p>Even the most skilled pirate will not be able to rob EVERY ship.</p><p> Some ships will have very strong defenses against attacks.</p><p> For example, blue beard, here,  is very good at robbing ships.</p><p> You can press the <b>‘1’</b> button on the keyboard to choose him.</p><p> Try choosing him 10 times to see how often he is successful at robbing ships. </p><p><img src='run_exp/static/images/blue.png' height='500'></p></div>","49","","","","","","","","","","","","","","","","","","",""
"","html-keyboard-response","6","130115","0.0-6.0","null","<br><br><br><br><p><img src='run_exp/static/images/blue_win.png' height='500'></p>","null","","","","","","","","","","","","","","","","","","",""
"","html-keyboard-response","7","133485","0.0-7.0","3369","<br><br><br><br><p><img src='run_exp/static/images/blue.png' height='500'></p>","49","","","","","","","","","","","","","","","","","","",""
"","html-keyboard-response","8","134987","0.0-8.0","null","<br><br><br><br><p><img src='run_exp/static/images/blue_win.png' height='500'></p>","null","","","","","","","","","","","","","","","","","","",""
"","html-keyboard-response","9","137501","0.0-9.0","2514","<br><br><br><br><p><img src='run_exp/static/images/blue.png' height='500'></p>","49","","","","","","","","","","","","","","","","","","",""
"","html-keyboard-response","10","139003","0.0-10.0","null","<br><br><br><br><p><img src='run_exp/static/images/blue_win.png' height='500'></p>","null","","","","","","","","","","","","","","","","","","",""
"","html-keyboard-response","11","140661","0.0-11.0","1658","<br><br><br><br><p><img src='run_exp/static/images/blue.png' height='500'></p>","49","","","","","","","","","","","","","","","","","","",""
"","html-keyboard-response","12","142162","0.0-12.0","null","<br><br><br><br><p><img src='run_exp/static/images/blue_no_win.png' height='500'></p>","null","","","","","","","","","","","","","","","","","","",""
"","html-keyboard-response","13","143949","0.0-13.0","1786","<br><br><br><br><p><img src='run_exp/static/images/blue.png' height='500'></p>","49","","","","","","","","","","","","","","","","","","",""
"","html-keyboard-response","14","145451","0.0-14.0","null","<br><br><br><br><p><img src='run_exp/static/images/blue_win.png' height='500'></p>","null","","","","","","","","","","","","","","","","","","",""
"","html-keyboard-response","15","147060","0.0-15.0","1608.999999999971","<br><br><br><br><p><img src='run_exp/static/images/blue.png' height='500'></p>","49","","","","","","","","","","","","","","","","","","",""
"","html-keyboard-response","16","148561","0.0-16.0","null","<br><br><br><br><p><img src='run_exp/static/images/blue_win.png' height='500'></p>","null","","","","","","","","","","","","","","","","","","",""
"","html-keyboard-response","17","149676","0.0-17.0","1114","<br><br><br><br><p><img src='run_exp/static/images/blue.png' height='500'></p>","49","","","","","","","","","","","","","","","","","","",""
"","html-keyboard-response","18","151178","0.0-18.0","null","<br><br><br><br><p><img src='run_exp/static/images/blue_win.png' height='500'></p>","null","","","","","","","","","","","","","","","","","","",""
"","html-keyboard-response","19","152156","0.0-19.0","978","<br><br><br><br><p><img src='run_exp/static/images/blue.png' height='500'></p>","49","","","","","","","","","","","","","","","","","","",""
"","html-keyboard-response","20","153657","0.0-20.0","null","<br><br><br><br><p><img src='run_exp/static/images/blue_no_win.png' height='500'></p>","null","","","","","","","","","","","","","","","","","","",""
"","html-keyboard-response","21","154812","0.0-21.0","1154","<br><br><br><br><p><img src='run_exp/static/images/blue.png' height='500'></p>","49","","","","","","","","","","","","","","","","","","",""
"","html-keyboard-response","22","156314","0.0-22.0","null","<br><br><br><br><p><img src='run_exp/static/images/blue_win.png' height='500'></p>","null","","","","","","","","","","","","","","","","","","",""
"","html-keyboard-response","23","157668","0.0-23.0","1353.999999999971","<br><br><br><br><p><img src='run_exp/static/images/blue.png' height='500'></p>","49","","","","","","","","","","","","","","","","","","",""
"","html-keyboard-response","24","159170","0.0-24.0","null","<br><br><br><br><p><img src='run_exp/static/images/blue_win.png' height='500'></p>","null","","","","","","","","","","","","","","","","","","",""
"","html-keyboard-response","25","162164","0.0-25.0","2994","<div class='center'><p> See, he was successful at robbing the ships most of the time but not every time. </p><p><b>[Press the space bar to continue]</b></p></div>","32","","","","","","","","","","","","","","","","","","",""
"","html-keyboard-response","26","170811","0.0-26.0","8647","<div class='center'><p>In the game, you will get to choose which of three pirates you want to rob the next ship. <p>Press the <b>‘1’</b> button on your keyboard to pick the pirate with the red beard.</p><p> Press <b>‘2’</b> to pick the pirate with the white beard.</p><p> Press <b>‘3’</b> to pick the pirate with the black beard.</p><p>Try picking a pirate now!</p><p><img src='run_exp/static/images/all_pirates.png' height='500'></p></div>","50","","","","","","","","","","","","","","","","","","",""
"","html-keyboard-response","27","175027","0.0-27.0-0.0","4215","<div class='center'><p>This pirate was successful at robbing the ship!</p><p><img src='run_exp/static/images/white_win.png' height='500'></p><p><b>[Press the space bar to continue]</b></p></div>","32","","","","","","","","","","","","","","","","","","",""
"","html-keyboard-response","28","178451","0.0-27.0-1.0","3423","<div class='center'><p>Now try choosing another</p><p><img src='run_exp/static/images/all_pirates.png' height='500'></p></div>","51","","","","","","","","","","","","","","","","","","",""
"","html-keyboard-response","29","180219","0.0-28.0-0.0","1767","<div class='center'><p>This pirate was not successful at robbing the ship!</p><p><img src='run_exp/static/images/black_no_win.png' height='500'></p><p><b>[Press the space bar to continue]</b></p></div>","32","","","","","","","","","","","","","","","","","","",""
"","html-keyboard-response","30","185227","0.0-29.0-0.0","5007","<div class='center'><p>You’ll stop at these 6 places on your journey.</p><p><img src='run_exp/static/images/all_contexts.png' height='500'></p><p><b>[Press the space bar to continue]</b></p></div>","32","","","","","","","","","","","","","","","","","","",""
"","html-keyboard-response","31","191242","0.0-29.0-1.0","6015","<div class='center'><p>How good a pirate is at robbing ships will depend on the current place.</p><p> Some pirates will have been to the place before, and will have more experience robbing ships there.</p><p>So, they will be more successful at stealing gold and bringing it back to you.</p><p><b>[Press the space bar to continue]</b></p></div>","32","","","","","","","","","","","","","","","","","","",""
"","html-keyboard-response","32","206794","0.0-29.0-2.0","15552","<div class='center'><p>How successful a pirate is at robbing ships can also change in a place.<p> Ships may hear about the pirates coming and will improve their defenses. This may make it more difficult to rob them.</p><p> Ships may also grow lazy and lower their defenses. This may make it easier to rob them.</p><br><p>Things are always changing on the high seas! So, try your best to pay attention!</p><p><img src='run_exp/static/images/contingency.png' height='500'></p><p><b>[Press the space bar to continue]</b></p></div>","32","","","","","","","","","","","","","","","","","","",""
"","html-keyboard-response","33","242032","0.0-29.0-3.0","35239.00000000003","<div class='center'><p>Once you choose a pirate to rob a ship, you’ll be shown the ship they are robbing.</p><p>The ship will have a picture of the item they sold at the marketplace.</p><p> Try your best to remember the ship and where you saw the ship.</p><p> You’ll have to remember this for later, and remembering this correctly will help you win more bonus money!</p><p>You can remember the ship by remembering the item they sold at the marketplace</p><p>A helpful strategy is to try to come up with a story of the chosen pirate and ship’s item interacting with the scene.</p><p> For example, a ship might have sold travel mugs and you could imagine red beard walking through the city with a travel mug. </p><p>Or imagine an apple falling from a tree into white beard's hands in the forest.</p><p><img src='run_exp/static/images/example_probe.png' height='500'></p><p><b>[Press the space bar to continue]</b></p></div>","32","","","","","","","","","","","","","","","","","","",""
"","html-keyboard-response","34","251823","0.0-29.0-4.0","9791","<div class='center'><p>If you don’t make your choice fast enough, you’ll have to wait a few seconds before you can make another one. </p><p>You can’t win more gold. You just have to sit and wait.</p><p><img src='run_exp/static/images/hurry_up.png' height='500'></p><p><b>[Press the space bar to continue]</b></p></div>","32","","","","","","","","","","","","","","","","","","",""
"","html-keyboard-response","35","310436","0.0-29.0-5.0","58614.99999999994","<div class='center'><p>Again, you have two important things to do: </p><b><p> 1. Pick the pirate who you think will be most successful at robbing the next ship.</p></b><b><p> 2. Remember where a pirate robbed a ship.</p> </b><p>Both are important in determining how much bonus money you’ll win.</p><br><p>Let’s try a practice game. The game will start by showing you the pirates. First pick a pirate using the <b> 1, 2, 3 </b> buttons on your keyboard. When you are shown a ship, try to remember the place you’re in by making up a story.</p><p> You only have 3 seconds to pick a pirate, so please make a choice quickly! If you are too slow, you’ll have to wait a bit during the time out.</p><p> Don’t feel rushed, but please do try to make a choice every time.</p><p>How good a pirate is at robbing a ship will change depending on the place they are in and how good the defenses are of the ship.</p> <p>This is just a practice game, so you’re not playing for money. </p><p>You’ll receive a bag which may or may not contain gold coins.</p><p> In the real game, though, you’ll be able to see whether or not you received the gold coins.</p><p> Good luck, remember press <b>'1'</b> to choose red beard, <b>'2'</b> to choose white beard, and <b>'3'</b> to choose black beard</p><p><b>[Press the space bar to begin the practice game]</b></p></div>","32","","","","","","","","","","","","","","","","","","",""
"","do_trial_prac","36","316385","0.0-29.0-6.0","1444","","","","50","","","","","","","","","","","","","","","","",""
"","do_trial_prac","37","323800","0.0-29.0-7.0","2912","","","","49","","","","","","","","","","","","","","","","",""
"","do_trial_prac","38","329805","0.0-29.0-8.0","null","","","","null","","","","","","","","","","","","","","","","",""
"","do_trial_prac","39","337295","0.0-29.0-9.0","2986.999999999942","","","","51","","","","","","","","","","","","","","","","",""
"","do_trial_prac","40","342975","0.0-29.0-10.0","1177","","","","50","","","","","","","","","","","","","","","","",""
"","html-keyboard-response","41","349921","0.0-29.0-11.0","6946","<div class='center'><p>Great job on the practice game!</p><p> Now, you will be asked you some true or false questions to make sure you really understand the rules of the game.</p><p> Press <b>'1'</b> on the keyboard for true and press <b>'2'</b> for false.</p><p><b>[Press the space bar to begin the quiz]</b></p></div>","32","","","","","","","","","","","","","","","","","","",""
"","html-keyboard-response","42","359297","0.0-29.0-12.0","9375","<div class='center'><p>You win bonus money by making choices as fast as possible.</p><p>Press 1 for true and press  2 for false.</p></div>","50","","","","","","","","","","","","","","","","","","",""
"","html-keyboard-response","43","360857","0.0-30.0-0.0","1559","<br><br><br><br><p>That's correct!</p> <p><b>[press the space bar to continue with the quiz]</b></p>","32","","","","","","","","","","","","","","","","","","",""
"","html-keyboard-response","44","367241","0.0-30.0-1.0","6383.000000000058","<div class='center'><p>You press the <b>‘3’</b> button on the keyboard to choose the red bearded pirate? </p><p>Press 1 for true and press  2 for false.</p></div>","50","","","","","","","","","","","","","","","","","","",""
"","html-keyboard-response","45","368017","0.0-31.0-0.0","775","<br><br><br><br><p>That's correct!</p> <p><b>[press the space bar to continue with the quiz]</b></p>","32","","","","","","","","","","","","","","","","","","",""
"","html-keyboard-response","46","371624","0.0-31.0-1.0","3607","<div class='center'><p>A pirate will always be equally successful at robbing ships in each place</p><p>Press 1 for true and press  2 for false.</p></div>","50","","","","","","","","","","","","","","","","","","",""
"","html-keyboard-response","47","372720","0.0-32.0-0.0","1095","<br><br><br><br><p>That's correct!</p> <p><b>[press the space bar to continue with the quiz]</b></p>","32","","","","","","","","","","","","","","","","","","",""
"","html-keyboard-response","48","377736","0.0-32.0-1.0","5015","<div class='center'><p>You should remember the place where a pirate robbed a ship.</p><p>Press 1 for true and press  2 for false.</p></div>","49","","","","","","","","","","","","","","","","","","",""
"","html-keyboard-response","49","378400","0.0-33.0-0.0","659","<br><br><br><br><p>That's correct!</p> <p><b>[press the space bar to continue with the quiz]</b></p>","32","","","","","","","","","","","","","","","","","","",""
"","html-keyboard-response","50","379944","0.0-34.0-0.0","1542.9999999999418","<br><br><br><br><p>Good job! You’re now ready to move on to the real game!</p> <p><br>[press the space bar to begin!]</br></p>","32","","","","","","","","","","","","","","","","","","",""
"","do_welcome","51","381447","0.0-35.0-0.0","null","","","","null","","","","","","","","","","","","","","","","",""
"","do_trial","52","387517","0.0-36.0-0.0","1539","","","","49","1,0,0","0","countryside","0","probe-159","1","0.4","0.1","1","","","","","","","",""
"","do_trial","53","394324","0.0-37.0-0.0","2278.000000000058","","","","49","1,0,0","0","countryside","1","probe-223","1","0.4228953119007492","0.07406598481465282","1","","","","","","","",""
"","do_trial","54","400628","0.0-38.0-0.0","1774","","","","51","1,0,0","0","countryside","2","probe-06","1","0.43140378831991","0.058621141319086204","0","","","","","","","",""
"","do_trial","55","406532","0.0-39.0-0.0","1374","","","","50","1,1,0","0","countryside","3","probe-77","1","0.4939837102825744","0.16617373620303666","1","","","","","","","",""
"","do_trial","56","412331","0.0-40.0-0.0","1269.9999999999418","","","","49","1,0,0","0","countryside","4","probe-116","0.9370158929146757","0.577786273500285","0.0833974699574191","1","","","","","","","",""
"","do_trial","57","418347","0.0-41.0-0.0","1485.0000000000582","","","","50","1,1,0","0","countryside","5","probe-54","0.8018955113219792","0.378619104699012","0.08180294189471654","1","","","","","","","",""
"","do_trial","58","423786","0.0-42.0-0.0","909.0000000000582","","","","50","1,0,0","0","countryside","6","probe-143","0.8076421817048752","0.45619092279220425","0.06080976298480886","0","","","","","","","",""
"","do_trial","59","429682","0.0-43.0-0.0","1366.9999999999418","","","","49","1,0,1","0","countryside","7","probe-73","0.8897261876816432","0.4412819702372169","0.09425656356443028","1","","","","","","","",""
"","do_trial","60","435162","0.0-44.0-0.0","951","","","","49","1,0,0","0","countryside","8","probe-199","0.8272872318214237","0.5315741553550452","0.09446296408865056","1","","","","","","","",""
"","do_trial","61","440609","0.0-45.0-0.0","919","","","","49","1,1,0","0","countryside","9","probe-63","0.792409959576206","0.4739652312850253","0.13248886208179933","1","","","","","","","",""
"","do_trial","62","446153","0.0-46.0-0.0","1016","","","","49","0,1,1","0","countryside","10","probe-24","0.5570843518951215","0.6514686933840618","0.06849231870996075","0","","","","","","","",""
"","do_trial","63","451737","0.0-47.0-0.0","1053","","","","50","0,0,0","0","countryside","11","probe-208","0.49111278322328533","0.8485963881901512","0.10702115165326223","0","","","","","","","",""
"","do_trial","64","457257","0.0-48.0-0.0","987","","","","51","0,1,0","0","countryside","12","probe-27","0.48723355075859415","0.8483514771362001","0.06881180283683926","0","","","","","","","",""
"","do_trial","65","462154","0.0-49.0-0.0","366","","","","49","1,1,0","0","countryside","13","probe-226","0.48602216147454697","0.9125751073959077","0.10980380285603053","1","","","","","","","",""
"","do_trial","66","467625","0.0-50.0-0.0","941","","","","49","0,1,0","0","countryside","14","probe-117","0.48171007657432596","0.8513951962075496","0.14872770624626672","0","","","","","","","",""
"","do_trial","67","472977","0.0-51.0-0.0","823","","","","49","1,1,0","0","countryside","15","probe-109","0.5801969687994648","0.9356593043341214","0.17122277888348772","1","","","","","","","",""
"","do_trial","68","478441","0.0-52.0-0.0","934","","","","49","1,1,0","0","countryside","16","probe-89","0.46461301477662564","0.9461715815824594","0.20444662588372103","1","","","","","","","",""
"","do_trial","69","483848","0.0-53.0-0.0","880","","","","49","1,1,0","0","countryside","17","probe-41","0.3898350430539218","0.906576696267473","0.22168223222050426","1","","","","","","","",""
"","do_trial","70","489191","0.0-54.0-0.0","816","","","","49","0,1,0","0","countryside","18","probe-51","0.3519341670203335","0.8917960641098215","0.06841527344141778","0","","","","","","","",""
"","do_trial","71","494824","0.0-55.0-0.0","1104.0000000000582","","","","50","1,1,0","0","countryside","19","probe-178","0.47523720892272386","0.7846819445469403","0.17355643353923378","1","","","","","","","",""
"","do_trial","72","500184","0.0-56.0-0.0","832","","","","50","0,1,0","0","countryside","20","probe-98","0.5484530235643014","0.6978886336985107","0.2831074327764815","1","","","","","","","",""
"","do_trial","73","505751","0.0-57.0-0.0","1040","","","","50","1,0,0","0","countryside","21","probe-217","0.3106093561403572","0.669381269543477","0.30726296108435924","0","","","","","","","",""
"","do_trial","74","511119","0.0-58.0-0.0","839.0000000000582","","","","49","0,1,0","0","countryside","22","probe-93","0.30615245862410945","0.5958773889928317","0.25519885945010523","0","","","","","","","",""
"","do_trial","75","516183","0.0-59.0-0.0","535","","","","49","1,1,0","0","countryside","23","probe-175","0.41227706263626995","0.6809644749240336","0.17559852070559487","1","","","","","","","",""
"","do_trial","76","521486","0.0-60.0-0.0","776","","","","51","1,1,0","0","countryside","24","probe-33","0.42700640995917016","0.5331616581870479","0.1557619984369766","0","","","","","","","",""
"","do_trial","77","526950","0.0-61.0-0.0","937","","","","49","1,1,0","0","countryside","25","probe-10","0.42612426991029817","0.6092707951086833","0.10991553735331781","1","","","","","","","",""
"","do_trial","78","532686","0.0-62.0-0.0","1208","","","","50","1,1,0","0","countryside","26","probe-167","0.3320525208112072","0.8040645042865064","0.1967395390762758","1","","","","","","","",""
"","do_trial","79","537862","0.0-63.0-0.0","647","","","","49","1,1,0","0","countryside","27","probe-108","0.3561977579814712","0.8834918819031908","0.053065862394666874","1","","","","","","","",""
"","do_trial","80","543229","0.0-64.0-0.0","836","","","","49","0,1,0","0","countryside","28","probe-03","0.350457207115206","0.9098316546586053","0.067427193152412","0","","","","","","","",""
"","do_trial","81","548597","0.0-65.0-0.0","838","","","","49","1,1,1","0","countryside","29","probe-174","0.3280188847060248","0.8579666746190477","0.09413490791153699","1","","","","","","","",""
"","do_trial","82","553956","0.0-66.0-0.0","827","","","","50","0,1,0","0","countryside","30","probe-235","0.41930967961701926","0.8113233563258618","0.11051819665241981","1","","","","","","","",""
"","do_trial","83","559268","0.0-67.0-0.0","784.0000000001164","","","","49","0,0,0","0","countryside","31","probe-157","0.3769785134898367","0.8932076237779842","0.078450955295644","0","","","","","","","",""
"","do_trial","84","564988","0.0-68.0-0.0","1192","","","","49","0,1,0","0","countryside","32","probe-197","0.2777561879621439","0.7223901398556896","0.1394705115924897","0","","","","","","","",""
"","do_trial","85","570092","0.0-69.0-0.0","575","","","","50","0,1,0","0","countryside","33","probe-17","0.33814122973588384","0.7936502793658007","0.0930109442437141","1","","","","","","","",""
"","do_trial","86","575059","0.0-70.0-0.0","438","","","","50","0,1,0","0","countryside","34","probe-94","0.3671562864370746","0.825822535890297","0.15139864027044272","1","","","","","","","",""
"","do_trial","87","580099","0.0-71.0-0.0","512.0000000001164","","","","50","0,1,0","0","countryside","35","probe-46","0.3309855087266839","0.9291037713559942","0.24996870514099848","1","","","","","","","",""
"","do_trial","88","585403","0.0-72.0-0.0","775","","","","49","1,1,0","0","countryside","36","probe-09","0.44432387244802024","0.8655320529789512","0.09373922859296191","1","","","","","","","",""
"","do_trial","89","590594","0.0-73.0-0.0","664","","","","49","0,1,0","0","countryside","37","probe-49","0.33467190540359054","0.8798115856390092","0.05026946169873628","0","","","","","","","",""
"","do_trial","90","596050","0.0-74.0-0.0","927.9999999998836","","","","50","0,1,0","0","countryside","38","probe-96","0.5178274818819797","0.7499226192421948","0.12514583705423804","1","","","","","","","",""
"","do_trial","91","601137","0.0-75.0-0.0","558","","","","50","0,1,1","0","countryside","39","probe-125","0.35049158853050744","0.6861276969637639","0.15466268518201623","1","","","","","","","",""
"","do_bye","92","602641","0.0-76.0-0.0","null","","","","null","","","","","","","","","","","","","","","","",""
"","do_travel","93","608643","0.0-77.0-0.0","null","","","","null","","","","","","","","","","","","","","","","",""
"","do_welcome","94","610146","0.0-77.0-1.0","null","","","","null","","","","","","","","","","","","","","","","",""
"","do_trial","95","615976","0.0-78.0-0.0","1302","","","","51","0,1,0","1","mountain","40","probe-161","0.30596631276795555","1","0.14417665006774802","0","","","","","","","",""
"","do_trial","96","621496","0.0-79.0-0.0","990.0000000001164","","","","50","0,1,0","1","mountain","41","probe-82","0.3378091390003896","1","0.08499643975806023","1","","","","","","","",""
"","do_trial","97","626913","0.0-80.0-0.0","888","","","","50","1,1,1","1","mountain","42","probe-79","0.3870650963304986","1","0.08903969703424519","1","","","","","","","",""
"","do_trial","98","632832","0.0-81.0-0.0","1391","","","","51","0,1,0","1","mountain","43","probe-194","0.34877006262416826","1","0.13488901643624843","0","","","","","","","",""
"","do_trial","99","637896","0.0-82.0-0.0","535.9999999998836","","","","49","1,1,0","1","mountain","44","probe-61","0.32673956262512366","0.8597521890944141","0.18260347278105765","1","","","","","","","",""
"","do_trial","100","643048","0.0-83.0-0.0","624","","","","50","1,1,0","1","mountain","45","probe-42","0.324558879650739","0.7576986244065426","0.1762012619460366","1","","","","","","","",""
"","do_trial","101","648520","0.0-84.0-0.0","943","","","","50","0,1,0","1","mountain","46","probe-229","0.31155154900602905","0.884715928402026","0.05552378152516331","1","","","","","","","",""
"","do_trial","102","653647","0.0-85.0-0.0","600","","","","50","0,1,0","1","mountain","47","probe-200","0.2782752148275934","0.8555852751181712","0.11009002552080216","1","","","","","","","",""
"","do_trial","103","659151","0.0-86.0-0.0","976","","","","49","1,1,0","1","mountain","48","probe-152","0.251215538239823","0.7999882091205655","0.12285262408141176","1","","","","","","","",""
"","do_trial","104","664606","0.0-87.0-0.0","927","","","","50","0,1,0","1","mountain","49","probe-45","0.22925021261153405","0.8058440152723819","0.1359692489751131","1","","","","","","","",""
"","do_trial","105","669686","0.0-88.0-0.0","551","","","","50","1,1,0","1","mountain","50","probe-158","0.37753617224934943","0.652737321056706","0.06561114679949234","1","","","","","","","",""
"","do_trial","106","675157","0.0-89.0-0.0","943","","","","49","0,1,0","1","mountain","51","probe-134","0.5448999470575502","0.5780680491185178","0.09723501365387904","0","","","","","","","",""
"","do_trial","107","680925","0.0-90.0-0.0","1240","","","","49","1,0,0","1","mountain","52","probe-187","0.7203122901737787","0.3727102758249971","0.11507258731744717","1","","","","","","","",""
"","do_trial","108","686926","0.0-91.0-0.0","1472","","","","50","1,1,0","1","mountain","53","probe-133","0.7972288597999182","0.43270540856219714","0.0807967114751736","1","","","","","","","",""
"","do_trial","109","692613","0.0-92.0-0.0","1159","","","","51","1,1,0","1","mountain","54","probe-218","0.7091029658754774","0.4430132723996726","0.16887954768677424","0","","","","","","","",""
"","do_trial","110","697989","0.0-93.0-0.0","847","","","","50","1,0,0","1","mountain","55","probe-202","0.7737142532084615","0.44394285658803206","0.19032838140427152","0","","","","","","","",""
"","do_trial","111","703420","0.0-94.0-0.0","901","","","","50","1,1,1","1","mountain","56","probe-156","0.8554157785494896","0.3968977970445932","0.10107881151284359","1","","","","","","","",""
"","do_trial","112","709756","0.0-95.0-0.0","1806","","","","49","0,1,0","1","mountain","57","probe-231","0.789081158737913","0.4193192620759901","0.10802831167114371","0","","","","","","","",""
"","do_trial","113","715396","0.0-96.0-0.0","1109","","","","50","1,1,0","1","mountain","58","probe-206","0.8416523970459039","0.4360697852321052","0.1502632790209538","1","","","","","","","",""
"","do_trial","114","721052","0.0-97.0-0.0","1126","","","","50","1,1,0","1","mountain","59","probe-182","0.917280740870588","0.42180991192145373","0.12045801008432436","1","","","","","","","",""
"","do_trial","115","726571","0.0-98.0-0.0","989","","","","50","1,0,1","1","mountain","60","probe-14","0.9036197508990254","0.4687188478250174","0.1877164043598232","0","","","","","","","",""
"","do_trial","116","732211","0.0-99.0-0.0","1110.0000000001164","","","","49","0,0,1","1","mountain","61","probe-135","0.8333341551068466","0.4417566961423126","0.1183850820516352","0","","","","","","","",""
"","do_trial","117","737138","0.0-100.0-0.0","393","","","","49","0,0,0","1","mountain","62","probe-190","0.8051436713113829","0.3884367467951473","0.15825436405047147","0","","","","","","","",""
"","do_trial","118","742946","0.0-101.0-0.0","1268","","","","50","1,0,0","1","mountain","63","probe-179","0.8054711690809175","0.4244648198069166","0.15138297369267908","0","","","","","","","",""
"","do_trial","119","748170","0.0-102.0-0.0","684","","","","49","0,0,0","1","mountain","64","probe-212","0.7638347914028456","0.29530512423229055","0.09040795410227076","0","","","","","","","",""
"","do_trial","120","753034","0.0-103.0-0.0","323.9999999998836","","","","51","1,0,0","1","mountain","65","probe-136","0.8844966083108473","0.2258941058176713","0.2299169542134398","0","","","","","","","",""
"","do_trial","121","758794","0.0-104.0-0.0","1219","","","","50","1,0,1","1","mountain","66","probe-53","0.9493100818527009","0.21762954524657774","0.18066258738381819","0","","","","","","","",""
"","do_trial","122","764409","0.0-105.0-0.0","1076","","","","50","1,1,0","1","mountain","67","probe-176","0.9123391866044297","0.3183788423994149","0.12675476716085188","1","","","","","","","",""
"","do_trial","123","770153","0.0-106.0-0.0","1204","","","","50","1,0,0","1","mountain","68","probe-80","0.8539977416800819","0.5326625358945809","0.24815780795877898","0","","","","","","","",""
"","do_trial","124","776112","0.0-107.0-0.0","1421.0000000001164","","","","50","0,0,1","1","mountain","69","probe-13","0.7601268781237667","0.4182771907884674","0.2571591664444737","0","","","","","","","",""
"","do_trial","125","782153","0.0-108.0-0.0","null","","","","null","1,0,0","1","mountain","70","probe-163","0.6769851358072634","0.28848056360047936","0.16178024625683102","","","","","","","","",""
"","do_trial","126","787856","0.0-109.0-0.0","1162","","","","49","0,0,0","1","mountain","71","probe-05","0.6736378953805159","0.3638313823662678","0.10959947443709793","0","","","","","","","",""
"","do_trial","127","793528","0.0-110.0-0.0","1132","","","","50","1,1,0","1","mountain","72","probe-65","0.6890143639284217","0.3956125104396575","0.21942843206579152","1","","","","","","","",""
"","do_trial","128","799175","0.0-111.0-0.0","1108","","","","50","1,1,0","1","mountain","73","probe-26","0.6677532968540463","0.4127991101671566","0.24259800288709585","1","","","","","","","",""
"","do_trial","129","804663","0.0-112.0-0.0","948","","","","49","1,1,0","1","mountain","74","probe-213","0.5723576824671358","0.31471602778472846","0.14856010694251467","1","","","","","","","",""
"","do_trial","130","810303","0.0-113.0-0.0","1100.0000000001164","","","","50","1,0,0","1","mountain","75","probe-23","0.5743678183894062","0.3739452897019856","0.17105692219245786","0","","","","","","","",""
"","do_trial","131","816286","0.0-114.0-0.0","1444","","","","49","1,0,0","1","mountain","76","probe-105","0.6918298991464213","0.3861973029115807","0.16744748010903737","1","","","","","","","",""
"","do_trial","132","822694","0.0-115.0-0.0","1867.9999999998836","","","","49","0,0,0","1","mountain","77","probe-101","0.7447608885861665","0.4222971001355238","0.1423406062204036","0","","","","","","","",""
"","do_trial","133","828678","0.0-116.0-0.0","1444","","","","50","1,0,0","1","mountain","78","probe-131","0.7237476446709425","0.4556169883244019","0.2837669786435189","0","","","","","","","",""
"","do_trial","134","834381","0.0-117.0-0.0","1161","","","","49","1,0,1","1","mountain","79","probe-76","0.7803265953007064","0.40654668430516333","0.13483699109636213","1","","","","","","","",""
"","do_bye","135","835885","0.0-118.0-0.0","null","","","","null","","","","","","","","","","","","","","","","",""
"","do_travel","136","841888","0.0-119.0-0.0","null","","","","null","","","","","","","","","","","","","","","","",""
"","do_welcome","137","843392","0.0-119.0-1.0","null","","","","null","","","","","","","","","","","","","","","","",""
"","do_trial","138","849995","0.0-120.0-0.0","2064","","","","50","1,1,0","2","forest","80","probe-126","1","0.41641124320151385","0.2400057277457617","1","","","","","","","",""
"","do_trial","139","855484","0.0-121.0-0.0","949","","","","50","1,0,1","2","forest","81","probe-32","1","0.42722579341020483","0.2465600322101085","0","","","","","","","",""
"","do_trial","140","860964","0.0-122.0-0.0","938","","","","51","1,1,0","2","forest","82","probe-70","1","0.4997894110180956","0.14234593219585936","0","","","","","","","",""
"","do_trial","141","866548","0.0-123.0-0.0","1045","","","","51","1,1,1","2","forest","83","probe-188","1","0.4840110769433028","0.2672417573001025","1","","","","","","","",""
"","do_trial","142","871995","0.0-124.0-0.0","909","","","","51","1,0,0","2","forest","84","probe-34","0.9227870676845996","0.3774897865093778","0.14067766811345542","0","","","","","","","",""
"","do_trial","143","877123","0.0-125.0-0.0","588","","","","49","1,1,0","2","forest","85","probe-120","0.88493745075182","0.3427432266135459","0.09142506637880465","1","","","","","","","",""
"","do_trial","144","882394","0.0-126.0-0.0","732.0000000001164","","","","49","1,0,0","2","forest","86","probe-160","0.7560531892255906","0.249798333495889","0.18495918259947344","1","","","","","","","",""
"","do_trial","145","887547","0.0-127.0-0.0","612.9999999998836","","","","50","0,0,0","2","forest","87","probe-124","0.7546852336757889","0.2133412088929379","0.07482296087736601","0","","","","","","","",""
"","do_trial","146","893130","0.0-128.0-0.0","1044.0000000001164","","","","50","1,0,0","2","forest","88","probe-192","0.7891722849983966","0.23009260928076514","0.14596139385371296","0","","","","","","","",""
"","do_trial","147","898074","0.0-129.0-0.0","405","","","","50","1,0,0","2","forest","89","probe-118","0.9466892136350085","0.22238175576412814","0.2360804122118283","0","","","","","","","",""
"","do_trial","148","902969","0.0-130.0-0.0","353.9999999998836","","","","49","0,0,1","2","forest","90","probe-74","0.6680917290373191","0.4698384055421254","0.36975887650085476","0","","","","","","","",""
"","do_trial","149","907896","0.0-131.0-0.0","389","","","","51","0,1,1","2","forest","91","probe-15","0.4411238902065114","0.5855367169419956","0.42233949753826516","1","","","","","","","",""
"","do_trial","150","912913","0.0-132.0-0.0","476","","","","51","0,1,0","2","forest","92","probe-107","0.30478008541288","0.6557287392417094","0.323335684949596","0","","","","","","","",""
"","do_trial","151","918368","0.0-133.0-0.0","916.0000000001164","","","","49","0,0,0","2","forest","93","probe-121","0.10007669142350409","0.5995443783206568","0.34903001819957447","0","","","","","","","",""
"","do_trial","152","923689","0.0-134.0-0.0","780","","","","51","0,0,0","2","forest","94","probe-221","0.10154609121213365","0.6207603231354852","0.22488937854213184","0","","","","","","","",""
"","do_trial","153","929648","0.0-135.0-0.0","1420.0000000001164","","","","51","0,0,0","2","forest","95","probe-230","0.20774047727435552","0.7628691312814752","0.2606106118972299","0","","","","","","","",""
"","do_trial","154","934632","0.0-136.0-0.0","444","","","","51","0,0,0","2","forest","96","probe-86","0.06738292994722393","0.829363050295592","0.3674498239844128","0","","","","","","","",""
"","do_trial","155","939512","0.0-137.0-0.0","341","","","","50","1,1,0","2","forest","97","probe-28","0.11503091386070241","0.865315615066315","0.26616107343684176","1","","","","","","","",""
"","do_trial","156","944879","0.0-138.0-0.0","828.9999999998836","","","","49","1,1,0","2","forest","98","probe-168","0.06475893077086303","0.9116765266892618","0.22411410414177155","1","","","","","","","",""
"","do_trial","157","949679","0.0-139.0-0.0","259","","","","50","0,0,1","2","forest","99","probe-139","0.06075558650813208","0.680098774593771","0.31163106337204516","0","","","","","","","",""
"","do_trial","158","954903","0.0-140.0-0.0","684.9999999998836","","","","50","0,1,1","2","forest","100","probe-60","0.16957260579712466","0.7783559579065189","0.3948682629064163","1","","","","","","","",""
"","do_trial","159","960486","0.0-141.0-0.0","1043","","","","50","1,0,1","2","forest","101","probe-204","0.11772883957152262","0.6861132949940608","0.3759465765400386","0","","","","","","","",""
"","do_trial","160","965438","0.0-142.0-0.0","411.9999999998836","","","","49","0,1,0","2","forest","102","probe-84","0.13143175750734584","0.5632928316427015","0.38271160831325135","0","","","","","","","",""
"","do_trial","161","971286","0.0-143.0-0.0","1308.9999999998836","","","","50","0,1,1","2","forest","103","probe-36","0.2493569398812276","0.798735464772329","0.30376577045018893","1","","","","","","","",""
"","do_trial","162","976662","0.0-144.0-0.0","837","","","","50","0,1,1","2","forest","104","probe-104","0.1450326530430009","0.7065341066826087","0.33964916348020247","1","","","","","","","",""
"","do_trial","163","981901","0.0-145.0-0.0","700","","","","49","0,0,0","2","forest","105","probe-48","0.05314643030834981","0.6952654143454747","0.2951086777525394","0","","","","","","","",""
"","do_trial","164","987965","0.0-146.0-0.0","1525","","","","51","0,1,0","2","forest","106","probe-232","0.09321592978964788","0.7343467815514506","0.46199033963088265","0","","","","","","","",""
"","do_trial","165","993493","0.0-147.0-0.0","988","","","","50","0,1,0","2","forest","107","probe-203","0.07193745524760947","0.8207947966414217","0.3570821347092046","1","","","","","","","",""
"","do_trial","166","998565","0.0-148.0-0.0","531.9999999998836","","","","49","0,1,1","2","forest","108","probe-56","0.05805826356353176","0.9049157993544183","0.38524153758455704","0","","","","","","","",""
"","do_trial","167","1003707","0.0-149.0-0.0","605","","","","49","0,1,0","2","forest","109","probe-83","0.11224057599378683","0.8904991453224108","0.2337197847633817","0","","","","","","","",""
"","do_trial","168","1008539","0.0-150.0-0.0","293","","","","49","0,1,1","2","forest","110","probe-173","0.17998366591495343","0.8893001247262641","0.3200942859106402","0","","","","","","","",""
"","do_trial","169","1013732","0.0-151.0-0.0","653","","","","50","0,1,1","2","forest","111","probe-38","0.1461014426386129","0.8333090289238417","0.33498924729343765","1","","","","","","","",""
"","do_trial","170","1019699","0.0-152.0-0.0","1431.0000000001164","","","","50","0,1,0","2","forest","112","probe-207","0.23302245933754762","0.8162854259798672","0.258458676602392","1","","","","","","","",""
"","do_trial","171","1025971","0.0-153.0-0.0","1740","","","","50","0,1,1","2","forest","113","probe-119","0.179747372797726","0.7015095577796051","0.41214078213508737","1","","","","","","","",""
"","do_trial","172","1031699","0.0-154.0-0.0","1197.0000000001164","","","","50","0,1,0","2","forest","114","probe-154","0.16736523330960995","0.7129191580805759","0.5168865991785964","1","","","","","","","",""
"","do_trial","173","1037771","0.0-155.0-0.0","1541","","","","50","0,1,0","2","forest","115","probe-142","0.0938338572790666","0.8694211954952955","0.44759380962438067","1","","","","","","","",""
"","do_trial","174","1044330","0.0-156.0-0.0","2030","","","","49","0,1,0","2","forest","116","probe-01","0.18947272065080648","0.7135984676337802","0.3827117255266026","0","","","","","","","",""
"","do_trial","175","1049170","0.0-157.0-0.0","308.99999999976717","","","","50","0,0,0","2","forest","117","probe-195","0.18672249387764372","0.6870843476699227","0.4464459917713859","0","","","","","","","",""
"","do_trial","176","1055201","0.0-158.0-0.0","null","","","","null","0,1,1","2","forest","118","probe-85","0.21045640698552237","0.6656730315386687","0.39248932958158583","","","","","","","","",""
"","do_trial","177","1060681","0.0-159.0-0.0","949","","","","49","0,1,1","2","forest","119","probe-224","0.1082134095720421","0.7669033289010253","0.5322068032543331","0","","","","","","","",""
"","do_bye","178","1062185","0.0-160.0-0.0","null","","","","null","","","","","","","","","","","","","","","","",""
"","do_travel","179","1068188","0.0-161.0-0.0","null","","","","null","","","","","","","","","","","","","","","","",""
"","do_welcome","180","1069691","0.0-161.0-1.0","null","","","","null","","","","","","","","","","","","","","","","",""
"","do_trial","181","1075695","0.0-162.0-0.0","1475","","","","51","0,1,0","3","coast","120","probe-162","0.16070874021226092","1","0.5358626677933463","0","","","","","","","",""
"","do_trial","182","1081208","0.0-163.0-0.0","983","","","","50","0,1,1","3","coast","121","probe-210","0.11514620452226454","1","0.5760391230648162","1","","","","","","","",""
"","do_trial","183","1087303","0.0-164.0-0.0","1565","","","","50","0,1,0","3","coast","122","probe-43","0.19523644838440746","1","0.5034194165532554","1","","","","","","","",""
"","do_trial","184","1093168","0.0-165.0-0.0","1334","","","","50","0,1,0","3","coast","123","probe-40","0.10258469292804144","1","0.4906754261004736","1","","","","","","","",""
"","do_trial","185","1099527","0.0-166.0-0.0","1829","","","","50","0,1,1","3","coast","124","probe-97","0.07119561858903474","0.9357173459103514","0.5299885003801851","1","","","","","","","",""
"","do_trial","186","1105391","0.0-167.0-0.0","1331","","","","49","0,1,1","3","coast","125","probe-04","0.14548636692160724","0.9345198839034454","0.4508446611748281","0","","","","","","","",""
"","do_trial","187","1112262","0.0-168.0-0.0","2334","","","","50","0,1,1","3","coast","126","probe-69","0.12513477012862237","0.8943390858178591","0.35361912244850074","1","","","","","","","",""
"","do_trial","188","1118398","0.0-169.0-0.0","1608","","","","49","0,0,1","3","coast","127","probe-31","0.1898872882484318","0.944127469462021","0.4019019873083435","0","","","","","","","",""
"","do_trial","189","1125798","0.0-170.0-0.0","2872.000000000233","","","","51","0,1,0","3","coast","128","probe-64","0.08100341232977318","0.942571782515653","0.4537445396410896","0","","","","","","","",""
"","do_trial","190","1132766","0.0-171.0-0.0","2438.999999999767","","","","49","1,1,1","3","coast","129","probe-220","0.074317769461956","0.8100213097632449","0.4271706057149113","1","","","","","","","",""
"","do_trial","191","1137765","0.0-172.0-0.0","470","","","","49","1,0,0","3","coast","130","probe-62","0.37718694290764077","0.7308627747100924","0.28856615380580286","1","","","","","","","",""
"","do_trial","192","1142957","0.0-173.0-0.0","663","","","","50","0,0,0","3","coast","131","probe-57","0.4255864424337997","0.7372123851417198","0.08890389448369235","0","","","","","","","",""
"","do_trial","193","1150028","0.0-174.0-0.0","2544","","","","49","1,0,0","3","coast","132","probe-47","0.6069677221947416","0.6937550666575816","0.054647140555588315","1","","","","","","","",""
"","do_trial","194","1155500","0.0-175.0-0.0","943","","","","49","0,0,0","3","coast","133","probe-153","0.6226927299822841","0.5092356676596318","0.053770119805721","0","","","","","","","",""
"","do_trial","195","1160892","0.0-176.0-0.0","864.0000000002328","","","","50","1,1,1","3","coast","134","probe-114","0.603182637448679","0.40035634894990085","0.09916366038519957","1","","","","","","","",""
"","do_trial","196","1167283","0.0-177.0-0.0","1863","","","","50","1,1,0","3","coast","135","probe-164","0.6775178758138242","0.43550227250375656","0.0578107059506333","1","","","","","","","",""
"","do_trial","197","1172619","0.0-178.0-0.0","808","","","","50","1,1,0","3","coast","136","probe-71","0.7480641829639788","0.49584062010524355","0.1254034045730507","1","","","","","","","",""
"","do_trial","198","1178083","0.0-179.0-0.0","935.0000000002328","","","","50","1,1,1","3","coast","137","probe-58","0.725367438624196","0.5975328082972765","0.06815467678817905","1","","","","","","","",""
"","do_trial","199","1183579","0.0-180.0-0.0","966.9999999997672","","","","49","1,1,1","3","coast","138","probe-211","0.6919601114046381","0.4165409402038849","0.1008095837961533","1","","","","","","","",""
"","do_trial","200","1189098","0.0-181.0-0.0","992","","","","51","0,1,0","3","coast","139","probe-100","0.6559521451462061","0.35745660572151805","0.1352918443774059","0","","","","","","","",""
"","do_trial","201","1195127","0.0-182.0-0.0","null","","","","null","1,0,0","3","coast","140","probe-55","0.881361856986215","0.4397510985561617","0.10912232865873449","","","","","","","","",""
"","do_trial","202","1200656","0.0-183.0-0.0","1000","","","","49","1,1,0","3","coast","141","probe-234","0.7141299813400361","0.5083642234722975","0.17689199351415527","1","","","","","","","",""
"","do_trial","203","1206686","0.0-184.0-0.0","null","","","","null","0,1,0","3","coast","142","probe-35","0.8427440923263552","0.4069449702132101","0.28538986116829584","","","","","","","","",""
"","do_trial","204","1212241","0.0-185.0-0.0","1026","","","","49","1,0,1","3","coast","143","probe-92","0.7769857928797417","0.39913882647182747","0.18980853916483914","1","","","","","","","",""
"","do_trial","205","1217529","0.0-186.0-0.0","760","","","","50","1,1,0","3","coast","144","probe-165","0.8683996632937432","0.39612199449615537","0.08594691255379029","1","","","","","","","",""
"","do_trial","206","1223073","0.0-187.0-0.0","1015","","","","49","1,1,0","3","coast","145","probe-29","0.7745318642395393","0.4862538410916936","0.1038022394079699","1","","","","","","","",""
"","do_trial","207","1228256","0.0-188.0-0.0","655","","","","50","0,0,0","3","coast","146","probe-21","0.7652196202363111","0.4333779115776885","0.1368844165350807","0","","","","","","","",""
"","do_trial","208","1233560","0.0-189.0-0.0","775","","","","49","1,1,1","3","coast","147","probe-240","0.763199721941678","0.5021821705810869","0.1863794851965364","1","","","","","","","",""
"","do_trial","209","1239399","0.0-190.0-0.0","1311","","","","49","0,0,0","3","coast","148","probe-87","0.6524142077473143","0.45779713238896463","0.1778197725651626","0","","","","","","","",""
"","do_trial","210","1245295","0.0-191.0-0.0","1367","","","","50","0,0,0","3","coast","149","probe-148","0.6757059504253029","0.2862126689368604","0.19869308809072","0","","","","","","","",""
"","do_trial","211","1251031","0.0-192.0-0.0","1207.0000000002328","","","","49","1,0,0","3","coast","150","probe-140","0.6276982180616537","0.4116023329104553","0.2748414989628818","1","","","","","","","",""
"","do_trial","212","1256607","0.0-193.0-0.0","1046.9999999997672","","","","49","0,1,0","3","coast","151","probe-172","0.6030326994759758","0.37746063412926745","0.14412558704599984","0","","","","","","","",""
"","do_trial","213","1262158","0.0-194.0-0.0","1024","","","","51","0,0,1","3","coast","152","probe-67","0.5975163832794236","0.32930350075240783","0.13239260781299256","1","","","","","","","",""
"","do_trial","214","1268014","0.0-195.0-0.0","1328","","","","50","1,1,1","3","coast","153","probe-102","0.6656504085123814","0.5180727059795732","0.35357232916954334","1","","","","","","","",""
"","do_trial","215","1274966","0.0-196.0-0.0","2423","","","","50","0,1,1","3","coast","154","probe-106","0.5712936309717871","0.5002782795226048","0.29639113162285524","1","","","","","","","",""
"","do_trial","216","1280670","0.0-197.0-0.0","1175","","","","50","1,0,0","3","coast","155","probe-78","0.48988969498175017","0.49932858780005873","0.2160355706887799","0","","","","","","","",""
"","do_trial","217","1286397","0.0-198.0-0.0","1198","","","","49","1,0,0","3","coast","156","probe-137","0.5471933826941886","0.22647324892388376","0.19249016689156356","1","","","","","","","",""
"","do_trial","218","1291853","0.0-199.0-0.0","928","","","","50","0,0,0","3","coast","157","probe-25","0.5043603041215716","0.2976061770321322","0.22261289813625623","0","","","","","","","",""
"","do_trial","219","1297732","0.0-200.0-0.0","1352","","","","50","1,0,0","3","coast","158","probe-20","0.5726313206048266","0.47986170326704986","0.23838981032593412","0","","","","","","","",""
"","do_trial","220","1302772","0.0-201.0-0.0","512","","","","49","1,0,0","3","coast","159","probe-239","0.7081284542436074","0.4200053313150495","0.228223181174356","1","","","","","","","",""
"","do_bye","221","1304276","0.0-202.0-0.0","null","","","","null","","","","","","","","","","","","","","","","",""
"","do_travel","222","1310278","0.0-203.0-0.0","null","","","","null","","","","","","","","","","","","","","","","",""
"","do_welcome","223","1311782","0.0-203.0-1.0","null","","","","null","","","","","","","","","","","","","","","","",""
"","do_trial","224","1317811","0.0-204.0-0.0","null","","","","null","1,0,1","4","city","160","probe-233","1","0.3745904077850203","0.3439278282172743","","","","","","","","",""
"","do_trial","225","1323803","0.0-205.0-0.0","1460","","","","51","1,0,1","4","city","161","probe-113","1","0.3003610438956731","0.49657218895049304","1","","","","","","","",""
"","do_trial","226","1329419","0.0-206.0-0.0","1086","","","","51","1,1,1","4","city","162","probe-189","1","0.43652150986833677","0.23600227634759008","1","","","","","","","",""
"","do_trial","227","1335242","0.0-207.0-0.0","1295","","","","51","1,1,0","4","city","163","probe-214","1","0.39231226657810475","0.08336018086321449","0","","","","","","","",""
"","do_trial","228","1341273","0.0-208.0-0.0","null","","","","null","1,1,1","4","city","164","probe-183","0.9416804557047848","0.4390697151673145","0.1183587516017525","","","","","","","","",""
"","do_trial","229","1346434","0.0-209.0-0.0","631","","","","49","1,0,1","4","city","165","probe-88","0.8125128523778236","0.44798263241202285","0.17275215428988588","1","","","","","","","",""
"","do_trial","230","1352554","0.0-210.0-0.0","1592","","","","51","1,1,1","4","city","166","probe-222","0.6135126552604254","0.3747653753441908","0.2982591130344923","1","","","","","","","",""
"","do_trial","231","1358745","0.0-211.0-0.0","1661.9999999997672","","","","51","0,0,0","4","city","167","probe-237","0.6057606561832793","0.40289519915863614","0.32616038175297346","0","","","","","","","",""
"","do_trial","232","1364033","0.0-212.0-0.0","760","","","","51","1,1,0","4","city","168","probe-191","0.6740339058850074","0.5061257627169418","0.13831988111384794","0","","","","","","","",""
"","do_trial","233","1369768","0.0-213.0-0.0","1208","","","","49","1,0,1","4","city","169","probe-146","0.63743705811855","0.5622210973449318","0.1716738908704153","1","","","","","","","",""
"","do_trial","234","1375864","0.0-214.0-0.0","1567","","","","50","0,0,1","4","city","170","probe-186","0.4340199166045848","0.501356756248743","0.472375407640752","0","","","","","","","",""
"","do_trial","235","1381976","0.0-215.0-0.0","1584.0000000002328","","","","50","0,0,1","4","city","171","probe-30","0.39236395431399523","0.4782415613892518","0.5616054782736367","0","","","","","","","",""
"","do_trial","236","1387399","0.0-216.0-0.0","895.0000000002328","","","","49","0,0,0","4","city","172","probe-193","0.2204314884185574","0.4928088105624715","0.5795151443875488","0","","","","","","","",""
"","do_trial","237","1392375","0.0-217.0-0.0","446.99999999976717","","","","51","1,1,1","4","city","173","probe-59","0.19175214290881104","0.3952143328258928","0.9147155446352387","1","","","","","","","",""
"","do_trial","238","1397583","0.0-218.0-0.0","680","","","","51","0,0,1","4","city","174","probe-66","0.05996995741260538","0.4723071254745332","0.9421263758927616","1","","","","","","","",""
"","do_trial","239","1403751","0.0-219.0-0.0","1638","","","","51","0,0,1","4","city","175","probe-141","0.20185051328947626","0.2675457681418427","0.8107190483717824","1","","","","","","","",""
"","do_trial","240","1408510","0.0-220.0-0.0","231","","","","51","0,0,1","4","city","176","probe-110","0.07687411518333608","0.3640870960667039","0.8346740110008947","1","","","","","","","",""
"","do_trial","241","1415637","0.0-221.0-0.0","2600.000000000233","","","","51","0,0,1","4","city","177","probe-155","0.06685901619463848","0.6023154893500448","0.6629479048014614","1","","","","","","","",""
"","do_trial","242","1421293","0.0-222.0-0.0","1128","","","","50","0,0,1","4","city","178","probe-37","0.19866709204963862","0.5478697662694423","0.7660901280690418","0","","","","","","","",""
"","do_trial","243","1426581","0.0-223.0-0.0","760","","","","49","0,0,0","4","city","179","probe-39","0.21611716450832164","0.557653602139894","0.7578473781812699","0","","","","","","","",""
"","do_trial","244","1431429","0.0-224.0-0.0","318","","","","51","0,0,1","4","city","180","probe-171","0.1538988993857148","0.4882096039649776","0.7964455202770924","1","","","","","","","",""
"","do_trial","245","1437301","0.0-225.0-0.0","1344","","","","51","0,1,1","4","city","181","probe-149","0.15466860941766558","0.3947568513331586","0.8106669312107826","1","","","","","","","",""
"","do_trial","246","1442412","0.0-226.0-0.0","582.9999999997672","","","","51","0,0,1","4","city","182","probe-138","0.05970074946624265","0.489859653628192","0.7524809163570304","1","","","","","","","",""
"","do_trial","247","1449108","0.0-227.0-0.0","2168","","","","50","0,0,1","4","city","183","probe-144","0.06905594890476868","0.35419375113469764","0.6849577175331477","0","","","","","","","",""
"","do_trial","248","1455652","0.0-228.0-0.0","2015","","","","49","0,1,1","4","city","184","probe-52","0.06141346407341583","0.4765161627488896","0.7017367718974569","0","","","","","","","",""
"","do_trial","249","1462763","0.0-229.0-0.0","2584","","","","51","1,0,1","4","city","185","probe-08","0.1219418339344719","0.3747291971394728","0.7554203915439426","1","","","","","","","",""
"","do_trial","250","1468794","0.0-230.0-0.0","null","","","","null","1,0,1","4","city","186","probe-198","0.1012808475390974","0.3278003036819161","0.7032249979621561","","","","","","","","",""
"","do_trial","251","1473907","0.0-231.0-0.0","584","","","","51","0,1,1","4","city","187","probe-112","0.0883936567196407","0.4020991145275146","0.7289956960879875","1","","","","","","","",""
"","do_trial","252","1479339","0.0-232.0-0.0","904","","","","51","0,0,1","4","city","188","probe-11","0.1423914544697788","0.47051836670707864","0.838861734456328","1","","","","","","","",""
"","do_trial","253","1485610","0.0-233.0-0.0","1744","","","","51","0,1,1","4","city","189","probe-215","0.09294026658037798","0.45503725709563597","0.9490810125299359","1","","","","","","","",""
"","do_trial","254","1491465","0.0-234.0-0.0","1328","","","","51","0,1,1","4","city","190","probe-132","0.10065583095623572","0.5224125406365697","0.9001442195719984","1","","","","","","","",""
"","do_trial","255","1496961","0.0-235.0-0.0","969","","","","51","0,1,1","4","city","191","probe-209","0.11162490334579989","0.6009086380962881","0.7304699823751496","1","","","","","","","",""
"","do_trial","256","1502809","0.0-236.0-0.0","1320","","","","50","0,1,1","4","city","192","probe-115","0.06348708568523442","0.4478465223539914","0.7866308338462352","1","","","","","","","",""
"","do_trial","257","1509337","0.0-237.0-0.0","2000","","","","51","0,0,1","4","city","193","probe-127","0.07368871519603447","0.38717048083322303","0.8437275695620197","1","","","","","","","",""
"","do_trial","258","1515161","0.0-238.0-0.0","1295","","","","49","0,1,0","4","city","194","probe-227","0.12321078145829845","0.32728843777927297","0.8477432591435401","0","","","","","","","",""
"","do_trial","259","1520616","0.0-239.0-0.0","928","","","","51","0,0,1","4","city","195","probe-19","0.2771463172062197","0.2503979060578291","0.8682420019912098","1","","","","","","","",""
"","do_trial","260","1526216","0.0-240.0-0.0","1071","","","","51","1,0,1","4","city","196","probe-128","0.2310354900849069","0.3380367317827145","0.8894384387931173","1","","","","","","","",""
"","do_trial","261","1531567","0.0-241.0-0.0","823","","","","51","0,0,1","4","city","197","probe-177","0.15364798797490786","0.38265512499261173","0.9279096109762471","1","","","","","","","",""
"","do_trial","262","1537255","0.0-242.0-0.0","1160.0000000002328","","","","51","0,0,1","4","city","198","probe-147","0.061547021255634944","0.38438301463899566","0.8592209727047851","1","","","","","","","",""
"","do_trial","263","1542943","0.0-243.0-0.0","1158.9999999997672","","","","50","0,1,1","4","city","199","probe-238","0.08878833042382386","0.3622554042903021","0.8459023333349153","1","","","","","","","",""
"","do_bye","264","1544446","0.0-244.0-0.0","null","","","","null","","","","","","","","","","","","","","","","",""
"","do_travel","265","1550449","0.0-245.0-0.0","null","","","","null","","","","","","","","","","","","","","","","",""
"","do_welcome","266","1551951","0.0-245.0-1.0","null","","","","null","","","","","","","","","","","","","","","","",""
"","do_trial","267","1557933","0.0-246.0-0.0","1454","","","","51","1,0,1","5","highway","200","probe-216","0.1459909602008346","0.3145609736595641","1","1","","","","","","","",""
"","do_trial","268","1562950","0.0-247.0-0.0","487","","","","49","0,1,1","5","highway","201","probe-18","0.14589312704100263","0.27220160441082614","1","0","","","","","","","",""
"","do_trial","269","1568557","0.0-248.0-0.0","1080","","","","50","0,0,1","5","highway","202","probe-225","0.25993357822334245","0.2754795929157321","1","0","","","","","","","",""
"","do_trial","270","1573957","0.0-249.0-0.0","871.0000000002328","","","","50","0,0,1","5","highway","203","probe-219","0.16210371095067438","0.24106536066655196","1","0","","","","","","","",""
"","do_trial","271","1579860","0.0-250.0-0.0","1374","","","","51","0,0,1","5","highway","204","probe-07","0.19624074680998305","0.345592735822965","0.9194970576997813","1","","","","","","","",""
"","do_trial","272","1585781","0.0-251.0-0.0","1392.9999999997672","","","","51","0,0,1","5","highway","205","probe-130","0.3251856664202044","0.11020475963699294","0.9304113973237156","1","","","","","","","",""
"","do_trial","273","1591612","0.0-252.0-0.0","1304","","","","51","1,0,1","5","highway","206","probe-99","0.1708997142528991","0.2211075854807675","0.9144879001755725","1","","","","","","","",""
"","do_trial","274","1598380","0.0-253.0-0.0","2240","","","","51","0,1,1","5","highway","207","probe-181","0.13252580874641515","0.2967314572785174","0.933371827076253","1","","","","","","","",""
"","do_trial","275","1603884","0.0-254.0-0.0","975","","","","51","0,1,1","5","highway","208","probe-02","0.1572086053135437","0.3386250046094281","0.9178284001691348","1","","","","","","","",""
"","do_trial","276","1610164","0.0-255.0-0.0","1752","","","","51","0,1,1","5","highway","209","probe-123","0.12416094122086463","0.4798336081600201","0.9221712153530254","1","","","","","","","",""
"","do_trial","277","1616323","0.0-256.0-0.0","1632","","","","51","1,1,0","5","highway","210","probe-236","0.17651952558196876","0.5439177351042602","0.5565083474686638","0","","","","","","","",""
"","do_trial","278","1623187","0.0-257.0-0.0","2336","","","","50","0,0,0","5","highway","211","probe-169","0.266346644149893","0.5478900862202651","0.2337454677699118","0","","","","","","","",""
"","do_trial","279","1628634","0.0-258.0-0.0","919","","","","49","1,0,0","5","highway","212","probe-166","0.26860435929321413","0.5187050968668524","0.277790577336598","1","","","","","","","",""
"","do_trial","280","1634266","0.0-259.0-0.0","1105","","","","51","0,0,0","5","highway","213","probe-170","0.4238903982714687","0.509301018388344","0.1743376707295928","0","","","","","","","",""
"","do_trial","281","1640562","0.0-260.0-0.0","1766","","","","51","1,1,0","5","highway","214","probe-68","0.2945144971825932","0.5311598458667494","0.2553286183420394","0","","","","","","","",""
"","do_trial","282","1645530","0.0-261.0-0.0","438","","","","51","0,0,0","5","highway","215","probe-151","0.37545273610977814","0.6583859097154878","0.2707954408266808","0","","","","","","","",""
"","do_trial","283","1650680","0.0-262.0-0.0","623.9999999997672","","","","50","1,0,0","5","highway","216","probe-145","0.41503094117188555","0.6876222044481557","0.2785977677944014","0","","","","","","","",""
"","do_trial","284","1656529","0.0-263.0-0.0","1321","","","","49","0,0,0","5","highway","217","probe-150","0.4169714126238649","0.7277963996142981","0.23674438710315435","0","","","","","","","",""
"","do_trial","285","1661833","0.0-264.0-0.0","775.9999999997672","","","","51","0,1,0","5","highway","218","probe-185","0.48912328434652624","0.9020120297040961","0.09349331810492638","0","","","","","","","",""
"","do_trial","286","1667457","0.0-265.0-0.0","1096","","","","51","1,1,0","5","highway","219","probe-44","0.44672634591000804","0.8425681839640496","0.07940142295450603","0","","","","","","","",""
"","do_trial","287","1672432","0.0-266.0-0.0","446.00000000023283","","","","51","1,1,0","5","highway","220","probe-90","0.38894723623316374","0.7550376685684346","0.062312196978125164","0","","","","","","","",""
"","do_trial","288","1679671","0.0-267.0-0.0","2710.000000000233","","","","51","0,1,0","5","highway","221","probe-228","0.29513450522484397","0.7845288146842873","0.09574271602493947","0","","","","","","","",""
"","do_trial","289","1685295","0.0-268.0-0.0","1094.9999999997672","","","","51","0,0,0","5","highway","222","probe-184","0.33949424475766654","0.7179638611914884","0.08691597838649115","0","","","","","","","",""
"","do_trial","290","1691711","0.0-269.0-0.0","1887","","","","50","0,1,0","5","highway","223","probe-72","0.29131384574106123","0.66837961399079","0.09171118942113907","1","","","","","","","",""
"","do_trial","291","1697191","0.0-270.0-0.0","951.0000000002328","","","","50","0,0,0","5","highway","224","probe-22","0.3100187879858059","0.7378740506978981","0.05906421518536332","0","","","","","","","",""
"","do_trial","292","1702926","0.0-271.0-0.0","1207","","","","51","0,0,0","5","highway","225","probe-180","0.27187635490392104","0.7273342006488059","0.06565189381311737","0","","","","","","","",""
"","do_trial","293","1708701","0.0-272.0-0.0","1245","","","","51","0,1,0","5","highway","226","probe-16","0.28932333096781077","0.7236498389110971","0.07717361484733444","0","","","","","","","",""
"","do_trial","294","1714862","0.0-273.0-0.0","1630.0000000002328","","","","51","0,1,0","5","highway","227","probe-12","0.3312664490802843","0.7490513473452136","0.17412927588706148","0","","","","","","","",""
"","do_trial","295","1719685","0.0-274.0-0.0","292","","","","49","0,1,0","5","highway","228","probe-75","0.44514554366381404","0.6920674787818735","0.13934460419854733","0","","","","","","","",""
"","do_trial","296","1724885","0.0-275.0-0.0","670","","","","51","1,1,1","5","highway","229","probe-81","0.42114928110779004","0.785705834620374","0.06866904215292065","1","","","","","","","",""
"","do_trial","297","1730133","0.0-276.0-0.0","718","","","","50","0,1,0","5","highway","230","probe-196","0.5571966837541643","0.829136453444529","0.0956898270882138","1","","","","","","","",""
"","do_trial","298","1735933","0.0-277.0-0.0","1270","","","","49","1,0,1","5","highway","231","probe-111","0.4890929018977639","0.8565299094828177","0.07642494824853474","1","","","","","","","",""
"","do_trial","299","1741420","0.0-278.0-0.0","956","","","","51","0,0,0","5","highway","232","probe-91","0.37010999350544604","0.8490300403869062","0.09628862048352406","0","","","","","","","",""
"","do_trial","300","1747260","0.0-279.0-0.0","1309","","","","50","0,1,0","5","highway","233","probe-50","0.3920556571974823","0.7093822820518493","0.10780243542844554","1","","","","","","","",""
"","do_trial","301","1751887","0.0-280.0-0.0","95","","","","49","0,1,0","5","highway","234","probe-95","0.26211163087422507","0.662480841170829","0.11119530586176374","0","","","","","","","",""
"","do_trial","302","1756996","0.0-281.0-0.0","577","","","","49","0,1,0","5","highway","235","probe-129","0.3013892787423877","0.6346107572194184","0.14564564984278805","0","","","","","","","",""
"","do_trial","303","1761843","0.0-282.0-0.0","316","","","","50","0,1,0","5","highway","236","probe-201","0.3309136842010685","0.6413266913644822","0.0639543510157324","1","","","","","","","",""
"","do_trial","304","1768323","0.0-283.0-0.0","1949","","","","51","0,1,0","5","highway","237","probe-122","0.37357637616284356","0.581777992994244","0.08996925911609427","0","","","","","","","",""
"","do_trial","305","1774042","0.0-284.0-0.0","1189","","","","50","0,0,0","5","highway","238","probe-205","0.424284951225757","0.6347035910016643","0.12254207170650755","0","","","","","","","",""
"","do_trial","306","1779522","0.0-285.0-0.0","949.0000000002328","","","","50","0,1,0","5","highway","239","probe-103","0.45536709120425156","0.7876893350605445","0.22727333371752778","1","","","","","","","",""
"","do_bye","307","1781026","0.0-286.0-0.0","null","","","","null","","","","","","","","","","","","","","","","",""
"","html-keyboard-response","308","1781188","0.0-286.0-1.0","162","<div class='center'>You are all done with the first part of the experiment! Thank you for participating. Tomorrow, you will recieve an invite to participate in the next phase of the experiment which you must complete by the end of the day. <p><b>[Press the space bar to end the experiment]</b></p></div>","32","","","","","","","","","","","","1,2,3,0,5,4","158,222,5,76,115,53,142,72,198,62,23,207,26,225,116,108,88,40,50,177,97,216,92,174,32,9,166,107,2,173,234,156,196,16,93,45,8,48,95,124,160,81,78,193,60,41,228,199,151,44,157,133,186,132,217,201,155,230,205,181,13,134,189,178,211,135,52,175,79,12,162,4,64,25,212,22,104,100,130,75,125,31,69,187,33,119,159,123,191,117,73,14,106,120,220,229,85,27,167,138,59,203,83,35,103,47,231,202,55,82,172,37,206,118,153,141,0,194,84,223,161,209,42,39,96,3,68,30,63,219,61,56,46,152,113,163,70,57,210,99,54,233,34,91,164,28,20,239,86,147,139,171,66,101,105,77,136,24,19,238,232,112,188,213,182,87,221,236,190,145,185,29,192,58,65,140,109,154,36,38,170,148,137,143,51,7,197,111,10,214,131,208,114,126,226,18,127,176,146,237,215,17,224,218,6,129,98,180,1,122,235,168,165,169,67,150,144,149,184,43,89,227,183,71,21,179,15,11,74,80,195,110,90,49,94,128,200,121,204,102","7,12,14,9,15,11,2,6,0,1,3,4,18,17,10,8,5,13,16","0.44233716945665114,0.45512702033358104,0.3612740906332561,0.3487822422530777,0.48576109536436735,0.45477897986137483,0.4966470302707862,0.463136854718071,0.4990233840013319,0.31900768009409,0.1294197024760482,0.1443746184639288,0.22522973290109685,0.17442182950146307,0.23747198634325245,0.0656819223708516,0.13229191730320025,0.24115603557941456,0.06008341175366857,0.10153014723285857,0.14230196299738512,0.11349903532118036,0.1373303621726238,0.07601658306513255,0.16620251299514124,0.20959306923469384,0.2217356554215416,0.1509313722570149,0.21885174996457468,0.09547546198693749,0.15702436623397137,0.1684503281713178,0.11608448253795978,0.08800478721667088,0.18252520264971434,0.19155553764300914,0.22490949710115285,0.2314612637599195,0.21202261026666272,0.26927331847464353,0.18666690659705987,0.05455522531842039,0.21137668223411857,0.44062808753172406,0.5477478068833646,0.677540910594397,0.6538666157719434,0.6826746965559991,0.8216628548012448,0.7383272095393576,0.7495504441723604,0.6797331645587873,0.6421072207887503,0.7696045428463518,0.7003751278848486,0.7866131339916226,0.7926240244390139,0.8095454675338488,0.824317327628549,0.7102276787693778,1,0.9475256856524692,0.8563739140842214,0.8780813628392349,0.7402298538840043,0.7712108473260257,0.7303195971745199,0.6897715397191931,0.635894231377081,0.7293813918100003,0.7559412224241824,0.6273834211885647,0.4104741915929922,0.4978371440179184,0.5278612043528358,0.5798099820987538,0.6431347912113181,0.5539165701130457,0.5695645501632052,0.5387640031665896,0.43045720624020933,0.529442764799669,0.4069802262480976,0.43594196303557303,0.35244069645077275,0.40481860246574136,0.39606538800256,0.36859761813026376,0.3732597432094423,0.23763821675644436,0.26271395078861315,0.36306524847445487,0.3513783985765751,0.48276889612100476,0.4128569796539739,0.4424305396001519,0.3779974638649168,0.4722643374856034,0.5086500062848271,0.5201498271199744,0.7485792849851811,0.6387288749275449,0.8093379589441659,0.768301067959365,0.7126125303839927,0.7230953309716277,0.7752952383428944,0.8131147394783966,0.8009547984563403,0.864593214374735,0.9013220928853674,0.8664261940812616,0.7552442160917258,0.7914386543621322,0.8000139233558551,0.6377213362127354,0.5836747611437225,0.6854734107582519,0.7829655786808327,0.8443361795134915,1,0.9060097367266796,0.8685870836698433,0.9080594225806857,0.9063339816789308,0.9352635308562411,0.944539994029572,0.8226779149353604,0.7484292810889723,0.7887677956172305,0.6090824704800342,0.6108051160699343,0.6503429324529444,0.7760242635102951,0.9328881243451882,0.8773027093855268,0.7877423944324663,0.6697465781188457,0.7119316106235906,0.38643730471250815,0.23564830287926375,0.06926005797295912,0.19081025293745035,0.0884729249713859,0.14228756126282682,0.14331724526093334,0.08294748813269084,0.12420717956201822,0.08646904091212196,0.14247850221306,0.16359834617803443,0.18405151661219882,0.23417572256477379,0.2461325072167228,0.260073113077661,0.27002757359891416,0.12285286715575774,0.19632269853244785,0.1329359523829332,0.22182739819980893,0.18563692591003084,0.34183025030402997,0.5035637481087586,0.6829616451336021,0.7171236804213318,0.6892944856788426,0.6117236766267028,0.7637334516304307,0.8244977037257119,0.8600446338789648,0.810724248885511,0.739113612627837,0.9033590549067902,0.9158176528748706,0.9274637302648455,0.8915266563801914,0.7563573801487158,0.7891908564183101,0.8173209970063741,0.6766527192624759","1,0.8042413320087612,0.8133314910769106,0.7927512025175972,0.8574831189354265,0.8125229813080417,0.7833909750791062,0.8018501483898881,0.7386692164029495,0.6806010085612657,0.5221497579981628,0.3318511660207706,0.2555397252742758,0.19366733452779428,0.318875743708312,0.40273792590767643,0.3997864234533149,0.3799172070060099,0.29623719683891186,0.3519615299532651,0.28384257128485973,0.4072010405554666,0.5772632524711651,0.40242497784780695,0.659979023648976,0.6838401721761426,0.7029248409607297,0.3069022580075259,0.25349439882235475,0.30461737940642714,0.4390187932512082,0.45485810441785696,0.4011620129093049,0.3252907842905236,0.40203524060505375,0.365304842516805,0.48183204842644933,0.4862444487514797,0.38912654568954247,0.36506390252614984,0.2916413542942226,0.25476122679392676,0.3205919302677574,0.5083800923743135,0.5201784093539981,0.3849507581194695,0.41365549314394195,0.3863261918910811,0.4806849725825585,0.2992957090736734,0.23947202894107292,0.13978316812964223,0.28239993668341756,0.33643911055172676,0.3541828756643845,0.28087513618433596,0.2619006469343118,0.21119422254104023,0.13518348833995628,0.17556277396204956,0.2884363531425358,0.23118136785409782,0.3302596423098422,0.29382702552363316,0.29424004861803627,0.33461436537725436,0.33541735115165183,0.40218836702045435,0.47471708399255036,0.4881866556663354,0.5612936145051954,0.5500839230585566,0.7046306024250569,0.7254675314760222,0.7554935437890791,0.8769582868751249,0.843290500360755,0.710934526880422,0.8431455361118637,0.7464930040044745,0.7245650228514056,0.8008403319869245,0.7674794521581038,0.8174625536528488,0.8776243151882928,0.8981710548257462,0.8472811612785863,0.6489665446004312,0.7653024306866155,0.6488468106924203,1,0.9399061059898529,0.9367334893009038,0.8515757561547896,0.8858257096565936,0.9412393126868057,0.8521997955176328,0.825217013980588,0.7859294755252307,0.8815819222117769,0.5779934131923755,0.35395227605629975,0.08371627332583625,0.0929237862226352,0.18004899706241595,0.24629688564475705,0.12445414544948807,0.1982202162413364,0.10129686215324615,0.10553849549604269,0.18515998610461984,0.3095570358969554,0.19367535512025302,0.15588561672143572,0.12778990584000174,0.13152135287193942,0.12113350611138098,0.05711711284395318,0.15307587813174536,0.07502349239620915,0.07830056875622841,0.08441427230015572,0.10543265914409643,0.09050344948613136,0.09581867397245582,0.070027451413877,0.13141546080382793,0.10109669966748452,0.1283741525681147,0.0915658659132848,0.14162932734700337,0.13691788204581948,0.05775156864600244,0.07879786218086263,0.06421320485825342,0.08467761895179111,0.10611584809529889,0.06886901727026852,0.11919048282221877,0.28780386705872085,0.2813660761287823,0.21391774507547873,0.3409739959879122,0.37711261308643046,0.1857631857212629,0.30032575561150743,0.2963752811032658,0.423511331950897,0.4334753777058561,0.3790271927918535,0.48862142928328417,0.49695506787393473,0.4205323409545577,0.49566518817066085,0.5926079758048781,0.5562875339656229,0.4718920512673135,0.46900642301539797,0.44101641636273203,0.3992408248759884,0.34918694685539114,0.3738902624074647,0.4010905314368781,0.40350469348550766,0.2624181634435517,0.30693376304201925,0.3149660295051252,0.20803173740813072,0.21316743949546685,0.27569786161850723,0.31293578085411494,0.2678447647627033,0.4689285924497702,0.3635912771265043,0.38800467447523157,0.6101427835339898,0.637010212697306,0.5666145665232081,0.4205514785454214,0.576994183936813","0.2789944874668733,0.4187322036272113,0.3493606929374915,0.3316754954373569,0.29834700453662927,0.16717196228612305,0.17907648988492647,0.2165633551412757,0.24407938411815105,0.19757416963368649,0.5094610152257223,0.6628003000299905,0.5860459716853675,0.7714752327178291,0.7524346140536613,0.8337812348807245,0.9393421343146203,0.9464202756704778,0.9476668267922684,0.9492169571138649,0.9106633795151183,0.8715218625795033,0.8320586413260174,0.7607842215316126,0.7518358241892702,0.8040872278959023,0.5915950787973745,0.7244787113606879,0.8409521810023814,0.8117269206117829,1,0.8795526084992256,0.812697511363877,0.8052914135964863,0.9272722385112948,0.8386580377037752,0.8308955186732483,0.697643130032258,0.731919168524808,0.8423546812173014,0.9059232280533608,0.7024623902095786,0.5071641402660403,0.35223896341321786,0.26319158141905913,0.1785161981810832,0.08670458745602044,0.0612337606973926,0.12244918890527352,0.08618303807834518,0.07234629952085281,0.062336582220148574,0.14536726281742948,0.07350813853516117,0.05758757839709215,0.10435371414723399,0.18255086157534614,0.285024197479539,0.29958814836187186,0.21203462997194306,0.05753730821661472,0.11496442252243817,0.21167815380807406,0.12361105352057586,0.05957882435967301,0.16007030994590665,0.09139526870212564,0.11202323247065482,0.06266658779028553,0.1625188257915781,0.112423615204577,0.07532704605501522,0.16779269810998165,0.05904651010143626,0.10450232773066116,0.12517702118409157,0.1597381297627416,0.09066814680279438,0.17193348183763388,0.07947747181107709,0.18329254935253517,0.14029737418426902,0.1655416336714143,0.053174156815679,0.11256812951507296,0.05817569564686953,0.11360436071428315,0.2368752056421719,0.10924607962173917,0.16816595535061576,0.11586450408373827,0.212797317229819,0.1728535539292616,0.17346162756601552,0.1812522045856297,0.2313314871530924,0.0920892415083319,0.056699932819184284,0.18994615636591383,0.09610883977994299,0.11828704308844062,0.24701486485951019,0.3355415557187033,0.29469033445407733,0.283995437106594,0.34414235599189513,0.30500178102815967,0.28030999254362327,0.2599836301496385,0.1630864284953897,0.278566083683451,0.1462085521555301,0.08620116689728075,0.12255467763374397,0.2728015186632486,0.40316314762109473,0.28976669900979435,0.18637106694836633,0.31210027959836306,0.3679797082924802,0.47946014500130446,0.4445724753178105,0.37519796953632606,0.5222996881517024,0.37092546153445455,0.38397230731419657,0.47359366228978805,0.5667766074287571,0.5487901585133365,0.43974165645507357,0.4656884233979756,0.4725627837263118,0.46213824118447167,0.4521943963555472,0.5812523117592315,0.4720577494130968,0.3878265317834428,0.29811821840143604,0.34807616846658845,0.6355817003766083,0.7385157793443748,0.837585851667231,0.8667075032324277,0.8247426523977577,0.8429690960790609,0.7350957352896329,0.7299539354227601,0.7907893221807268,0.9155949007503794,0.8451536444224056,1,0.8795488993123134,0.7204329305959202,0.7420553276011005,0.7291177094672058,0.7814825057781887,0.8052621561276156,0.8305699339284215,0.9317564762012492,0.8347652188419921,0.8031430814995258,0.8058062659616614,0.5746859934872594,0.33646216977576243,0.29915297526884754,0.15254608226482716,0.16557818992279436,0.14573637798907357,0.10670535728445536,0.13220528503626178,0.07392435298949857,0.1634660830284377,0.1636401075736928,0.0895694508985574,0.1547299707785465,0.05038981882522437,0.22445723451088836,0.24753720886364972,0.17469895816270423,0.14168956604867025","162,47,88,83,167,42,87,40,161,205,86,129,204,125,82,122,124,41,169,127,165,202,120,89,206,203,43,44,81,163,201,207,84,80,208,209,85,48,46,200,126,49,45,128,123,168,121,166","1,6,1,1,1,1,3,1,1,1,1,1,1,1,1,1,2,1,4,4,1,1,3,1,1,1,3,1,2,3,1,1,1,1,1,1,3,4,2,6,5,1,1,3,1,2,1,2,5,5,1,1,1,5,1,1,1,6,4,1"
