"success","trial_type","trial_index","time_elapsed","internal_node_id","rt","stimulus","key_press","subject_id","response","choice_outcomes","context_n","context_img_id","trial_n","probe_img_id","pR_red","pR_white","pR_black","outcome","contextArray_ind","validImageProbes","invalidImageProbes","pRew_Red","pRew_White","pRew_Black","availableForMemProbe","choice_blocks"
"true","fullscreen","0","5241","0.0-0.0","","","","","","","","","","","","","","","","","","","","","",""
"","pavlovia","1","5247","0.0-1.0","","","","","","","","","","","","","","","","","","","","","",""
"","html-keyboard-response","2","20761","0.0-2.0","15513.5","<div class='center'><p>Welcome! This is the first day of the experiment which will last ~30 minutes. In this experiment, you are the head captain of a pirate ship traveling around the world to different places. You will complete several different tasks during this experiment. Here is an overview of these tasks:</p><br><p>Day 1</p><p>1. Tutorial and quiz</p><p>2. Pick a pirate game in 6 different places</p><br><p>Day 2</p><p>3. Pick a pirate game and memory game</p><p>4. Final questions and payment</p><br><p>If you complete the entire experiment, you will receive $15 and a possible bonus payment.</p><p><b>[Press the space bar to begin the tutorial]</b></p></div>","32","61201fff0f0fe5317fda8105","","","","","","","","","","","","","","","","","",""
"","html-keyboard-response","3","29076","0.0-3.0","8313.800000190735","<div class='center'><p>You’ll stop at these 6 islands on your journey. You'll be able to see them in the distance from your ship.</p><p><img src='run_exp/static/images/contexts/all_contexts.png' height='500'></p><p><b>[Press the space bar to continue]</b></p></div>","32","","","","","","","","","","","","","","","","","","",""
"","html-keyboard-response","4","39751","0.0-4.0","10673.900000095367","<div class='center'><p> The pirates on your ship will rob other ships as they leave island</p> These ships have just sold their things to the people living on the island, so they will have lots and lots of gold on them.</p><p><img src='run_exp/static/images/tutorial/ship_center.png' height='400'></p><p><b>[Press the space bar to continue]</b></p></div>","32","","","","","","","","","","","","","","","","","","",""
"","html-keyboard-response","5","52321","0.0-5.0","12568.300000190735","<div class='center'><p>As the head captain, you do not have to rob any ships yourself.</p><p>Another pirate will be doing the robbing for you. </p><p><img src='run_exp/static/images/tutorial/pirates_all_crop.png' height='200'></p><p>If they could rob the ship, then you will get a stack of gold coins like this:</p><p><img src='run_exp/static/images/tutorial/reward.png' height='150'></p><p> If they couldn't rob the ship, then you will get no gold coins and you'll see a big red x like this: </p><p><img src='run_exp/static/images/tutorial/reward_no.png' height='150'></p><p> How much bonus money you make is based on how many gold coins you collect.</p><p><b>[Press the space bar to continue]</b></p><div>","32","","","","","","","","","","","","","","","","","","",""
"","html-keyboard-response","6","64609","0.0-6.0","12287","<div class='center'><p>Even the most skilled pirate can not rob EVERY ship.</p><p> Some ships will have very strong defenses against pirate attacks.</p><p> For example, blue beard, here, is very, very good at robbing ships.</p><p> You can press the <b>‘1’</b> button on the keyboard to choose him.</p><p> Try choosing him 10 times to see how often he can rob a ship. </p><p><img src='run_exp/static/images/tutorial/blue.png' height='500'></p></div>","49","","","","","","","","","","","","","","","","","","",""
"","html-keyboard-response","7","66114","0.0-7.0","null","<div class='center'><p><img src='run_exp/static/images/tutorial/blue_win.png' height='500'></p></div>","null","","","","","","","","","","","","","","","","","","",""
"","html-keyboard-response","8","66320","0.0-8.0","204.30000019073486","<div class='center'><img src='run_exp/static/images/tutorial/blue.png' height='500'></p></div>","49","","","","","","","","","","","","","","","","","","",""
"","html-keyboard-response","9","67824","0.0-9.0","null","<div class='center'><p><img src='run_exp/static/images/tutorial/blue_win.png' height='500'></p></div>","null","","","","","","","","","","","","","","","","","","",""
"","html-keyboard-response","10","68757","0.0-10.0","931.5999999046326","<div class='center'><img src='run_exp/static/images/tutorial/blue.png' height='500'></p></div>","49","","","","","","","","","","","","","","","","","","",""
"","html-keyboard-response","11","70261","0.0-11.0","null","<div class='center'><p><img src='run_exp/static/images/tutorial/blue_win.png' height='500'></p></div>","null","","","","","","","","","","","","","","","","","","",""
"","html-keyboard-response","12","70576","0.0-12.0","313.7000002861023","<div class='center'><img src='run_exp/static/images/tutorial/blue.png' height='500'></p></div>","49","","","","","","","","","","","","","","","","","","",""
"","html-keyboard-response","13","72082","0.0-13.0","null","<div class='center'><p><img src='run_exp/static/images/tutorial/blue_no_win.png' height='500'></p></div>","null","","","","","","","","","","","","","","","","","","",""
"","html-keyboard-response","14","72412","0.0-14.0","328.90000009536743","<div class='center'><img src='run_exp/static/images/tutorial/blue.png' height='500'></p></div>","49","","","","","","","","","","","","","","","","","","",""
"","html-keyboard-response","15","73918","0.0-15.0","null","<div class='center'><p><img src='run_exp/static/images/tutorial/blue_win.png' height='500'></p></div>","null","","","","","","","","","","","","","","","","","","",""
"","html-keyboard-response","16","74207","0.0-16.0","287.5","<div class='center'><img src='run_exp/static/images/tutorial/blue.png' height='500'></p></div>","49","","","","","","","","","","","","","","","","","","",""
"","html-keyboard-response","17","75708","0.0-17.0","null","<div class='center'><p><img src='run_exp/static/images/tutorial/blue_win.png' height='500'></p></div>","null","","","","","","","","","","","","","","","","","","",""
"","html-keyboard-response","18","76016","0.0-18.0","307","<div class='center'><img src='run_exp/static/images/tutorial/blue.png' height='500'></p></div>","49","","","","","","","","","","","","","","","","","","",""
"","html-keyboard-response","19","77519","0.0-19.0","null","<div class='center'><p><img src='run_exp/static/images/tutorial/blue_win.png' height='500'></p></div>","null","","","","","","","","","","","","","","","","","","",""
"","html-keyboard-response","20","77860","0.0-20.0","339.80000019073486","<div class='center'><img src='run_exp/static/images/tutorial/blue.png' height='500'></p></div>","49","","","","","","","","","","","","","","","","","","",""
"","html-keyboard-response","21","79365","0.0-21.0","null","<div class='center'><p><img src='run_exp/static/images/tutorial/blue_no_win.png' height='500'></p></div>","null","","","","","","","","","","","","","","","","","","",""
"","html-keyboard-response","22","79719","0.0-22.0","352.5","<div class='center'><img src='run_exp/static/images/tutorial/blue.png' height='500'></p></div>","49","","","","","","","","","","","","","","","","","","",""
"","html-keyboard-response","23","81225","0.0-23.0","null","<div class='center'><p><img src='run_exp/static/images/tutorial/blue_win.png' height='500'></p></div>","null","","","","","","","","","","","","","","","","","","",""
"","html-keyboard-response","24","81525","0.0-24.0","299.5","<div class='center'><img src='run_exp/static/images/tutorial/blue.png' height='500'></p></div>","49","","","","","","","","","","","","","","","","","","",""
"","html-keyboard-response","25","83031","0.0-25.0","null","<div class='center'><p><img src='run_exp/static/images/tutorial/blue_win.png' height='500'></p></div>","null","","","","","","","","","","","","","","","","","","",""
"","html-keyboard-response","26","85232","0.0-26.0","2200.699999809265","<div class='center'><p> See, he could rob the ships most of the time but not every time. </p><p><b>[Press the space bar to continue]</b></p></div>","32","","","","","","","","","","","","","","","","","","",""
"","html-keyboard-response","27","158787","0.0-27.0","73552.7999997139","<div class='center'><p>You will get to choose which of three pirates you want to rob the next ship. <p>Press the <b>‘1’</b> button on your keyboard to pick the pirate with the red beard.</p><p> Press <b>‘2’</b> to pick the pirate with the white beard.</p><p> Press <b>‘3’</b> to pick the pirate with the black beard.</p><p>Try picking a pirate now!</p><p><img src='run_exp/static/images/tutorial/all_pirates.png' height='500'></p></div>","49","","","","","","","","","","","","","","","","","","",""
"","html-keyboard-response","28","161247","0.0-28.0-0.0","2456.9000000953674","<div class='center'><p>This pirate could rob the ship!</p><p><img src='run_exp/static/images/tutorial/red_win.png' height='500'></p><p><b>[Press the space bar to continue]</b></p></div>","32","","","","","","","","","","","","","","","","","","",""
"","html-keyboard-response","29","164192","0.0-28.0-1.0","2944.0999999046326","<div class='center'><p>Now try choosing another</p><p><img src='run_exp/static/images/tutorial/all_pirates.png' height='500'></p></div>","49","","","","","","","","","","","","","","","","","","",""
"","html-keyboard-response","30","165276","0.0-29.0-0.0","1082.2000002861023","<div class='center'><p>This pirate could not rob the ship.</p><p><img src='run_exp/static/images/tutorial/red_no_win.png' height='500'></p><p><b>[Press the space bar to continue]</b></p></div>","32","","","","","","","","","","","","","","","","","","",""
"","html-keyboard-response","31","170649","0.0-30.0-0.0","5372.5","<div class='center'><p>If you don’t make your choice fast enough, you’ll have to wait a few seconds before you can make another one. </p><p>You can’t collect more gold coins. You just have to sit and wait.</p><p><img src='run_exp/static/images/miscellaneous/hurry_up.png' height='500'></p><p><b>[Press the space bar to continue]</b></p></div>","32","","","","","","","","","","","","","","","","","","",""
"","html-keyboard-response","32","193796","0.0-30.0-1.0","23145.599999904633","<div class='center'><p>Once you choose a pirate, you’ll be shown the ship they are robbing.</p><p>You will never rob the same ship twice.</p><p>Ships can be told apart from one another by the image on them.</p><p> Every time you see a ship, you will have to remember on which island you saw it.</p><p> Remembering correctly will help you win more bonus money!</p><p>A helpful strategy is to try to come up with a story of the object on the ship interacting with the current island scene.</p><p> For example, here, you could imagine a mug full of water in the desert. </p><p>For a ship with an apple on it on the forest island, you could imagine an apple falling from a tree in the forest.</p><p><img src='run_exp/static/images/tutorial/example_probe.png' height='500'></p><p><b>[Press the space bar to continue]</b></p></div>","32","","","","","","","","","","","","","","","","","","",""
"","html-keyboard-response","33","206153","0.0-30.0-2.0","12356.599999904633","<div class='center'><p>How good a pirate is at robbing ships will depend on the current island.</p><p> A pirate may have visited the island many times before and gained a lot of practice robbing ships there.</p><p>So, they're more likely to bring back gold coins than a pirate who has never visited this island before. </p><p><b>[Press the space bar to continue]</b></p></div>","32","","","","","","","","","","","","","","","","","","",""
"","html-keyboard-response","34","218886","0.0-30.0-3.0","12731.700000286102","<div class='center'><p>How good a pirate is at robbing ships can also change over the time spent on the island<p> Ships may hear from islanders about the pirates coming and will improve their protection against the attack. This may make it harder to rob them.</p><p> Ships may also become lazy and lower their protection. This may make it easier to rob them.</p><br><p>Things are always changing on the high seas! So, try your best to pay attention!</p><p><img src='run_exp/static/images/tutorial/contingency.png' height='500'></p><p><b>[Press the space bar to continue]</b></p></div>","32","","","","","","","","","","","","","","","","","","",""
"","html-keyboard-response","35","242741","0.0-30.0-4.0","23855","<div class='center'><p>Let's go over the instructions quickly again.You have two important things to do: </p><b><p> 1. Pick the pirate who is the best at robbing ships on the current island.</p></b><b><p> 2. Remember on which island a ship was robbed.</p> </b><p>How much bonus money you make is based on both. </p><br><p>Let’s try a practice game. The game will start by showing you the pirates. First pick a pirate using the <b> 1, 2, 3 </b> buttons on your keyboard. When you are shown a ship, try to remember the island you’re on by making up a story.</p><p> You only have 3 seconds to pick a pirate, so please make a choice quickly! If you are too slow, you’ll have to wait a bit during the time out.</p><p> Don’t feel rushed, but please do try to make a choice every time.</p><p>This is just a practice game, so you’re not playing for money. </p><p> Good luck, remember press <b>'1'</b> to choose red beard, <b>'2'</b> to choose white beard, and <b>'3'</b> to choose black beard</p><p><b>[Press the space bar to begin the practice game]</b></p></div>","32","","","","","","","","","","","","","","","","","","",""
"","do_welcome","36","244255","0.0-30.0-5.0","null","","","","null","","","","","","","","","","","","","","","","",""
"","do_trial","37","249791","0.0-30.0-6.0","1021.7999997138977","","","","49","1,0,0","","","","","","","","","","","","","","","",""
"","html-keyboard-response","38","250797","0.0-31.0-0.0","null","<p></p>","null","","","","","","","","","","","","","","","","","","",""
"","do_trial","39","256543","0.0-31.0-1.0","1239","","","","49","1,1,0","","","","","","","","","","","","","","","",""
"","html-keyboard-response","40","257550","0.0-32.0-0.0","null","<p></p>","null","","","","","","","","","","","","","","","","","","",""
"","do_trial","41","262902","0.0-32.0-1.0","841.9000000953674","","","","50","1,0,1","","","","","","","","","","","","","","","",""
"","html-keyboard-response","42","263907","0.0-33.0-0.0","null","<p></p>","null","","","","","","","","","","","","","","","","","","",""
"","do_trial","43","269064","0.0-33.0-1.0","646.9000000953674","","","","49","0,1,0","","","","","","","","","","","","","","","",""
"","html-keyboard-response","44","270070","0.0-34.0-0.0","null","<p></p>","null","","","","","","","","","","","","","","","","","","",""
"","do_trial","45","275177","0.0-34.0-1.0","593.8999996185303","","","","49","1,0,0","","","","","","","","","","","","","","","",""
"","do_bye","46","276688","0.0-35.0-0.0","null","","","","null","","","","","","","","","","","","","","","","",""
"","do_travel","47","282695","0.0-35.0-1.0","null","","","","null","","","","","","","","","","","","","","","","",""
"","do_welcome","48","284206","0.0-35.0-2.0","null","","","","null","","","","","","","","","","","","","","","","",""
"","do_trial","49","289712","0.0-35.0-3.0","996.7000002861023","","","","51","1,0,0","","","","","","","","","","","","","","","",""
"","html-keyboard-response","50","290716","0.0-36.0-0.0","null","<p></p>","null","","","","","","","","","","","","","","","","","","",""
"","do_trial","51","295775","0.0-36.0-1.0","546.1999998092651","","","","50","1,0,1","","","","","","","","","","","","","","","",""
"","html-keyboard-response","52","296780","0.0-37.0-0.0","null","<p></p>","null","","","","","","","","","","","","","","","","","","",""
"","do_trial","53","301716","0.0-37.0-1.0","426.90000009536743","","","","49","1,1,0","","","","","","","","","","","","","","","",""
"","html-keyboard-response","54","302721","0.0-38.0-0.0","null","<p></p>","null","","","","","","","","","","","","","","","","","","",""
"","do_trial","55","307821","0.0-38.0-1.0","592.0999999046326","","","","49","0,0,1","","","","","","","","","","","","","","","",""
"","html-keyboard-response","56","308822","0.0-39.0-0.0","null","<p></p>","null","","","","","","","","","","","","","","","","","","",""
"","do_trial","57","315427","0.0-39.0-1.0","2096","","","","51","1,0,1","","","","","","","","","","","","","","","",""
"","html-keyboard-response","58","317642","0.0-40.0-0.0","2213.4000000953674","<div class='center'><p><img src='run_exp/static/images/tutorial/prac_best_pirate.png'  height='500'></p></div>","49","","","","","","","","","","","","","","","","","","",""
"","html-keyboard-response","59","319394","0.0-41.0-0.0","1751.1999998092651","<div class='center'><p>That's correct! Red beard was the best.</p><p><b>[Press the space bar to continue]</b></p></div>","32","","","","","","","","","","","","","","","","","","",""
"","html-keyboard-response","60","326968","0.0-41.0-1.0","7572.5","<div class='center'><p><img src='run_exp/static/images/tutorial/prac_source.png'  height='500'></p></div>","50","","","","","","","","","","","","","","","","","","",""
"","html-keyboard-response","61","328188","0.0-42.0-0.0","1219.1000003814697","<div class='center'><p>That's correct! You saw this ship on the cavern island.</p><p><b>[Press the space bar to continue]</b></p></div>","32","","","","","","","","","","","","","","","","","","",""
"","html-keyboard-response","62","362364","0.0-42.0-1.0","34175.699999809265","<div class='center'><p>Good job on the practice game! Now, you will be asked you some true or false questions to make sure you really understand the rules of the game.</p><p> Press <b>'1'</b> on the keyboard for true and press <b>'2'</b> for false.</p><p><b>[Press the space bar to begin the quiz]</b></p></div>","32","","","","","","","","","","","","","","","","","","",""
"","html-keyboard-response","63","364678","0.0-42.0-2.0","2313.2999997138977","<div class='center'><p>You win bonus money by making choices as fast as possible.</p><p>Press 1 for true and press  2 for false.</p></div>","49","","","","","","","","","","","","","","","","","","",""
"","html-keyboard-response","64","366288","0.0-43.0-0.0","1608.5999999046326","<<div class='center'><p>That’s incorrect! You win bonus money by collecting as many gold coins as possible!</p><p><b>[press the space bar to continue with the quiz]</b></p></div>","32","","","","","","","","","","","","","","","","","","",""
"","html-keyboard-response","65","369746","0.0-43.0-1.0","3457","<div class='center'><p>You press the <b>‘3’</b> button on the keyboard to choose the red bearded pirate. </p><p>Press 1 for true and press  2 for false.</p></div>","50","","","","","","","","","","","","","","","","","","",""
"","html-keyboard-response","66","370720","0.0-44.0-0.0","973.5","<div class='center'><p>That's correct!</p> <p><b>[press the space bar to continue with the quiz]</b></p></div>","32","","","","","","","","","","","","","","","","","","",""
"","html-keyboard-response","67","375096","0.0-44.0-1.0","4375","<div class='center'><p>The pirate who is the best at robbing ships on the first island will be the best on every other island.</p><p>Press 1 for true and press  2 for false.</p></div>","50","","","","","","","","","","","","","","","","","","",""
"","html-keyboard-response","68","375774","0.0-45.0-0.0","676.3000001907349","<div class='center'><p>That's correct!</p> <p><b>[press the space bar to continue with the quiz]</b></p></div>","32","","","","","","","","","","","","","","","","","","",""
"","html-keyboard-response","69","386974","0.0-45.0-1.0","11199.5","<div class='center'><p>You should remember the island where a pirate robbed a ship.</p><p>Press 1 for true and press  2 for false.</p></div>","49","","","","","","","","","","","","","","","","","","",""
"","html-keyboard-response","70","387703","0.0-46.0-0.0","725.9000000953674","<div class='center'><p>That's correct!</p> <p><b>[press the space bar to continue with the quiz]</b></p></div>","32","","","","","","","","","","","","","","","","","","",""
"","html-keyboard-response","71","392871","0.0-47.0-0.0","5167.300000190735","<div class='center'><p>Oops, you missed some questions. Now that you’ve heard the correct answers. Try the quiz again! If you fail the quiz too many times, you won’t be able to do the experiment. </p> <p><br>[press the space bar to repeat the quiz]</br></p></div>","32","","","","","","","","","","","","","","","","","","",""
"","html-keyboard-response","72","394784","0.0-47.0-1.0","1912.2000002861023","<div class='center'><p>You win bonus money by making choices as fast as possible.</p><p>Press 1 for true and press  2 for false.</p></div>","50","","","","","","","","","","","","","","","","","","",""
"","html-keyboard-response","73","395341","0.0-48.0-0.0","556.2999997138977","<div class='center'><p>That's correct!</p> <p><b>[press the space bar to continue with the quiz]</b></p></div>","32","","","","","","","","","","","","","","","","","","",""
"","html-keyboard-response","74","396612","0.0-48.0-1.0","1270.2999997138977","<div class='center'><p>You press the <b>‘3’</b> button on the keyboard to choose the red bearded pirate. </p><p>Press 1 for true and press  2 for false.</p></div>","50","","","","","","","","","","","","","","","","","","",""
"","html-keyboard-response","75","397004","0.0-49.0-0.0","391.2999997138977","<div class='center'><p>That's correct!</p> <p><b>[press the space bar to continue with the quiz]</b></p></div>","32","","","","","","","","","","","","","","","","","","",""
"","html-keyboard-response","76","399072","0.0-49.0-1.0","2067","<div class='center'><p>The pirate who is the best at robbing ships on the first island will be the best on every other island.</p><p>Press 1 for true and press  2 for false.</p></div>","50","","","","","","","","","","","","","","","","","","",""
"","html-keyboard-response","77","399448","0.0-50.0-0.0","375","<div class='center'><p>That's correct!</p> <p><b>[press the space bar to continue with the quiz]</b></p></div>","32","","","","","","","","","","","","","","","","","","",""
"","html-keyboard-response","78","401154","0.0-50.0-1.0","1706","<div class='center'><p>You should remember the island where a pirate robbed a ship.</p><p>Press 1 for true and press  2 for false.</p></div>","49","","","","","","","","","","","","","","","","","","",""
"","html-keyboard-response","79","401706","0.0-51.0-0.0","543.0999999046326","<div class='center'><p>That's correct!</p> <p><b>[press the space bar to continue with the quiz]</b></p></div>","32","","","","","","","","","","","","","","","","","","",""
"","html-keyboard-response","80","403112","0.0-52.0-0.0","1405.2000002861023","<div class='center'><p>Good job! You’re now ready to move on to the real game!</p> <p><br>[press the space bar to begin!]</br></p></div>","32","","","","","","","","","","","","","","","","","","",""
"","do_welcome","81","404622","0.0-53.0-0.0","null","","","","null","","","","","","","","","","","","","","","","",""
"","do_trial","82","410301","0.0-54.0-0.0","1130.5","","","","49","0,1,0","0","city","0","probe-59","0.6","0.3","0.1","0","","","","","","","",""
"","html-keyboard-response","83","411308","0.0-54.0-1.0","null","<p></p>","null","","","","","","","","","","","","","","","","","","",""
"","do_trial","84","417112","0.0-55.0-0.0","1256.7000002861023","","","","50","1,0,0","0","city","1","probe-151","0.6033720761708996","0.17020230083475657","0.13187020079575545","0","","","","","","","",""
"","html-keyboard-response","85","418115","0.0-55.0-1.0","null","<p></p>","null","","","","","","","","","","","","","","","","","","",""
"","do_trial","86","423220","0.0-56.0-0.0","557.0999999046326","","","","51","0,1,1","0","city","2","probe-134","0.5966179270159278","0.28219902922545054","0.17737354700968383","1","","","","","","","",""
"","html-keyboard-response","87","424224","0.0-56.0-1.0","null","<p></p>","null","","","","","","","","","","","","","","","","","","",""
"","do_trial","88","429198","0.0-57.0-0.0","424.1000003814697","","","","51","0,0,0","0","city","3","probe-14","0.5291639631228583","0.3312153664143068","0.15959095183237754","0","","","","","","","",""
"","html-keyboard-response","89","430202","0.0-57.0-1.0","null","<p></p>","null","","","","","","","","","","","","","","","","","","",""
"","do_trial","90","435476","0.0-58.0-0.0","723.1999998092651","","","","49","0,0,0","0","city","4","probe-217","0.5513583066655506","0.3456011944527464","0.22726624923146607","0","","","","","","","",""
"","html-keyboard-response","91","436483","0.0-58.0-1.0","null","<p></p>","null","","","","","","","","","","","","","","","","","","",""
"","do_trial","92","441494","0.0-59.0-0.0","463.5","","","","51","1,0,1","0","city","5","probe-92","0.7439030019507744","0.24902642501222808","0.33475339849128516","1","","","","","","","",""
"","html-keyboard-response","93","442498","0.0-59.0-1.0","null","<p></p>","null","","","","","","","","","","","","","","","","","","",""
"","do_trial","94","447729","0.0-60.0-0.0","694.8999996185303","","","","51","1,0,0","0","city","6","probe-76","0.6155885180543534","0.2776689747321091","0.2945900482490401","0","","","","","","","",""
"","html-keyboard-response","95","448734","0.0-60.0-1.0","null","<p></p>","null","","","","","","","","","","","","","","","","","","",""
"","do_trial","96","454120","0.0-61.0-0.0","841.2000002861023","","","","51","0,1,0","0","city","7","probe-166","0.5748064856189606","0.319509559873793","0.08721259586528023","0","","","","","","","",""
"","html-keyboard-response","97","455125","0.0-61.0-1.0","null","<p></p>","null","","","","","","","","","","","","","","","","","","",""
"","do_trial","98","460123","0.0-62.0-0.0","452.69999980926514","","","","50","0,1,0","0","city","8","probe-208","0.6808286038871479","0.3012167578912929","0.0956657499402358","1","","","","","","","",""
"","html-keyboard-response","99","461126","0.0-62.0-1.0","null","<p></p>","null","","","","","","","","","","","","","","","","","","",""
"","do_trial","100","466125","0.0-63.0-0.0","452","","","","50","1,0,1","0","city","9","probe-116","0.5342216298529092","0.3645639240152632","0.2253528871043401","0","","","","","","","",""
"","html-keyboard-response","101","467126","0.0-63.0-1.0","null","<p></p>","null","","","","","","","","","","","","","","","","","","",""
"","do_trial","102","472658","0.0-64.0-0.0","987","","","","50","0,1,0","0","city","10","probe-30","0.5281920263696197","0.45354303355173997","0.10375308494473086","1","","","","","","","",""
"","html-keyboard-response","103","473664","0.0-64.0-1.0","null","<p></p>","null","","","","","","","","","","","","","","","","","","",""
"","do_trial","104","479663","0.0-65.0-0.0","1455.0999999046326","","","","50","0,0,0","0","city","11","probe-186","0.4663862534235699","0.351246351887738","0.18821539971194462","0","","","","","","","",""
"","html-keyboard-response","105","480668","0.0-65.0-1.0","null","<p></p>","null","","","","","","","","","","","","","","","","","","",""
"","do_trial","106","485639","0.0-66.0-0.0","423.7000002861023","","","","51","0,0,1","0","city","12","probe-03","0.5784742922870835","0.3734969171905085","0.12796247719571682","1","","","","","","","",""
"","html-keyboard-response","107","486644","0.0-66.0-1.0","null","<p></p>","null","","","","","","","","","","","","","","","","","","",""
"","do_trial","108","491701","0.0-67.0-0.0","509.19999980926514","","","","51","1,0,0","0","city","13","probe-102","0.42426317058792334","0.2777858416048359","0.07089656872690482","0","","","","","","","",""
"","html-keyboard-response","109","492705","0.0-67.0-1.0","null","<p></p>","null","","","","","","","","","","","","","","","","","","",""
"","do_trial","110","498922","0.0-68.0-0.0","1667.2000002861023","","","","50","0,1,0","0","city","14","probe-119","0.3820246304254645","0.300946662853696","0.06139422688378751","1","","","","","","","",""
"","html-keyboard-response","111","499925","0.0-68.0-1.0","null","<p></p>","null","","","","","","","","","","","","","","","","","","",""
"","do_trial","112","504947","0.0-69.0-0.0","474.90000009536743","","","","50","1,0,0","0","city","15","probe-182","0.5759464509875553","0.2793605277464105","0.10432522597199727","0","","","","","","","",""
"","html-keyboard-response","113","505952","0.0-69.0-1.0","null","<p></p>","null","","","","","","","","","","","","","","","","","","",""
"","do_trial","114","510830","0.0-70.0-0.0","329","","","","50","0,1,0","0","city","16","probe-25","0.5617769549646324","0.4068651183487548","0.18572123435464633","1","","","","","","","",""
"","html-keyboard-response","115","511835","0.0-70.0-1.0","null","<p></p>","null","","","","","","","","","","","","","","","","","","",""
"","do_trial","116","516768","0.0-71.0-0.0","383.5","","","","50","0,0,1","0","city","17","probe-39","0.5634940752916636","0.32056834196160305","0.21625920583321617","0","","","","","","","",""
"","html-keyboard-response","117","517772","0.0-71.0-1.0","null","<p></p>","null","","","","","","","","","","","","","","","","","","",""
"","do_trial","118","522700","0.0-72.0-0.0","379.5","","","","50","1,1,1","0","city","18","probe-173","0.6016121257110012","0.32945541911690257","0.09743300447193928","1","","","","","","","",""
"","html-keyboard-response","119","523706","0.0-72.0-1.0","null","<p></p>","null","","","","","","","","","","","","","","","","","","",""
"","do_trial","120","528605","0.0-73.0-0.0","349.19999980926514","","","","50","1,0,0","0","city","19","probe-197","0.6469716649096782","0.33793116219688235","0.2172854629183287","0","","","","","","","",""
"","html-keyboard-response","121","529607","0.0-73.0-1.0","null","<p></p>","null","","","","","","","","","","","","","","","","","","",""
"","do_trial","122","534507","0.0-74.0-0.0","354","","","","51","1,1,1","0","city","20","probe-06","0.6555651780607304","0.30421986361618086","0.2393371485904811","1","","","","","","","",""
"","html-keyboard-response","123","535511","0.0-74.0-1.0","null","<p></p>","null","","","","","","","","","","","","","","","","","","",""
"","do_trial","124","540421","0.0-75.0-0.0","360.19999980926514","","","","51","1,0,0","0","city","21","probe-156","0.7814140894711231","0.24231620637285972","0.25396567104284506","0","","","","","","","",""
"","html-keyboard-response","125","541426","0.0-75.0-1.0","null","<p></p>","null","","","","","","","","","","","","","","","","","","",""
"","do_trial","126","546327","0.0-76.0-0.0","353.5","","","","51","1,1,0","0","city","22","probe-94","0.8382987575615833","0.25719435306208294","0.14580291223785938","0","","","","","","","",""
"","html-keyboard-response","127","547330","0.0-76.0-1.0","null","<p></p>","null","","","","","","","","","","","","","","","","","","",""
"","do_trial","128","552238","0.0-77.0-0.0","363.59999990463257","","","","49","1,0,0","0","city","23","probe-105","0.6194386938185082","0.1370870375803464","0.20840455265619678","1","","","","","","","",""
"","html-keyboard-response","129","553243","0.0-77.0-1.0","null","<p></p>","null","","","","","","","","","","","","","","","","","","",""
"","do_trial","130","558207","0.0-78.0-0.0","416.2000002861023","","","","49","0,1,0","0","city","24","probe-52","0.6352964597102801","0.10894932112272995","0.22989104974061733","0","","","","","","","",""
"","html-keyboard-response","131","559212","0.0-78.0-1.0","null","<p></p>","null","","","","","","","","","","","","","","","","","","",""
"","do_trial","132","564089","0.0-79.0-0.0","331.19999980926514","","","","49","1,0,1","0","city","25","probe-96","0.5418723376040286","0.3195838598196414","0.17531385245914619","1","","","","","","","",""
"","html-keyboard-response","133","565094","0.0-79.0-1.0","null","<p></p>","null","","","","","","","","","","","","","","","","","","",""
"","do_trial","134","569937","0.0-80.0-0.0","297.2999997138977","","","","49","0,0,0","0","city","26","probe-122","0.4880460604305161","0.25918209136069736","0.10512532204515783","0","","","","","","","",""
"","html-keyboard-response","135","570941","0.0-80.0-1.0","null","<p></p>","null","","","","","","","","","","","","","","","","","","",""
"","do_trial","136","575835","0.0-81.0-0.0","350.2000002861023","","","","49","1,0,0","0","city","27","probe-64","0.4730355697723811","0.3322302662934994","0.09440614916546562","1","","","","","","","",""
"","html-keyboard-response","137","576838","0.0-81.0-1.0","null","<p></p>","null","","","","","","","","","","","","","","","","","","",""
"","do_trial","138","581775","0.0-82.0-0.0","403.2999997138977","","","","49","0,0,0","0","city","28","probe-29","0.44833668078495564","0.21275799657514755","0.20797247378416336","0","","","","","","","",""
"","html-keyboard-response","139","582777","0.0-82.0-1.0","null","<p></p>","null","","","","","","","","","","","","","","","","","","",""
"","do_trial","140","587637","0.0-83.0-0.0","314.09999990463257","","","","49","0,0,0","0","city","29","probe-198","0.40521408750664295","0.167231261025081","0.08537590975039284","0","","","","","","","",""
"","html-keyboard-response","141","588639","0.0-83.0-1.0","null","<p></p>","null","","","","","","","","","","","","","","","","","","",""
"","do_bye","142","590147","0.0-84.0-0.0","null","","","","null","","","","","","","","","","","","","","","","",""
"","do_travel","143","596149","0.0-85.0-0.0","null","","","","null","","","","","","","","","","","","","","","","",""
"","do_welcome","144","597658","0.0-85.0-1.0","null","","","","null","","","","","","","","","","","","","","","","",""
"","do_trial","145","603078","0.0-86.0-0.0","870.6999998092651","","","","49","1,0,1","1","highway","30","probe-174","1","0.15811563769967302","0.05586361796825801","1","","","","","","","",""
"","html-keyboard-response","146","604082","0.0-86.0-1.0","null","<p></p>","null","","","","","","","","","","","","","","","","","","",""
"","do_trial","147","608739","0.0-87.0-0.0","106.30000019073486","","","","49","1,0,0","1","highway","31","probe-21","1","0.3207854104767737","0.16370189644575228","1","","","","","","","",""
"","html-keyboard-response","148","609741","0.0-87.0-1.0","null","<p></p>","null","","","","","","","","","","","","","","","","","","",""
"","do_trial","149","614631","0.0-88.0-0.0","343.90000009536743","","","","49","1,0,0","1","highway","32","probe-224","1","0.4632097113046201","0.15285822492629833","1","","","","","","","",""
"","html-keyboard-response","150","615635","0.0-88.0-1.0","null","<p></p>","null","","","","","","","","","","","","","","","","","","",""
"","do_trial","151","620506","0.0-89.0-0.0","322.6000003814697","","","","49","1,1,0","1","highway","33","probe-72","0.7664157319983934","0.5090291292586187","0.19779919582383954","1","","","","","","","",""
"","html-keyboard-response","152","621510","0.0-89.0-1.0","null","<p></p>","null","","","","","","","","","","","","","","","","","","",""
"","do_trial","153","626485","0.0-90.0-0.0","430","","","","49","1,1,0","1","highway","34","probe-219","0.6624844329036538","0.39609449188984835","0.06558706973496627","1","","","","","","","",""
"","html-keyboard-response","154","627489","0.0-90.0-1.0","null","<p></p>","null","","","","","","","","","","","","","","","","","","",""
"","do_trial","155","632443","0.0-91.0-0.0","408.09999990463257","","","","49","0,1,1","1","highway","35","probe-152","0.5499863232850047","0.4870579943438837","0.2468392840272297","0","","","","","","","",""
"","html-keyboard-response","156","633446","0.0-91.0-1.0","null","<p></p>","null","","","","","","","","","","","","","","","","","","",""
"","do_trial","157","638312","0.0-92.0-0.0","316.90000009536743","","","","49","0,0,0","1","highway","36","probe-74","0.4128537437121419","0.3860085922082271","0.12766955237013267","0","","","","","","","",""
"","html-keyboard-response","158","639314","0.0-92.0-1.0","null","<p></p>","null","","","","","","","","","","","","","","","","","","",""
"","do_trial","159","644245","0.0-93.0-0.0","383.7000002861023","","","","49","0,1,0","1","highway","37","probe-67","0.5016491339011607","0.556768607801715","0.06892097238732321","0","","","","","","","",""
"","html-keyboard-response","160","645249","0.0-93.0-1.0","null","<p></p>","null","","","","","","","","","","","","","","","","","","",""
"","do_trial","161","649959","0.0-94.0-0.0","164.90000009536743","","","","50","0,1,0","1","highway","38","probe-140","0.5632198762751022","0.47689389666604487","0.12024553043123627","1","","","","","","","",""
"","html-keyboard-response","162","650963","0.0-94.0-1.0","null","<p></p>","null","","","","","","","","","","","","","","","","","","",""
"","do_trial","163","655808","0.0-95.0-0.0","296.3999996185303","","","","50","0,1,0","1","highway","39","probe-86","0.55274255338725","0.3672064938284955","0.1711575524330552","1","","","","","","","",""
"","html-keyboard-response","164","656812","0.0-95.0-1.0","null","<p></p>","null","","","","","","","","","","","","","","","","","","",""
"","do_trial","165","661661","0.0-96.0-0.0","301.40000009536743","","","","50","1,0,0","1","highway","40","probe-112","0.5611692331964806","0.39198723353688225","0.058217173180585904","0","","","","","","","",""
"","html-keyboard-response","166","662666","0.0-96.0-1.0","null","<p></p>","null","","","","","","","","","","","","","","","","","","",""
"","do_trial","167","667506","0.0-97.0-0.0","294.90000009536743","","","","50","1,0,0","1","highway","41","probe-168","0.5855022116932022","0.39106521594463495","0.11654477559914103","0","","","","","","","",""
"","html-keyboard-response","168","668511","0.0-97.0-1.0","null","<p></p>","null","","","","","","","","","","","","","","","","","","",""
"","do_trial","169","673081","0.0-98.0-0.0","21.90000009536743","","","","50","0,1,0","1","highway","42","probe-22","0.37971928914455916","0.4371916062793784","0.12443531619026903","1","","","","","","","",""
"","html-keyboard-response","170","674086","0.0-98.0-1.0","null","<p></p>","null","","","","","","","","","","","","","","","","","","",""
"","do_trial","171","679000","0.0-99.0-0.0","365.90000009536743","","","","50","0,0,0","1","highway","43","probe-226","0.2201841938651802","0.47437633809034735","0.0603005922420916","0","","","","","","","",""
"","html-keyboard-response","172","680005","0.0-99.0-1.0","null","<p></p>","null","","","","","","","","","","","","","","","","","","",""
"","do_trial","173","684901","0.0-100.0-0.0","349.5","","","","50","0,0,0","1","highway","44","probe-150","0.18128243140466133","0.5861313996046128","0.22597676566468397","0","","","","","","","",""
"","html-keyboard-response","174","685905","0.0-100.0-1.0","null","<p></p>","null","","","","","","","","","","","","","","","","","","",""
"","do_trial","175","690821","0.0-101.0-0.0","371.7999997138977","","","","51","1,1,0","1","highway","45","probe-57","0.2628387653599292","0.5105432324397635","0.22396442483701604","0","","","","","","","",""
"","html-keyboard-response","176","691824","0.0-101.0-1.0","null","<p></p>","null","","","","","","","","","","","","","","","","","","",""
"","do_trial","177","696808","0.0-102.0-0.0","441.69999980926514","","","","51","0,0,0","1","highway","46","probe-127","0.22149631878556886","0.4631732661527015","0.3885527011234132","0","","","","","","","",""
"","html-keyboard-response","178","697811","0.0-102.0-1.0","null","<p></p>","null","","","","","","","","","","","","","","","","","","",""
"","do_trial","179","702703","0.0-103.0-0.0","350.69999980926514","","","","49","0,0,0","1","highway","47","probe-85","0.1847227632061504","0.45024928010041265","0.36429194370009826","0","","","","","","","",""
"","html-keyboard-response","180","703708","0.0-103.0-1.0","null","<p></p>","null","","","","","","","","","","","","","","","","","","",""
"","do_trial","181","708498","0.0-104.0-0.0","247.59999990463257","","","","49","0,0,1","1","highway","48","probe-204","0.07271611157832186","0.4795058257196141","0.12320830149157995","0","","","","","","","",""
"","html-keyboard-response","182","709502","0.0-104.0-1.0","null","<p></p>","null","","","","","","","","","","","","","","","","","","",""
"","do_trial","183","714476","0.0-105.0-0.0","426.5","","","","49","0,0,1","1","highway","49","probe-126","0.1785821196576022","0.3876652267336757","0.3574389870573626","0","","","","","","","",""
"","html-keyboard-response","184","715481","0.0-105.0-1.0","null","<p></p>","null","","","","","","","","","","","","","","","","","","",""
"","do_trial","185","720455","0.0-106.0-0.0","424.80000019073486","","","","49","0,0,0","1","highway","50","probe-04","0.1024188212315358","0.3987370092486956","0.23515994586851172","0","","","","","","","",""
"","html-keyboard-response","186","721460","0.0-106.0-1.0","null","<p></p>","null","","","","","","","","","","","","","","","","","","",""
"","do_trial","187","726626","0.0-107.0-0.0","618.0999999046326","","","","49","0,0,1","1","highway","51","probe-93","0.2017851984946468","0.4924690936205137","0.2750172055801903","0","","","","","","","",""
"","html-keyboard-response","188","727631","0.0-107.0-1.0","null","<p></p>","null","","","","","","","","","","","","","","","","","","",""
"","do_trial","189","732583","0.0-108.0-0.0","402.90000009536743","","","","50","0,0,0","1","highway","52","probe-135","0.23630079343580634","0.6863554765218767","0.2861039811131687","0","","","","","","","",""
"","html-keyboard-response","190","733587","0.0-108.0-1.0","null","<p></p>","null","","","","","","","","","","","","","","","","","","",""
"","do_trial","191","738365","0.0-109.0-0.0","227.5","","","","51","1,1,1","1","highway","53","probe-53","0.16631534335864692","0.6807124417233278","0.3295444745080755","1","","","","","","","",""
"","html-keyboard-response","192","739369","0.0-109.0-1.0","null","<p></p>","null","","","","","","","","","","","","","","","","","","",""
"","do_trial","193","744306","0.0-110.0-0.0","394.80000019073486","","","","51","0,1,0","1","highway","54","probe-172","0.21520265452148593","0.7044541953938448","0.3253971799550691","0","","","","","","","",""
"","html-keyboard-response","194","745311","0.0-110.0-1.0","null","<p></p>","null","","","","","","","","","","","","","","","","","","",""
"","do_trial","195","750219","0.0-111.0-0.0","363.59999990463257","","","","50","0,0,1","1","highway","55","probe-99","0.19577616896287509","0.6302932936464316","0.35194022625315396","0","","","","","","","",""
"","html-keyboard-response","196","751223","0.0-111.0-1.0","null","<p></p>","null","","","","","","","","","","","","","","","","","","",""
"","do_trial","197","756099","0.0-112.0-0.0","331.69999980926514","","","","49","0,1,1","1","highway","56","probe-141","0.1755156693648471","0.6057902478470092","0.4151274061888444","0","","","","","","","",""
"","html-keyboard-response","198","757101","0.0-112.0-1.0","null","<p></p>","null","","","","","","","","","","","","","","","","","","",""
"","do_trial","199","762002","0.0-113.0-0.0","352.90000009536743","","","","51","1,0,0","1","highway","57","probe-90","0.12345686306878723","0.6358314851894563","0.45683263522952416","0","","","","","","","",""
"","html-keyboard-response","200","763007","0.0-113.0-1.0","null","<p></p>","null","","","","","","","","","","","","","","","","","","",""
"","do_trial","201","768020","0.0-114.0-0.0","466","","","","49","0,1,0","1","highway","58","probe-71","0.23161574466255375","0.6957061823329039","0.4384264307704333","0","","","","","","","",""
"","html-keyboard-response","202","769022","0.0-114.0-1.0","null","<p></p>","null","","","","","","","","","","","","","","","","","","",""
"","do_trial","203","773652","0.0-115.0-0.0","81.39999961853027","","","","50","0,1,1","1","highway","59","probe-36","0.15548962935351068","0.6147000007513457","0.2510883093513843","1","","","","","","","",""
"","html-keyboard-response","204","774657","0.0-115.0-1.0","null","<p></p>","null","","","","","","","","","","","","","","","","","","",""
"","do_trial","205","779536","0.0-116.0-0.0","330.8999996185303","","","","51","0,0,0","1","highway","60","probe-115","0.22015821369314445","0.5600189487072191","0.3828156750550919","0","","","","","","","",""
"","html-keyboard-response","206","780541","0.0-116.0-1.0","null","<p></p>","null","","","","","","","","","","","","","","","","","","",""
"","do_trial","207","785379","0.0-117.0-0.0","289.8999996185303","","","","50","0,0,0","1","highway","61","probe-213","0.20223647792846716","0.6094737256113247","0.504927298068176","0","","","","","","","",""
"","html-keyboard-response","208","786384","0.0-117.0-1.0","null","<p></p>","null","","","","","","","","","","","","","","","","","","",""
"","do_trial","209","791244","0.0-118.0-0.0","310.8999996185303","","","","49","1,0,0","1","highway","62","probe-190","0.10015146992726442","0.575947912467013","0.6217498988928815","1","","","","","","","",""
"","html-keyboard-response","210","792248","0.0-118.0-1.0","null","<p></p>","null","","","","","","","","","","","","","","","","","","",""
"","do_trial","211","797129","0.0-119.0-0.0","332.6000003814697","","","","49","0,1,0","1","highway","63","probe-128","0.11737691053786938","0.5698523686470387","0.4747660458655046","0","","","","","","","",""
"","html-keyboard-response","212","798133","0.0-119.0-1.0","null","<p></p>","null","","","","","","","","","","","","","","","","","","",""
"","do_trial","213","803104","0.0-120.0-0.0","420","","","","51","0,1,1","1","highway","64","probe-143","0.08835627643596741","0.6949351370176049","0.5058948444342181","1","","","","","","","",""
"","html-keyboard-response","214","804107","0.0-120.0-1.0","null","<p></p>","null","","","","","","","","","","","","","","","","","","",""
"","do_trial","215","809388","0.0-121.0-0.0","734.9000000953674","","","","50","0,1,0","1","highway","65","probe-63","0.19682765902165208","0.6757577785709609","0.5272942505791259","1","","","","","","","",""
"","html-keyboard-response","216","810392","0.0-121.0-1.0","null","<p></p>","null","","","","","","","","","","","","","","","","","","",""
"","do_trial","217","815989","0.0-122.0-0.0","1048.5","","","","51","0,1,0","1","highway","66","probe-162","0.29532477026913","0.7348534362570779","0.4921215980427533","0","","","","","","","",""
"","html-keyboard-response","218","816994","0.0-122.0-1.0","null","<p></p>","null","","","","","","","","","","","","","","","","","","",""
"","do_trial","219","821976","0.0-123.0-0.0","434.2999997138977","","","","50","0,1,0","1","highway","67","probe-225","0.4953120426577286","0.5412263359751782","0.43839936194983375","1","","","","","","","",""
"","html-keyboard-response","220","822978","0.0-123.0-1.0","null","<p></p>","null","","","","","","","","","","","","","","","","","","",""
"","do_trial","221","827825","0.0-124.0-0.0","297.59999990463257","","","","49","0,1,0","1","highway","68","probe-149","0.25819124783704955","0.5204305886950624","0.28309799235015404","0","","","","","","","",""
"","html-keyboard-response","222","828828","0.0-124.0-1.0","null","<p></p>","null","","","","","","","","","","","","","","","","","","",""
"","do_trial","223","833974","0.0-125.0-0.0","601.5","","","","51","1,0,1","1","highway","69","probe-58","0.13839029626079108","0.6419394029819947","0.1613820783009432","1","","","","","","","",""
"","html-keyboard-response","224","834977","0.0-125.0-1.0","null","<p></p>","null","","","","","","","","","","","","","","","","","","",""
"","do_bye","225","836481","0.0-126.0-0.0","null","","","","null","","","","","","","","","","","","","","","","",""
"","do_travel","226","842487","0.0-127.0-0.0","null","","","","null","","","","","","","","","","","","","","","","",""
"","do_welcome","227","843995","0.0-127.0-1.0","null","","","","null","","","","","","","","","","","","","","","","",""
"","do_trial","228","849970","0.0-128.0-0.0","1427.5999999046326","","","","49","0,1,0","2","countryside","70","probe-16","0.13219790520302024","1","0.14360595809249238","0","","","","","","","",""
"","html-keyboard-response","229","850974","0.0-128.0-1.0","null","<p></p>","null","","","","","","","","","","","","","","","","","","",""
"","do_trial","230","856220","0.0-129.0-0.0","693.6999998092651","","","","49","0,1,0","2","countryside","71","probe-191","0.11149814118433952","1","0.22627799417893107","0","","","","","","","",""
"","html-keyboard-response","231","857224","0.0-129.0-1.0","null","<p></p>","null","","","","","","","","","","","","","","","","","","",""
"","do_trial","232","862113","0.0-130.0-0.0","342.90000009536743","","","","50","0,1,0","2","countryside","72","probe-227","0.09235302701110794","0.7398934610299561","0.20053702033799417","1","","","","","","","",""
"","html-keyboard-response","233","863117","0.0-130.0-1.0","null","<p></p>","null","","","","","","","","","","","","","","","","","","",""
"","do_trial","234","868013","0.0-131.0-0.0","349.59999990463257","","","","50","0,1,0","2","countryside","73","probe-147","0.18983537419864754","0.6738542629488606","0.22626674327971397","1","","","","","","","",""
"","html-keyboard-response","235","869015","0.0-131.0-1.0","null","<p></p>","null","","","","","","","","","","","","","","","","","","",""
"","do_trial","236","873919","0.0-132.0-0.0","358.8999996185303","","","","51","1,0,1","2","countryside","74","probe-131","0.12800548337113227","0.5079904661804241","0.38472468411945066","1","","","","","","","",""
"","html-keyboard-response","237","874923","0.0-132.0-1.0","null","<p></p>","null","","","","","","","","","","","","","","","","","","",""
"","do_trial","238","879802","0.0-133.0-0.0","334.19999980926514","","","","51","0,1,0","2","countryside","75","probe-81","0.05144130548194992","0.6237974712947435","0.4537558713632664","0","","","","","","","",""
"","html-keyboard-response","239","880803","0.0-133.0-1.0","null","<p></p>","null","","","","","","","","","","","","","","","","","","",""
"","do_trial","240","885704","0.0-134.0-0.0","356","","","","50","0,0,0","2","countryside","76","probe-185","0.20266887340019146","0.5492820157664808","0.3603741020171242","0","","","","","","","",""
"","html-keyboard-response","241","886708","0.0-134.0-1.0","null","<p></p>","null","","","","","","","","","","","","","","","","","","",""
"","do_trial","242","891664","0.0-135.0-0.0","409.09999990463257","","","","50","0,0,0","2","countryside","77","probe-142","0.14482079963365896","0.6370616396821415","0.3571045560735801","0","","","","","","","",""
"","html-keyboard-response","243","892668","0.0-135.0-1.0","null","<p></p>","null","","","","","","","","","","","","","","","","","","",""
"","do_trial","244","898535","0.0-136.0-0.0","1319","","","","50","0,0,0","2","countryside","78","probe-82","0.053053206082857865","0.5642791651471726","0.26512084887224013","0","","","","","","","",""
"","html-keyboard-response","245","899538","0.0-136.0-1.0","null","<p></p>","null","","","","","","","","","","","","","","","","","","",""
"","do_trial","246","904199","0.0-137.0-0.0","109.09999990463257","","","","51","0,1,0","2","countryside","79","probe-214","0.11975350091423705","0.5746561436520689","0.4977010836958176","0","","","","","","","",""
"","html-keyboard-response","247","905203","0.0-137.0-1.0","null","<p></p>","null","","","","","","","","","","","","","","","","","","",""
"","do_trial","248","909965","0.0-138.0-0.0","219.7999997138977","","","","50","1,0,0","2","countryside","80","probe-05","0.11377758013686967","0.6069521200313787","0.5637698549801843","0","","","","","","","",""
"","html-keyboard-response","249","910967","0.0-138.0-1.0","null","<p></p>","null","","","","","","","","","","","","","","","","","","",""
"","do_trial","250","916064","0.0-139.0-0.0","547.7999997138977","","","","51","1,1,0","2","countryside","81","probe-211","0.19258931752331965","0.6237896283078241","0.6004896106622196","0","","","","","","","",""
"","html-keyboard-response","251","917068","0.0-139.0-1.0","null","<p></p>","null","","","","","","","","","","","","","","","","","","",""
"","do_trial","252","922145","0.0-140.0-0.0","530.3000001907349","","","","49","1,0,0","2","countryside","82","probe-139","0.4262827483960435","0.35403286654799737","0.4971699386860498","1","","","","","","","",""
"","html-keyboard-response","253","923150","0.0-140.0-1.0","null","<p></p>","null","","","","","","","","","","","","","","","","","","",""
"","do_trial","254","928101","0.0-141.0-0.0","403.8999996185303","","","","49","1,0,0","2","countryside","83","probe-101","0.5321475612692419","0.23451038099486737","0.5032001951959012","1","","","","","","","",""
"","html-keyboard-response","255","929106","0.0-141.0-1.0","null","<p></p>","null","","","","","","","","","","","","","","","","","","",""
"","do_trial","256","934089","0.0-142.0-0.0","434.8999996185303","","","","49","1,0,0","2","countryside","84","probe-169","0.6976231168203743","0.24470184428860797","0.35811291682563723","1","","","","","","","",""
"","html-keyboard-response","257","935093","0.0-142.0-1.0","null","<p></p>","null","","","","","","","","","","","","","","","","","","",""
"","do_trial","258","940106","0.0-143.0-0.0","465.2000002861023","","","","49","0,0,1","2","countryside","85","probe-132","0.7061050304097702","0.1888126438693537","0.4542127316852407","0","","","","","","","",""
"","html-keyboard-response","259","941110","0.0-143.0-1.0","null","<p></p>","null","","","","","","","","","","","","","","","","","","",""
"","do_trial","260","946313","0.0-144.0-0.0","652.8999996185303","","","","49","1,1,0","2","countryside","86","probe-159","0.6568585615676868","0.12680679665731187","0.5310838063021754","1","","","","","","","",""
"","html-keyboard-response","261","947319","0.0-144.0-1.0","null","<p></p>","null","","","","","","","","","","","","","","","","","","",""
"","do_trial","262","952409","0.0-145.0-0.0","542.8999996185303","","","","49","1,0,1","2","countryside","87","probe-202","0.8571424027226876","0.07681716683983526","0.40710529608526996","1","","","","","","","",""
"","html-keyboard-response","263","953413","0.0-145.0-1.0","null","<p></p>","null","","","","","","","","","","","","","","","","","","",""
"","do_trial","264","958619","0.0-146.0-0.0","657.6999998092651","","","","49","1,0,1","2","countryside","88","probe-13","0.7349644033809903","0.11344143796828453","0.3021448737350325","1","","","","","","","",""
"","html-keyboard-response","265","959622","0.0-146.0-1.0","null","<p></p>","null","","","","","","","","","","","","","","","","","","",""
"","do_trial","266","964692","0.0-147.0-0.0","522.6999998092651","","","","49","0,0,0","2","countryside","89","probe-40","0.7342240465106559","0.09379748411952984","0.31795846654587673","0","","","","","","","",""
"","html-keyboard-response","267","965696","0.0-147.0-1.0","null","<p></p>","null","","","","","","","","","","","","","","","","","","",""
"","do_trial","268","971077","0.0-148.0-0.0","831.7999997138977","","","","49","0,0,1","2","countryside","90","probe-129","0.732901792751105","0.06570504696280445","0.39179394073647844","0","","","","","","","",""
"","html-keyboard-response","269","972082","0.0-148.0-1.0","null","<p></p>","null","","","","","","","","","","","","","","","","","","",""
"","do_trial","270","977348","0.0-149.0-0.0","717.8000001907349","","","","49","0,0,0","2","countryside","91","probe-206","0.6045785042986973","0.10775830457355481","0.2883115489453732","0","","","","","","","",""
"","html-keyboard-response","271","978352","0.0-149.0-1.0","null","<p></p>","null","","","","","","","","","","","","","","","","","","",""
"","do_trial","272","983244","0.0-150.0-0.0","345.80000019073486","","","","49","1,1,1","2","countryside","92","probe-28","0.7048387875090166","0.1527411179033147","0.16206459153500546","1","","","","","","","",""
"","html-keyboard-response","273","984246","0.0-150.0-1.0","null","<p></p>","null","","","","","","","","","","","","","","","","","","",""
"","do_trial","274","989144","0.0-151.0-0.0","351.09999990463257","","","","49","1,0,0","2","countryside","93","probe-77","0.6970649162367937","0.10430347267824137","0.18303699310817537","1","","","","","","","",""
"","html-keyboard-response","275","990148","0.0-151.0-1.0","null","<p></p>","null","","","","","","","","","","","","","","","","","","",""
"","do_trial","276","995100","0.0-152.0-0.0","402","","","","49","0,0,1","2","countryside","94","probe-17","0.6401117298041032","0.05609969329369128","0.31759603352343513","0","","","","","","","",""
"","html-keyboard-response","277","996102","0.0-152.0-1.0","null","<p></p>","null","","","","","","","","","","","","","","","","","","",""
"","do_trial","278","1002151","0.0-153.0-0.0","1501.1999998092651","","","","49","1,1,1","2","countryside","95","probe-104","0.5642813736180448","0.2969085748466884","0.20737902661234422","1","","","","","","","",""
"","html-keyboard-response","279","1003157","0.0-153.0-1.0","null","<p></p>","null","","","","","","","","","","","","","","","","","","",""
"","do_trial","280","1008141","0.0-154.0-0.0","439.3999996185303","","","","49","1,0,0","2","countryside","96","probe-148","0.5869046020272132","0.17141226168793416","0.23282638343637196","1","","","","","","","",""
"","html-keyboard-response","281","1009144","0.0-154.0-1.0","null","<p></p>","null","","","","","","","","","","","","","","","","","","",""
"","do_trial","282","1014918","0.0-155.0-0.0","1229.9000000953674","","","","49","1,0,0","2","countryside","97","probe-194","0.5765670721234734","0.22838042190771835","0.05476542353483488","1","","","","","","","",""
"","html-keyboard-response","283","1015923","0.0-155.0-1.0","null","<p></p>","null","","","","","","","","","","","","","","","","","","",""
"","do_trial","284","1021296","0.0-156.0-0.0","826.6999998092651","","","","49","1,0,0","2","countryside","98","probe-89","0.609547573226994","0.13938587854570014","0.09584922180145485","1","","","","","","","",""
"","html-keyboard-response","285","1022301","0.0-156.0-1.0","null","<p></p>","null","","","","","","","","","","","","","","","","","","",""
"","do_trial","286","1027259","0.0-157.0-0.0","408.69999980926514","","","","49","1,1,0","2","countryside","99","probe-120","0.48200979586109977","0.1180909319667029","0.21412059254075533","1","","","","","","","",""
"","html-keyboard-response","287","1028261","0.0-157.0-1.0","null","<p></p>","null","","","","","","","","","","","","","","","","","","",""
"","do_trial","288","1033185","0.0-158.0-0.0","377.90000009536743","","","","49","1,1,0","2","countryside","100","probe-35","0.5614687969170978","0.2816020286524589","0.2653633774381262","1","","","","","","","",""
"","html-keyboard-response","289","1034192","0.0-158.0-1.0","null","<p></p>","null","","","","","","","","","","","","","","","","","","",""
"","do_trial","290","1039243","0.0-159.0-0.0","503.40000009536743","","","","49","1,0,0","2","countryside","101","probe-167","0.6027876660520451","0.26409869066872604","0.3646386829267478","1","","","","","","","",""
"","html-keyboard-response","291","1040246","0.0-159.0-1.0","null","<p></p>","null","","","","","","","","","","","","","","","","","","",""
"","do_trial","292","1045118","0.0-160.0-0.0","322.90000009536743","","","","49","0,1,0","2","countryside","102","probe-56","0.6098602602612521","0.2277231139949514","0.2509981262686917","0","","","","","","","",""
"","html-keyboard-response","293","1046122","0.0-160.0-1.0","null","<p></p>","null","","","","","","","","","","","","","","","","","","",""
"","do_trial","294","1051116","0.0-161.0-0.0","459.5","","","","49","1,1,0","2","countryside","103","probe-176","0.4019385859695648","0.3303313105759692","0.22934386856347289","1","","","","","","","",""
"","html-keyboard-response","295","1052121","0.0-161.0-1.0","null","<p></p>","null","","","","","","","","","","","","","","","","","","",""
"","do_trial","296","1057001","0.0-162.0-0.0","329.8999996185303","","","","49","1,1,0","2","countryside","104","probe-84","0.4115766829359444","0.14522385869773982","0.3032680266646481","1","","","","","","","",""
"","html-keyboard-response","297","1058068","0.0-162.0-1.0","null","<p></p>","null","","","","","","","","","","","","","","","","","","",""
"","do_trial","298","1062807","0.0-163.0-0.0","196","","","","49","0,0,1","2","countryside","105","probe-180","0.47949453304179274","0.06477063587423308","0.3943030436546895","0","","","","","","","",""
"","html-keyboard-response","299","1063813","0.0-163.0-1.0","null","<p></p>","null","","","","","","","","","","","","","","","","","","",""
"","do_trial","300","1068906","0.0-164.0-0.0","547.0999999046326","","","","49","1,0,0","2","countryside","106","probe-69","0.5690110799755788","0.1807629816950331","0.22531134376230263","1","","","","","","","",""
"","html-keyboard-response","301","1069911","0.0-164.0-1.0","null","<p></p>","null","","","","","","","","","","","","","","","","","","",""
"","do_trial","302","1075552","0.0-165.0-0.0","1093.3000001907349","","","","49","1,0,0","2","countryside","107","probe-23","0.6265372181737694","0.18254097718690968","0.15084831821194422","1","","","","","","","",""
"","html-keyboard-response","303","1076557","0.0-165.0-1.0","null","<p></p>","null","","","","","","","","","","","","","","","","","","",""
"","do_trial","304","1082387","0.0-166.0-0.0","1282.7000002861023","","","","49","0,0,0","2","countryside","108","probe-09","0.6709129182107694","0.1283268508151702","0.13240329504081996","0","","","","","","","",""
"","html-keyboard-response","305","1083391","0.0-166.0-1.0","null","<p></p>","null","","","","","","","","","","","","","","","","","","",""
"","do_trial","306","1088335","0.0-167.0-0.0","399.1000003814697","","","","49","1,0,0","2","countryside","109","probe-181","0.6199677059690025","0.1372935758514746","0.2578056293311337","1","","","","","","","",""
"","html-keyboard-response","307","1089340","0.0-167.0-1.0","null","<p></p>","null","","","","","","","","","","","","","","","","","","",""
"","do_bye","308","1090853","0.0-168.0-0.0","null","","","","null","","","","","","","","","","","","","","","","",""
"","do_travel","309","1096856","0.0-169.0-0.0","null","","","","null","","","","","","","","","","","","","","","","",""
"","do_welcome","310","1098363","0.0-169.0-1.0","null","","","","null","","","","","","","","","","","","","","","","",""
"","do_trial","311","1104156","0.0-170.0-0.0","1242.5","","","","50","1,0,0","3","forest","110","probe-195","1","0.15606905211898903","0.21596012777169896","0","","","","","","","",""
"","html-keyboard-response","312","1105159","0.0-170.0-1.0","null","<p></p>","null","","","","","","","","","","","","","","","","","","",""
"","do_trial","313","1110185","0.0-171.0-0.0","475.80000019073486","","","","51","1,1,0","3","forest","111","probe-221","1","0.2860771913691577","0.20583087351351126","0","","","","","","","",""
"","html-keyboard-response","314","1111187","0.0-171.0-1.0","null","<p></p>","null","","","","","","","","","","","","","","","","","","",""
"","do_trial","315","1116134","0.0-172.0-0.0","402.90000009536743","","","","49","1,0,0","3","forest","112","probe-158","0.7684369459933139","0.054428750737043556","0.12304420178097969","1","","","","","","","",""
"","html-keyboard-response","316","1117138","0.0-172.0-1.0","null","<p></p>","null","","","","","","","","","","","","","","","","","","",""
"","do_trial","317","1122063","0.0-173.0-0.0","376.90000009536743","","","","49","1,0,0","3","forest","113","probe-80","0.6531003619276501","0.10829289050502276","0.1254285697310189","1","","","","","","","",""
"","html-keyboard-response","318","1123068","0.0-173.0-1.0","null","<p></p>","null","","","","","","","","","","","","","","","","","","",""
"","do_trial","319","1127933","0.0-174.0-0.0","316.59999990463257","","","","49","0,0,0","3","forest","114","probe-223","0.5603909769703863","0.18441026735096536","0.30849943699982474","0","","","","","","","",""
"","html-keyboard-response","320","1128940","0.0-174.0-1.0","null","<p></p>","null","","","","","","","","","","","","","","","","","","",""
"","do_trial","321","1133965","0.0-175.0-0.0","476.2000002861023","","","","50","1,0,0","3","forest","115","probe-100","0.35483833006178245","0.09834781233307663","0.2065422164597318","0","","","","","","","",""
"","html-keyboard-response","322","1134970","0.0-175.0-1.0","null","<p></p>","null","","","","","","","","","","","","","","","","","","",""
"","do_trial","323","1140383","0.0-176.0-0.0","864.5","","","","51","1,0,0","3","forest","116","probe-46","0.6617763804234398","0.07091608326969173","0.29314812156281306","0","","","","","","","",""
"","html-keyboard-response","324","1141388","0.0-176.0-1.0","null","<p></p>","null","","","","","","","","","","","","","","","","","","",""
"","do_trial","325","1146305","0.0-177.0-0.0","370","","","","50","1,0,0","3","forest","117","probe-153","0.7448102096465656","0.2341287031877391","0.28942986133092985","0","","","","","","","",""
"","html-keyboard-response","326","1147309","0.0-177.0-1.0","null","<p></p>","null","","","","","","","","","","","","","","","","","","",""
"","do_trial","327","1152202","0.0-178.0-0.0","349.19999980926514","","","","51","1,0,0","3","forest","118","probe-55","0.7014959353475958","0.13485622603486133","0.3000181219067077","0","","","","","","","",""
"","html-keyboard-response","328","1153209","0.0-178.0-1.0","null","<p></p>","null","","","","","","","","","","","","","","","","","","",""
"","do_trial","329","1158511","0.0-179.0-0.0","754.6999998092651","","","","49","1,1,0","3","forest","119","probe-130","0.7770831344061431","0.1937238950119272","0.34818772090389355","1","","","","","","","",""
"","html-keyboard-response","330","1159516","0.0-179.0-1.0","null","<p></p>","null","","","","","","","","","","","","","","","","","","",""
"","do_trial","331","1164553","0.0-180.0-0.0","489.90000009536743","","","","49","1,0,0","3","forest","120","probe-110","0.9139300200203101","0.2622727084587239","0.46199757897887805","1","","","","","","","",""
"","html-keyboard-response","332","1165559","0.0-180.0-1.0","null","<p></p>","null","","","","","","","","","","","","","","","","","","",""
"","do_trial","333","1170518","0.0-181.0-0.0","414","","","","49","1,0,0","3","forest","121","probe-18","0.6974433055977544","0.12958232267289618","0.4668267142555119","1","","","","","","","",""
"","html-keyboard-response","334","1171523","0.0-181.0-1.0","null","<p></p>","null","","","","","","","","","","","","","","","","","","",""
"","do_trial","335","1176765","0.0-182.0-0.0","693","","","","49","1,0,1","3","forest","122","probe-179","0.3617945915517359","0.2827408196896116","0.4806919289490481","1","","","","","","","",""
"","html-keyboard-response","336","1177771","0.0-182.0-1.0","null","<p></p>","null","","","","","","","","","","","","","","","","","","",""
"","do_trial","337","1185309","0.0-183.0-0.0","2994.7999997138977","","","","49","0,0,0","3","forest","123","probe-160","0.31635779885025306","0.3489287985213798","0.5210489317240325","0","","","","","","","",""
"","html-keyboard-response","338","1186314","0.0-183.0-1.0","null","<p></p>","null","","","","","","","","","","","","","","","","","","",""
"","do_trial","339","1191248","0.0-184.0-0.0","386.80000019073486","","","","49","0,0,0","3","forest","124","probe-192","0.16591707496644678","0.26821322806340236","0.4262656321319058","0","","","","","","","",""
"","html-keyboard-response","340","1192253","0.0-184.0-1.0","null","<p></p>","null","","","","","","","","","","","","","","","","","","",""
"","do_trial","341","1197547","0.0-185.0-0.0","748.4000000953674","","","","49","1,1,0","3","forest","125","probe-187","0.0966744583399183","0.4320084751944394","0.4076146558313588","1","","","","","","","",""
"","html-keyboard-response","342","1198552","0.0-185.0-1.0","null","<p></p>","null","","","","","","","","","","","","","","","","","","",""
"","do_trial","343","1204232","0.0-186.0-0.0","1130.5","","","","49","0,0,1","3","forest","126","probe-11","0.15733487154566644","0.37993143768102733","0.5221660687283257","0","","","","","","","",""
"","html-keyboard-response","344","1205237","0.0-186.0-1.0","null","<p></p>","null","","","","","","","","","","","","","","","","","","",""
"","do_trial","345","1211287","0.0-187.0-0.0","null","","","","null","0,0,0","3","forest","127","probe-15","0.17118825182733927","0.349933865768053","0.5001119004205231","","","","","","","","",""
"","html-keyboard-response","346","1212293","0.0-187.0-1.0","null","<p></p>","null","","","","","","","","","","","","","","","","","","",""
"","do_trial","347","1217198","0.0-188.0-0.0","356.69999980926514","","","","49","0,0,0","3","forest","128","probe-188","0.1607523955867506","0.33103069498797255","0.5256812412009974","0","","","","","","","",""
"","html-keyboard-response","348","1218203","0.0-188.0-1.0","null","<p></p>","null","","","","","","","","","","","","","","","","","","",""
"","do_trial","349","1223201","0.0-189.0-0.0","449.59999990463257","","","","49","0,1,1","3","forest","129","probe-209","0.062195929307500515","0.1970645579295531","0.5156572922808131","0","","","","","","","",""
"","html-keyboard-response","350","1224203","0.0-189.0-1.0","null","<p></p>","null","","","","","","","","","","","","","","","","","","",""
"","do_trial","351","1229448","0.0-190.0-0.0","696.1999998092651","","","","49","0,0,0","3","forest","130","probe-157","0.11590169965488023","0.2698528622920767","0.44571994093898826","0","","","","","","","",""
"","html-keyboard-response","352","1230454","0.0-190.0-1.0","null","<p></p>","null","","","","","","","","","","","","","","","","","","",""
"","do_trial","353","1235470","0.0-191.0-0.0","467.40000009536743","","","","51","0,0,0","3","forest","131","probe-54","0.07929369675502479","0.17346423478835948","0.5646933226303142","0","","","","","","","",""
"","html-keyboard-response","354","1236475","0.0-191.0-1.0","null","<p></p>","null","","","","","","","","","","","","","","","","","","",""
"","do_trial","355","1241487","0.0-192.0-0.0","465.8999996185303","","","","51","0,0,0","3","forest","132","probe-133","0.14401087395364426","0.24102805527928653","0.7681860105954226","0","","","","","","","",""
"","html-keyboard-response","356","1242489","0.0-192.0-1.0","null","<p></p>","null","","","","","","","","","","","","","","","","","","",""
"","do_trial","357","1248501","0.0-193.0-0.0","1464.3000001907349","","","","50","0,0,0","3","forest","133","probe-228","0.09245005301738685","0.1459052322995847","0.7396194863140335","0","","","","","","","",""
"","html-keyboard-response","358","1249506","0.0-193.0-1.0","null","<p></p>","null","","","","","","","","","","","","","","","","","","",""
"","do_trial","359","1254461","0.0-194.0-0.0","407.09999990463257","","","","51","0,0,1","3","forest","134","probe-88","0.05972955101633387","0.22385128936121856","0.7078996838975036","1","","","","","","","",""
"","html-keyboard-response","360","1255467","0.0-194.0-1.0","null","<p></p>","null","","","","","","","","","","","","","","","","","","",""
"","do_trial","361","1260762","0.0-195.0-0.0","746.9000000953674","","","","51","1,1,0","3","forest","135","probe-65","0.0975932923923001","0.2298283027919047","0.6220102165773617","0","","","","","","","",""
"","html-keyboard-response","362","1261768","0.0-195.0-1.0","null","<p></p>","null","","","","","","","","","","","","","","","","","","",""
"","do_trial","363","1266660","0.0-196.0-0.0","345.90000009536743","","","","50","0,0,1","3","forest","136","probe-106","0.15644596192098373","0.2029367464333636","0.6882084120543569","0","","","","","","","",""
"","html-keyboard-response","364","1267665","0.0-196.0-1.0","null","<p></p>","null","","","","","","","","","","","","","","","","","","",""
"","do_trial","365","1273682","0.0-197.0-0.0","1467.8000001907349","","","","50","0,1,1","3","forest","137","probe-111","0.13155899476619895","0.24277144782387045","0.6179063884140766","1","","","","","","","",""
"","html-keyboard-response","366","1274687","0.0-197.0-1.0","null","<p></p>","null","","","","","","","","","","","","","","","","","","",""
"","do_trial","367","1279732","0.0-198.0-0.0","500.80000019073486","","","","50","1,0,1","3","forest","138","probe-10","0.15492293784192956","0.33452516382647984","0.6339603576804326","0","","","","","","","",""
"","html-keyboard-response","368","1280737","0.0-198.0-1.0","null","<p></p>","null","","","","","","","","","","","","","","","","","","",""
"","do_trial","369","1285670","0.0-199.0-0.0","385.90000009536743","","","","51","0,0,1","3","forest","139","probe-103","0.21515720256568352","0.4416428121632302","0.6656526272241631","1","","","","","","","",""
"","html-keyboard-response","370","1286677","0.0-199.0-1.0","null","<p></p>","null","","","","","","","","","","","","","","","","","","",""
"","do_trial","371","1291633","0.0-200.0-0.0","408","","","","51","1,0,0","3","forest","140","probe-165","0.1577871755033894","0.5015199170456694","0.7718799279100376","0","","","","","","","",""
"","html-keyboard-response","372","1292638","0.0-200.0-1.0","null","<p></p>","null","","","","","","","","","","","","","","","","","","",""
"","do_trial","373","1297866","0.0-201.0-0.0","680.7000002861023","","","","49","0,1,1","3","forest","141","probe-97","0.10251876117994671","0.47015272209533365","0.6339385253058732","0","","","","","","","",""
"","html-keyboard-response","374","1298870","0.0-201.0-1.0","null","<p></p>","null","","","","","","","","","","","","","","","","","","",""
"","do_trial","375","1304732","0.0-202.0-0.0","1312.3000001907349","","","","51","0,0,0","3","forest","142","probe-215","0.056209041473219486","0.46676827520627756","0.4376832554691148","0","","","","","","","",""
"","html-keyboard-response","376","1305737","0.0-202.0-1.0","null","<p></p>","null","","","","","","","","","","","","","","","","","","",""
"","do_trial","377","1310792","0.0-203.0-0.0","511.09999990463257","","","","50","0,0,1","3","forest","143","probe-31","0.05383041110106945","0.22406291803825135","0.43808423039783806","0","","","","","","","",""
"","html-keyboard-response","378","1311797","0.0-203.0-1.0","null","<p></p>","null","","","","","","","","","","","","","","","","","","",""
"","do_trial","379","1316741","0.0-204.0-0.0","395.2000002861023","","","","49","0,1,1","3","forest","144","probe-163","0.11978260459853257","0.2272572647446791","0.4696710088893717","0","","","","","","","",""
"","html-keyboard-response","380","1317746","0.0-204.0-1.0","null","<p></p>","null","","","","","","","","","","","","","","","","","","",""
"","do_trial","381","1323071","0.0-205.0-0.0","780.3000001907349","","","","49","1,0,1","3","forest","145","probe-136","0.20187926628778552","0.13058423273436717","0.4987458939659585","1","","","","","","","",""
"","html-keyboard-response","382","1324074","0.0-205.0-1.0","null","<p></p>","null","","","","","","","","","","","","","","","","","","",""
"","do_trial","383","1331185","0.0-206.0-0.0","2562.9000000953674","","","","49","1,0,0","3","forest","146","probe-218","0.25741305679180243","0.3162880359556764","0.3678139713190343","1","","","","","","","",""
"","html-keyboard-response","384","1332192","0.0-206.0-1.0","null","<p></p>","null","","","","","","","","","","","","","","","","","","",""
"","do_trial","385","1337440","0.0-207.0-0.0","703.9000000953674","","","","51","0,1,0","3","forest","147","probe-75","0.24362801569273604","0.10245734229715886","0.3972454282589393","0","","","","","","","",""
"","html-keyboard-response","386","1338446","0.0-207.0-1.0","null","<p></p>","null","","","","","","","","","","","","","","","","","","",""
"","do_trial","387","1343341","0.0-208.0-0.0","350.6000003814697","","","","49","0,0,0","3","forest","148","probe-02","0.18841011100634372","0.12285589877722551","0.4180441676953241","0","","","","","","","",""
"","html-keyboard-response","388","1344346","0.0-208.0-1.0","null","<p></p>","null","","","","","","","","","","","","","","","","","","",""
"","do_trial","389","1349450","0.0-209.0-0.0","560.2999997138977","","","","51","0,0,1","3","forest","149","probe-43","0.11819193014596174","0.2649911582781653","0.4584795774319757","1","","","","","","","",""
"","html-keyboard-response","390","1350452","0.0-209.0-1.0","null","<p></p>","null","","","","","","","","","","","","","","","","","","",""
"","do_bye","391","1351963","0.0-210.0-0.0","null","","","","null","","","","","","","","","","","","","","","","",""
"","do_travel","392","1357970","0.0-211.0-0.0","null","","","","null","","","","","","","","","","","","","","","","",""
"","do_welcome","393","1359477","0.0-211.0-1.0","null","","","","null","","","","","","","","","","","","","","","","",""
"","do_trial","394","1364782","0.0-212.0-0.0","764.6000003814697","","","","50","1,0,1","4","coast","150","probe-98","0.10364377197779046","0.3905344339511551","1","0","","","","","","","",""
"","html-keyboard-response","395","1365787","0.0-212.0-1.0","null","<p></p>","null","","","","","","","","","","","","","","","","","","",""
"","do_trial","396","1370692","0.0-213.0-0.0","356","","","","51","0,0,1","4","coast","151","probe-183","0.08030638723234983","0.3124298447535266","1","1","","","","","","","",""
"","html-keyboard-response","397","1371697","0.0-213.0-1.0","null","<p></p>","null","","","","","","","","","","","","","","","","","","",""
"","do_trial","398","1376689","0.0-214.0-0.0","445.5","","","","49","1,0,1","4","coast","152","probe-01","0.25938195767305616","0.21018303509120861","0.8788722105965681","1","","","","","","","",""
"","html-keyboard-response","399","1377694","0.0-214.0-1.0","null","<p></p>","null","","","","","","","","","","","","","","","","","","",""
"","do_trial","400","1382841","0.0-215.0-0.0","597.8000001907349","","","","49","0,0,1","4","coast","153","probe-118","0.29427258165734216","0.3528636496302082","0.769691197198877","0","","","","","","","",""
"","html-keyboard-response","401","1383847","0.0-215.0-1.0","null","<p></p>","null","","","","","","","","","","","","","","","","","","",""
"","do_trial","402","1388795","0.0-216.0-0.0","399","","","","51","0,1,1","4","coast","154","probe-155","0.15080351380200066","0.34899608807376575","0.7047359526146985","1","","","","","","","",""
"","html-keyboard-response","403","1389801","0.0-216.0-1.0","null","<p></p>","null","","","","","","","","","","","","","","","","","","",""
"","do_trial","404","1394730","0.0-217.0-0.0","380.3999996185303","","","","51","0,1,0","4","coast","155","probe-07","0.07577320662753892","0.37276560509455253","0.7383325985666396","0","","","","","","","",""
"","html-keyboard-response","405","1395735","0.0-217.0-1.0","null","<p></p>","null","","","","","","","","","","","","","","","","","","",""
"","do_trial","406","1401469","0.0-218.0-0.0","1185.4000000953674","","","","51","0,0,1","4","coast","156","probe-154","0.14284889299199405","0.26681031186606435","0.764876661845354","1","","","","","","","",""
"","html-keyboard-response","407","1402474","0.0-218.0-1.0","null","<p></p>","null","","","","","","","","","","","","","","","","","","",""
"","do_trial","408","1407654","0.0-219.0-0.0","633.9000000953674","","","","51","0,0,1","4","coast","157","probe-68","0.14632206119764823","0.20418757079955197","0.7470868774104611","1","","","","","","","",""
"","html-keyboard-response","409","1408658","0.0-219.0-1.0","null","<p></p>","null","","","","","","","","","","","","","","","","","","",""
"","do_trial","410","1413657","0.0-220.0-0.0","449.5","","","","51","0,1,1","4","coast","158","probe-48","0.08150198199175357","0.1958334812645889","0.6138072578389422","1","","","","","","","",""
"","html-keyboard-response","411","1414661","0.0-220.0-1.0","null","<p></p>","null","","","","","","","","","","","","","","","","","","",""
"","do_trial","412","1420027","0.0-221.0-0.0","818.2999997138977","","","","51","1,0,1","4","coast","159","probe-201","0.1147144816294891","0.31094585286849297","0.694125220130034","1","","","","","","","",""
"","html-keyboard-response","413","1421034","0.0-221.0-1.0","null","<p></p>","null","","","","","","","","","","","","","","","","","","",""
"","do_trial","414","1426538","0.0-222.0-0.0","954.2999997138977","","","","51","0,0,0","4","coast","160","probe-113","0.08099050206032374","0.2692856866041727","0.6655011170969968","0","","","","","","","",""
"","html-keyboard-response","415","1427542","0.0-222.0-1.0","null","<p></p>","null","","","","","","","","","","","","","","","","","","",""
"","do_trial","416","1432765","0.0-223.0-0.0","673.3000001907349","","","","51","0,1,1","4","coast","161","probe-42","0.06072099706401537","0.28778545577666215","0.6790256968853032","1","","","","","","","",""
"","html-keyboard-response","417","1433769","0.0-223.0-1.0","null","<p></p>","null","","","","","","","","","","","","","","","","","","",""
"","do_trial","418","1438822","0.0-224.0-0.0","507.59999990463257","","","","51","0,1,0","4","coast","162","probe-230","0.24191477781139575","0.4924750667638005","0.48337540419099806","0","","","","","","","",""
"","html-keyboard-response","419","1439827","0.0-224.0-1.0","null","<p></p>","null","","","","","","","","","","","","","","","","","","",""
"","do_trial","420","1444741","0.0-225.0-0.0","368.69999980926514","","","","50","1,0,1","4","coast","163","probe-200","0.2859408187947169","0.4907660144424571","0.21692215787718602","0","","","","","","","",""
"","html-keyboard-response","421","1445746","0.0-225.0-1.0","null","<p></p>","null","","","","","","","","","","","","","","","","","","",""
"","do_trial","422","1450724","0.0-226.0-0.0","428.8999996185303","","","","50","1,1,0","4","coast","164","probe-37","0.19285793485421507","0.5381546144539772","0.13775842126605","1","","","","","","","",""
"","html-keyboard-response","423","1451729","0.0-226.0-1.0","null","<p></p>","null","","","","","","","","","","","","","","","","","","",""
"","do_trial","424","1456696","0.0-227.0-0.0","419","","","","50","0,1,0","4","coast","165","probe-108","0.1671634867554115","0.7002515783883047","0.13154648898753452","1","","","","","","","",""
"","html-keyboard-response","425","1457700","0.0-227.0-1.0","null","<p></p>","null","","","","","","","","","","","","","","","","","","",""
"","do_trial","426","1462889","0.0-228.0-0.0","643.5","","","","50","0,1,0","4","coast","166","probe-70","0.2362209669978077","0.6007762726500168","0.08815847990110115","1","","","","","","","",""
"","html-keyboard-response","427","1463894","0.0-228.0-1.0","null","<p></p>","null","","","","","","","","","","","","","","","","","","",""
"","do_trial","428","1468880","0.0-229.0-0.0","437.5","","","","50","0,1,0","4","coast","167","probe-114","0.4722409369089834","0.6593009826913384","0.10333514530523291","1","","","","","","","",""
"","html-keyboard-response","429","1469885","0.0-229.0-1.0","null","<p></p>","null","","","","","","","","","","","","","","","","","","",""
"","do_trial","430","1474887","0.0-230.0-0.0","455.30000019073486","","","","50","1,1,0","4","coast","168","probe-216","0.3189160015237122","0.7197614097553247","0.17297505157469964","1","","","","","","","",""
"","html-keyboard-response","431","1475892","0.0-230.0-1.0","null","<p></p>","null","","","","","","","","","","","","","","","","","","",""
"","do_trial","432","1481224","0.0-231.0-0.0","783.2999997138977","","","","50","1,1,1","4","coast","169","probe-41","0.4867833793707127","0.7521613346244668","0.20289266238873796","1","","","","","","","",""
"","html-keyboard-response","433","1482226","0.0-231.0-1.0","null","<p></p>","null","","","","","","","","","","","","","","","","","","",""
"","do_trial","434","1487339","0.0-232.0-0.0","563.3999996185303","","","","50","1,0,0","4","coast","170","probe-08","0.5365776088546278","0.6254783740508806","0.12722813798705562","0","","","","","","","",""
"","html-keyboard-response","435","1488342","0.0-232.0-1.0","null","<p></p>","null","","","","","","","","","","","","","","","","","","",""
"","do_trial","436","1493387","0.0-233.0-0.0","494.8999996185303","","","","50","1,1,0","4","coast","171","probe-62","0.47546683463427125","0.6684735963315694","0.11504184279894666","1","","","","","","","",""
"","html-keyboard-response","437","1494392","0.0-233.0-1.0","null","<p></p>","null","","","","","","","","","","","","","","","","","","",""
"","do_trial","438","1499446","0.0-234.0-0.0","504.90000009536743","","","","50","1,0,0","4","coast","172","probe-26","0.40487797829125177","0.7347517888173412","0.23965615997517697","0","","","","","","","",""
"","html-keyboard-response","439","1500452","0.0-234.0-1.0","null","<p></p>","null","","","","","","","","","","","","","","","","","","",""
"","do_trial","440","1505468","0.0-235.0-0.0","471.80000019073486","","","","50","0,1,1","4","coast","173","probe-33","0.3595894122717283","0.5799011697795002","0.19118574603783017","1","","","","","","","",""
"","html-keyboard-response","441","1506474","0.0-235.0-1.0","null","<p></p>","null","","","","","","","","","","","","","","","","","","",""
"","do_trial","442","1512319","0.0-236.0-0.0","1296.5","","","","50","1,0,1","4","coast","174","probe-146","0.43591174258369514","0.543200187737935","0.18030566988433377","0","","","","","","","",""
"","html-keyboard-response","443","1513325","0.0-236.0-1.0","null","<p></p>","null","","","","","","","","","","","","","","","","","","",""
"","do_trial","444","1518702","0.0-237.0-0.0","829.3000001907349","","","","50","0,1,0","4","coast","175","probe-207","0.3020587415706433","0.6164590406669926","0.20898259591367022","1","","","","","","","",""
"","html-keyboard-response","445","1519707","0.0-237.0-1.0","null","<p></p>","null","","","","","","","","","","","","","","","","","","",""
"","do_trial","446","1525212","0.0-238.0-0.0","955.5","","","","50","0,0,0","4","coast","176","probe-49","0.3328227179963564","0.6760511725649127","0.08667944344975925","0","","","","","","","",""
"","html-keyboard-response","447","1526218","0.0-238.0-1.0","null","<p></p>","null","","","","","","","","","","","","","","","","","","",""
"","do_trial","448","1531289","0.0-239.0-0.0","524.5","","","","50","0,1,0","4","coast","177","probe-210","0.23587018638074042","0.6556730299845261","0.05131083633598003","1","","","","","","","",""
"","html-keyboard-response","449","1532291","0.0-239.0-1.0","null","<p></p>","null","","","","","","","","","","","","","","","","","","",""
"","do_trial","450","1537459","0.0-240.0-0.0","623","","","","50","0,1,0","4","coast","178","probe-44","0.2648041188426944","0.6847821707893668","0.07988721335217082","1","","","","","","","",""
"","html-keyboard-response","451","1538464","0.0-240.0-1.0","null","<p></p>","null","","","","","","","","","","","","","","","","","","",""
"","do_trial","452","1543860","0.0-241.0-0.0","846.5","","","","50","0,1,0","4","coast","179","probe-19","0.28379536296022223","0.6863078248129562","0.06777270752330126","1","","","","","","","",""
"","html-keyboard-response","453","1544865","0.0-241.0-1.0","null","<p></p>","null","","","","","","","","","","","","","","","","","","",""
"","do_trial","454","1549968","0.0-242.0-0.0","554.9000000953674","","","","50","0,1,0","4","coast","180","probe-229","0.3417982484395475","0.6350099571293436","0.10874088022068441","1","","","","","","","",""
"","html-keyboard-response","455","1550970","0.0-242.0-1.0","null","<p></p>","null","","","","","","","","","","","","","","","","","","",""
"","do_trial","456","1555904","0.0-243.0-0.0","384","","","","50","0,1,0","4","coast","181","probe-125","0.34244810895130123","0.70062861858065","0.11069679842834239","1","","","","","","","",""
"","html-keyboard-response","457","1556909","0.0-243.0-1.0","null","<p></p>","null","","","","","","","","","","","","","","","","","","",""
"","do_trial","458","1561863","0.0-244.0-0.0","405.6000003814697","","","","50","0,0,1","4","coast","182","probe-51","0.2640534298101583","0.6194828964997313","0.219075018632349","0","","","","","","","",""
"","html-keyboard-response","459","1562868","0.0-244.0-1.0","null","<p></p>","null","","","","","","","","","","","","","","","","","","",""
"","do_trial","460","1568248","0.0-245.0-0.0","833","","","","50","0,1,0","4","coast","183","probe-24","0.2617785570655985","0.7417945702051832","0.1693213115969975","1","","","","","","","",""
"","html-keyboard-response","461","1569252","0.0-245.0-1.0","null","<p></p>","null","","","","","","","","","","","","","","","","","","",""
"","do_trial","462","1574188","0.0-246.0-0.0","391.09999990463257","","","","50","0,1,0","4","coast","184","probe-177","0.18886354243524403","0.7676458175184847","0.09605010394089641","1","","","","","","","",""
"","html-keyboard-response","463","1575194","0.0-246.0-1.0","null","<p></p>","null","","","","","","","","","","","","","","","","","","",""
"","do_trial","464","1580159","0.0-247.0-0.0","419.7999997138977","","","","50","0,1,0","4","coast","185","probe-205","0.345791636924127","0.7181105998010596","0.18280644385979058","1","","","","","","","",""
"","html-keyboard-response","465","1581165","0.0-247.0-1.0","null","<p></p>","null","","","","","","","","","","","","","","","","","","",""
"","do_trial","466","1586109","0.0-248.0-0.0","395.6000003814697","","","","50","0,1,0","4","coast","186","probe-79","0.2637091372505694","0.6860735094617519","0.09012574900602469","1","","","","","","","",""
"","html-keyboard-response","467","1587112","0.0-248.0-1.0","null","<p></p>","null","","","","","","","","","","","","","","","","","","",""
"","do_trial","468","1592134","0.0-249.0-0.0","474","","","","50","0,1,0","4","coast","187","probe-189","0.24409067919655744","0.6598282345259677","0.12439394971915832","1","","","","","","","",""
"","html-keyboard-response","469","1593138","0.0-249.0-1.0","null","<p></p>","null","","","","","","","","","","","","","","","","","","",""
"","do_trial","470","1598145","0.0-250.0-0.0","462.5","","","","50","1,1,0","4","coast","188","probe-109","0.3249609277835302","0.7066792581216711","0.10830204382650326","1","","","","","","","",""
"","html-keyboard-response","471","1599149","0.0-250.0-1.0","null","<p></p>","null","","","","","","","","","","","","","","","","","","",""
"","do_trial","472","1604196","0.0-251.0-0.0","499.69999980926514","","","","50","0,0,0","4","coast","189","probe-170","0.42685752336069827","0.6401282380391863","0.1730566185319889","0","","","","","","","",""
"","html-keyboard-response","473","1605200","0.0-251.0-1.0","null","<p></p>","null","","","","","","","","","","","","","","","","","","",""
"","do_bye","474","1606710","0.0-252.0-0.0","null","","","","null","","","","","","","","","","","","","","","","",""
"","do_travel","475","1612717","0.0-253.0-0.0","null","","","","null","","","","","","","","","","","","","","","","",""
"","do_welcome","476","1614226","0.0-253.0-1.0","null","","","","null","","","","","","","","","","","","","","","","",""
"","do_trial","477","1620067","0.0-254.0-0.0","1297.1999998092651","","","","49","1,1,0","5","mountain","190","probe-203","0.49885288363931246","1","0.08074057250658095","1","","","","","","","",""
"","html-keyboard-response","478","1621070","0.0-254.0-1.0","null","<p></p>","null","","","","","","","","","","","","","","","","","","",""
"","do_trial","479","1626016","0.0-255.0-0.0","399","","","","49","1,1,1","5","mountain","191","probe-123","0.5554125208213384","1","0.1397645064873276","1","","","","","","","",""
"","html-keyboard-response","480","1627020","0.0-255.0-1.0","null","<p></p>","null","","","","","","","","","","","","","","","","","","",""
"","do_trial","481","1632009","0.0-256.0-0.0","443.69999980926514","","","","49","0,1,0","5","mountain","192","probe-34","0.5175577485161071","0.8460462398187671","0.28045951513994555","0","","","","","","","",""
"","html-keyboard-response","482","1633014","0.0-256.0-1.0","null","<p></p>","null","","","","","","","","","","","","","","","","","","",""
"","do_trial","483","1637902","0.0-257.0-0.0","338.5","","","","50","0,1,0","5","mountain","193","probe-27","0.4391955741775182","0.9303611795790677","0.3300421005161421","1","","","","","","","",""
"","html-keyboard-response","484","1638907","0.0-257.0-1.0","null","<p></p>","null","","","","","","","","","","","","","","","","","","",""
"","do_trial","485","1643772","0.0-258.0-0.0","319.80000019073486","","","","50","1,1,0","5","mountain","194","probe-12","0.43947951696938803","0.8211900308778579","0.13900299266381003","1","","","","","","","",""
"","html-keyboard-response","486","1644778","0.0-258.0-1.0","null","<p></p>","null","","","","","","","","","","","","","","","","","","",""
"","do_trial","487","1649802","0.0-259.0-0.0","474.2999997138977","","","","50","1,1,0","5","mountain","195","probe-164","0.3953203924164442","0.7693399306365509","0.10975235188166595","1","","","","","","","",""
"","html-keyboard-response","488","1650807","0.0-259.0-1.0","null","<p></p>","null","","","","","","","","","","","","","","","","","","",""
"","do_trial","489","1655767","0.0-260.0-0.0","411.69999980926514","","","","51","1,1,0","5","mountain","196","probe-95","0.4470248350522115","0.6696906794899767","0.30378127826806434","0","","","","","","","",""
"","html-keyboard-response","490","1656773","0.0-260.0-1.0","null","<p></p>","null","","","","","","","","","","","","","","","","","","",""
"","do_trial","491","1661672","0.0-261.0-0.0","354.8999996185303","","","","51","0,0,0","5","mountain","197","probe-138","0.24466273126087426","0.7955264384544325","0.1624609104018769","0","","","","","","","",""
"","html-keyboard-response","492","1662675","0.0-261.0-1.0","null","<p></p>","null","","","","","","","","","","","","","","","","","","",""
"","do_trial","493","1667560","0.0-262.0-0.0","336","","","","51","1,1,0","5","mountain","198","probe-124","0.23196174369596598","0.721738925191599","0.21498415569727114","0","","","","","","","",""
"","html-keyboard-response","494","1668565","0.0-262.0-1.0","null","<p></p>","null","","","","","","","","","","","","","","","","","","",""
"","do_trial","495","1673550","0.0-263.0-0.0","436.19999980926514","","","","50","1,1,0","5","mountain","199","probe-121","0.3075049600345139","0.7566038449957988","0.22028943852385152","1","","","","","","","",""
"","html-keyboard-response","496","1674555","0.0-263.0-1.0","null","<p></p>","null","","","","","","","","","","","","","","","","","","",""
"","do_trial","497","1679646","0.0-264.0-0.0","541.9000000953674","","","","50","0,1,0","5","mountain","200","probe-144","0.22412376739588755","0.9167873764024652","0.25850034738014616","1","","","","","","","",""
"","html-keyboard-response","498","1680651","0.0-264.0-1.0","null","<p></p>","null","","","","","","","","","","","","","","","","","","",""
"","do_trial","499","1686254","0.0-265.0-0.0","1053.7999997138977","","","","50","0,1,0","5","mountain","201","probe-184","0.11165482874380096","0.7628295982341783","0.28016712609026356","1","","","","","","","",""
"","html-keyboard-response","500","1687259","0.0-265.0-1.0","null","<p></p>","null","","","","","","","","","","","","","","","","","","",""
"","do_trial","501","1692601","0.0-266.0-0.0","790.6999998092651","","","","50","1,0,0","5","mountain","202","probe-87","0.20000713470149328","0.46102412700499495","0.12415898213401974","0","","","","","","","",""
"","html-keyboard-response","502","1693611","0.0-266.0-1.0","null","<p></p>","null","","","","","","","","","","","","","","","","","","",""
"","do_trial","503","1698716","0.0-267.0-0.0","555.7999997138977","","","","50","0,0,1","5","mountain","203","probe-117","0.11157157544372868","0.37474903078888316","0.3793568997387488","0","","","","","","","",""
"","html-keyboard-response","504","1699721","0.0-267.0-1.0","null","<p></p>","null","","","","","","","","","","","","","","","","","","",""
"","do_trial","505","1704882","0.0-268.0-0.0","611","","","","50","1,0,0","5","mountain","204","probe-60","0.1766775043474953","0.33948176141915004","0.3996286542633557","0","","","","","","","",""
"","html-keyboard-response","506","1705887","0.0-268.0-1.0","null","<p></p>","null","","","","","","","","","","","","","","","","","","",""
"","do_trial","507","1710762","0.0-269.0-0.0","328.19999980926514","","","","50","0,0,0","5","mountain","205","probe-137","0.11057151114024395","0.45262679624626034","0.4597470025297091","0","","","","","","","",""
"","html-keyboard-response","508","1711766","0.0-269.0-1.0","null","<p></p>","null","","","","","","","","","","","","","","","","","","",""
"","do_trial","509","1716728","0.0-270.0-0.0","416.19999980926514","","","","49","0,0,0","5","mountain","206","probe-78","0.1116579176063285","0.5681125717424697","0.3953470165555828","0","","","","","","","",""
"","html-keyboard-response","510","1717732","0.0-270.0-1.0","null","<p></p>","null","","","","","","","","","","","","","","","","","","",""
"","do_trial","511","1722697","0.0-271.0-0.0","418.40000009536743","","","","49","1,0,1","5","mountain","207","probe-45","0.22911148992482425","0.42848374822342045","0.5247702511594624","1","","","","","","","",""
"","html-keyboard-response","512","1723702","0.0-271.0-1.0","null","<p></p>","null","","","","","","","","","","","","","","","","","","",""
"","do_trial","513","1728907","0.0-272.0-0.0","655.8000001907349","","","","49","0,1,1","5","mountain","208","probe-220","0.08256944492622648","0.4747634053353378","0.4344536510864235","0","","","","","","","",""
"","html-keyboard-response","514","1729912","0.0-272.0-1.0","null","<p></p>","null","","","","","","","","","","","","","","","","","","",""
"","do_trial","515","1734838","0.0-273.0-0.0","377.09999990463257","","","","49","0,1,1","5","mountain","209","probe-32","0.19834413510526416","0.3273559369302087","0.4733403511610439","0","","","","","","","",""
"","html-keyboard-response","516","1735842","0.0-273.0-1.0","null","<p></p>","null","","","","","","","","","","","","","","","","","","",""
"","do_trial","517","1740877","0.0-274.0-0.0","485.80000019073486","","","","50","0,1,0","5","mountain","210","probe-83","0.28172489167996145","0.31589220806294466","0.39265361181898906","1","","","","","","","",""
"","html-keyboard-response","518","1741882","0.0-274.0-1.0","null","<p></p>","null","","","","","","","","","","","","","","","","","","",""
"","do_trial","519","1747309","0.0-275.0-0.0","881.4000000953674","","","","50","1,0,0","5","mountain","211","probe-47","0.20716125355430312","0.3247029637440126","0.5136731703526264","0","","","","","","","",""
"","html-keyboard-response","520","1748314","0.0-275.0-1.0","null","<p></p>","null","","","","","","","","","","","","","","","","","","",""
"","do_trial","521","1753746","0.0-276.0-0.0","883.5","","","","49","0,0,1","5","mountain","212","probe-212","0.110680885336599","0.22098077648134962","0.613559789947647","0","","","","","","","",""
"","html-keyboard-response","522","1754751","0.0-276.0-1.0","null","<p></p>","null","","","","","","","","","","","","","","","","","","",""
"","do_trial","523","1759897","0.0-277.0-0.0","594.8000001907349","","","","50","0,0,1","5","mountain","213","probe-107","0.154323347808427","0.2715115467631475","0.5080134150485235","0","","","","","","","",""
"","html-keyboard-response","524","1760904","0.0-277.0-1.0","null","<p></p>","null","","","","","","","","","","","","","","","","","","",""
