"success","trial_type","trial_index","time_elapsed","internal_node_id","rt","stimulus","key_press","subject_id","participant_id","age","gender","prompt","response","choice_outcomes","context_n","context_img_id","trial_n","probe_img_id","pR_red","pR_white","pR_black","outcome","contextArray_ind","validImageProbes","invalidImageProbes","pRew_Red","pRew_White","pRew_Black","availableForMemProbe","choice_blocks"
"true","fullscreen","0","22906","0.0-0.0","","","","","","","","","","","","","","","","","","","","","","","","","",""
"","pavlovia","1","22911","0.0-1.0","","","","","","","","","","","","","","","","","","","","","","","","","",""
"","instruc1","2","74020","0.0-2.0","null","run_exp/static/audio/clip_1_welcome.m4a","null","118","497","12","Female","<div class='center'><p>Welcome! This is the first part of the experiment. It will last ~30 minutes. In this experiment, you are the head captain of a pirate ship traveling around the world to different islands. You will play a few different games during this experiment. Here is an overview of these games:</p><br><p>Part 1 (today)</p><p>1. Instructions, practice game, and quiz</p><p>2. Pick a pirate game on 6 different islands</p><br><p>Part 2 (1 day later)</p><p>3. Pick a pirate game and memory game</p><p>4. Where did I see this ship? game</p><p>5. Which pirate was the best? game</p><br><p>Part 3 (1 week later)</p><p>6. Memory game</p></div>","","","","","","","","","","","","","","","","","",""
"","html-keyboard-response","3","175636","0.0-3.0","101613.60000038147","<div class='center'><p>Welcome! This is the first part of the experiment. It will last ~30 minutes. In this experiment, you are the head captain of a pirate ship traveling around the world to different islands. You will play a few different games during this experiment. Here is an overview of these games:</p><br><p>Part 1 (today)</p><p>1. Instructions, practice game, and quiz</p><p>2. Pick a pirate game on 6 different islands</p><br><p>Part 2 (1 day later)</p><p>3. Pick a pirate game and memory game</p><p>4. Where did I see this ship? game</p><p>5. Which pirate was the best? game</p><br><p>Part 3 (1 week later)</p><p>6. Memory game</p><p><b>[Press the space bar to continue]</b></p></div>","32","","","","","","","","","","","","","","","","","","","","","","",""
"","instruc2","4","183706","0.0-4.0","null","run_exp/static/audio/clip_2_different_places.m4a","null","","","","","<div class='center'><p>Today, you’ll visit these 6 islands on your journey. You'll be able to see these islands from your ship.</p><p><img src='run_exp/static/images/contexts/all_contexts.png' height='500'></p></div>","","","","","","","","","","","","","","","","","",""
"","html-keyboard-response","5","195602","0.0-5.0","11893.599999904633","<div class='center'><p>Today, you’ll visit these 6 islands on your journey. You'll be able to see these islands from your ship.</p><p><img src='run_exp/static/images/contexts/all_contexts.png' height='500'></p><p><b>[Press the space bar to continue]</b></p></div>","32","","","","","","","","","","","","","","","","","","","","","","",""
"","instruc3","6","208158","0.0-6.0","null","run_exp/static/audio/clip_3_goal_of_game_1.m4a","null","","","","","<div class='center'><p> The pirates on your ship will rob other ships as they leave the island</p> These ships have just sold their things to people on the island, so they will be filled with lots and lots of gold.</p><p><img src='run_exp/static/images/tutorial/ship_center.png' height='400'></p></div>","","","","","","","","","","","","","","","","","",""
"","html-keyboard-response","7","210140","0.0-7.0","1980.0999999046326","<div class='center'><p> The pirates on your ship will rob other ships as they leave the island</p> These ships have just sold their things to people on the island, so they will be filled with lots and lots of gold.</p><p><img src='run_exp/static/images/tutorial/ship_center.png' height='400'></p><p><b>[Press the space bar to continue]</b></p></div>","32","","","","","","","","","","","","","","","","","","","","","","",""
"","instruc4","8","243379","0.0-8.0","null","run_exp/static/audio/clip_4_goal_of_game_2.m4a","null","","","","","<div class='center'><p>As the head captain, you do not have to rob any ships yourself.</p><p>Another pirate will be doing the robbing for you. </p><p>First, you will  choose a pirate to rob the next ship.</p><p><img src='run_exp/static/images/tutorial/pirates_all_crop.png' height='200'></p><p>Then, you'll see if the pirate successfully robbed the ship of their gold. If they were successful, then you'll  get a stack of gold coins like this:</p><p><img src='run_exp/static/images/tutorial/reward.png' height='150'></p><p> If they were <b>not</b> successful, then you'll get no gold coins, and you'll see a big red x like this: </p><p><img src='run_exp/static/images/tutorial/reward_no.png' height='150'></p><p> How much bonus money you make is based on how many gold coins you collect.</p><div>","","","","","","","","","","","","","","","","","",""
"","html-keyboard-response","9","246758","0.0-9.0","3376.7999997138977","<div class='center'><p>As the head captain, you do not have to rob any ships yourself.</p><p>Another pirate will be doing the robbing for you. </p><p>First, you will  choose a pirate to rob the next ship.</p><p><img src='run_exp/static/images/tutorial/pirates_all_crop.png' height='200'></p><p>Then, you'll see if the pirate successfully robbed the ship of their gold. If they were successful, then you'll  get a stack of gold coins like this:</p><p><img src='run_exp/static/images/tutorial/reward.png' height='150'></p><p> If they were <b>not</b> successful, then you'll get no gold coins, and you'll see a big red x like this: </p><p><img src='run_exp/static/images/tutorial/reward_no.png' height='150'></p><p> How much bonus money you make is based on how many gold coins you collect.</p<p><b>[Press the space bar to continue]</b></p></div>","32","","","","","","","","","","","","","","","","","","","","","","",""
"","instruc5","10","254778","0.0-10.0","8018.200000286102","run_exp/static/audio/clip_5_probabilistic.m4a","49","","","","","<div class='center'><p>Even the most skilled pirate can not rob EVERY ship.</p><p> Some ships will have very strong protections against pirate attacks.</p><p> Blue beard, here, is very, very good at robbing ships, but he won't be successful every time he tries to rob one.</p><p> You can press the <b>‘1’</b> key on the keyboard to choose him.</p><p> Try choosing him 10 times to see how often he succeeds at robbing a ship. </p><p><img src='run_exp/static/images/tutorial/blue.png' height='500'></p></div>","","","","","","","","","","","","","","","","","",""
"","html-keyboard-response","11","256296","0.0-11.0","null","<div class='center'><p><img src='run_exp/static/images/tutorial/blue_win.png' height='500'></p></div>","null","","","","","","","","","","","","","","","","","","","","","","",""
"","html-keyboard-response","12","256929","0.0-12.0","631.5","<div class='center'><img src='run_exp/static/images/tutorial/blue.png' height='500'></p></div>","49","","","","","","","","","","","","","","","","","","","","","","",""
"","html-keyboard-response","13","258451","0.0-13.0","null","<div class='center'><p><img src='run_exp/static/images/tutorial/blue_win.png' height='500'></p></div>","null","","","","","","","","","","","","","","","","","","","","","","",""
"","html-keyboard-response","14","258792","0.0-14.0","340.59999990463257","<div class='center'><img src='run_exp/static/images/tutorial/blue.png' height='500'></p></div>","49","","","","","","","","","","","","","","","","","","","","","","",""
"","html-keyboard-response","15","260296","0.0-15.0","null","<div class='center'><p><img src='run_exp/static/images/tutorial/blue_win.png' height='500'></p></div>","null","","","","","","","","","","","","","","","","","","","","","","",""
"","html-keyboard-response","16","260451","0.0-16.0","154.40000009536743","<div class='center'><img src='run_exp/static/images/tutorial/blue.png' height='500'></p></div>","49","","","","","","","","","","","","","","","","","","","","","","",""
"","html-keyboard-response","17","261954","0.0-17.0","null","<div class='center'><p><img src='run_exp/static/images/tutorial/blue_no_win.png' height='500'></p></div>","null","","","","","","","","","","","","","","","","","","","","","","",""
"","html-keyboard-response","18","262405","0.0-18.0","450.2999997138977","<div class='center'><img src='run_exp/static/images/tutorial/blue.png' height='500'></p></div>","49","","","","","","","","","","","","","","","","","","","","","","",""
"","html-keyboard-response","19","263917","0.0-19.0","null","<div class='center'><p><img src='run_exp/static/images/tutorial/blue_win.png' height='500'></p></div>","null","","","","","","","","","","","","","","","","","","","","","","",""
"","html-keyboard-response","20","264139","0.0-20.0","221.59999990463257","<div class='center'><img src='run_exp/static/images/tutorial/blue.png' height='500'></p></div>","49","","","","","","","","","","","","","","","","","","","","","","",""
"","html-keyboard-response","21","265661","0.0-21.0","null","<div class='center'><p><img src='run_exp/static/images/tutorial/blue_win.png' height='500'></p></div>","null","","","","","","","","","","","","","","","","","","","","","","",""
"","html-keyboard-response","22","265960","0.0-22.0","298.5","<div class='center'><img src='run_exp/static/images/tutorial/blue.png' height='500'></p></div>","49","","","","","","","","","","","","","","","","","","","","","","",""
"","html-keyboard-response","23","267479","0.0-23.0","null","<div class='center'><p><img src='run_exp/static/images/tutorial/blue_win.png' height='500'></p></div>","null","","","","","","","","","","","","","","","","","","","","","","",""
"","html-keyboard-response","24","267727","0.0-24.0","246.40000009536743","<div class='center'><img src='run_exp/static/images/tutorial/blue.png' height='500'></p></div>","49","","","","","","","","","","","","","","","","","","","","","","",""
"","html-keyboard-response","25","269240","0.0-25.0","null","<div class='center'><p><img src='run_exp/static/images/tutorial/blue_no_win.png' height='500'></p></div>","null","","","","","","","","","","","","","","","","","","","","","","",""
"","html-keyboard-response","26","269475","0.0-26.0","233.7000002861023","<div class='center'><img src='run_exp/static/images/tutorial/blue.png' height='500'></p></div>","49","","","","","","","","","","","","","","","","","","","","","","",""
"","html-keyboard-response","27","270977","0.0-27.0","null","<div class='center'><p><img src='run_exp/static/images/tutorial/blue_win.png' height='500'></p></div>","null","","","","","","","","","","","","","","","","","","","","","","",""
"","html-keyboard-response","28","271300","0.0-28.0","321.2000002861023","<div class='center'><img src='run_exp/static/images/tutorial/blue.png' height='500'></p></div>","49","","","","","","","","","","","","","","","","","","","","","","",""
"","html-keyboard-response","29","272809","0.0-29.0","null","<div class='center'><p><img src='run_exp/static/images/tutorial/blue_win.png' height='500'></p></div>","null","","","","","","","","","","","","","","","","","","","","","","",""
"","instruc6","30","279451","0.0-30.0","null","run_exp/static/audio/clip_6_blue_beard_outcome.m4a","null","","","","","<div class='center'><p> See, he succeeded in robbing the ships most of the time but not every time. </p></div>","","","","","","","","","","","","","","","","","",""
"","html-keyboard-response","31","281281","0.0-31.0","1828.8999996185303","<div class='center'><p> See, he succeeded in robbing the ships most of the time but not every time. </p><p><b>[Press the space bar to continue]</b></p></div>","32","","","","","","","","","","","","","","","","","","","","","","",""
"","audio-keyboard-response","32","283938","0.0-32.0","2655.5999999046326","run_exp/static/audio/clip_7_pick_pirate.m4a","51","","","","","","","","","","","","","","","","","","","","","","",""
"","audio-keyboard-response","33","285240","0.0-33.0-0.0","1300.5","run_exp/static/audio/clip_8_chosen_pirate_win.m4a","32","","","","","","","","","","","","","","","","","","","","","","",""
"","audio-keyboard-response","34","285843","0.0-33.0-1.0","601.4000000953674","run_exp/static/audio/clip_9_pick_a_pirate_again.m4a","50","","","","","","","","","","","","","","","","","","","","","","",""
"","audio-keyboard-response","35","286706","0.0-34.0-0.0","860.7999997138977","run_exp/static/audio/clip_10_chosen_pirate_loss.m4a","32","","","","","","","","","","","","","","","","","","","","","","",""
"","instruc9","36","293851","0.0-35.0-0.0","null","run_exp/static/audio/clip_11_time_out.m4a","null","","","","","<div class='center'><p>If you don’t make your choice fast enough, you’ll have to wait a few seconds before you can make another one. </p><p><img src='run_exp/static/images/miscellaneous/hurry_up.png' height='500'></p></div>","","","","","","","","","","","","","","","","","",""
"","html-keyboard-response","37","294504","0.0-35.0-1.0","652.7999997138977","<div class='center'><p>If you don’t make your choice fast enough, you’ll have to wait a few seconds before you can make another one. </p><p><img src='run_exp/static/images/miscellaneous/hurry_up.png' height='500'></p><p><b>[Press the space bar to continue]</b></p></div>","32","","","","","","","","","","","","","","","","","","","","","","",""
"","instruc10","38","343130","0.0-35.0-2.0","null","run_exp/static/audio/clip_12_probe.m4a","null","","","","","<div class='center'><p>Once you've choose a pirate, you’ll be shown the ship they are robbing.</p><p>You will never rob the same ship twice. After all, ships that have already been robbed won’t have gold on them. </p><p>Ships can be told apart from one another by the image on them. See, this one has a travel mug on it. </p><p> You’ll have to remember which island you saw each ship on.You will win more bonus money if you remember correctly! To help you remember, you can imagine a story. For example, here, you could imagine a mug full of water in the desert. Or, as another example, if on the forest island, your pirate robbed a ship with an apple on it, you could imagine an apple falling from a tree in the forest. </p><p><img src='run_exp/static/images/tutorial/example_probe.png' height='500'></p></div>","","","","","","","","","","","","","","","","","",""
"","html-keyboard-response","39","343880","0.0-35.0-3.0","747.8000001907349","<div class='center'><p>Once you've choose a pirate, you’ll be shown the ship they are robbing.</p><p>You will never rob the same ship twice. After all, ships that have already been robbed won’t have gold on them. </p><p>Ships can be told apart from one another by the image on them. See, this one has a travel mug on it. </p><p> You’ll have to remember which island you saw each ship on.You will win more bonus money if you remember correctly! To help you remember, you can imagine a story. For example, here, you could imagine a mug full of water in the desert. Or, as another example, if on the forest island, your pirate robbed a ship with an apple on it, you could imagine an apple falling from a tree in the forest. </p><p><img src='run_exp/static/images/tutorial/example_probe.png' height='500'></p><p><b>[Press the space bar to continue]</b></p></div>","32","","","","","","","","","","","","","","","","","","","","","","",""
"","instruc11","40","364763","0.0-35.0-4.0","null","run_exp/static/audio/clip_13_changepoint.m4a","null","","","","","<div class='center'><p>How successful a pirate is at robbing ships will depend on the island you’re on.</p><p> A pirate may have visited this island many times before and gained a lot of practice robbing ships there.</p><p>So, they’re more likely to be successful than a pirate who has never visited the island before.</p></div>","","","","","","","","","","","","","","","","","",""
"","html-keyboard-response","41","365703","0.0-35.0-5.0","938.3000001907349","<div class='center'><p>How successful a pirate is at robbing ships will depend on the island you’re on.</p><p> A pirate may have visited this island many times before and gained a lot of practice robbing ships there.</p><p>So, they’re more likely to be successful than a pirate who has never visited the island before.</p><p><b>[Press the space bar to continue]</b></p></div>","32","","","","","","","","","","","","","","","","","","","","","","",""
"","instruc12","42","393712","0.0-35.0-6.0","null","run_exp/static/audio/clip_14_drift.m4a","null","","","","","<div class='center'><p>How successful a pirate is at robbing ships can also change over the time spent on the island. </p><p> Ships may hear from islanders about the pirates coming and will improve their protections against the attack. This may make it harder to rob them.</p><p> Ships may also become lazy and weaken the strength of their protections. This may make it easier to rob them.</p><br><p>Things are always changing on the high seas! So, try your best to pay attention!</p><p><img src='run_exp/static/images/tutorial/contingency.png' height='500'></p></div>","","","","","","","","","","","","","","","","","",""
"","html-keyboard-response","43","395676","0.0-35.0-7.0","1961.5999999046326","<div class='center'><p>How successful a pirate is at robbing ships can also change over the time spent on the island. </p><p> Ships may hear from islanders about the pirates coming and will improve their protections against the attack. This may make it harder to rob them.</p><p> Ships may also become lazy and weaken the strength of their protections. This may make it easier to rob them.</p><br><p>Things are always changing on the high seas! So, try your best to pay attention!</p><p><img src='run_exp/static/images/tutorial/contingency.png' height='500'></p><p><b>[Press the space bar to continue]</b></p></div>","32","","","","","","","","","","","","","","","","","","","","","","",""
"","instruc13","44","440880","0.0-35.0-8.0","null","run_exp/static/audio/clip_15_summary.m4a","null","","","","","<div class='center'><p>Let's go over the instructions quickly again. You have two important things to do: </p><b><p> 1. Pick the pirate who is the best at robbing ships on the current island. This way you'll collect more gold coins!</p></b><b><p> 2. Remember on which island a ship was robbed.</p> </b><p>The amount of bonus money you can win depends on both.</p><p><br><p>Let’s try a practice game. The game will start by showing you the pirates. First, pick a pirate using the <b> 1, 2, 3 </b> keys on your keyboard. When you are shown a ship, try to remember which island you’re on by making up a story.</p><p>This is just a practice game, so you’re not playing for money. </p><p> Good luck! This game will be very difficult but try your best!</p></div>","","","","","","","","","","","","","","","","","",""
"","html-keyboard-response","45","452133","0.0-35.0-9.0","11252","<div class='center'><p>Let's go over the instructions quickly again. You have two important things to do: </p><b><p> 1. Pick the pirate who is the best at robbing ships on the current island. This way you'll collect more gold coins!</p></b><b><p> 2. Remember on which island a ship was robbed.</p> </b><p>The amount of bonus money you can win depends on both.</p><p><br><p>Let’s try a practice game. The game will start by showing you the pirates. First, pick a pirate using the <b> 1, 2, 3 </b> keys on your keyboard. When you are shown a ship, try to remember which island you’re on by making up a story.</p><p>This is just a practice game, so you’re not playing for money. </p><p> Good luck! This game will be very difficult but try your best!</p><p><b>[Press the space bar to continue]</b></p></div>","32","","","","","","","","","","","","","","","","","","","","","","",""
"","do_welcome","46","456142","0.0-35.0-10.0","null","","","","","","","","null","","","","","","","","","","","","","","","","",""
"","do_trial","47","462179","0.0-35.0-11.0","null","","","","","","","","null","1,0,0","","","","","","","","","","","","","","","",""
"","html-keyboard-response","48","463188","0.0-36.0-0.0","null","<p></p>","null","","","","","","","","","","","","","","","","","","","","","","",""
"","do_trial","49","469208","0.0-36.0-1.0","1502","","","","","","","","50","1,0,0","","","","","","","","","","","","","","","",""
"","html-keyboard-response","50","470221","0.0-37.0-0.0","null","<p></p>","null","","","","","","","","","","","","","","","","","","","","","","",""
"","do_trial","51","475012","0.0-37.0-1.0","277.5","","","","","","","","49","1,1,0","","","","","","","","","","","","","","","",""
"","html-keyboard-response","52","476024","0.0-38.0-0.0","null","<p></p>","null","","","","","","","","","","","","","","","","","","","","","","",""
"","do_trial","53","482042","0.0-38.0-1.0","null","","","","","","","","null","1,0,1","","","","","","","","","","","","","","","",""
"","html-keyboard-response","54","483053","0.0-39.0-0.0","null","<p></p>","null","","","","","","","","","","","","","","","","","","","","","","",""
"","do_trial","55","489081","0.0-39.0-1.0","null","","","","","","","","null","1,0,1","","","","","","","","","","","","","","","",""
"","html-keyboard-response","56","490084","0.0-40.0-0.0","null","<p></p>","null","","","","","","","","","","","","","","","","","","","","","","",""
"","do_trial","57","495940","0.0-40.0-1.0","1350.7999997138977","","","","","","","","50","1,0,1","","","","","","","","","","","","","","","",""
"","html-keyboard-response","58","496945","0.0-41.0-0.0","null","<p></p>","null","","","","","","","","","","","","","","","","","","","","","","",""
"","do_trial","59","503425","0.0-41.0-1.0","1958.5","","","","","","","","49","0,1,0","","","","","","","","","","","","","","","",""
"","html-keyboard-response","60","504428","0.0-42.0-0.0","null","<p></p>","null","","","","","","","","","","","","","","","","","","","","","","",""
"","do_trial","61","510460","0.0-42.0-1.0","null","","","","","","","","null","1,0,0","","","","","","","","","","","","","","","",""
"","html-keyboard-response","62","511466","0.0-43.0-0.0","null","<p></p>","null","","","","","","","","","","","","","","","","","","","","","","",""
"","do_trial","63","517371","0.0-43.0-1.0","1382.7000002861023","","","","","","","","50","1,0,0","","","","","","","","","","","","","","","",""
"","do_bye","64","518890","0.0-44.0-0.0","null","","","","","","","","null","","","","","","","","","","","","","","","","",""
"","do_travel","65","527900","0.0-44.0-1.0","null","","","","","","","","null","","","","","","","","","","","","","","","","",""
"","do_welcome","66","531905","0.0-44.0-2.0","null","","","","","","","","null","","","","","","","","","","","","","","","","",""
"","do_trial","67","536782","0.0-44.0-3.0","367.80000019073486","","","","","","","","50","1,0,0","","","","","","","","","","","","","","","",""
"","html-keyboard-response","68","537800","0.0-45.0-0.0","null","<p></p>","null","","","","","","","","","","","","","","","","","","","","","","",""
"","do_trial","69","543825","0.0-45.0-1.0","null","","","","","","","","null","1,0,1","","","","","","","","","","","","","","","",""
"","html-keyboard-response","70","544826","0.0-46.0-0.0","null","<p></p>","null","","","","","","","","","","","","","","","","","","","","","","",""
"","do_trial","71","550156","0.0-46.0-1.0","813","","","","","","","","51","1,0,1","","","","","","","","","","","","","","","",""
"","html-keyboard-response","72","551167","0.0-47.0-0.0","null","<p></p>","null","","","","","","","","","","","","","","","","","","","","","","",""
"","do_trial","73","557172","0.0-47.0-1.0","null","","","","","","","","null","1,1,0","","","","","","","","","","","","","","","",""
"","html-keyboard-response","74","558187","0.0-48.0-0.0","null","<p></p>","null","","","","","","","","","","","","","","","","","","","","","","",""
"","do_trial","75","563583","0.0-48.0-1.0","876.9000000953674","","","","","","","","51","1,1,0","","","","","","","","","","","","","","","",""
"","html-keyboard-response","76","564595","0.0-49.0-0.0","null","<p></p>","null","","","","","","","","","","","","","","","","","","","","","","",""
"","do_trial","77","570617","0.0-49.0-1.0","null","","","","","","","","null","0,0,1","","","","","","","","","","","","","","","",""
"","html-keyboard-response","78","571629","0.0-50.0-0.0","null","<p></p>","null","","","","","","","","","","","","","","","","","","","","","","",""
"","do_trial","79","577498","0.0-50.0-1.0","1362.5","","","","","","","","50","0,0,1","","","","","","","","","","","","","","","",""
"","html-keyboard-response","80","578503","0.0-51.0-0.0","null","<p></p>","null","","","","","","","","","","","","","","","","","","","","","","",""
"","do_trial","81","584530","0.0-51.0-1.0","null","","","","","","","","null","1,0,1","","","","","","","","","","","","","","","",""
"","html-keyboard-response","82","585534","0.0-52.0-0.0","null","<p></p>","null","","","","","","","","","","","","","","","","","","","","","","",""
"","do_trial","83","592332","0.0-52.0-1.0","2291.300000190735","","","","","","","","50","1,0,1","","","","","","","","","","","","","","","",""
"","html-keyboard-response","84","603101","0.0-53.0-0.0","10776.800000190735","<div class='center'><p><img src='run_exp/static/images/tutorial/prac_best_pirate.png'  height='500'></p></div>","50","","","","","","","","","","","","","","","","","","","","","","",""
"","html-keyboard-response","85","605839","0.0-54.0-0.0","2737","<div class='center'><p>That's incorrect! Red beard was the best.</p><p><b>[Press the space bar to continue]</b></p></div>","32","","","","","","","","","","","","","","","","","","","","","","",""
"","html-keyboard-response","86","611926","0.0-54.0-1.0","6086.400000095367","<div class='center'><p><img src='run_exp/static/images/tutorial/prac_source.png'  height='500'></p></div>","50","","","","","","","","","","","","","","","","","","","","","","",""
"","html-keyboard-response","87","613323","0.0-55.0-0.0","1395.1999998092651","<div class='center'><p>That's correct! You saw this ship on the cavern island.</p><p><b>[Press the space bar to continue]</b></p></div>","32","","","","","","","","","","","","","","","","","","","","","","",""
"","quiz_beginning","88","626826","0.0-55.0-1.0","null","run_exp/static/audio/clip_16_quiz_intro.m4a","null","","","","","<div class='center'><p>Good job on the practice game! Now, you will be asked some true or false questions to make sure you really understand the rules of the game.</p><p> Press <b>'1'</b> on the keyboard for true and press <b>'2'</b> for false.</p></div>","","","","","","","","","","","","","","","","","",""
"","audio-keyboard-response","89","701776","0.0-55.0-2.0","74939.39999961853","run_exp/static/audio/clip_17_q1.m4a","49","","","","","","","","","","","","","","","","","","","","","","",""
"","q1_err","90","709415","0.0-56.0-0.0","null","run_exp/static/audio/clip_19_wrong_q1.m4a","null","","","","","<div class='center'><p>That’s incorrect! You win bonus money by collecting as many gold coins as possible!</p></div>","","","","","","","","","","","","","","","","","",""
"","html-keyboard-response","91","711723","0.0-56.0-1.0","2307","<div class='center'><p>That’s incorrect! You win bonus money by collecting as many gold coins as possible!</p><p><b>[Press the space bar to continue]</b></p></div>","32","","","","","","","","","","","","","","","","","","","","","","",""
"","audio-keyboard-response","92","715770","0.0-56.0-2.0","4045.5","run_exp/static/audio/clip_20_q2.m4a","50","","","","","","","","","","","","","","","","","","","","","","",""
"","correct","93","718759","0.0-57.0-0.0","null","run_exp/static/audio/clip_18_correct.m4a","null","","","","","<div class='center'><p>That's correct!</p></div>","","","","","","","","","","","","","","","","","",""
"","html-keyboard-response","94","720776","0.0-57.0-1.0","2015.6999998092651","<div class='center'><p>That's correct!</p><p><b>[Press the space bar to continue]</b></p></div>","32","","","","","","","","","","","","","","","","","","","","","","",""
"","audio-keyboard-response","95","723143","0.0-57.0-2.0","2365.800000190735","run_exp/static/audio/clip_22_q3.m4a","50","","","","","","","","","","","","","","","","","","","","","","",""
"","correct","96","726096","0.0-58.0-0.0","null","run_exp/static/audio/clip_18_correct.m4a","null","","","","","<div class='center'><p>That's correct!</p></div>","","","","","","","","","","","","","","","","","",""
"","html-keyboard-response","97","726718","0.0-58.0-1.0","621.7999997138977","<div class='center'><p>That's correct!</p><p><b>[Press the space bar to continue]</b></p></div>","32","","","","","","","","","","","","","","","","","","","","","","",""
"","audio-keyboard-response","98","729149","0.0-58.0-2.0","2429.300000190735","run_exp/static/audio/clip_24_q4.m4a","49","","","","","","","","","","","","","","","","","","","","","","",""
"","correct","99","732112","0.0-59.0-0.0","null","run_exp/static/audio/clip_18_correct.m4a","null","","","","","<div class='center'><p>That's correct!</p></div>","","","","","","","","","","","","","","","","","",""
"","html-keyboard-response","100","732845","0.0-59.0-1.0","732.5","<div class='center'><p>That's correct!</p><p><b>[Press the space bar to continue]</b></p></div>","32","","","","","","","","","","","","","","","","","","","","","","",""
"","q_all_err","101","740389","0.0-60.0-0.0","null","run_exp/static/audio/clip_26_quiz_redo.m4a","null","","","","","<div class='center'><p>Oops, you missed some questions. Now that you’ve heard the correct answers. Try the quiz again! </p></div>","","","","","","","","","","","","","","","","","",""
"","html-keyboard-response","102","740882","0.0-60.0-1.0","491.69999980926514","<div class='center'><p>Oops, you missed some questions. Now that you’ve heard the correct answers. Try the quiz again! </p><p><b>[Press the space bar to continue]</b></p></div>","32","","","","","","","","","","","","","","","","","","","","","","",""
"","audio-keyboard-response","103","742298","0.0-60.0-2.0","1415.0999999046326","run_exp/static/audio/clip_17_q1.m4a","49","","","","","","","","","","","","","","","","","","","","","","",""
"","q1_err","104","749904","0.0-61.0-0.0","null","run_exp/static/audio/clip_19_wrong_q1.m4a","null","","","","","<div class='center'><p>That’s incorrect! You win bonus money by collecting as many gold coins as possible!</p></div>","","","","","","","","","","","","","","","","","",""
"","html-keyboard-response","105","750477","0.0-61.0-1.0","572.5999999046326","<div class='center'><p>That’s incorrect! You win bonus money by collecting as many gold coins as possible!</p><p><b>[Press the space bar to continue]</b></p></div>","32","","","","","","","","","","","","","","","","","","","","","","",""
"","audio-keyboard-response","106","751468","0.0-61.0-2.0","990","run_exp/static/audio/clip_20_q2.m4a","50","","","","","","","","","","","","","","","","","","","","","","",""
"","correct","107","754448","0.0-62.0-0.0","null","run_exp/static/audio/clip_18_correct.m4a","null","","","","","<div class='center'><p>That's correct!</p></div>","","","","","","","","","","","","","","","","","",""
"","html-keyboard-response","108","754976","0.0-62.0-1.0","527","<div class='center'><p>That's correct!</p><p><b>[Press the space bar to continue]</b></p></div>","32","","","","","","","","","","","","","","","","","","","","","","",""
"","audio-keyboard-response","109","757405","0.0-62.0-2.0","2427.8999996185303","run_exp/static/audio/clip_22_q3.m4a","50","","","","","","","","","","","","","","","","","","","","","","",""
"","correct","110","760357","0.0-63.0-0.0","null","run_exp/static/audio/clip_18_correct.m4a","null","","","","","<div class='center'><p>That's correct!</p></div>","","","","","","","","","","","","","","","","","",""
"","html-keyboard-response","111","762981","0.0-63.0-1.0","2622.6000003814697","<div class='center'><p>That's correct!</p><p><b>[Press the space bar to continue]</b></p></div>","32","","","","","","","","","","","","","","","","","","","","","","",""
"","audio-keyboard-response","112","764663","0.0-63.0-2.0","1681","run_exp/static/audio/clip_24_q4.m4a","49","","","","","","","","","","","","","","","","","","","","","","",""
"","correct","113","767610","0.0-64.0-0.0","null","run_exp/static/audio/clip_18_correct.m4a","null","","","","","<div class='center'><p>That's correct!</p></div>","","","","","","","","","","","","","","","","","",""
"","html-keyboard-response","114","768032","0.0-64.0-1.0","420.59999990463257","<div class='center'><p>That's correct!</p><p><b>[Press the space bar to continue]</b></p></div>","32","","","","","","","","","","","","","","","","","","","","","","",""
"","q_all_err","115","775568","0.0-65.0-0.0","null","run_exp/static/audio/clip_26_quiz_redo.m4a","null","","","","","<div class='center'><p>Oops, you missed some questions. Now that you’ve heard the correct answers. Try the quiz again! </p></div>","","","","","","","","","","","","","","","","","",""
"","html-keyboard-response","116","776129","0.0-65.0-1.0","560.4000000953674","<div class='center'><p>Oops, you missed some questions. Now that you’ve heard the correct answers. Try the quiz again! </p><p><b>[Press the space bar to continue]</b></p></div>","32","","","","","","","","","","","","","","","","","","","","","","",""
"","audio-keyboard-response","117","776762","0.0-65.0-2.0","631.4000000953674","run_exp/static/audio/clip_17_q1.m4a","50","","","","","","","","","","","","","","","","","","","","","","",""
"","correct","118","779728","0.0-66.0-0.0","null","run_exp/static/audio/clip_18_correct.m4a","null","","","","","<div class='center'><p>That's correct!</p></div>","","","","","","","","","","","","","","","","","",""
"","html-keyboard-response","119","780100","0.0-66.0-1.0","370.69999980926514","<div class='center'><p>That's correct!</p><p><b>[Press the space bar to continue]</b></p></div>","32","","","","","","","","","","","","","","","","","","","","","","",""
"","audio-keyboard-response","120","780673","0.0-66.0-2.0","572.3999996185303","run_exp/static/audio/clip_20_q2.m4a","50","","","","","","","","","","","","","","","","","","","","","","",""
"","correct","121","783632","0.0-67.0-0.0","null","run_exp/static/audio/clip_18_correct.m4a","null","","","","","<div class='center'><p>That's correct!</p></div>","","","","","","","","","","","","","","","","","",""
"","html-keyboard-response","122","784066","0.0-67.0-1.0","433.19999980926514","<div class='center'><p>That's correct!</p><p><b>[Press the space bar to continue]</b></p></div>","32","","","","","","","","","","","","","","","","","","","","","","",""
"","audio-keyboard-response","123","785010","0.0-67.0-2.0","943.5","run_exp/static/audio/clip_22_q3.m4a","50","","","","","","","","","","","","","","","","","","","","","","",""
"","correct","124","787963","0.0-68.0-0.0","null","run_exp/static/audio/clip_18_correct.m4a","null","","","","","<div class='center'><p>That's correct!</p></div>","","","","","","","","","","","","","","","","","",""
"","html-keyboard-response","125","788520","0.0-68.0-1.0","556.0999999046326","<div class='center'><p>That's correct!</p><p><b>[Press the space bar to continue]</b></p></div>","32","","","","","","","","","","","","","","","","","","","","","","",""
"","audio-keyboard-response","126","788937","0.0-68.0-2.0","415.7999997138977","run_exp/static/audio/clip_24_q4.m4a","49","","","","","","","","","","","","","","","","","","","","","","",""
"","correct","127","791931","0.0-69.0-0.0","null","run_exp/static/audio/clip_18_correct.m4a","null","","","","","<div class='center'><p>That's correct!</p></div>","","","","","","","","","","","","","","","","","",""
"","html-keyboard-response","128","792535","0.0-69.0-1.0","603","<div class='center'><p>That's correct!</p><p><b>[Press the space bar to continue]</b></p></div>","32","","","","","","","","","","","","","","","","","","","","","","",""
"","q_all_corr","129","801488","0.0-70.0-0.0","null","run_exp/static/audio/clip_27_quiz_all_correct.m4a","null","","","","","<div class='center'><p>Good job! You’re now ready to move on to the real game! Remember this game will be difficult but don't get discouraged and try your best!</p></div>","","","","","","","","","","","","","","","","","",""
"","html-keyboard-response","130","802496","0.0-70.0-1.0","1006.0999999046326","<div class='center'><p>Good job! You’re now ready to move on to the real game! Remember this game will be difficult but don't get discouraged and try your best!</p><p><b>[Press the space bar to continue]</b></p></div>","32","","","","","","","","","","","","","","","","","","","","","","",""
"","do_welcome","131","806520","0.0-71.0-0.0","null","","","","","","","","null","","","","","","","","","","","","","","","","",""
"","do_trial","132","813817","0.0-72.0-0.0","2754.5","","","","","","","","49","1,0,0","0","mountain","0","probe-157","0.6","0.3","0.1","1","","","","","","","",""
"","html-keyboard-response","133","814819","0.0-72.0-1.0","null","<p></p>","null","","","","","","","","","","","","","","","","","","","","","","",""
"","do_trial","134","820887","0.0-73.0-0.0","null","","","","","","","","null","0,0,0","0","mountain","1","probe-177","0.4565643757725599","0.35168722151937354","0.11313090953135392","","","","","","","","",""
"","html-keyboard-response","135","821892","0.0-73.0-1.0","null","<p></p>","null","","","","","","","","","","","","","","","","","","","","","","",""
"","do_trial","136","829400","0.0-74.0-0.0","2965.9000000953674","","","","","","","","50","0,0,0","0","mountain","2","probe-95","0.5044588214767867","0.2905162585488174","0.10519555019323759","0","","","","","","","",""
"","html-keyboard-response","137","830414","0.0-74.0-1.0","null","<p></p>","null","","","","","","","","","","","","","","","","","","","","","","",""
"","do_trial","138","836876","0.0-75.0-0.0","1918.4000000953674","","","","","","","","49","0,0,0","0","mountain","3","probe-221","0.7029738670331201","0.14538671217242488","0.19126159928647357","0","","","","","","","",""
"","html-keyboard-response","139","837885","0.0-75.0-1.0","null","<p></p>","null","","","","","","","","","","","","","","","","","","","","","","",""
"","do_trial","140","843936","0.0-76.0-0.0","null","","","","","","","","null","1,0,0","0","mountain","4","probe-166","0.7309355782658189","0.2938809235786279","0.13910514830398796","","","","","","","","",""
"","html-keyboard-response","141","844938","0.0-76.0-1.0","null","<p></p>","null","","","","","","","","","","","","","","","","","","","","","","",""
"","do_trial","142","850100","0.0-77.0-0.0","611.5","","","","","","","","51","1,1,0","0","mountain","5","probe-214","0.752372684949494","0.47535567214844937","0.08783710259153542","0","","","","","","","",""
"","html-keyboard-response","143","851105","0.0-77.0-1.0","null","<p></p>","null","","","","","","","","","","","","","","","","","","","","","","",""
"","do_trial","144","857161","0.0-78.0-0.0","null","","","","","","","","null","0,1,0","0","mountain","6","probe-27","0.7316124777025133","0.3930716904739706","0.09183599118381569","","","","","","","","",""
"","html-keyboard-response","145","858169","0.0-78.0-1.0","null","<p></p>","null","","","","","","","","","","","","","","","","","","","","","","",""
"","do_trial","146","863214","0.0-79.0-0.0","488.69999980926514","","","","","","","","50","1,0,0","0","mountain","7","probe-211","0.7148650567955254","0.44367721657659287","0.17094828063681938","0","","","","","","","",""
"","html-keyboard-response","147","864223","0.0-79.0-1.0","null","<p></p>","null","","","","","","","","","","","","","","","","","","","","","","",""
"","do_trial","148","868798","0.0-80.0-0.0","20.09999990463257","","","","","","","","50","1,0,0","0","mountain","8","probe-79","0.7139353342275261","0.29838988846425984","0.10376006462004854","0","","","","","","","",""
"","html-keyboard-response","149","869812","0.0-80.0-1.0","null","<p></p>","null","","","","","","","","","","","","","","","","","","","","","","",""
"","do_trial","150","875048","0.0-81.0-0.0","687","","","","","","","","51","1,0,0","0","mountain","9","probe-108","0.7805271815616365","0.30495421045916643","0.17729783126378645","0","","","","","","","",""
"","html-keyboard-response","151","876049","0.0-81.0-1.0","null","<p></p>","null","","","","","","","","","","","","","","","","","","","","","","",""
"","do_trial","152","882102","0.0-82.0-0.0","null","","","","","","","","null","1,1,0","0","mountain","10","probe-145","0.7166307681365015","0.32895485264684526","0.1183506676268889","","","","","","","","",""
"","html-keyboard-response","153","883112","0.0-82.0-1.0","null","<p></p>","null","","","","","","","","","","","","","","","","","","","","","","",""
"","do_trial","154","889187","0.0-83.0-0.0","null","","","","","","","","null","1,0,0","0","mountain","11","probe-117","0.6281625173207795","0.23490878570976292","0.17255604752662926","","","","","","","","",""
"","html-keyboard-response","155","890195","0.0-83.0-1.0","null","<p></p>","null","","","","","","","","","","","","","","","","","","","","","","",""
"","do_trial","156","897674","0.0-84.0-0.0","2932.5","","","","","","","","49","1,0,0","0","mountain","12","probe-65","0.6105464379351502","0.24051569115573318","0.06980931564171072","1","","","","","","","",""
"","html-keyboard-response","157","898676","0.0-84.0-1.0","null","<p></p>","null","","","","","","","","","","","","","","","","","","","","","","",""
"","do_trial","158","904740","0.0-85.0-0.0","null","","","","","","","","null","1,0,0","0","mountain","13","probe-167","0.5926651737145922","0.18980738230576769","0.12458436968701196","","","","","","","","",""
"","html-keyboard-response","159","905748","0.0-85.0-1.0","null","<p></p>","null","","","","","","","","","","","","","","","","","","","","","","",""
"","do_trial","160","911454","0.0-86.0-0.0","1147.1999998092651","","","","","","","","50","1,0,0","0","mountain","14","probe-26","0.6828476282617898","0.2334434174486628","0.18017567225088976","0","","","","","","","",""
"","html-keyboard-response","161","912456","0.0-86.0-1.0","null","<p></p>","null","","","","","","","","","","","","","","","","","","","","","","",""
"","do_trial","162","917118","0.0-87.0-0.0","107.19999980926514","","","","","","","","51","1,0,0","0","mountain","15","probe-60","0.5742881038416809","0.3082911728124111","0.164791277300138","0","","","","","","","",""
"","html-keyboard-response","163","918130","0.0-87.0-1.0","null","<p></p>","null","","","","","","","","","","","","","","","","","","","","","","",""
"","do_trial","164","924031","0.0-88.0-0.0","1339.3000001907349","","","","","","","","49","0,0,0","0","mountain","16","probe-72","0.5630378240863013","0.2157422898600626","0.2213123800275828","0","","","","","","","",""
"","html-keyboard-response","165","925033","0.0-88.0-1.0","null","<p></p>","null","","","","","","","","","","","","","","","","","","","","","","",""
"","do_trial","166","931091","0.0-89.0-0.0","null","","","","","","","","null","1,1,0","0","mountain","17","probe-06","0.4526082198483852","0.26760493439269345","0.1207754136772073","","","","","","","","",""
"","html-keyboard-response","167","932113","0.0-89.0-1.0","null","<p></p>","null","","","","","","","","","","","","","","","","","","","","","","",""
"","do_trial","168","938156","0.0-90.0-0.0","null","","","","","","","","null","0,1,0","0","mountain","18","probe-158","0.45939934207139405","0.20030402630667118","0.11929714384590559","","","","","","","","",""
"","html-keyboard-response","169","939162","0.0-90.0-1.0","null","<p></p>","null","","","","","","","","","","","","","","","","","","","","","","",""
"","do_trial","170","944541","0.0-91.0-0.0","836.5","","","","","","","","49","0,1,0","0","mountain","19","probe-127","0.40403354017296933","0.37245888164023316","0.09286950198437655","0","","","","","","","",""
"","html-keyboard-response","171","945543","0.0-91.0-1.0","null","<p></p>","null","","","","","","","","","","","","","","","","","","","","","","",""
"","do_trial","172","951876","0.0-92.0-0.0","1785.3000001907349","","","","","","","","51","0,1,0","0","mountain","20","probe-90","0.4418470759360114","0.2679804962995828","0.14599354003709772","0","","","","","","","",""
"","html-keyboard-response","173","952877","0.0-92.0-1.0","null","<p></p>","null","","","","","","","","","","","","","","","","","","","","","","",""
"","do_trial","174","958898","0.0-93.0-0.0","1473.8000001907349","","","","","","","","50","1,1,0","0","mountain","21","probe-64","0.5521273864338686","0.26525350347625976","0.1529930958009571","1","","","","","","","",""
"","html-keyboard-response","175","959913","0.0-93.0-1.0","null","<p></p>","null","","","","","","","","","","","","","","","","","","","","","","",""
"","do_trial","176","965972","0.0-94.0-0.0","null","","","","","","","","null","1,1,0","0","mountain","22","probe-168","0.45690829702789276","0.35652715401570784","0.0932434343227773","","","","","","","","",""
"","html-keyboard-response","177","966986","0.0-94.0-1.0","null","<p></p>","null","","","","","","","","","","","","","","","","","","","","","","",""
"","do_trial","178","972244","0.0-95.0-0.0","705","","","","","","","","50","1,1,1","0","mountain","23","probe-179","0.5546498944184047","0.34040775324007344","0.06136547704738022","1","","","","","","","",""
"","html-keyboard-response","179","973246","0.0-95.0-1.0","null","<p></p>","null","","","","","","","","","","","","","","","","","","","","","","",""
"","do_trial","180","978526","0.0-96.0-0.0","733.7999997138977","","","","","","","","51","1,0,0","0","mountain","24","probe-148","0.5142297502767705","0.42206279218887177","0.10720359000495693","0","","","","","","","",""
"","html-keyboard-response","181","979529","0.0-96.0-1.0","null","<p></p>","null","","","","","","","","","","","","","","","","","","","","","","",""
"","do_trial","182","984942","0.0-97.0-0.0","859.7000002861023","","","","","","","","49","1,0,0","0","mountain","25","probe-191","0.6634219638420481","0.5041732476733141","0.060414980191329626","1","","","","","","","",""
"","html-keyboard-response","183","985961","0.0-97.0-1.0","null","<p></p>","null","","","","","","","","","","","","","","","","","","","","","","",""
"","do_trial","184","990872","0.0-98.0-0.0","361.7999997138977","","","","","","","","51","0,0,0","0","mountain","26","probe-11","0.6463741904408589","0.3269885645712474","0.13811818639202758","0","","","","","","","",""
"","html-keyboard-response","185","991883","0.0-98.0-1.0","null","<p></p>","null","","","","","","","","","","","","","","","","","","","","","","",""
"","do_trial","186","996760","0.0-99.0-0.0","329.69999980926514","","","","","","","","50","1,0,0","0","mountain","27","probe-222","0.5760570343414634","0.15279129007844225","0.0769929423363797","0","","","","","","","",""
"","html-keyboard-response","187","997776","0.0-99.0-1.0","null","<p></p>","null","","","","","","","","","","","","","","","","","","","","","","",""
"","do_trial","188","1002657","0.0-100.0-0.0","332.30000019073486","","","","","","","","50","1,0,0","0","mountain","28","probe-18","0.7236143282224969","0.13524218404110971","0.058265498590440154","0","","","","","","","",""
"","html-keyboard-response","189","1003663","0.0-100.0-1.0","null","<p></p>","null","","","","","","","","","","","","","","","","","","","","","","",""
"","do_trial","190","1008635","0.0-101.0-0.0","416","","","","","","","","49","1,0,0","0","mountain","29","probe-133","0.5705949314065668","0.28184001622961213","0.08001945072463831","1","","","","","","","",""
"","html-keyboard-response","191","1009648","0.0-101.0-1.0","null","<p></p>","null","","","","","","","","","","","","","","","","","","","","","","",""
"","do_bye","192","1011155","0.0-102.0-0.0","null","","","","","","","","null","","","","","","","","","","","","","","","","",""
"","break","193","1035803","0.0-102.0-1.0","24646","<div class='center'><p>Time to take a quick break! You have 2 minutes to rest, but you can move on sooner if you'd like.</p><p> Press the <b>space bar</b> to continue.</p></div>","32","","","","","","","","","","","","","","","","","","","","","","",""
"","do_travel","194","1044807","0.0-103.0-0.0","null","","","","","","","","null","","","","","","","","","","","","","","","","",""
"","do_welcome","195","1048820","0.0-103.0-1.0","null","","","","","","","","null","","","","","","","","","","","","","","","","",""
"","do_trial","196","1055299","0.0-104.0-0.0","1593.5999999046326","","","","","","","","50","1,0,0","1","countryside","30","probe-08","1","0.2793110884421298","0.16349292469577112","0","","","","","","","",""
"","html-keyboard-response","197","1056304","0.0-104.0-1.0","null","<p></p>","null","","","","","","","","","","","","","","","","","","","","","","",""
"","do_trial","198","1062753","0.0-105.0-0.0","1896.6999998092651","","","","","","","","49","1,0,0","1","countryside","31","probe-12","1","0.22208606891674282","0.0717753734551869","1","","","","","","","",""
"","html-keyboard-response","199","1063755","0.0-105.0-1.0","null","<p></p>","null","","","","","","","","","","","","","","","","","","","","","","",""
"","do_trial","200","1070144","0.0-106.0-0.0","1835.5","","","","","","","","51","1,0,0","1","countryside","32","probe-71","1","0.32765411215379325","0.1059304024059213","0","","","","","","","",""
"","html-keyboard-response","201","1071156","0.0-106.0-1.0","null","<p></p>","null","","","","","","","","","","","","","","","","","","","","","","",""
"","do_trial","202","1077978","0.0-107.0-0.0","2259.6000003814697","","","","","","","","49","1,0,0","1","countryside","33","probe-144","0.8285078103021212","0.2912817311234454","0.1640712202984829","1","","","","","","","",""
"","html-keyboard-response","203","1078996","0.0-107.0-1.0","null","<p></p>","null","","","","","","","","","","","","","","","","","","","","","","",""
"","do_trial","204","1085062","0.0-108.0-0.0","1519.0999999046326","","","","","","","","51","1,0,0","1","countryside","34","probe-208","0.7998157802679756","0.24478448086691537","0.15440524924109697","0","","","","","","","",""
"","html-keyboard-response","205","1086068","0.0-108.0-1.0","null","<p></p>","null","","","","","","","","","","","","","","","","","","","","","","",""
"","do_trial","206","1091740","0.0-109.0-0.0","1120.2000002861023","","","","","","","","50","0,0,0","1","countryside","35","probe-136","0.6653050247152555","0.30746627353364897","0.1113950469758546","0","","","","","","","",""
"","html-keyboard-response","207","1092754","0.0-109.0-1.0","null","<p></p>","null","","","","","","","","","","","","","","","","","","","","","","",""
"","do_trial","208","1098153","0.0-110.0-0.0","852","","","","","","","","49","1,0,0","1","countryside","36","probe-32","0.5542878023979887","0.35677485374589263","0.16303391919069887","1","","","","","","","",""
"","html-keyboard-response","209","1099166","0.0-110.0-1.0","null","<p></p>","null","","","","","","","","","","","","","","","","","","","","","","",""
"","do_trial","210","1104058","0.0-111.0-0.0","331.19999980926514","","","","","","","","51","1,0,0","1","countryside","37","probe-174","0.5022859032052136","0.3432066268955426","0.10022846564879888","0","","","","","","","",""
"","html-keyboard-response","211","1105062","0.0-111.0-1.0","null","<p></p>","null","","","","","","","","","","","","","","","","","","","","","","",""
"","do_trial","212","1110027","0.0-112.0-0.0","404.7000002861023","","","","","","","","50","1,0,0","1","countryside","38","probe-43","0.502445649937959","0.32302243704158456","0.05610717972040758","0","","","","","","","",""
"","html-keyboard-response","213","1111031","0.0-112.0-1.0","null","<p></p>","null","","","","","","","","","","","","","","","","","","","","","","",""
"","do_trial","214","1115937","0.0-113.0-0.0","351.69999980926514","","","","","","","","49","1,0,0","1","countryside","39","probe-207","0.45935521035523097","0.20795195674175532","0.06506995838825116","1","","","","","","","",""
"","html-keyboard-response","215","1116941","0.0-113.0-1.0","null","<p></p>","null","","","","","","","","","","","","","","","","","","","","","","",""
"","do_trial","216","1122223","0.0-114.0-0.0","728.7999997138977","","","","","","","","49","1,0,0","1","countryside","40","probe-102","0.5749999263461374","0.2792180385284462","0.12389403731005003","1","","","","","","","",""
"","html-keyboard-response","217","1123229","0.0-114.0-1.0","null","<p></p>","null","","","","","","","","","","","","","","","","","","","","","","",""
"","do_trial","218","1128540","0.0-115.0-0.0","755.1999998092651","","","","","","","","51","1,0,0","1","countryside","41","probe-49","0.46007237061731426","0.31148485577117113","0.1949736304081938","0","","","","","","","",""
"","html-keyboard-response","219","1129554","0.0-115.0-1.0","null","<p></p>","null","","","","","","","","","","","","","","","","","","","","","","",""
"","do_trial","220","1135251","0.0-116.0-0.0","1139.7999997138977","","","","","","","","50","0,0,1","1","countryside","42","probe-74","0.394733996610941","0.15292802971561886","0.37495931249087106","0","","","","","","","",""
"","html-keyboard-response","221","1136261","0.0-116.0-1.0","null","<p></p>","null","","","","","","","","","","","","","","","","","","","","","","",""
"","do_trial","222","1142271","0.0-117.0-0.0","1467.5","","","","","","","","51","1,1,0","1","countryside","43","probe-216","0.3573594974464029","0.13325425663010967","0.4361540068755081","0","","","","","","","",""
"","html-keyboard-response","223","1143283","0.0-117.0-1.0","null","<p></p>","null","","","","","","","","","","","","","","","","","","","","","","",""
"","do_trial","224","1148449","0.0-118.0-0.0","613.1999998092651","","","","","","","","49","0,0,1","1","countryside","44","probe-56","0.30623750542107575","0.05400653567177589","0.5759875617259977","0","","","","","","","",""
"","html-keyboard-response","225","1149456","0.0-118.0-1.0","null","<p></p>","null","","","","","","","","","","","","","","","","","","","","","","",""
"","do_trial","226","1154317","0.0-119.0-0.0","304.8999996185303","","","","","","","","51","0,0,0","1","countryside","45","probe-134","0.3184857205098498","0.12376625076337865","0.5471337211709948","0","","","","","","","",""
"","html-keyboard-response","227","1155326","0.0-119.0-1.0","null","<p></p>","null","","","","","","","","","","","","","","","","","","","","","","",""
"","do_trial","228","1160298","0.0-120.0-0.0","413.6000003814697","","","","","","","","50","1,0,0","1","countryside","46","probe-107","0.24133012552949568","0.09017083515207905","0.5538968409484192","0","","","","","","","",""
"","html-keyboard-response","229","1161308","0.0-120.0-1.0","null","<p></p>","null","","","","","","","","","","","","","","","","","","","","","","",""
"","do_trial","230","1166886","0.0-121.0-0.0","1036","","","","","","","","49","0,0,1","1","countryside","47","probe-198","0.33675743952958387","0.15547132596877009","0.7157376388466815","0","","","","","","","",""
"","html-keyboard-response","231","1167891","0.0-121.0-1.0","null","<p></p>","null","","","","","","","","","","","","","","","","","","","","","","",""
"","do_trial","232","1174100","0.0-122.0-0.0","1658.5","","","","","","","","49","0,0,1","1","countryside","48","probe-169","0.2562527367591784","0.08021529967005896","0.7344063605904656","0","","","","","","","",""
"","html-keyboard-response","233","1175103","0.0-122.0-1.0","null","<p></p>","null","","","","","","","","","","","","","","","","","","","","","","",""
"","do_trial","234","1181481","0.0-123.0-0.0","1821.4000000953674","","","","","","","","49","0,0,1","1","countryside","49","probe-183","0.21737674572974222","0.07756081743914855","0.5470114250114602","0","","","","","","","",""
"","html-keyboard-response","235","1182491","0.0-123.0-1.0","null","<p></p>","null","","","","","","","","","","","","","","","","","","","","","","",""
"","do_trial","236","1188474","0.0-124.0-0.0","1433.9000000953674","","","","","","","","51","0,0,1","1","countryside","50","probe-175","0.23725751893989405","0.11413596109386606","0.6190059706546056","1","","","","","","","",""
"","html-keyboard-response","237","1189490","0.0-124.0-1.0","null","<p></p>","null","","","","","","","","","","","","","","","","","","","","","","",""
"","do_trial","238","1194452","0.0-125.0-0.0","413.90000009536743","","","","","","","","50","0,0,1","1","countryside","51","probe-05","0.48528245735870956","0.05332096723021788","0.6434079311842519","0","","","","","","","",""
"","html-keyboard-response","239","1195462","0.0-125.0-1.0","null","<p></p>","null","","","","","","","","","","","","","","","","","","","","","","",""
"","do_trial","240","1202164","0.0-126.0-0.0","2150.300000190735","","","","","","","","49","1,0,1","1","countryside","52","probe-37","0.49684811578675653","0.05423868323687431","0.6906915156006028","1","","","","","","","",""
"","html-keyboard-response","241","1203175","0.0-126.0-1.0","null","<p></p>","null","","","","","","","","","","","","","","","","","","","","","","",""
"","do_trial","242","1208737","0.0-127.0-0.0","991.5999999046326","","","","","","","","51","0,0,1","1","countryside","53","probe-21","0.39443366164697524","0.09176041392265531","0.6603024408197388","1","","","","","","","",""
"","html-keyboard-response","243","1209753","0.0-127.0-1.0","null","<p></p>","null","","","","","","","","","","","","","","","","","","","","","","",""
"","do_trial","244","1215097","0.0-128.0-0.0","800.4000000953674","","","","","","","","49","0,0,1","1","countryside","54","probe-146","0.5116623392857641","0.05289991212301276","0.6261880438356654","0","","","","","","","",""
"","html-keyboard-response","245","1216104","0.0-128.0-1.0","null","<p></p>","null","","","","","","","","","","","","","","","","","","","","","","",""
"","do_trial","246","1221102","0.0-129.0-0.0","458.2999997138977","","","","","","","","51","0,0,1","1","countryside","55","probe-106","0.4421751936720494","0.16777743697092778","0.621834327718363","1","","","","","","","",""
"","html-keyboard-response","247","1222120","0.0-129.0-1.0","null","<p></p>","null","","","","","","","","","","","","","","","","","","","","","","",""
"","do_trial","248","1227286","0.0-130.0-0.0","621.1000003814697","","","","","","","","49","0,0,0","1","countryside","56","probe-195","0.29142480343504706","0.07006860712296102","0.4670478630427995","0","","","","","","","",""
"","html-keyboard-response","249","1228298","0.0-130.0-1.0","null","<p></p>","null","","","","","","","","","","","","","","","","","","","","","","",""
"","do_trial","250","1233623","0.0-131.0-0.0","783.3000001907349","","","","","","","","50","1,0,0","1","countryside","57","probe-181","0.29199607420293033","0.17434128959516798","0.4315404951020514","0","","","","","","","",""
"","html-keyboard-response","251","1234636","0.0-131.0-1.0","null","<p></p>","null","","","","","","","","","","","","","","","","","","","","","","",""
"","do_trial","252","1239782","0.0-132.0-0.0","595.9000000953674","","","","","","","","50","0,0,1","1","countryside","58","probe-121","0.3881295300176029","0.26984087223577385","0.45268639548071393","0","","","","","","","",""
"","html-keyboard-response","253","1240796","0.0-132.0-1.0","null","<p></p>","null","","","","","","","","","","","","","","","","","","","","","","",""
"","do_trial","254","1246069","0.0-133.0-0.0","735","","","","","","","","51","0,0,1","1","countryside","59","probe-105","0.4387667618629978","0.1141807550098793","0.5230302951253907","1","","","","","","","",""
"","html-keyboard-response","255","1247084","0.0-133.0-1.0","null","<p></p>","null","","","","","","","","","","","","","","","","","","","","","","",""
"","do_trial","256","1252789","0.0-134.0-0.0","1152.7999997138977","","","","","","","","49","0,0,1","1","countryside","60","probe-99","0.451216961683923","0.10266719681788997","0.5817209530793401","0","","","","","","","",""
"","html-keyboard-response","257","1253797","0.0-134.0-1.0","null","<p></p>","null","","","","","","","","","","","","","","","","","","","","","","",""
"","do_trial","258","1259110","0.0-135.0-0.0","766.3000001907349","","","","","","","","51","1,0,1","1","countryside","61","probe-126","0.42775358815680714","0.07216512003767867","0.5288333961178715","1","","","","","","","",""
"","html-keyboard-response","259","1260127","0.0-135.0-1.0","null","<p></p>","null","","","","","","","","","","","","","","","","","","","","","","",""
"","do_trial","260","1265288","0.0-136.0-0.0","619.2999997138977","","","","","","","","50","0,0,0","1","countryside","62","probe-120","0.38381942132237507","0.10608997959902691","0.5582030982770185","0","","","","","","","",""
"","html-keyboard-response","261","1266300","0.0-136.0-1.0","null","<p></p>","null","","","","","","","","","","","","","","","","","","","","","","",""
"","do_trial","262","1271858","0.0-137.0-0.0","1012.7999997138977","","","","","","","","49","0,0,1","1","countryside","63","probe-225","0.36577191163342404","0.05272409400819968","0.6549617517161025","0","","","","","","","",""
"","html-keyboard-response","263","1272869","0.0-137.0-1.0","null","<p></p>","null","","","","","","","","","","","","","","","","","","","","","","",""
"","do_trial","264","1278194","0.0-138.0-0.0","778.9000000953674","","","","","","","","51","0,0,1","1","countryside","64","probe-223","0.2920459880967909","0.09176464753330338","0.6701820642513203","1","","","","","","","",""
"","html-keyboard-response","265","1279197","0.0-138.0-1.0","null","<p></p>","null","","","","","","","","","","","","","","","","","","","","","","",""
"","do_trial","266","1285203","0.0-139.0-0.0","1467.5999999046326","","","","","","","","49","1,0,1","1","countryside","65","probe-48","0.3505777951716102","0.2993333653148239","0.5386634453531949","1","","","","","","","",""
"","html-keyboard-response","267","1286212","0.0-139.0-1.0","null","<p></p>","null","","","","","","","","","","","","","","","","","","","","","","",""
"","do_trial","268","1291571","0.0-140.0-0.0","806.5","","","","","","","","51","1,0,1","1","countryside","66","probe-189","0.30794728455425563","0.10590138776902581","0.44120852706432706","1","","","","","","","",""
"","html-keyboard-response","269","1292588","0.0-140.0-1.0","null","<p></p>","null","","","","","","","","","","","","","","","","","","","","","","",""
"","do_trial","270","1297864","0.0-141.0-0.0","734.4000000953674","","","","","","","","49","1,0,1","1","countryside","67","probe-59","0.39352730704437","0.19089000783960466","0.40039569656020696","1","","","","","","","",""
"","html-keyboard-response","271","1298870","0.0-141.0-1.0","null","<p></p>","null","","","","","","","","","","","","","","","","","","","","","","",""
"","do_trial","272","1304475","0.0-142.0-0.0","1062","","","","","","","","51","0,0,1","1","countryside","68","probe-209","0.5662629140369952","0.20010038527188811","0.4696564968425031","1","","","","","","","",""
"","html-keyboard-response","273","1305483","0.0-142.0-1.0","null","<p></p>","null","","","","","","","","","","","","","","","","","","","","","","",""
"","do_trial","274","1310903","0.0-143.0-0.0","880.5999999046326","","","","","","","","49","1,0,0","1","countryside","69","probe-70","0.5350301331814106","0.21611128722908293","0.623163338273595","1","","","","","","","",""
"","html-keyboard-response","275","1311920","0.0-143.0-1.0","null","<p></p>","null","","","","","","","","","","","","","","","","","","","","","","",""
"","do_bye","276","1313438","0.0-144.0-0.0","null","","","","","","","","null","","","","","","","","","","","","","","","","",""
"","break","277","1354362","0.0-144.0-1.0","40922.300000190735","<div class='center'><p>Time to take a quick break! You have 2 minutes to rest, but you can move on sooner if you'd like.</p><p> Press the <b>space bar</b> to continue.</p></div>","32","","","","","","","","","","","","","","","","","","","","","","",""
"","do_travel","278","1363376","0.0-145.0-0.0","null","","","","","","","","null","","","","","","","","","","","","","","","","",""
"","do_welcome","279","1367381","0.0-145.0-1.0","null","","","","","","","","null","","","","","","","","","","","","","","","","",""
"","do_trial","280","1373969","0.0-146.0-0.0","2026.7999997138977","","","","","","","","51","0,1,1","2","coast","70","probe-135","0.416036784750947","0.21624660396635553","1","1","","","","","","","",""
"","html-keyboard-response","281","1374971","0.0-146.0-1.0","null","<p></p>","null","","","","","","","","","","","","","","","","","","","","","","",""
"","do_trial","282","1380659","0.0-147.0-0.0","1140.9000000953674","","","","","","","","50","0,1,1","2","coast","71","probe-80","0.35337587624847017","0.4191782914306484","1","1","","","","","","","",""
"","html-keyboard-response","283","1381666","0.0-147.0-1.0","null","<p></p>","null","","","","","","","","","","","","","","","","","","","","","","",""
"","do_trial","284","1386514","0.0-148.0-0.0","306.09999990463257","","","","","","","","49","0,0,1","2","coast","72","probe-125","0.2534075502606625","0.18951894369188288","0.8935551728570128","0","","","","","","","",""
"","html-keyboard-response","285","1387516","0.0-148.0-1.0","null","<p></p>","null","","","","","","","","","","","","","","","","","","","","","","",""
"","do_trial","286","1392399","0.0-149.0-0.0","334.59999990463257","","","","","","","","51","0,0,1","2","coast","73","probe-62","0.3335491379095359","0.11745659213970319","0.8649557337638198","1","","","","","","","",""
"","html-keyboard-response","287","1393414","0.0-149.0-1.0","null","<p></p>","null","","","","","","","","","","","","","","","","","","","","","","",""
"","do_trial","288","1398963","0.0-150.0-0.0","1004.3999996185303","","","","","","","","49","1,1,1","2","coast","74","probe-196","0.2665322502153977","0.07207201652653478","0.7586953251250769","1","","","","","","","",""
"","html-keyboard-response","289","1399981","0.0-150.0-1.0","null","<p></p>","null","","","","","","","","","","","","","","","","","","","","","","",""
"","do_trial","290","1405341","0.0-151.0-0.0","815.4000000953674","","","","","","","","50","0,0,0","2","coast","75","probe-164","0.42914876666407437","0.1375684181191766","0.6383097620331306","0","","","","","","","",""
"","html-keyboard-response","291","1406348","0.0-151.0-1.0","null","<p></p>","null","","","","","","","","","","","","","","","","","","","","","","",""
"","do_trial","292","1411526","0.0-152.0-0.0","634.9000000953674","","","","","","","","50","0,0,0","2","coast","76","probe-41","0.4432875930984024","0.13031067831024024","0.7514603981028757","0","","","","","","","",""
"","html-keyboard-response","293","1412536","0.0-152.0-1.0","null","<p></p>","null","","","","","","","","","","","","","","","","","","","","","","",""
"","do_trial","294","1417563","0.0-153.0-0.0","480.09999990463257","","","","","","","","51","0,0,1","2","coast","77","probe-142","0.5014618308651788","0.05998980458502801","0.5363852951356048","1","","","","","","","",""
"","html-keyboard-response","295","1418568","0.0-153.0-1.0","null","<p></p>","null","","","","","","","","","","","","","","","","","","","","","","",""
"","do_trial","296","1423675","0.0-154.0-0.0","558.8000001907349","","","","","","","","49","0,0,1","2","coast","78","probe-54","0.3105654389029775","0.2700598788969276","0.5588331182127722","0","","","","","","","",""
"","html-keyboard-response","297","1424692","0.0-154.0-1.0","null","<p></p>","null","","","","","","","","","","","","","","","","","","","","","","",""
"","do_trial","298","1429959","0.0-155.0-0.0","718.9000000953674","","","","","","","","51","1,0,1","2","coast","79","probe-112","0.34087878777588615","0.34887228560375483","0.481306692952909","1","","","","","","","",""
"","html-keyboard-response","299","1430963","0.0-155.0-1.0","null","<p></p>","null","","","","","","","","","","","","","","","","","","","","","","",""
"","do_trial","300","1435590","0.0-156.0-0.0","76.5","","","","","","","","51","0,1,1","2","coast","80","probe-137","0.358171482628848","0.37077215052364026","0.5662754545956417","1","","","","","","","",""
"","html-keyboard-response","301","1436604","0.0-156.0-1.0","null","<p></p>","null","","","","","","","","","","","","","","","","","","","","","","",""
"","do_trial","302","1441600","0.0-157.0-0.0","453.7000002861023","","","","","","","","50","1,0,1","2","coast","81","probe-69","0.4620725818799263","0.30138393377619177","0.7840813109760049","0","","","","","","","",""
"","html-keyboard-response","303","1442604","0.0-157.0-1.0","null","<p></p>","null","","","","","","","","","","","","","","","","","","","","","","",""
"","do_trial","304","1448657","0.0-158.0-0.0","null","","","","","","","","null","1,1,0","2","coast","82","probe-22","0.30916185713453365","0.4431596906399514","0.5077395440904727","","","","","","","","",""
"","html-keyboard-response","305","1449677","0.0-158.0-1.0","null","<p></p>","null","","","","","","","","","","","","","","","","","","","","","","",""
"","do_trial","306","1456375","0.0-159.0-0.0","2159.2000002861023","","","","","","","","51","0,1,0","2","coast","83","probe-97","0.13484032626041587","0.49869324006075816","0.5006647774918541","0","","","","","","","",""
"","html-keyboard-response","307","1457388","0.0-159.0-1.0","null","<p></p>","null","","","","","","","","","","","","","","","","","","","","","","",""
"","do_trial","308","1463469","0.0-160.0-0.0","1525.3000001907349","","","","","","","","51","0,0,0","2","coast","84","probe-161","0.13888542346972932","0.5840040377100286","0.2775002526796508","0","","","","","","","",""
"","html-keyboard-response","309","1464476","0.0-160.0-1.0","null","<p></p>","null","","","","","","","","","","","","","","","","","","","","","","",""
"","do_trial","310","1469850","0.0-161.0-0.0","830.8000001907349","","","","","","","","49","0,1,0","2","coast","85","probe-42","0.11821407259156687","0.5424328167279601","0.23038813709791364","0","","","","","","","",""
"","html-keyboard-response","311","1470868","0.0-161.0-1.0","null","<p></p>","null","","","","","","","","","","","","","","","","","","","","","","",""
"","do_trial","312","1475881","0.0-162.0-0.0","464.5","","","","","","","","51","0,0,0","2","coast","86","probe-67","0.06322556445523765","0.5467016659852375","0.19522772373747352","0","","","","","","","",""
"","html-keyboard-response","313","1476883","0.0-162.0-1.0","null","<p></p>","null","","","","","","","","","","","","","","","","","","","","","","",""
"","do_trial","314","1481980","0.0-163.0-0.0","550.2000002861023","","","","","","","","50","0,0,0","2","coast","87","probe-92","0.09066868084829299","0.46794626854172516","0.19337991295695517","0","","","","","","","",""
"","html-keyboard-response","315","1483004","0.0-163.0-1.0","null","<p></p>","null","","","","","","","","","","","","","","","","","","","","","","",""
"","do_trial","316","1488313","0.0-164.0-0.0","761.0999999046326","","","","","","","","49","0,1,1","2","coast","88","probe-28","0.06378072512559432","0.3415482935157026","0.2631976902721233","0","","","","","","","",""
"","html-keyboard-response","317","1489327","0.0-164.0-1.0","null","<p></p>","null","","","","","","","","","","","","","","","","","","","","","","",""
"","do_trial","318","1495150","0.0-165.0-0.0","1270.1999998092651","","","","","","","","51","0,0,1","2","coast","89","probe-119","0.07556694154520316","0.44501389610967823","0.19295899558523644","1","","","","","","","",""
"","html-keyboard-response","319","1496160","0.0-165.0-1.0","null","<p></p>","null","","","","","","","","","","","","","","","","","","","","","","",""
"","do_trial","320","1501596","0.0-166.0-0.0","888.2999997138977","","","","","","","","49","0,1,0","2","coast","90","probe-30","0.06390783240034906","0.5898276027212839","0.3377312406480458","0","","","","","","","",""
"","html-keyboard-response","321","1502601","0.0-166.0-1.0","null","<p></p>","null","","","","","","","","","","","","","","","","","","","","","","",""
"","do_trial","322","1508127","0.0-167.0-0.0","976","","","","","","","","50","0,1,0","2","coast","91","probe-46","0.12394566944248028","0.5414810975332717","0.305336958821997","1","","","","","","","",""
"","html-keyboard-response","323","1509131","0.0-167.0-1.0","null","<p></p>","null","","","","","","","","","","","","","","","","","","","","","","",""
"","do_trial","324","1514935","0.0-168.0-0.0","1262.4000000953674","","","","","","","","49","1,1,0","2","coast","92","probe-217","0.22576078013269693","0.5351865060465687","0.2713187910499469","1","","","","","","","",""
"","html-keyboard-response","325","1515948","0.0-168.0-1.0","null","<p></p>","null","","","","","","","","","","","","","","","","","","","","","","",""
"","do_trial","326","1521688","0.0-169.0-0.0","1196","","","","","","","","49","1,0,1","2","coast","93","probe-58","0.19224396007320035","0.706110326103438","0.33388186621652927","1","","","","","","","",""
"","html-keyboard-response","327","1522697","0.0-169.0-1.0","null","<p></p>","null","","","","","","","","","","","","","","","","","","","","","","",""
"","do_trial","328","1528296","0.0-170.0-0.0","1049.1999998092651","","","","","","","","51","0,0,1","2","coast","94","probe-151","0.17126051398849465","0.6321040171393659","0.3482757700990047","1","","","","","","","",""
"","html-keyboard-response","329","1529310","0.0-170.0-1.0","null","<p></p>","null","","","","","","","","","","","","","","","","","","","","","","",""
"","do_trial","330","1535534","0.0-171.0-0.0","1661.2999997138977","","","","","","","","51","0,1,0","2","coast","95","probe-131","0.23252165209551426","0.604107676678886","0.25963205775560566","0","","","","","","","",""
"","html-keyboard-response","331","1536536","0.0-171.0-1.0","null","<p></p>","null","","","","","","","","","","","","","","","","","","","","","","",""
"","do_trial","332","1542599","0.0-172.0-0.0","null","","","","","","","","null","0,0,0","2","coast","96","probe-218","0.1612415970108909","0.6819061542131652","0.23992300039869588","","","","","","","","",""
"","html-keyboard-response","333","1543601","0.0-172.0-1.0","null","<p></p>","null","","","","","","","","","","","","","","","","","","","","","","",""
"","do_trial","334","1548543","0.0-173.0-0.0","405.19999980926514","","","","","","","","51","0,1,0","2","coast","97","probe-147","0.14722119291775085","0.7239556770905254","0.19381448992620987","0","","","","","","","",""
"","html-keyboard-response","335","1549546","0.0-173.0-1.0","null","<p></p>","null","","","","","","","","","","","","","","","","","","","","","","",""
"","do_trial","336","1555568","0.0-174.0-0.0","1484.1000003814697","","","","","","","","50","0,0,0","2","coast","98","probe-162","0.1652914585909436","0.6546330361737965","0.3818470554502632","0","","","","","","","",""
"","html-keyboard-response","337","1556573","0.0-174.0-1.0","null","<p></p>","null","","","","","","","","","","","","","","","","","","","","","","",""
"","do_trial","338","1562367","0.0-175.0-0.0","1252.4000000953674","","","","","","","","49","0,1,1","2","coast","99","probe-39","0.09742797373574685","0.7311168085358507","0.29823471435423576","0","","","","","","","",""
"","html-keyboard-response","339","1563372","0.0-175.0-1.0","null","<p></p>","null","","","","","","","","","","","","","","","","","","","","","","",""
"","do_trial","340","1569007","0.0-176.0-0.0","1093.3999996185303","","","","","","","","51","0,1,0","2","coast","100","probe-186","0.06457958960513677","0.6884813820139344","0.1836579627557324","0","","","","","","","",""
"","html-keyboard-response","341","1570008","0.0-176.0-1.0","null","<p></p>","null","","","","","","","","","","","","","","","","","","","","","","",""
"","do_trial","342","1575586","0.0-177.0-0.0","1029.8000001907349","","","","","","","","50","0,1,1","2","coast","101","probe-115","0.09608027955151727","0.7356874626444274","0.3518864801282369","1","","","","","","","",""
"","html-keyboard-response","343","1576595","0.0-177.0-1.0","null","<p></p>","null","","","","","","","","","","","","","","","","","","","","","","",""
"","do_trial","344","1581642","0.0-178.0-0.0","506.90000009536743","","","","","","","","51","0,1,0","2","coast","102","probe-50","0.10358924671074667","0.5953190403710146","0.32481505699563273","0","","","","","","","",""
"","html-keyboard-response","345","1582646","0.0-178.0-1.0","null","<p></p>","null","","","","","","","","","","","","","","","","","","","","","","",""
"","do_trial","346","1589288","0.0-179.0-0.0","2100.0999999046326","","","","","","","","50","0,1,0","2","coast","103","probe-206","0.2867591469944191","0.5286014893605799","0.24945288863130913","1","","","","","","","",""
"","html-keyboard-response","347","1590296","0.0-179.0-1.0","null","<p></p>","null","","","","","","","","","","","","","","","","","","","","","","",""
"","do_trial","348","1596105","0.0-180.0-0.0","1256.9000000953674","","","","","","","","49","1,0,0","2","coast","104","probe-118","0.39721539999354977","0.48255813726407504","0.29995049652809014","1","","","","","","","",""
"","html-keyboard-response","349","1597114","0.0-180.0-1.0","null","<p></p>","null","","","","","","","","","","","","","","","","","","","","","","",""
"","do_trial","350","1603169","0.0-181.0-0.0","null","","","","","","","","null","1,1,1","2","coast","105","probe-111","0.2807462543404438","0.5910386225549911","0.413255826507406","","","","","","","","",""
"","html-keyboard-response","351","1604179","0.0-181.0-1.0","null","<p></p>","null","","","","","","","","","","","","","","","","","","","","","","",""
"","do_trial","352","1609062","0.0-182.0-0.0","338.40000009536743","","","","","","","","51","1,1,0","2","coast","106","probe-197","0.16721294036509118","0.8316171276507764","0.4621606759744323","0","","","","","","","",""
"","html-keyboard-response","353","1610069","0.0-182.0-1.0","null","<p></p>","null","","","","","","","","","","","","","","","","","","","","","","",""
"","do_trial","354","1615394","0.0-183.0-0.0","781.7000002861023","","","","","","","","49","0,1,0","2","coast","107","probe-149","0.16044150525136375","0.8370025338053343","0.34614681332386454","0","","","","","","","",""
"","html-keyboard-response","355","1616402","0.0-183.0-1.0","null","<p></p>","null","","","","","","","","","","","","","","","","","","","","","","",""
"","do_trial","356","1621592","0.0-184.0-0.0","645.0999999046326","","","","","","","","51","0,0,0","2","coast","108","probe-81","0.1355406745745142","0.8165217602222614","0.33223852789612457","0","","","","","","","",""
"","html-keyboard-response","357","1622600","0.0-184.0-1.0","null","<p></p>","null","","","","","","","","","","","","","","","","","","","","","","",""
"","do_trial","358","1628141","0.0-185.0-0.0","988.6999998092651","","","","","","","","51","1,1,0","2","coast","109","probe-229","0.11405375676202086","0.6782568276940003","0.19263750858335535","0","","","","","","","",""
"","html-keyboard-response","359","1629154","0.0-185.0-1.0","null","<p></p>","null","","","","","","","","","","","","","","","","","","","","","","",""
"","do_bye","360","1630665","0.0-186.0-0.0","null","","","","","","","","null","","","","","","","","","","","","","","","","",""
"","break","361","1663196","0.0-186.0-1.0","32530","<div class='center'><p>Time to take a quick break! You have 2 minutes to rest, but you can move on sooner if you'd like.</p><p> Press the <b>space bar</b> to continue.</p></div>","32","","","","","","","","","","","","","","","","","","","","","","",""
"","do_travel","362","1672198","0.0-187.0-0.0","null","","","","","","","","null","","","","","","","","","","","","","","","","",""
"","do_welcome","363","1676202","0.0-187.0-1.0","null","","","","","","","","null","","","","","","","","","","","","","","","","",""
"","do_trial","364","1682140","0.0-188.0-0.0","1391.4000000953674","","","","","","","","49","0,1,0","3","highway","110","probe-192","0.12589710882345634","1","0.24994687415901357","0","","","","","","","",""
"","html-keyboard-response","365","1683150","0.0-188.0-1.0","null","<p></p>","null","","","","","","","","","","","","","","","","","","","","","","",""
"","do_trial","366","1688768","0.0-189.0-0.0","1078.1999998092651","","","","","","","","50","0,1,1","3","highway","111","probe-104","0.054110921134613","1","0.2495391451914591","1","","","","","","","",""
"","html-keyboard-response","367","1689780","0.0-189.0-1.0","null","<p></p>","null","","","","","","","","","","","","","","","","","","","","","","",""
"","do_trial","368","1695333","0.0-190.0-0.0","1004.6999998092651","","","","","","","","51","0,1,0","3","highway","112","probe-14","0.05594403484213424","0.9457628433610945","0.2998651913641798","0","","","","","","","",""
"","html-keyboard-response","369","1696349","0.0-190.0-1.0","null","<p></p>","null","","","","","","","","","","","","","","","","","","","","","","",""
"","do_trial","370","1701892","0.0-191.0-0.0","1001.3000001907349","","","","","","","","51","0,1,0","3","highway","113","probe-226","0.13192319932225516","0.8715487967848858","0.28942553329859366","0","","","","","","","",""
"","html-keyboard-response","371","1702899","0.0-191.0-1.0","null","<p></p>","null","","","","","","","","","","","","","","","","","","","","","","",""
"","do_trial","372","1707875","0.0-192.0-0.0","432.90000009536743","","","","","","","","51","0,1,0","3","highway","114","probe-61","0.1814823768989702","0.7898887645284909","0.2925355672755236","0","","","","","","","",""
"","html-keyboard-response","373","1708888","0.0-192.0-1.0","null","<p></p>","null","","","","","","","","","","","","","","","","","","","","","","",""
"","do_trial","374","1714105","0.0-193.0-0.0","666.9000000953674","","","","","","","","49","0,1,1","3","highway","115","probe-172","0.16568069049547476","0.7140292087689382","0.41821769563547107","0","","","","","","","",""
"","html-keyboard-response","375","1715119","0.0-193.0-1.0","null","<p></p>","null","","","","","","","","","","","","","","","","","","","","","","",""
"","do_trial","376","1720302","0.0-194.0-0.0","631","","","","","","","","51","0,1,0","3","highway","116","probe-228","0.20291517583732963","0.5667088675495989","0.3931876595140901","0","","","","","","","",""
"","html-keyboard-response","377","1721313","0.0-194.0-1.0","null","<p></p>","null","","","","","","","","","","","","","","","","","","","","","","",""
"","do_trial","378","1726273","0.0-195.0-0.0","410.5","","","","","","","","50","0,1,0","3","highway","117","probe-101","0.1916455582876535","0.6501536199262156","0.3347331916097882","1","","","","","","","",""
"","html-keyboard-response","379","1727278","0.0-195.0-1.0","null","<p></p>","null","","","","","","","","","","","","","","","","","","","","","","",""
"","do_trial","380","1732633","0.0-196.0-0.0","815.2000002861023","","","","","","","","49","0,0,1","3","highway","118","probe-40","0.10848533530966163","0.6957673627941391","0.22382081659579064","0","","","","","","","",""
"","html-keyboard-response","381","1733644","0.0-196.0-1.0","null","<p></p>","null","","","","","","","","","","","","","","","","","","","","","","",""
"","do_trial","382","1739063","0.0-197.0-0.0","878.6999998092651","","","","","","","","51","0,1,1","3","highway","119","probe-83","0.18342293492056808","0.803704768560616","0.32869408954964924","1","","","","","","","",""
"","html-keyboard-response","383","1740076","0.0-197.0-1.0","null","<p></p>","null","","","","","","","","","","","","","","","","","","","","","","",""
"","do_trial","384","1745866","0.0-198.0-0.0","1250.0999999046326","","","","","","","","51","0,1,1","3","highway","120","probe-187","0.3395384878262674","0.7830580925780879","0.42316939618078864","1","","","","","","","",""
"","html-keyboard-response","385","1746874","0.0-198.0-1.0","null","<p></p>","null","","","","","","","","","","","","","","","","","","","","","","",""
"","do_trial","386","1751958","0.0-199.0-0.0","534.0999999046326","","","","","","","","51","1,0,0","3","highway","121","probe-182","0.25006060477175945","0.72719336433306","0.4320143203352906","0","","","","","","","",""
"","html-keyboard-response","387","1752959","0.0-199.0-1.0","null","<p></p>","null","","","","","","","","","","","","","","","","","","","","","","",""
"","do_trial","388","1758102","0.0-200.0-0.0","593.7999997138977","","","","","","","","49","0,1,1","3","highway","122","probe-122","0.1322437853818375","0.6240307776177074","0.6093156960868759","0","","","","","","","",""
"","html-keyboard-response","389","1759114","0.0-200.0-1.0","null","<p></p>","null","","","","","","","","","","","","","","","","","","","","","","",""
"","do_trial","390","1764161","0.0-201.0-0.0","502.30000019073486","","","","","","","","51","0,1,0","3","highway","123","probe-94","0.17891964635056987","0.5788197375690796","0.5457026904338466","0","","","","","","","",""
"","html-keyboard-response","391","1765170","0.0-201.0-1.0","null","<p></p>","null","","","","","","","","","","","","","","","","","","","","","","",""
"","do_trial","392","1771563","0.0-202.0-0.0","1849.3999996185303","","","","","","","","50","0,1,1","3","highway","124","probe-138","0.14162531381160942","0.2312860896442963","0.5682575554592002","1","","","","","","","",""
"","html-keyboard-response","393","1772569","0.0-202.0-1.0","null","<p></p>","null","","","","","","","","","","","","","","","","","","","","","","",""
"","do_trial","394","1778426","0.0-203.0-0.0","1310.5","","","","","","","","51","0,0,1","3","highway","125","probe-04","0.05606281230350594","0.2643961358604703","0.6350987727269916","1","","","","","","","",""
"","html-keyboard-response","395","1779430","0.0-203.0-1.0","null","<p></p>","null","","","","","","","","","","","","","","","","","","","","","","",""
"","do_trial","396","1784741","0.0-204.0-0.0","766.0999999046326","","","","","","","","49","0,0,1","3","highway","126","probe-139","0.052988129056500154","0.24175882665587028","0.587767842473098","0","","","","","","","",""
"","html-keyboard-response","397","1785743","0.0-204.0-1.0","null","<p></p>","null","","","","","","","","","","","","","","","","","","","","","","",""
"","do_trial","398","1791116","0.0-205.0-0.0","829.2999997138977","","","","","","","","51","0,1,1","3","highway","127","probe-224","0.09657176148228361","0.2663433444118019","0.7368458194536873","1","","","","","","","",""
"","html-keyboard-response","399","1792132","0.0-205.0-1.0","null","<p></p>","null","","","","","","","","","","","","","","","","","","","","","","",""
"","do_trial","400","1797370","0.0-206.0-0.0","697.7000002861023","","","","","","","","50","0,0,0","3","highway","128","probe-53","0.05073870012363002","0.3502119979888018","0.5359214226468313","0","","","","","","","",""
"","html-keyboard-response","401","1798385","0.0-206.0-1.0","null","<p></p>","null","","","","","","","","","","","","","","","","","","","","","","",""
"","do_trial","402","1803555","0.0-207.0-0.0","620.2000002861023","","","","","","","","49","0,1,0","3","highway","129","probe-02","0.19573584997889854","0.42123656633424394","0.6162650873550259","0","","","","","","","",""
"","html-keyboard-response","403","1804568","0.0-207.0-1.0","null","<p></p>","null","","","","","","","","","","","","","","","","","","","","","","",""
"","do_trial","404","1809564","0.0-208.0-0.0","445.19999980926514","","","","","","","","51","0,1,1","3","highway","130","probe-03","0.13231841052684742","0.46013809944102646","0.6562595285358666","1","","","","","","","",""
"","html-keyboard-response","405","1810567","0.0-208.0-1.0","null","<p></p>","null","","","","","","","","","","","","","","","","","","","","","","",""
"","do_trial","406","1816079","0.0-209.0-0.0","973.6999998092651","","","","","","","","51","0,0,0","3","highway","131","probe-113","0.13155833934387276","0.5203542978531681","0.5653063332975513","0","","","","","","","",""
"","html-keyboard-response","407","1817092","0.0-209.0-1.0","null","<p></p>","null","","","","","","","","","","","","","","","","","","","","","","",""
"","do_trial","408","1822376","0.0-210.0-0.0","736.1000003814697","","","","","","","","49","0,0,1","3","highway","132","probe-202","0.2516545298590541","0.3775493354260588","0.5275626023292667","0","","","","","","","",""
"","html-keyboard-response","409","1823392","0.0-210.0-1.0","null","<p></p>","null","","","","","","","","","","","","","","","","","","","","","","",""
"","do_trial","410","1828595","0.0-211.0-0.0","660.8000001907349","","","","","","","","51","0,0,1","3","highway","133","probe-194","0.24521757037631037","0.30490159530829186","0.5090000959841231","1","","","","","","","",""
"","html-keyboard-response","411","1829619","0.0-211.0-1.0","null","<p></p>","null","","","","","","","","","","","","","","","","","","","","","","",""
"","do_trial","412","1834819","0.0-212.0-0.0","650.1999998092651","","","","","","","","51","0,1,0","3","highway","134","probe-73","0.05526902977535759","0.2793300716309652","0.4546719740213861","0","","","","","","","",""
"","html-keyboard-response","413","1835840","0.0-212.0-1.0","null","<p></p>","null","","","","","","","","","","","","","","","","","","","","","","",""
"","do_trial","414","1841005","0.0-213.0-0.0","612.5999999046326","","","","","","","","49","0,0,0","3","highway","135","probe-178","0.07175067511323067","0.34590554515992933","0.6020585068977942","0","","","","","","","",""
"","html-keyboard-response","415","1842013","0.0-213.0-1.0","null","<p></p>","null","","","","","","","","","","","","","","","","","","","","","","",""
"","do_trial","416","1848075","0.0-214.0-0.0","null","","","","","","","","null","0,0,1","3","highway","136","probe-150","0.14199989144426955","0.43112461006236835","0.5658402161071772","","","","","","","","",""
"","html-keyboard-response","417","1849079","0.0-214.0-1.0","null","<p></p>","null","","","","","","","","","","","","","","","","","","","","","","",""
"","do_trial","418","1854521","0.0-215.0-0.0","888.8000001907349","","","","","","","","51","1,0,1","3","highway","137","probe-205","0.20919615475098116","0.35256607317851035","0.6515521253647159","1","","","","","","","",""
"","html-keyboard-response","419","1855526","0.0-215.0-1.0","null","<p></p>","null","","","","","","","","","","","","","","","","","","","","","","",""
"","do_trial","420","1860539","0.0-216.0-0.0","468.30000019073486","","","","","","","","51","0,0,1","3","highway","138","probe-96","0.22412688379136256","0.41488433612241926","0.5415369674710154","1","","","","","","","",""
"","html-keyboard-response","421","1861551","0.0-216.0-1.0","null","<p></p>","null","","","","","","","","","","","","","","","","","","","","","","",""
"","do_trial","422","1866928","0.0-217.0-0.0","824.1999998092651","","","","","","","","51","1,1,0","3","highway","139","probe-190","0.13796605121182567","0.45379932104868553","0.6515140523152247","0","","","","","","","",""
"","html-keyboard-response","423","1867937","0.0-217.0-1.0","null","<p></p>","null","","","","","","","","","","","","","","","","","","","","","","",""
"","do_trial","424","1873415","0.0-218.0-0.0","940.0999999046326","","","","","","","","49","1,1,1","3","highway","140","probe-184","0.18570605910922716","0.356992884197501","0.5473309574093229","1","","","","","","","",""
"","html-keyboard-response","425","1874423","0.0-218.0-1.0","null","<p></p>","null","","","","","","","","","","","","","","","","","","","","","","",""
"","do_trial","426","1879436","0.0-219.0-0.0","474.19999980926514","","","","","","","","49","0,0,1","3","highway","141","probe-220","0.20335221283802252","0.3628494774843761","0.5931876972734363","0","","","","","","","",""
"","html-keyboard-response","427","1880447","0.0-219.0-1.0","null","<p></p>","null","","","","","","","","","","","","","","","","","","","","","","",""
"","do_trial","428","1885528","0.0-220.0-0.0","532.5","","","","","","","","51","1,1,1","3","highway","142","probe-31","0.22130032876007413","0.41592356615946885","0.5061379406134241","1","","","","","","","",""
"","html-keyboard-response","429","1886536","0.0-220.0-1.0","null","<p></p>","null","","","","","","","","","","","","","","","","","","","","","","",""
"","do_trial","430","1893317","0.0-221.0-0.0","2235.9000000953674","","","","","","","","50","1,1,1","3","highway","143","probe-35","0.25905795497239625","0.3167745230385718","0.583281603134329","1","","","","","","","",""
"","html-keyboard-response","431","1894327","0.0-221.0-1.0","null","<p></p>","null","","","","","","","","","","","","","","","","","","","","","","",""
"","do_trial","432","1899852","0.0-222.0-0.0","983.2999997138977","","","","","","","","51","0,0,0","3","highway","144","probe-176","0.23195965006733757","0.3812736940922663","0.5803286807633328","0","","","","","","","",""
"","html-keyboard-response","433","1900860","0.0-222.0-1.0","null","<p></p>","null","","","","","","","","","","","","","","","","","","","","","","",""
"","do_trial","434","1906062","0.0-223.0-0.0","652.1999998092651","","","","","","","","51","0,1,1","3","highway","145","probe-128","0.1237345780832626","0.47470119651915194","0.7075383111756662","1","","","","","","","",""
"","html-keyboard-response","435","1907074","0.0-223.0-1.0","null","<p></p>","null","","","","","","","","","","","","","","","","","","","","","","",""
"","do_trial","436","1912527","0.0-224.0-0.0","915.5","","","","","","","","50","0,0,1","3","highway","146","probe-129","0.11335830505851907","0.5572111592433687","0.8058261897009038","0","","","","","","","",""
"","html-keyboard-response","437","1913546","0.0-224.0-1.0","null","<p></p>","null","","","","","","","","","","","","","","","","","","","","","","",""
"","do_trial","438","1918915","0.0-225.0-0.0","817.2000002861023","","","","","","","","50","0,1,1","3","highway","147","probe-153","0.06175861692745779","0.42370470419966816","0.834967062239041","1","","","","","","","",""
"","html-keyboard-response","439","1919930","0.0-225.0-1.0","null","<p></p>","null","","","","","","","","","","","","","","","","","","","","","","",""
"","do_trial","440","1924877","0.0-226.0-0.0","405","","","","","","","","50","0,1,1","3","highway","148","probe-215","0.12773645070550493","0.4473386572627807","0.7541953019438264","1","","","","","","","",""
"","html-keyboard-response","441","1925888","0.0-226.0-1.0","null","<p></p>","null","","","","","","","","","","","","","","","","","","","","","","",""
"","do_trial","442","1931505","0.0-227.0-0.0","1079.6999998092651","","","","","","","","50","0,1,0","3","highway","149","probe-25","0.053108618720291406","0.44921084844219705","0.724815935192927","1","","","","","","","",""
"","html-keyboard-response","443","1932519","0.0-227.0-1.0","null","<p></p>","null","","","","","","","","","","","","","","","","","","","","","","",""
"","do_bye","444","1934028","0.0-228.0-0.0","null","","","","","","","","null","","","","","","","","","","","","","","","","",""
"","break","445","1971523","0.0-228.0-1.0","37493.7999997139","<div class='center'><p>Time to take a quick break! You have 2 minutes to rest, but you can move on sooner if you'd like.</p><p> Press the <b>space bar</b> to continue.</p></div>","32","","","","","","","","","","","","","","","","","","","","","","",""
"","do_travel","446","1980544","0.0-229.0-0.0","null","","","","","","","","null","","","","","","","","","","","","","","","","",""
"","do_welcome","447","1984555","0.0-229.0-1.0","null","","","","","","","","null","","","","","","","","","","","","","","","","",""
"","do_trial","448","1990955","0.0-230.0-0.0","1841.5","","","","","","","","50","0,0,1","4","city","150","probe-45","0.11526026215847121","0.390503717725769","1","0","","","","","","","",""
"","html-keyboard-response","449","1991979","0.0-230.0-1.0","null","<p></p>","null","","","","","","","","","","","","","","","","","","","","","","",""
"","do_trial","450","1997133","0.0-231.0-0.0","599.2999997138977","","","","","","","","50","0,0,1","4","city","151","probe-66","0.07598799843469627","0.405892590887928","1","0","","","","","","","",""
"","html-keyboard-response","451","1998139","0.0-231.0-1.0","null","<p></p>","null","","","","","","","","","","","","","","","","","","","","","","",""
"","do_trial","452","2003306","0.0-232.0-0.0","620.5999999046326","","","","","","","","49","0,1,1","4","city","152","probe-34","0.16767688348018756","0.5026308689245754","0.9231671764760424","0","","","","","","","",""
"","html-keyboard-response","453","2004314","0.0-232.0-1.0","null","<p></p>","null","","","","","","","","","","","","","","","","","","","","","","",""
"","do_trial","454","2009305","0.0-233.0-0.0","445.5","","","","","","","","51","0,1,1","4","city","153","probe-165","0.1078591871607748","0.4992737489931657","0.6864385704146068","1","","","","","","","",""
"","html-keyboard-response","455","2010315","0.0-233.0-1.0","null","<p></p>","null","","","","","","","","","","","","","","","","","","","","","","",""
"","do_trial","456","2015193","0.0-234.0-0.0","326.40000009536743","","","","","","","","50","0,0,1","4","city","154","probe-173","0.05632283216004208","0.3978382761337077","0.6039973214510834","0","","","","","","","",""
"","html-keyboard-response","457","2016207","0.0-234.0-1.0","null","<p></p>","null","","","","","","","","","","","","","","","","","","","","","","",""
"","do_trial","458","2021005","0.0-235.0-0.0","258.5","","","","","","","","49","0,0,0","4","city","155","probe-193","0.05527260068479691","0.40379693203249234","0.556577229442277","0","","","","","","","",""
"","html-keyboard-response","459","2022010","0.0-235.0-1.0","null","<p></p>","null","","","","","","","","","","","","","","","","","","","","","","",""
"","do_trial","460","2026853","0.0-236.0-0.0","295.7999997138977","","","","","","","","50","0,0,0","4","city","156","probe-38","0.0926735992991873","0.482039731390678","0.5769854153130154","0","","","","","","","",""
"","html-keyboard-response","461","2027866","0.0-236.0-1.0","null","<p></p>","null","","","","","","","","","","","","","","","","","","","","","","",""
"","do_trial","462","2032766","0.0-237.0-0.0","348.40000009536743","","","","","","","","49","0,1,1","4","city","157","probe-163","0.17828961134452828","0.44834575486561357","0.6468403333655822","0","","","","","","","",""
"","html-keyboard-response","463","2033772","0.0-237.0-1.0","null","<p></p>","null","","","","","","","","","","","","","","","","","","","","","","",""
"","do_trial","464","2038631","0.0-238.0-0.0","318.8999996185303","","","","","","","","49","0,1,0","4","city","158","probe-51","0.19452053661286425","0.3768186906642646","0.7875239164229663","0","","","","","","","",""
"","html-keyboard-response","465","2039637","0.0-238.0-1.0","null","<p></p>","null","","","","","","","","","","","","","","","","","","","","","","",""
"","do_trial","466","2044820","0.0-239.0-0.0","635.1000003814697","","","","","","","","51","0,1,1","4","city","159","probe-159","0.1487342511731909","0.336605924965195","0.5797781947771913","1","","","","","","","",""
"","html-keyboard-response","467","2045829","0.0-239.0-1.0","null","<p></p>","null","","","","","","","","","","","","","","","","","","","","","","",""
