success,trial_type,trial_index,time_elapsed,internal_node_id,interactions,blur_events,focus_events,fullscreenenter_events,fullscreenexit_events,rt,stimulus,key_press,subject_id,participant_id,age,gender,prompt,response,choice_outcomes,context_n,context_img_id,trial_n,probe_img_id,pR_red,pR_white,pR_black,outcome,contextArray_ind,validImageProbes,invalidImageProbes,pRew_Red,pRew_White,pRew_Black,availableForMemProbe,choice_blocks
TRUE,fullscreen,0,4298,0.0-0.0,"""event"",""trial"",""time""
""fullscreenenter"",""0"",""3303""
","
","
","""event"",""trial"",""time""
""fullscreenenter"",""0"",""3303""
","
",,,,,,,,,,,,,,,,,,,,,,,,,,
,pavlovia,1,4303,0.0-1.0,"""event"",""trial"",""time""
""fullscreenenter"",""0"",""3303""
","
","
","""event"",""trial"",""time""
""fullscreenenter"",""0"",""3303""
","
",,,,,,,,,,,,,,,,,,,,,,,,,,
,instruc1,2,49392,0.0-2.0,"""event"",""trial"",""time""
""fullscreenenter"",""0"",""3303""
","
","
","""event"",""trial"",""time""
""fullscreenenter"",""0"",""3303""
","
",null,run_exp/static/audio/clip_1_welcome.m4a,null,328,421,19,Female,"<div class='center'><p>Welcome! This is the first part of the study. It will last ~30 minutes. In part 1 and part 2 of the study, you are the head captain of a pirate ship traveling around the world to different islands. You will play a few different games throughout these two parts. Here is an overview of them:</p><br><p>Part 1 (today)</p><p>1. Instructions, practice game, and quiz</p><p>2. Pick a pirate game on 6 different islands</p><br><p>Part 2 (tomorrow)</p><p>3. Pick a pirate game and memory game</p><p>4. Where did you see this ship? </p></div>",,,,,,,,,,,,,,,,,,
,html-keyboard-response,3,50753,0.0-3.0,"""event"",""trial"",""time""
""fullscreenenter"",""0"",""3303""
","
","
","""event"",""trial"",""time""
""fullscreenenter"",""0"",""3303""
","
",1359.1,"<div class='center'><p>Welcome! This is the first part of the study. It will last ~30 minutes. In part 1 and part 2 of the study, you are the head captain of a pirate ship traveling around the world to different islands. You will play a few different games throughout these two parts. Here is an overview of them:</p><br><p>Part 1 (today)</p><p>1. Instructions, practice game, and quiz</p><p>2. Pick a pirate game on 6 different islands</p><br><p>Part 2 (tomorrow)</p><p>3. Pick a pirate game and memory game</p><p>4. Where did you see this ship? </p><p><b>[Press the space bar to continue]</b></p></div>",32,,,,,,,,,,,,,,,,,,,,,,,
,instruc2,4,56051,0.0-4.0,"""event"",""trial"",""time""
""fullscreenenter"",""0"",""3303""
","
","
","""event"",""trial"",""time""
""fullscreenenter"",""0"",""3303""
","
",null,run_exp/static/audio/clip_2_different_places.m4a,null,,,,,"<div class='center'><p>Today, you’ll visit these 6 islands on your journey. You'll be able to see these islands from your ship.</p><p><img src='run_exp/static/images/contexts/all_contexts.png' height='500'></p></div>",,,,,,,,,,,,,,,,,,
,html-keyboard-response,5,58418,0.0-5.0,"""event"",""trial"",""time""
""fullscreenenter"",""0"",""3303""
","
","
","""event"",""trial"",""time""
""fullscreenenter"",""0"",""3303""
","
",2364.8,"<div class='center'><p>Today, you’ll visit these 6 islands on your journey. You'll be able to see these islands from your ship.</p><p><img src='run_exp/static/images/contexts/all_contexts.png' height='500'></p><p><b>[Press the space bar to continue]</b></p></div>",32,,,,,,,,,,,,,,,,,,,,,,,
,instruc3,6,68090,0.0-6.0,"""event"",""trial"",""time""
""fullscreenenter"",""0"",""3303""
","
","
","""event"",""trial"",""time""
""fullscreenenter"",""0"",""3303""
","
",null,run_exp/static/audio/clip_3_goal_of_game_1.m4a,null,,,,,"<div class='center'><p> The pirates on your ship will rob other ships as they leave the island.</p> These ships have just sold their goods to the islanders, so they will be filled with lots and lots of gold.</p><p><img src='run_exp/static/images/tutorial/ship_center.png' height='400'></p></div>",,,,,,,,,,,,,,,,,,
,html-keyboard-response,7,69895,0.0-7.0,"""event"",""trial"",""time""
""fullscreenenter"",""0"",""3303""
","
","
","""event"",""trial"",""time""
""fullscreenenter"",""0"",""3303""
","
",1802.6,"<div class='center'><p> The pirates on your ship will rob other ships as they leave the island.</p> These ships have just sold their goods to the islanders, so they will be filled with lots and lots of gold.</p><p><img src='run_exp/static/images/tutorial/ship_center.png' height='400'></p><p><b>[Press the space bar to continue]</b></p></div>",32,,,,,,,,,,,,,,,,,,,,,,,
,instruc4,8,97870,0.0-8.0,"""event"",""trial"",""time""
""fullscreenenter"",""0"",""3303""
","
","
","""event"",""trial"",""time""
""fullscreenenter"",""0"",""3303""
","
",null,run_exp/static/audio/clip_4_goal_of_game_2.m4a,null,,,,,"<div class='center'><p>As the head captain, you do not have to rob any ships yourself. Another pirate will be doing the robbing for you. First, you will choose a pirate to rob the next ship.</p><p><img src='run_exp/static/images/tutorial/pirates_all_crop.png' height='200'></p><p>Then, you'll see if the pirate successfully robbed the ship of their gold. If they were successful, then you'll get a stack of gold coins like this:</p><p><img src='run_exp/static/images/tutorial/reward.png' height='150'></p><p> If they were <b>not</b> successful, then you'll get no gold coins, and you'll see a big red x like this: </p><p><img src='run_exp/static/images/tutorial/reward_no.png' height='150'></p><p> How much bonus money you make is based on how many gold coins you collect.</p><div>",,,,,,,,,,,,,,,,,,
,html-keyboard-response,9,98626,0.0-9.0,"""event"",""trial"",""time""
""fullscreenenter"",""0"",""3303""
","
","
","""event"",""trial"",""time""
""fullscreenenter"",""0"",""3303""
","
",754.5,"<div class='center'><p>As the head captain, you do not have to rob any ships yourself. Another pirate will be doing the robbing for you. First, you will choose a pirate to rob the next ship.</p><p><img src='run_exp/static/images/tutorial/pirates_all_crop.png' height='200'></p><p>Then, you'll see if the pirate successfully robbed the ship of their gold. If they were successful, then you'll get a stack of gold coins like this:</p><p><img src='run_exp/static/images/tutorial/reward.png' height='150'></p><p> If they were <b>not</b> successful, then you'll get no gold coins, and you'll see a big red x like this: </p><p><img src='run_exp/static/images/tutorial/reward_no.png' height='150'></p><p> How much bonus money you make is based on how many gold coins you collect.</p<p><b>[Press the space bar to continue]</b></p></div>",32,,,,,,,,,,,,,,,,,,,,,,,
,instruc5,10,120853,0.0-10.0,"""event"",""trial"",""time""
""fullscreenenter"",""0"",""3303""
","
","
","""event"",""trial"",""time""
""fullscreenenter"",""0"",""3303""
","
",22225.8,run_exp/static/audio/clip_5_probabilistic.m4a,49,,,,,"<div class='center'><p>Even the most skilled pirate can not rob EVERY ship.</p><p> Some ships will have very strong protections against pirate attacks.</p><p> Blue beard, here, is very, very good at robbing ships, but he won't be successful every time he tries to rob one.</p><p> You can press the <b>‘1’</b> key on the keyboard to choose him.</p><p> Try choosing him 10 times to see how often he succeeds at robbing a ship. </p><p><img src='run_exp/static/images/tutorial/blue.png' height='500'></p></div>",,,,,,,,,,,,,,,,,,
,html-keyboard-response,11,122370,0.0-11.0,"""event"",""trial"",""time""
""fullscreenenter"",""0"",""3303""
","
","
","""event"",""trial"",""time""
""fullscreenenter"",""0"",""3303""
","
",null,<div class='center'><p><img src='run_exp/static/images/tutorial/blue_win.png' height='500'></p></div>,null,,,,,,,,,,,,,,,,,,,,,,,
,html-keyboard-response,12,122549,0.0-12.0,"""event"",""trial"",""time""
""fullscreenenter"",""0"",""3303""
","
","
","""event"",""trial"",""time""
""fullscreenenter"",""0"",""3303""
","
",178,<div class='center'><img src='run_exp/static/images/tutorial/blue.png' height='500'></p></div>,49,,,,,,,,,,,,,,,,,,,,,,,
,html-keyboard-response,13,124055,0.0-13.0,"""event"",""trial"",""time""
""fullscreenenter"",""0"",""3303""
","
","
","""event"",""trial"",""time""
""fullscreenenter"",""0"",""3303""
","
",null,<div class='center'><p><img src='run_exp/static/images/tutorial/blue_win.png' height='500'></p></div>,null,,,,,,,,,,,,,,,,,,,,,,,
,html-keyboard-response,14,124868,0.0-14.0,"""event"",""trial"",""time""
""fullscreenenter"",""0"",""3303""
","
","
","""event"",""trial"",""time""
""fullscreenenter"",""0"",""3303""
","
",812.5,<div class='center'><img src='run_exp/static/images/tutorial/blue.png' height='500'></p></div>,49,,,,,,,,,,,,,,,,,,,,,,,
,html-keyboard-response,15,126374,0.0-15.0,"""event"",""trial"",""time""
""fullscreenenter"",""0"",""3303""
","
","
","""event"",""trial"",""time""
""fullscreenenter"",""0"",""3303""
","
",null,<div class='center'><p><img src='run_exp/static/images/tutorial/blue_win.png' height='500'></p></div>,null,,,,,,,,,,,,,,,,,,,,,,,
,html-keyboard-response,16,126777,0.0-16.0,"""event"",""trial"",""time""
""fullscreenenter"",""0"",""3303""
","
","
","""event"",""trial"",""time""
""fullscreenenter"",""0"",""3303""
","
",402.1,<div class='center'><img src='run_exp/static/images/tutorial/blue.png' height='500'></p></div>,49,,,,,,,,,,,,,,,,,,,,,,,
,html-keyboard-response,17,128285,0.0-17.0,"""event"",""trial"",""time""
""fullscreenenter"",""0"",""3303""
","
","
","""event"",""trial"",""time""
""fullscreenenter"",""0"",""3303""
","
",null,<div class='center'><p><img src='run_exp/static/images/tutorial/blue_no_win.png' height='500'></p></div>,null,,,,,,,,,,,,,,,,,,,,,,,
,html-keyboard-response,18,128889,0.0-18.0,"""event"",""trial"",""time""
""fullscreenenter"",""0"",""3303""
","
","
","""event"",""trial"",""time""
""fullscreenenter"",""0"",""3303""
","
",603.2,<div class='center'><img src='run_exp/static/images/tutorial/blue.png' height='500'></p></div>,49,,,,,,,,,,,,,,,,,,,,,,,
,html-keyboard-response,19,130398,0.0-19.0,"""event"",""trial"",""time""
""fullscreenenter"",""0"",""3303""
","
","
","""event"",""trial"",""time""
""fullscreenenter"",""0"",""3303""
","
",null,<div class='center'><p><img src='run_exp/static/images/tutorial/blue_win.png' height='500'></p></div>,null,,,,,,,,,,,,,,,,,,,,,,,
,html-keyboard-response,20,130959,0.0-20.0,"""event"",""trial"",""time""
""fullscreenenter"",""0"",""3303""
","
","
","""event"",""trial"",""time""
""fullscreenenter"",""0"",""3303""
","
",560.1,<div class='center'><img src='run_exp/static/images/tutorial/blue.png' height='500'></p></div>,49,,,,,,,,,,,,,,,,,,,,,,,
,html-keyboard-response,21,132471,0.0-21.0,"""event"",""trial"",""time""
""fullscreenenter"",""0"",""3303""
","
","
","""event"",""trial"",""time""
""fullscreenenter"",""0"",""3303""
","
",null,<div class='center'><p><img src='run_exp/static/images/tutorial/blue_win.png' height='500'></p></div>,null,,,,,,,,,,,,,,,,,,,,,,,
,html-keyboard-response,22,132914,0.0-22.0,"""event"",""trial"",""time""
""fullscreenenter"",""0"",""3303""
","
","
","""event"",""trial"",""time""
""fullscreenenter"",""0"",""3303""
","
",441.9,<div class='center'><img src='run_exp/static/images/tutorial/blue.png' height='500'></p></div>,49,,,,,,,,,,,,,,,,,,,,,,,
,html-keyboard-response,23,134428,0.0-23.0,"""event"",""trial"",""time""
""fullscreenenter"",""0"",""3303""
","
","
","""event"",""trial"",""time""
""fullscreenenter"",""0"",""3303""
","
",null,<div class='center'><p><img src='run_exp/static/images/tutorial/blue_win.png' height='500'></p></div>,null,,,,,,,,,,,,,,,,,,,,,,,
,html-keyboard-response,24,134709,0.0-24.0,"""event"",""trial"",""time""
""fullscreenenter"",""0"",""3303""
","
","
","""event"",""trial"",""time""
""fullscreenenter"",""0"",""3303""
","
",280.6,<div class='center'><img src='run_exp/static/images/tutorial/blue.png' height='500'></p></div>,49,,,,,,,,,,,,,,,,,,,,,,,
,html-keyboard-response,25,136213,0.0-25.0,"""event"",""trial"",""time""
""fullscreenenter"",""0"",""3303""
","
","
","""event"",""trial"",""time""
""fullscreenenter"",""0"",""3303""
","
",null,<div class='center'><p><img src='run_exp/static/images/tutorial/blue_no_win.png' height='500'></p></div>,null,,,,,,,,,,,,,,,,,,,,,,,
,html-keyboard-response,26,136894,0.0-26.0,"""event"",""trial"",""time""
""fullscreenenter"",""0"",""3303""
","
","
","""event"",""trial"",""time""
""fullscreenenter"",""0"",""3303""
","
",679.4,<div class='center'><img src='run_exp/static/images/tutorial/blue.png' height='500'></p></div>,49,,,,,,,,,,,,,,,,,,,,,,,
,html-keyboard-response,27,138409,0.0-27.0,"""event"",""trial"",""time""
""fullscreenenter"",""0"",""3303""
","
","
","""event"",""trial"",""time""
""fullscreenenter"",""0"",""3303""
","
",null,<div class='center'><p><img src='run_exp/static/images/tutorial/blue_win.png' height='500'></p></div>,null,,,,,,,,,,,,,,,,,,,,,,,
,html-keyboard-response,28,139145,0.0-28.0,"""event"",""trial"",""time""
""fullscreenenter"",""0"",""3303""
","
","
","""event"",""trial"",""time""
""fullscreenenter"",""0"",""3303""
","
",735.3,<div class='center'><img src='run_exp/static/images/tutorial/blue.png' height='500'></p></div>,49,,,,,,,,,,,,,,,,,,,,,,,
,html-keyboard-response,29,140650,0.0-29.0,"""event"",""trial"",""time""
""fullscreenenter"",""0"",""3303""
","
","
","""event"",""trial"",""time""
""fullscreenenter"",""0"",""3303""
","
",null,<div class='center'><p><img src='run_exp/static/images/tutorial/blue_win.png' height='500'></p></div>,null,,,,,,,,,,,,,,,,,,,,,,,
,instruc6,30,146040,0.0-30.0,"""event"",""trial"",""time""
""fullscreenenter"",""0"",""3303""
","
","
","""event"",""trial"",""time""
""fullscreenenter"",""0"",""3303""
","
",null,run_exp/static/audio/clip_6_blue_beard_outcome.m4a,null,,,,,"<div class='center'><p> See, he succeeded in robbing the ships most of the time but not every time. </p></div>",,,,,,,,,,,,,,,,,,
,html-keyboard-response,31,146628,0.0-31.0,"""event"",""trial"",""time""
""fullscreenenter"",""0"",""3303""
","
","
","""event"",""trial"",""time""
""fullscreenenter"",""0"",""3303""
","
",587.1,"<div class='center'><p> See, he succeeded in robbing the ships most of the time but not every time. </p><p><b>[Press the space bar to continue]</b></p></div>",32,,,,,,,,,,,,,,,,,,,,,,,
,audio-keyboard-response,32,163413,0.0-32.0,"""event"",""trial"",""time""
""fullscreenenter"",""0"",""3303""
","
","
","""event"",""trial"",""time""
""fullscreenenter"",""0"",""3303""
","
",16783.3,run_exp/static/audio/clip_7_pick_pirate.m4a,49,,,,,,,,,,,,,,,,,,,,,,,
,audio-keyboard-response,33,168720,0.0-33.0-0.0,"""event"",""trial"",""time""
""fullscreenenter"",""0"",""3303""
","
","
","""event"",""trial"",""time""
""fullscreenenter"",""0"",""3303""
","
",5304.5,run_exp/static/audio/clip_8_chosen_pirate_win.m4a,32,,,,,,,,,,,,,,,,,,,,,,,
,audio-keyboard-response,34,171569,0.0-33.0-1.0,"""event"",""trial"",""time""
""fullscreenenter"",""0"",""3303""
","
","
","""event"",""trial"",""time""
""fullscreenenter"",""0"",""3303""
","
",2847.2,run_exp/static/audio/clip_9_pick_a_pirate_again.m4a,50,,,,,,,,,,,,,,,,,,,,,,,
,audio-keyboard-response,35,176740,0.0-34.0-0.0,"""event"",""trial"",""time""
""fullscreenenter"",""0"",""3303""
","
","
","""event"",""trial"",""time""
""fullscreenenter"",""0"",""3303""
","
",5168.2,run_exp/static/audio/clip_10_chosen_pirate_loss.m4a,32,,,,,,,,,,,,,,,,,,,,,,,
,instruc9,36,182221,0.0-35.0-0.0,"""event"",""trial"",""time""
""fullscreenenter"",""0"",""3303""
","
","
","""event"",""trial"",""time""
""fullscreenenter"",""0"",""3303""
","
",null,run_exp/static/audio/clip_11_time_out.m4a,null,,,,,"<div class='center'><p>If you don’t make your choice fast enough, you’ll have to wait a few seconds before you can make another one. </p><p><img src='run_exp/static/images/miscellaneous/hurry_up.png' height='500'></p></div>",,,,,,,,,,,,,,,,,,
,html-keyboard-response,37,183874,0.0-35.0-1.0,"""event"",""trial"",""time""
""fullscreenenter"",""0"",""3303""
","
","
","""event"",""trial"",""time""
""fullscreenenter"",""0"",""3303""
","
",1652,"<div class='center'><p>If you don’t make your choice fast enough, you’ll have to wait a few seconds before you can make another one. </p><p><img src='run_exp/static/images/miscellaneous/hurry_up.png' height='500'></p><p><b>[Press the space bar to continue]</b></p></div>",32,,,,,,,,,,,,,,,,,,,,,,,
,instruc10,38,222960,0.0-35.0-2.0,"""event"",""trial"",""time""
""fullscreenenter"",""0"",""3303""
","
","
","""event"",""trial"",""time""
""fullscreenenter"",""0"",""3303""
","
",null,run_exp/static/audio/clip_12_probe.m4a,null,,,,,"<div class='center'><p>Once you've chosen a pirate, you’ll be shown the ship they are robbing. You will never rob the same ship twice. Ships can be told apart from one another by the image on them. These are the goods that they sell. See, this ship has a travel mug on it. </p><p> You’ll have to remember which island you saw each ship on. You will win more gold coins and hence more bonus money if you remember correctly! To help you remember, you can imagine a story. For example, here, you could imagine a mug full of water in the desert. Or, as another example, if on the forest island, your pirate robbed a ship with an apple on it, you could imagine an apple falling from a tree in the forest. </p><p><img src='run_exp/static/images/tutorial/example_probe.png' height='500'></p></div>",,,,,,,,,,,,,,,,,,
,html-keyboard-response,39,224520,0.0-35.0-3.0,"""event"",""trial"",""time""
""fullscreenenter"",""0"",""3303""
","
","
","""event"",""trial"",""time""
""fullscreenenter"",""0"",""3303""
","
",1559.2,"<div class='center'><p>Once you've chosen a pirate, you’ll be shown the ship they are robbing. You will never rob the same ship twice. Ships can be told apart from one another by the image on them. These are the goods that they sell. See, this ship has a travel mug on it. </p><p> You’ll have to remember which island you saw each ship on. You will win more gold coins and hence more bonus money if you remember correctly! To help you remember, you can imagine a story. For example, here, you could imagine a mug full of water in the desert. Or, as another example, if on the forest island, your pirate robbed a ship with an apple on it, you could imagine an apple falling from a tree in the forest. </p><p><img src='run_exp/static/images/tutorial/example_probe.png' height='500'></p><p><b>[Press the space bar to continue]</b></p></div>",32,,,,,,,,,,,,,,,,,,,,,,,
,instruc11,40,240921,0.0-35.0-4.0,"""event"",""trial"",""time""
""fullscreenenter"",""0"",""3303""
","
","
","""event"",""trial"",""time""
""fullscreenenter"",""0"",""3303""
","
",null,run_exp/static/audio/clip_13_changepoint.m4a,null,,,,,"<div class='center'><p>How successful a pirate is at robbing ships will depend on the island you’re on.</p><p> A pirate may have visited this island many times before and gained a lot of practice robbing ships there.</p><p>So, they’re more likely to be successful than a pirate who has never visited the island before.</p></div>",,,,,,,,,,,,,,,,,,
,html-keyboard-response,41,241731,0.0-35.0-5.0,"""event"",""trial"",""time""
""fullscreenenter"",""0"",""3303""
","
","
","""event"",""trial"",""time""
""fullscreenenter"",""0"",""3303""
","
",809,"<div class='center'><p>How successful a pirate is at robbing ships will depend on the island you’re on.</p><p> A pirate may have visited this island many times before and gained a lot of practice robbing ships there.</p><p>So, they’re more likely to be successful than a pirate who has never visited the island before.</p><p><b>[Press the space bar to continue]</b></p></div>",32,,,,,,,,,,,,,,,,,,,,,,,
,instruc12,42,282820,0.0-35.0-6.0,"""event"",""trial"",""time""
""fullscreenenter"",""0"",""3303""
","
","
","""event"",""trial"",""time""
""fullscreenenter"",""0"",""3303""
","
",null,run_exp/static/audio/clip_14_drift.m4a,null,,,,,"<div class='center'><p>How successful a pirate is at robbing ships can also change over the time spent on the island. </p><p> Ships may hear from islanders about the pirates coming and will improve their protections against the attack. This may make it harder to rob them.</p><p> Ships may also become lazy and weaken the strength of their protections. This may make it easier to rob them.</p><br><p>Things are always changing on the high seas! So, try your best to pay attention!</p><p><img src='run_exp/static/images/tutorial/contingency.png' height='500'></p></div>",,,,,,,,,,,,,,,,,,
,html-keyboard-response,43,285946,0.0-35.0-7.0,"""event"",""trial"",""time""
""fullscreenenter"",""0"",""3303""
","
","
","""event"",""trial"",""time""
""fullscreenenter"",""0"",""3303""
","
",3124.8,"<div class='center'><p>How successful a pirate is at robbing ships can also change over the time spent on the island. </p><p> Ships may hear from islanders about the pirates coming and will improve their protections against the attack. This may make it harder to rob them.</p><p> Ships may also become lazy and weaken the strength of their protections. This may make it easier to rob them.</p><br><p>Things are always changing on the high seas! So, try your best to pay attention!</p><p><img src='run_exp/static/images/tutorial/contingency.png' height='500'></p><p><b>[Press the space bar to continue]</b></p></div>",32,,,,,,,,,,,,,,,,,,,,,,,
,instruc13,44,321121,0.0-35.0-8.0,"""event"",""trial"",""time""
""fullscreenenter"",""0"",""3303""
","
","
","""event"",""trial"",""time""
""fullscreenenter"",""0"",""3303""
","
",null,run_exp/static/audio/clip_15_summary.m4a,null,,,,,"<div class='center'><p>Let's go over the instructions quickly again. You have two important things to do: </p><b><p> 1. Pick the pirate who is the best at robbing ships on the current island. </p></b><b><p> 2. Remember on which island a ship was robbed.</p> </b><p>The amount of bonus money you can win depends on both.</p><p><br><p>Let’s try a practice game. The game will start by showing you the pirates. First, pick a pirate using the <b> 1, 2, 3 </b> keys on your keyboard. When you are shown a ship, try to remember which island you’re on by making up a story.</p><p>This is just a practice game, so you’re not playing for money. </p><p> Good luck! This game will be very difficult but try your best!</p></div>",,,,,,,,,,,,,,,,,,
,html-keyboard-response,45,322247,0.0-35.0-9.0,"""event"",""trial"",""time""
""fullscreenenter"",""0"",""3303""
","
","
","""event"",""trial"",""time""
""fullscreenenter"",""0"",""3303""
","
",1124.5,"<div class='center'><p>Let's go over the instructions quickly again. You have two important things to do: </p><b><p> 1. Pick the pirate who is the best at robbing ships on the current island. </p></b><b><p> 2. Remember on which island a ship was robbed.</p> </b><p>The amount of bonus money you can win depends on both.</p><p><br><p>Let’s try a practice game. The game will start by showing you the pirates. First, pick a pirate using the <b> 1, 2, 3 </b> keys on your keyboard. When you are shown a ship, try to remember which island you’re on by making up a story.</p><p>This is just a practice game, so you’re not playing for money. </p><p> Good luck! This game will be very difficult but try your best!</p><p><b>[Press the space bar to continue]</b></p></div>",32,,,,,,,,,,,,,,,,,,,,,,,
,do_welcome,46,326266,0.0-35.0-10.0,"""event"",""trial"",""time""
""fullscreenenter"",""0"",""3303""
","
","
","""event"",""trial"",""time""
""fullscreenenter"",""0"",""3303""
","
",null,,,,,,,,null,,,,,,,,,,,,,,,,,
,do_trial,47,333764,0.0-35.0-11.0,"""event"",""trial"",""time""
""fullscreenenter"",""0"",""3303""
","
","
","""event"",""trial"",""time""
""fullscreenenter"",""0"",""3303""
","
",2976,,,,,,,,49,"1,0,0",,,,,,,,,,,,,,,,
,html-keyboard-response,48,334776,0.0-36.0-0.0,"""event"",""trial"",""time""
""fullscreenenter"",""0"",""3303""
","
","
","""event"",""trial"",""time""
""fullscreenenter"",""0"",""3303""
","
",null,<p></p>,null,,,,,,,,,,,,,,,,,,,,,,,
,do_trial,49,341021,0.0-36.0-1.0,"""event"",""trial"",""time""
""fullscreenenter"",""0"",""3303""
","
","
","""event"",""trial"",""time""
""fullscreenenter"",""0"",""3303""
","
",1722.4,,,,,,,,50,"1,1,0",,,,,,,,,,,,,,,,
,html-keyboard-response,50,342030,0.0-37.0-0.0,"""event"",""trial"",""time""
""fullscreenenter"",""0"",""3303""
","
","
","""event"",""trial"",""time""
""fullscreenenter"",""0"",""3303""
","
",null,<p></p>,null,,,,,,,,,,,,,,,,,,,,,,,
,do_trial,51,347923,0.0-37.0-1.0,"""event"",""trial"",""time""
""fullscreenenter"",""0"",""3303""
","
","
","""event"",""trial"",""time""
""fullscreenenter"",""0"",""3303""
","
",1375.3,,,,,,,,51,"1,0,1",,,,,,,,,,,,,,,,
,html-keyboard-response,52,348928,0.0-38.0-0.0,"""event"",""trial"",""time""
""fullscreenenter"",""0"",""3303""
","
","
","""event"",""trial"",""time""
""fullscreenenter"",""0"",""3303""
","
",null,<p></p>,null,,,,,,,,,,,,,,,,,,,,,,,
,do_trial,53,356059,0.0-38.0-1.0,"""event"",""trial"",""time""
""fullscreenenter"",""0"",""3303""
","
","
","""event"",""trial"",""time""
""fullscreenenter"",""0"",""3303""
","
",2611.9,,,,,,,,49,"0,1,0",,,,,,,,,,,,,,,,
,html-keyboard-response,54,357067,0.0-39.0-0.0,"""event"",""trial"",""time""
""fullscreenenter"",""0"",""3303""
","
","
","""event"",""trial"",""time""
""fullscreenenter"",""0"",""3303""
","
",null,<p></p>,null,,,,,,,,,,,,,,,,,,,,,,,
,do_trial,55,362352,0.0-39.0-1.0,"""event"",""trial"",""time""
""fullscreenenter"",""0"",""3303""
","
","
","""event"",""trial"",""time""
""fullscreenenter"",""0"",""3303""
","
",768.7,,,,,,,,50,"1,0,0",,,,,,,,,,,,,,,,
,do_bye,56,363870,0.0-40.0-0.0,"""event"",""trial"",""time""
""fullscreenenter"",""0"",""3303""
","
","
","""event"",""trial"",""time""
""fullscreenenter"",""0"",""3303""
","
",null,,,,,,,,null,,,,,,,,,,,,,,,,,
,do_travel,57,372881,0.0-40.0-1.0,"""event"",""trial"",""time""
""fullscreenenter"",""0"",""3303""
","
","
","""event"",""trial"",""time""
""fullscreenenter"",""0"",""3303""
","
",null,,,,,,,,null,,,,,,,,,,,,,,,,,
,do_welcome,58,376893,0.0-40.0-2.0,"""event"",""trial"",""time""
""fullscreenenter"",""0"",""3303""
","
","
","""event"",""trial"",""time""
""fullscreenenter"",""0"",""3303""
","
",null,,,,,,,,null,,,,,,,,,,,,,,,,,
,do_trial,59,382819,0.0-40.0-3.0,"""event"",""trial"",""time""
""fullscreenenter"",""0"",""3303""
","
","
","""event"",""trial"",""time""
""fullscreenenter"",""0"",""3303""
","
",1412.5,,,,,,,,49,"1,0,0",,,,,,,,,,,,,,,,
,html-keyboard-response,60,383825,0.0-41.0-0.0,"""event"",""trial"",""time""
""fullscreenenter"",""0"",""3303""
","
","
","""event"",""trial"",""time""
""fullscreenenter"",""0"",""3303""
","
",null,<p></p>,null,,,,,,,,,,,,,,,,,,,,,,,
,do_trial,61,389043,0.0-41.0-1.0,"""event"",""trial"",""time""
""fullscreenenter"",""0"",""3303""
","
","
","""event"",""trial"",""time""
""fullscreenenter"",""0"",""3303""
","
",699.8,,,,,,,,50,"1,0,1",,,,,,,,,,,,,,,,
,html-keyboard-response,62,390051,0.0-42.0-0.0,"""event"",""trial"",""time""
""fullscreenenter"",""0"",""3303""
","
","
","""event"",""trial"",""time""
""fullscreenenter"",""0"",""3303""
","
",null,<p></p>,null,,,,,,,,,,,,,,,,,,,,,,,
,do_trial,63,395307,0.0-42.0-1.0,"""event"",""trial"",""time""
""fullscreenenter"",""0"",""3303""
","
","
","""event"",""trial"",""time""
""fullscreenenter"",""0"",""3303""
","
",749,,,,,,,,51,"1,1,0",,,,,,,,,,,,,,,,
,html-keyboard-response,64,396321,0.0-43.0-0.0,"""event"",""trial"",""time""
""fullscreenenter"",""0"",""3303""
","
","
","""event"",""trial"",""time""
""fullscreenenter"",""0"",""3303""
","
",null,<p></p>,null,,,,,,,,,,,,,,,,,,,,,,,
,do_trial,65,401281,0.0-43.0-1.0,"""event"",""trial"",""time""
""fullscreenenter"",""0"",""3303""
","
","
","""event"",""trial"",""time""
""fullscreenenter"",""0"",""3303""
","
",440.1,,,,,,,,49,"0,0,1",,,,,,,,,,,,,,,,
,html-keyboard-response,66,402293,0.0-44.0-0.0,"""event"",""trial"",""time""
""fullscreenenter"",""0"",""3303""
","
","
","""event"",""trial"",""time""
""fullscreenenter"",""0"",""3303""
","
",null,<p></p>,null,,,,,,,,,,,,,,,,,,,,,,,
,do_trial,67,407768,0.0-44.0-1.0,"""event"",""trial"",""time""
""fullscreenenter"",""0"",""3303""
","
","
","""event"",""trial"",""time""
""fullscreenenter"",""0"",""3303""
","
",955.4,,,,,,,,50,"1,0,1",,,,,,,,,,,,,,,,
,html-keyboard-response,68,411863,0.0-45.0-0.0,"""event"",""trial"",""time""
""fullscreenenter"",""0"",""3303""
","
","
","""event"",""trial"",""time""
""fullscreenenter"",""0"",""3303""
","
",4092.5,<div class='center'><p><img src='run_exp/static/images/tutorial/prac_best_pirate.png'  height='500'></p></div>,49,,,,,,,,,,,,,,,,,,,,,,,
,html-keyboard-response,69,414192,0.0-46.0-0.0,"""event"",""trial"",""time""
""fullscreenenter"",""0"",""3303""
","
","
","""event"",""trial"",""time""
""fullscreenenter"",""0"",""3303""
","
",2328.3,<div class='center'><p>That's correct! Red beard was the best.</p><p><b>[Press the space bar to continue]</b></p></div>,32,,,,,,,,,,,,,,,,,,,,,,,
,html-keyboard-response,70,417588,0.0-46.0-1.0,"""event"",""trial"",""time""
""fullscreenenter"",""0"",""3303""
","
","
","""event"",""trial"",""time""
""fullscreenenter"",""0"",""3303""
","
",3394.4,<div class='center'><p><img src='run_exp/static/images/tutorial/prac_source.png'  height='500'></p></div>,49,,,,,,,,,,,,,,,,,,,,,,,
,html-keyboard-response,71,419294,0.0-47.0-0.0,"""event"",""trial"",""time""
""fullscreenenter"",""0"",""3303""
","
","
","""event"",""trial"",""time""
""fullscreenenter"",""0"",""3303""
","
",1705.1,<div class='center'><p>That's incorrect! You saw this ship on the cavern island</p><p><b>[Press the space bar to continue]</b></p></div>,32,,,,,,,,,,,,,,,,,,,,,,,
,quiz_beginning,72,430481,0.0-47.0-1.0,"""event"",""trial"",""time""
""fullscreenenter"",""0"",""3303""
","
","
","""event"",""trial"",""time""
""fullscreenenter"",""0"",""3303""
","
",null,run_exp/static/audio/clip_16_quiz_intro.m4a,null,,,,,"<div class='center'><p>Good job on the practice game! Now, you will be asked some true or false questions to make sure you really understand the rules of the game.</p><p> Press <b>'1'</b> on the keyboard for true and press <b>'2'</b> for false.</p></div>",,,,,,,,,,,,,,,,,,
,audio-keyboard-response,73,433600,0.0-47.0-2.0,"""event"",""trial"",""time""
""fullscreenenter"",""0"",""3303""
","
","
","""event"",""trial"",""time""
""fullscreenenter"",""0"",""3303""
","
",3118.3,run_exp/static/audio/clip_17_q1.m4a,50,,,,,,,,,,,,,,,,,,,,,,,
,q1_err,74,438481,0.0-48.0-0.0,"""event"",""trial"",""time""
""fullscreenenter"",""0"",""3303""
","
","
","""event"",""trial"",""time""
""fullscreenenter"",""0"",""3303""
","
",null,run_exp/static/audio/clip_19_wrong_q1.m4a,null,,,,,<div class='center'><p>That’s incorrect. You win bonus money by collecting gold coins.</p></div>,,,,,,,,,,,,,,,,,,
,html-keyboard-response,75,439647,0.0-48.0-1.0,"""event"",""trial"",""time""
""fullscreenenter"",""0"",""3303""
","
","
","""event"",""trial"",""time""
""fullscreenenter"",""0"",""3303""
","
",1164.8,<div class='center'><p>That’s incorrect. You win bonus money by collecting gold coins.</p><p><b>[Press the space bar to continue]</b></p></div>,32,,,,,,,,,,,,,,,,,,,,,,,
,audio-keyboard-response,76,444552,0.0-48.0-2.0,"""event"",""trial"",""time""
""fullscreenenter"",""0"",""3303""
","
","
","""event"",""trial"",""time""
""fullscreenenter"",""0"",""3303""
","
",4904.3,run_exp/static/audio/clip_20_q2.m4a,50,,,,,,,,,,,,,,,,,,,,,,,
,correct,77,446960,0.0-49.0-0.0,"""event"",""trial"",""time""
""fullscreenenter"",""0"",""3303""
","
","
","""event"",""trial"",""time""
""fullscreenenter"",""0"",""3303""
","
",null,run_exp/static/audio/clip_18_correct.m4a,null,,,,,<div class='center'><p>That's correct!</p></div>,,,,,,,,,,,,,,,,,,
,html-keyboard-response,78,447552,0.0-49.0-1.0,"""event"",""trial"",""time""
""fullscreenenter"",""0"",""3303""
","
","
","""event"",""trial"",""time""
""fullscreenenter"",""0"",""3303""
","
",590.8,<div class='center'><p>That's correct!</p><p><b>[Press the space bar to continue]</b></p></div>,32,,,,,,,,,,,,,,,,,,,,,,,
,audio-keyboard-response,79,454806,0.0-49.0-2.0,"""event"",""trial"",""time""
""fullscreenenter"",""0"",""3303""
","
","
","""event"",""trial"",""time""
""fullscreenenter"",""0"",""3303""
","
",7253,run_exp/static/audio/clip_22_q3.m4a,50,,,,,,,,,,,,,,,,,,,,,,,
,correct,80,457200,0.0-50.0-0.0,"""event"",""trial"",""time""
""fullscreenenter"",""0"",""3303""
","
","
","""event"",""trial"",""time""
""fullscreenenter"",""0"",""3303""
","
",null,run_exp/static/audio/clip_18_correct.m4a,null,,,,,<div class='center'><p>That's correct!</p></div>,,,,,,,,,,,,,,,,,,
,html-keyboard-response,81,457851,0.0-50.0-1.0,"""event"",""trial"",""time""
""fullscreenenter"",""0"",""3303""
","
","
","""event"",""trial"",""time""
""fullscreenenter"",""0"",""3303""
","
",649.8,<div class='center'><p>That's correct!</p><p><b>[Press the space bar to continue]</b></p></div>,32,,,,,,,,,,,,,,,,,,,,,,,
,audio-keyboard-response,82,462262,0.0-50.0-2.0,"""event"",""trial"",""time""
""fullscreenenter"",""0"",""3303""
","
","
","""event"",""trial"",""time""
""fullscreenenter"",""0"",""3303""
","
",4410.4,run_exp/static/audio/clip_24_q4.m4a,49,,,,,,,,,,,,,,,,,,,,,,,
,correct,83,464660,0.0-51.0-0.0,"""event"",""trial"",""time""
""fullscreenenter"",""0"",""3303""
","
","
","""event"",""trial"",""time""
""fullscreenenter"",""0"",""3303""
","
",null,run_exp/static/audio/clip_18_correct.m4a,null,,,,,<div class='center'><p>That's correct!</p></div>,,,,,,,,,,,,,,,,,,
,html-keyboard-response,84,465100,0.0-51.0-1.0,"""event"",""trial"",""time""
""fullscreenenter"",""0"",""3303""
","
","
","""event"",""trial"",""time""
""fullscreenenter"",""0"",""3303""
","
",438.4,<div class='center'><p>That's correct!</p><p><b>[Press the space bar to continue]</b></p></div>,32,,,,,,,,,,,,,,,,,,,,,,,
,q_all_err,85,471281,0.0-52.0-0.0,"""event"",""trial"",""time""
""fullscreenenter"",""0"",""3303""
","
","
","""event"",""trial"",""time""
""fullscreenenter"",""0"",""3303""
","
",null,run_exp/static/audio/clip_26_quiz_redo.m4a,null,,,,,"<div class='center'><p>Oops, you missed some questions. Now that you’ve heard the correct answers. Try the quiz again! </p></div>",,,,,,,,,,,,,,,,,,
,html-keyboard-response,86,471998,0.0-52.0-1.0,"""event"",""trial"",""time""
""fullscreenenter"",""0"",""3303""
","
","
","""event"",""trial"",""time""
""fullscreenenter"",""0"",""3303""
","
",716.2,"<div class='center'><p>Oops, you missed some questions. Now that you’ve heard the correct answers. Try the quiz again! </p><p><b>[Press the space bar to continue]</b></p></div>",32,,,,,,,,,,,,,,,,,,,,,,,
,audio-keyboard-response,87,473566,0.0-52.0-2.0,"""event"",""trial"",""time""
""fullscreenenter"",""0"",""3303""
","
","
","""event"",""trial"",""time""
""fullscreenenter"",""0"",""3303""
","
",1567.2,run_exp/static/audio/clip_17_q1.m4a,49,,,,,,,,,,,,,,,,,,,,,,,
,correct,88,475960,0.0-53.0-0.0,"""event"",""trial"",""time""
""fullscreenenter"",""0"",""3303""
","
","
","""event"",""trial"",""time""
""fullscreenenter"",""0"",""3303""
","
",null,run_exp/static/audio/clip_18_correct.m4a,null,,,,,<div class='center'><p>That's correct!</p></div>,,,,,,,,,,,,,,,,,,
,html-keyboard-response,89,476357,0.0-53.0-1.0,"""event"",""trial"",""time""
""fullscreenenter"",""0"",""3303""
","
","
","""event"",""trial"",""time""
""fullscreenenter"",""0"",""3303""
","
",396.2,<div class='center'><p>That's correct!</p><p><b>[Press the space bar to continue]</b></p></div>,32,,,,,,,,,,,,,,,,,,,,,,,
,audio-keyboard-response,90,480886,0.0-53.0-2.0,"""event"",""trial"",""time""
""fullscreenenter"",""0"",""3303""
","
","
","""event"",""trial"",""time""
""fullscreenenter"",""0"",""3303""
","
",4527.7,run_exp/static/audio/clip_20_q2.m4a,50,,,,,,,,,,,,,,,,,,,,,,,
,correct,91,483281,0.0-54.0-0.0,"""event"",""trial"",""time""
""fullscreenenter"",""0"",""3303""
","
","
","""event"",""trial"",""time""
""fullscreenenter"",""0"",""3303""
","
",null,run_exp/static/audio/clip_18_correct.m4a,null,,,,,<div class='center'><p>That's correct!</p></div>,,,,,,,,,,,,,,,,,,
,html-keyboard-response,92,483550,0.0-54.0-1.0,"""event"",""trial"",""time""
""fullscreenenter"",""0"",""3303""
","
","
","""event"",""trial"",""time""
""fullscreenenter"",""0"",""3303""
","
",268.9,<div class='center'><p>That's correct!</p><p><b>[Press the space bar to continue]</b></p></div>,32,,,,,,,,,,,,,,,,,,,,,,,
,audio-keyboard-response,93,486613,0.0-54.0-2.0,"""event"",""trial"",""time""
""fullscreenenter"",""0"",""3303""
","
","
","""event"",""trial"",""time""
""fullscreenenter"",""0"",""3303""
","
",3061.8,run_exp/static/audio/clip_22_q3.m4a,50,,,,,,,,,,,,,,,,,,,,,,,
,correct,94,489001,0.0-55.0-0.0,"""event"",""trial"",""time""
""fullscreenenter"",""0"",""3303""
","
","
","""event"",""trial"",""time""
""fullscreenenter"",""0"",""3303""
","
",null,run_exp/static/audio/clip_18_correct.m4a,null,,,,,<div class='center'><p>That's correct!</p></div>,,,,,,,,,,,,,,,,,,
,html-keyboard-response,95,489377,0.0-55.0-1.0,"""event"",""trial"",""time""
""fullscreenenter"",""0"",""3303""
","
","
","""event"",""trial"",""time""
""fullscreenenter"",""0"",""3303""
","
",375.5,<div class='center'><p>That's correct!</p><p><b>[Press the space bar to continue]</b></p></div>,32,,,,,,,,,,,,,,,,,,,,,,,
,audio-keyboard-response,96,491226,0.0-55.0-2.0,"""event"",""trial"",""time""
""fullscreenenter"",""0"",""3303""
","
","
","""event"",""trial"",""time""
""fullscreenenter"",""0"",""3303""
","
",1848,run_exp/static/audio/clip_24_q4.m4a,49,,,,,,,,,,,,,,,,,,,,,,,
,correct,97,493661,0.0-56.0-0.0,"""event"",""trial"",""time""
""fullscreenenter"",""0"",""3303""
","
","
","""event"",""trial"",""time""
""fullscreenenter"",""0"",""3303""
","
",null,run_exp/static/audio/clip_18_correct.m4a,null,,,,,<div class='center'><p>That's correct!</p></div>,,,,,,,,,,,,,,,,,,
,html-keyboard-response,98,494064,0.0-56.0-1.0,"""event"",""trial"",""time""
""fullscreenenter"",""0"",""3303""
","
","
","""event"",""trial"",""time""
""fullscreenenter"",""0"",""3303""
","
",401.9,<div class='center'><p>That's correct!</p><p><b>[Press the space bar to continue]</b></p></div>,32,,,,,,,,,,,,,,,,,,,,,,,
,q_all_corr,99,502541,0.0-57.0-0.0,"""event"",""trial"",""time""
""fullscreenenter"",""0"",""3303""
","
","
","""event"",""trial"",""time""
""fullscreenenter"",""0"",""3303""
","
",null,run_exp/static/audio/clip_27_quiz_all_correct.m4a,null,,,,,<div class='center'><p>Good job! You’re now ready to move on to the real game! Remember this game will be difficult but don't get discouraged and try your best!</p></div>,,,,,,,,,,,,,,,,,,
,html-keyboard-response,100,503707,0.0-57.0-1.0,"""event"",""trial"",""time""
""fullscreenenter"",""0"",""3303""
","
","
","""event"",""trial"",""time""
""fullscreenenter"",""0"",""3303""
","
",1165.1,<div class='center'><p>Good job! You’re now ready to move on to the real game! Remember this game will be difficult but don't get discouraged and try your best!</p><p><b>[Press the space bar to continue]</b></p></div>,32,,,,,,,,,,,,,,,,,,,,,,,
,do_welcome,101,507713,0.0-58.0-0.0,"""event"",""trial"",""time""
""fullscreenenter"",""0"",""3303""
","
","
","""event"",""trial"",""time""
""fullscreenenter"",""0"",""3303""
","
",null,,,,,,,,null,,,,,,,,,,,,,,,,,
,do_trial,102,513776,0.0-59.0-0.0,"""event"",""trial"",""time""
""fullscreenenter"",""0"",""3303""
","
","
","""event"",""trial"",""time""
""fullscreenenter"",""0"",""3303""
","
",null,,,,,,,,null,"1,1,0",0,city,0,probe-124,0.6,0.3,0.1,,,,,,,,,
,html-keyboard-response,103,514786,0.0-59.0-1.0,"""event"",""trial"",""time""
""fullscreenenter"",""0"",""3303""
","
","
","""event"",""trial"",""time""
""fullscreenenter"",""0"",""3303""
","
",null,<p></p>,null,,,,,,,,,,,,,,,,,,,,,,,
,do_trial,104,520020,0.0-60.0-0.0,"""event"",""trial"",""time""
""fullscreenenter"",""0"",""3303""
","
","
","""event"",""trial"",""time""
""fullscreenenter"",""0"",""3303""
","
",696.7,,,,,,,,49,"0,1,0",0,city,1,probe-72,0.561846092,0.265167409,0.101376804,0,,,,,,,,
,html-keyboard-response,105,521028,0.0-60.0-1.0,"""event"",""trial"",""time""
""fullscreenenter"",""0"",""3303""
","
","
","""event"",""trial"",""time""
""fullscreenenter"",""0"",""3303""
","
",null,<p></p>,null,,,,,,,,,,,,,,,,,,,,,,,
,do_trial,106,526455,0.0-61.0-0.0,"""event"",""trial"",""time""
""fullscreenenter"",""0"",""3303""
","
","
","""event"",""trial"",""time""
""fullscreenenter"",""0"",""3303""
","
",894.4,,,,,,,,50,"1,0,1",0,city,2,probe-08,0.781771334,0.322194577,0.218905016,0,,,,,,,,
,html-keyboard-response,107,527462,0.0-61.0-1.0,"""event"",""trial"",""time""
""fullscreenenter"",""0"",""3303""
","
","
","""event"",""trial"",""time""
""fullscreenenter"",""0"",""3303""
","
",null,<p></p>,null,,,,,,,,,,,,,,,,,,,,,,,
,do_trial,108,532899,0.0-62.0-0.0,"""event"",""trial"",""time""
""fullscreenenter"",""0"",""3303""
","
","
","""event"",""trial"",""time""
""fullscreenenter"",""0"",""3303""
","
",895.5,,,,,,,,51,"0,0,1",0,city,3,probe-162,0.709437267,0.399058815,0.231720411,1,,,,,,,,
,html-keyboard-response,109,533910,0.0-62.0-1.0,"""event"",""trial"",""time""
""fullscreenenter"",""0"",""3303""
","
","
","""event"",""trial"",""time""
""fullscreenenter"",""0"",""3303""
","
",null,<p></p>,null,,,,,,,,,,,,,,,,,,,,,,,
,do_trial,110,538995,0.0-63.0-0.0,"""event"",""trial"",""time""
""fullscreenenter"",""0"",""3303""
","
","
","""event"",""trial"",""time""
""fullscreenenter"",""0"",""3303""
","
",544.7,,,,,,,,51,"1,0,0",0,city,4,probe-175,0.786885892,0.463082424,0.159140393,0,,,,,,,,
,html-keyboard-response,111,540002,0.0-63.0-1.0,"""event"",""trial"",""time""
""fullscreenenter"",""0"",""3303""
","
","
","""event"",""trial"",""time""
""fullscreenenter"",""0"",""3303""
","
",null,<p></p>,null,,,,,,,,,,,,,,,,,,,,,,,
,do_trial,112,545215,0.0-64.0-0.0,"""event"",""trial"",""time""
""fullscreenenter"",""0"",""3303""
","
","
","""event"",""trial"",""time""
""fullscreenenter"",""0"",""3303""
","
",667.8,,,,,,,,51,"0,1,0",0,city,5,probe-71,0.691811334,0.397689476,0.287021034,0,,,,,,,,
,html-keyboard-response,113,546223,0.0-64.0-1.0,"""event"",""trial"",""time""
""fullscreenenter"",""0"",""3303""
","
","
","""event"",""trial"",""time""
""fullscreenenter"",""0"",""3303""
","
",null,<p></p>,null,,,,,,,,,,,,,,,,,,,,,,,
,do_trial,114,551312,0.0-65.0-0.0,"""event"",""trial"",""time""
""fullscreenenter"",""0"",""3303""
","
","
","""event"",""trial"",""time""
""fullscreenenter"",""0"",""3303""
","
",551.1,,,,,,,,49,"1,0,1",0,city,6,probe-139,0.613737763,0.332345253,0.263779518,1,,,,,,,,
,html-keyboard-response,115,552318,0.0-65.0-1.0,"""event"",""trial"",""time""
""fullscreenenter"",""0"",""3303""
","
","
","""event"",""trial"",""time""
""fullscreenenter"",""0"",""3303""
","
",null,<p></p>,null,,,,,,,,,,,,,,,,,,,,,,,
,do_trial,116,557439,0.0-66.0-0.0,"""event"",""trial"",""time""
""fullscreenenter"",""0"",""3303""
","
","
","""event"",""trial"",""time""
""fullscreenenter"",""0"",""3303""
","
",585.4,,,,,,,,50,"0,0,0",0,city,7,probe-189,0.542569465,0.091950325,0.148656376,0,,,,,,,,
,html-keyboard-response,117,558454,0.0-66.0-1.0,"""event"",""trial"",""time""
""fullscreenenter"",""0"",""3303""
","
","
","""event"",""trial"",""time""
""fullscreenenter"",""0"",""3303""
","
",null,<p></p>,null,,,,,,,,,,,,,,,,,,,,,,,
,do_trial,118,563517,0.0-67.0-0.0,"""event"",""trial"",""time""
""fullscreenenter"",""0"",""3303""
","
","
","""event"",""trial"",""time""
""fullscreenenter"",""0"",""3303""
","
",520.3,,,,,,,,49,"0,0,0",0,city,8,probe-49,0.480303951,0.087332315,0.137551135,0,,,,,,,,
,html-keyboard-response,119,564522,0.0-67.0-1.0,"""event"",""trial"",""time""
""fullscreenenter"",""0"",""3303""
","
","
","""event"",""trial"",""time""
""fullscreenenter"",""0"",""3303""
","
",null,<p></p>,null,,,,,,,,,,,,,,,,,,,,,,,
,do_trial,120,569678,0.0-68.0-0.0,"""event"",""trial"",""time""
""fullscreenenter"",""0"",""3303""
","
","
","""event"",""trial"",""time""
""fullscreenenter"",""0"",""3303""
","
",620.5,,,,,,,,50,"0,1,0",0,city,9,probe-150,0.445904351,0.163120814,0.114848017,1,,,,,,,,
,html-keyboard-response,121,570689,0.0-68.0-1.0,"""event"",""trial"",""time""
""fullscreenenter"",""0"",""3303""
","
","
","""event"",""trial"",""time""
""fullscreenenter"",""0"",""3303""
","
",null,<p></p>,null,,,,,,,,,,,,,,,,,,,,,,,
,do_trial,122,576178,0.0-69.0-0.0,"""event"",""trial"",""time""
""fullscreenenter"",""0"",""3303""
","
","
","""event"",""trial"",""time""
""fullscreenenter"",""0"",""3303""
","
",955.1,,,,,,,,51,"0,0,0",0,city,10,probe-69,0.350897702,0.187701827,0.185434367,0,,,,,,,,
,html-keyboard-response,123,577195,0.0-69.0-1.0,"""event"",""trial"",""time""
""fullscreenenter"",""0"",""3303""
","
","
","""event"",""trial"",""time""
""fullscreenenter"",""0"",""3303""
","
",null,<p></p>,null,,,,,,,,,,,,,,,,,,,,,,,
,do_trial,124,583350,0.0-70.0-0.0,"""event"",""trial"",""time""
""fullscreenenter"",""0"",""3303""
","
","
","""event"",""trial"",""time""
""fullscreenenter"",""0"",""3303""
","
",1622.7,,,,,,,,50,"1,1,1",0,city,11,probe-228,0.5370171,0.290067905,0.235374169,1,,,,,,,,
,html-keyboard-response,125,584358,0.0-70.0-1.0,"""event"",""trial"",""time""
""fullscreenenter"",""0"",""3303""
","
","
","""event"",""trial"",""time""
""fullscreenenter"",""0"",""3303""
","
",null,<p></p>,null,,,,,,,,,,,,,,,,,,,,,,,
,do_trial,126,589650,0.0-71.0-0.0,"""event"",""trial"",""time""
""fullscreenenter"",""0"",""3303""
","
","
","""event"",""trial"",""time""
""fullscreenenter"",""0"",""3303""
","
",746.1,,,,,,,,50,"1,0,0",0,city,12,probe-207,0.453741535,0.227850696,0.201166204,0,,,,,,,,
,html-keyboard-response,127,590659,0.0-71.0-1.0,"""event"",""trial"",""time""
""fullscreenenter"",""0"",""3303""
","
","
","""event"",""trial"",""time""
""fullscreenenter"",""0"",""3303""
","
",null,<p></p>,null,,,,,,,,,,,,,,,,,,,,,,,
,do_trial,128,595727,0.0-72.0-0.0,"""event"",""trial"",""time""
""fullscreenenter"",""0"",""3303""
","
","
","""event"",""trial"",""time""
""fullscreenenter"",""0"",""3303""
","
",530.2,,,,,,,,49,"1,0,0",0,city,13,probe-47,0.514827853,0.394347367,0.187080875,1,,,,,,,,
,html-keyboard-response,129,596737,0.0-72.0-1.0,"""event"",""trial"",""time""
""fullscreenenter"",""0"",""3303""
","
","
","""event"",""trial"",""time""
""fullscreenenter"",""0"",""3303""
","
",null,<p></p>,null,,,,,,,,,,,,,,,,,,,,,,,
,do_trial,130,601867,0.0-73.0-0.0,"""event"",""trial"",""time""
""fullscreenenter"",""0"",""3303""
","
","
","""event"",""trial"",""time""
""fullscreenenter"",""0"",""3303""
","
",589.3,,,,,,,,49,"1,0,1",0,city,14,probe-103,0.649774783,0.324525076,0.063093644,1,,,,,,,,
,html-keyboard-response,131,602874,0.0-73.0-1.0,"""event"",""trial"",""time""
""fullscreenenter"",""0"",""3303""
","
","
","""event"",""trial"",""time""
""fullscreenenter"",""0"",""3303""
","
",null,<p></p>,null,,,,,,,,,,,,,,,,,,,,,,,
,do_trial,132,607973,0.0-74.0-0.0,"""event"",""trial"",""time""
""fullscreenenter"",""0"",""3303""
","
","
","""event"",""trial"",""time""
""fullscreenenter"",""0"",""3303""
","
",557.8,,,,,,,,49,"1,0,0",0,city,15,probe-62,0.549365833,0.366429516,0.068698965,1,,,,,,,,
,html-keyboard-response,133,608982,0.0-74.0-1.0,"""event"",""trial"",""time""
""fullscreenenter"",""0"",""3303""
","
","
","""event"",""trial"",""time""
""fullscreenenter"",""0"",""3303""
","
",null,<p></p>,null,,,,,,,,,,,,,,,,,,,,,,,
,do_trial,134,614204,0.0-75.0-0.0,"""event"",""trial"",""time""
""fullscreenenter"",""0"",""3303""
","
","
","""event"",""trial"",""time""
""fullscreenenter"",""0"",""3303""
","
",689.5,,,,,,,,49,"0,0,0",0,city,16,probe-74,0.661312375,0.326919592,0.111054968,0,,,,,,,,
,html-keyboard-response,135,615211,0.0-75.0-1.0,"""event"",""trial"",""time""
""fullscreenenter"",""0"",""3303""
","
","
","""event"",""trial"",""time""
""fullscreenenter"",""0"",""3303""
","
",null,<p></p>,null,,,,,,,,,,,,,,,,,,,,,,,
,do_trial,136,620068,0.0-76.0-0.0,"""event"",""trial"",""time""
""fullscreenenter"",""0"",""3303""
","
","
","""event"",""trial"",""time""
""fullscreenenter"",""0"",""3303""
","
",323.6,,,,,,,,51,"1,0,0",0,city,17,probe-95,0.559431614,0.281575187,0.071501244,0,,,,,,,,
,html-keyboard-response,137,621077,0.0-76.0-1.0,"""event"",""trial"",""time""
""fullscreenenter"",""0"",""3303""
","
","
","""event"",""trial"",""time""
""fullscreenenter"",""0"",""3303""
","
",null,<p></p>,null,,,,,,,,,,,,,,,,,,,,,,,
,do_trial,138,626195,0.0-77.0-0.0,"""event"",""trial"",""time""
""fullscreenenter"",""0"",""3303""
","
","
","""event"",""trial"",""time""
""fullscreenenter"",""0"",""3303""
","
",574,,,,,,,,49,"1,0,0",0,city,18,probe-70,0.640790993,0.267403504,0.127712931,1,,,,,,,,
,html-keyboard-response,139,627204,0.0-77.0-1.0,"""event"",""trial"",""time""
""fullscreenenter"",""0"",""3303""
","
","
","""event"",""trial"",""time""
""fullscreenenter"",""0"",""3303""
","
",null,<p></p>,null,,,,,,,,,,,,,,,,,,,,,,,
,do_trial,140,632285,0.0-78.0-0.0,"""event"",""trial"",""time""
""fullscreenenter"",""0"",""3303""
","
","
","""event"",""trial"",""time""
""fullscreenenter"",""0"",""3303""
","
",543,,,,,,,,49,"1,0,1",0,city,19,probe-137,0.616182422,0.33970626,0.209489399,1,,,,,,,,
,html-keyboard-response,141,633294,0.0-78.0-1.0,"""event"",""trial"",""time""
""fullscreenenter"",""0"",""3303""
","
","
","""event"",""trial"",""time""
""fullscreenenter"",""0"",""3303""
","
",null,<p></p>,null,,,,,,,,,,,,,,,,,,,,,,,
,do_trial,142,638501,0.0-79.0-0.0,"""event"",""trial"",""time""
""fullscreenenter"",""0"",""3303""
","
","
","""event"",""trial"",""time""
""fullscreenenter"",""0"",""3303""
","
",662.5,,,,,,,,49,"1,1,0",0,city,20,probe-199,0.627919421,0.480254032,0.166199199,1,,,,,,,,
,html-keyboard-response,143,639509,0.0-79.0-1.0,"""event"",""trial"",""time""
""fullscreenenter"",""0"",""3303""
","
","
","""event"",""trial"",""time""
""fullscreenenter"",""0"",""3303""
","
",null,<p></p>,null,,,,,,,,,,,,,,,,,,,,,,,
,do_trial,144,644357,0.0-80.0-0.0,"""event"",""trial"",""time""
""fullscreenenter"",""0"",""3303""
","
","
","""event"",""trial"",""time""
""fullscreenenter"",""0"",""3303""
","
",310.1,,,,,,,,49,"0,0,0",0,city,21,probe-05,0.687862093,0.289637116,0.07828282,0,,,,,,,,
,html-keyboard-response,145,645366,0.0-80.0-1.0,"""event"",""trial"",""time""
""fullscreenenter"",""0"",""3303""
","
","
","""event"",""trial"",""time""
""fullscreenenter"",""0"",""3303""
","
",null,<p></p>,null,,,,,,,,,,,,,,,,,,,,,,,
,do_trial,146,650398,0.0-81.0-0.0,"""event"",""trial"",""time""
""fullscreenenter"",""0"",""3303""
","
","
","""event"",""trial"",""time""
""fullscreenenter"",""0"",""3303""
","
",487.1,,,,,,,,50,"0,1,0",0,city,22,probe-11,0.619324538,0.460654827,0.143459573,1,,,,,,,,
,html-keyboard-response,147,651406,0.0-81.0-1.0,"""event"",""trial"",""time""
""fullscreenenter"",""0"",""3303""
","
","
","""event"",""trial"",""time""
""fullscreenenter"",""0"",""3303""
","
",null,<p></p>,null,,,,,,,,,,,,,,,,,,,,,,,
,do_trial,148,656647,0.0-82.0-0.0,"""event"",""trial"",""time""
""fullscreenenter"",""0"",""3303""
","
","
","""event"",""trial"",""time""
""fullscreenenter"",""0"",""3303""
","
",691.8,,,,,,,,50,"1,0,0",0,city,23,probe-16,0.730396917,0.574585755,0.10777997,0,,,,,,,,
,html-keyboard-response,149,657657,0.0-82.0-1.0,"""event"",""trial"",""time""
""fullscreenenter"",""0"",""3303""
","
","
","""event"",""trial"",""time""
""fullscreenenter"",""0"",""3303""
","
",null,<p></p>,null,,,,,,,,,,,,,,,,,,,,,,,
,do_trial,150,662512,0.0-83.0-0.0,"""event"",""trial"",""time""
""fullscreenenter"",""0"",""3303""
","
","
","""event"",""trial"",""time""
""fullscreenenter"",""0"",""3303""
","
",325.5,,,,,,,,50,"0,0,1",0,city,24,probe-28,0.586306602,0.363295853,0.18668606,0,,,,,,,,
,html-keyboard-response,151,663526,0.0-83.0-1.0,"""event"",""trial"",""time""
""fullscreenenter"",""0"",""3303""
","
","
","""event"",""trial"",""time""
""fullscreenenter"",""0"",""3303""
","
",null,<p></p>,null,,,,,,,,,,,,,,,,,,,,,,,
,do_trial,152,668461,0.0-84.0-0.0,"""event"",""trial"",""time""
""fullscreenenter"",""0"",""3303""
","
","
","""event"",""trial"",""time""
""fullscreenenter"",""0"",""3303""
","
",401.9,,,,,,,,51,"0,0,1",0,city,25,probe-174,0.571265437,0.244772016,0.185889993,1,,,,,,,,
,html-keyboard-response,153,669471,0.0-84.0-1.0,"""event"",""trial"",""time""
""fullscreenenter"",""0"",""3303""
","
","
","""event"",""trial"",""time""
""fullscreenenter"",""0"",""3303""
","
",null,<p></p>,null,,,,,,,,,,,,,,,,,,,,,,,
,do_trial,154,674669,0.0-85.0-0.0,"""event"",""trial"",""time""
""fullscreenenter"",""0"",""3303""
","
","
","""event"",""trial"",""time""
""fullscreenenter"",""0"",""3303""
","
",658.1,,,,,,,,51,"1,0,0",0,city,26,probe-79,0.484833271,0.363234398,0.19578977,0,,,,,,,,
,html-keyboard-response,155,675679,0.0-85.0-1.0,"""event"",""trial"",""time""
""fullscreenenter"",""0"",""3303""
","
","
","""event"",""trial"",""time""
""fullscreenenter"",""0"",""3303""
","
",null,<p></p>,null,,,,,,,,,,,,,,,,,,,,,,,
,do_trial,156,680541,0.0-86.0-0.0,"""event"",""trial"",""time""
""fullscreenenter"",""0"",""3303""
","
","
","""event"",""trial"",""time""
""fullscreenenter"",""0"",""3303""
","
",323,,,,,,,,51,"0,0,0",0,city,27,probe-120,0.673006418,0.299356967,0.212501146,0,,,,,,,,
,html-keyboard-response,157,681553,0.0-86.0-1.0,"""event"",""trial"",""time""
""fullscreenenter"",""0"",""3303""
","
","
","""event"",""trial"",""time""
""fullscreenenter"",""0"",""3303""
","
",null,<p></p>,null,,,,,,,,,,,,,,,,,,,,,,,
,do_trial,158,686878,0.0-87.0-0.0,"""event"",""trial"",""time""
""fullscreenenter"",""0"",""3303""
","
","
","""event"",""trial"",""time""
""fullscreenenter"",""0"",""3303""
","
",784.2,,,,,,,,49,"0,0,0",0,city,28,probe-96,0.691614009,0.224966816,0.179520425,0,,,,,,,,
,html-keyboard-response,159,687886,0.0-87.0-1.0,"""event"",""trial"",""time""
""fullscreenenter"",""0"",""3303""
","
","
","""event"",""trial"",""time""
""fullscreenenter"",""0"",""3303""
","
",null,<p></p>,null,,,,,,,,,,,,,,,,,,,,,,,
,do_trial,160,692730,0.0-88.0-0.0,"""event"",""trial"",""time""
""fullscreenenter"",""0"",""3303""
","
","
","""event"",""trial"",""time""
""fullscreenenter"",""0"",""3303""
","
",302.5,,,,,,,,49,"1,0,0",0,city,29,probe-102,0.547680938,0.252814234,0.140126128,1,,,,,,,,
,html-keyboard-response,161,693739,0.0-88.0-1.0,"""event"",""trial"",""time""
""fullscreenenter"",""0"",""3303""
","
","
","""event"",""trial"",""time""
""fullscreenenter"",""0"",""3303""
","
",null,<p></p>,null,,,,,,,,,,,,,,,,,,,,,,,
,do_bye,162,695247,0.0-89.0-0.0,"""event"",""trial"",""time""
""fullscreenenter"",""0"",""3303""
","
","
","""event"",""trial"",""time""
""fullscreenenter"",""0"",""3303""
","
",null,,,,,,,,null,,,,,,,,,,,,,,,,,
,break,163,700298,0.0-89.0-1.0,"""event"",""trial"",""time""
""fullscreenenter"",""0"",""3303""
","
","
","""event"",""trial"",""time""
""fullscreenenter"",""0"",""3303""
","
",5050.5,"<div class='center'><p>Time to take a quick break! You have 2 minutes to rest, but you can move on sooner if you'd like.</p><p> Press the <b>space bar</b> to continue.</p></div>",32,,,,,,,,,,,,,,,,,,,,,,,
,do_travel,164,709302,0.0-90.0-0.0,"""event"",""trial"",""time""
""fullscreenenter"",""0"",""3303""
","
","
","""event"",""trial"",""time""
""fullscreenenter"",""0"",""3303""
","
",null,,,,,,,,null,,,,,,,,,,,,,,,,,
,do_welcome,165,713320,0.0-90.0-1.0,"""event"",""trial"",""time""
""fullscreenenter"",""0"",""3303""
","
","
","""event"",""trial"",""time""
""fullscreenenter"",""0"",""3303""
","
",null,,,,,,,,null,,,,,,,,,,,,,,,,,
,do_trial,166,719566,0.0-91.0-0.0,"""event"",""trial"",""time""
""fullscreenenter"",""0"",""3303""
","
","
","""event"",""trial"",""time""
""fullscreenenter"",""0"",""3303""
","
",1707.3,,,,,,,,49,"1,0,0",1,mountain,30,probe-187,1,0.230830015,0.05798074,1,,,,,,,,
,html-keyboard-response,167,720575,0.0-91.0-1.0,"""event"",""trial"",""time""
""fullscreenenter"",""0"",""3303""
","
","
","""event"",""trial"",""time""
""fullscreenenter"",""0"",""3303""
","
",null,<p></p>,null,,,,,,,,,,,,,,,,,,,,,,,
,do_trial,168,726305,0.0-92.0-0.0,"""event"",""trial"",""time""
""fullscreenenter"",""0"",""3303""
","
","
","""event"",""trial"",""time""
""fullscreenenter"",""0"",""3303""
","
",1192.5,,,,,,,,50,"1,0,0",1,mountain,31,probe-183,1,0.214845382,0.060830748,0,,,,,,,,
,html-keyboard-response,169,727315,0.0-92.0-1.0,"""event"",""trial"",""time""
""fullscreenenter"",""0"",""3303""
","
","
","""event"",""trial"",""time""
""fullscreenenter"",""0"",""3303""
","
",null,<p></p>,null,,,,,,,,,,,,,,,,,,,,,,,
,do_trial,170,732783,0.0-93.0-0.0,"""event"",""trial"",""time""
""fullscreenenter"",""0"",""3303""
","
","
","""event"",""trial"",""time""
""fullscreenenter"",""0"",""3303""
","
",930.2,,,,,,,,51,"1,1,0",1,mountain,32,probe-81,1,0.173527312,0.156484657,0,,,,,,,,
,html-keyboard-response,171,733792,0.0-93.0-1.0,"""event"",""trial"",""time""
""fullscreenenter"",""0"",""3303""
","
","
","""event"",""trial"",""time""
""fullscreenenter"",""0"",""3303""
","
",null,<p></p>,null,,,,,,,,,,,,,,,,,,,,,,,
,do_trial,172,740161,0.0-94.0-0.0,"""event"",""trial"",""time""
""fullscreenenter"",""0"",""3303""
","
","
","""event"",""trial"",""time""
""fullscreenenter"",""0"",""3303""
","
",1834.6,,,,,,,,49,"1,0,0",1,mountain,33,probe-184,0.840866865,0.17065317,0.065510967,1,,,,,,,,
,html-keyboard-response,173,741171,0.0-94.0-1.0,"""event"",""trial"",""time""
""fullscreenenter"",""0"",""3303""
","
","
","""event"",""trial"",""time""
""fullscreenenter"",""0"",""3303""
","
",null,<p></p>,null,,,,,,,,,,,,,,,,,,,,,,,
,do_trial,174,746530,0.0-95.0-0.0,"""event"",""trial"",""time""
""fullscreenenter"",""0"",""3303""
","
","
","""event"",""trial"",""time""
""fullscreenenter"",""0"",""3303""
","
",827.3,,,,,,,,49,"1,0,0",1,mountain,34,probe-176,0.632338025,0.261241958,0.159477642,1,,,,,,,,
,html-keyboard-response,175,747541,0.0-95.0-1.0,"""event"",""trial"",""time""
""fullscreenenter"",""0"",""3303""
","
","
","""event"",""trial"",""time""
""fullscreenenter"",""0"",""3303""
","
",null,<p></p>,null,,,,,,,,,,,,,,,,,,,,,,,
,do_trial,176,752801,0.0-96.0-0.0,"""event"",""trial"",""time""
""fullscreenenter"",""0"",""3303""
","
","
","""event"",""trial"",""time""
""fullscreenenter"",""0"",""3303""
","
",721.7,,,,,,,,49,"1,1,0",1,mountain,35,probe-129,0.603308744,0.169617799,0.05935596,1,,,,,,,,
,html-keyboard-response,177,753809,0.0-96.0-1.0,"""event"",""trial"",""time""
""fullscreenenter"",""0"",""3303""
","
","
","""event"",""trial"",""time""
""fullscreenenter"",""0"",""3303""
","
",null,<p></p>,null,,,,,,,,,,,,,,,,,,,,,,,
,do_trial,178,759017,0.0-97.0-0.0,"""event"",""trial"",""time""
""fullscreenenter"",""0"",""3303""
","
","
","""event"",""trial"",""time""
""fullscreenenter"",""0"",""3303""
","
",662.5,,,,,,,,49,"1,0,0",1,mountain,36,probe-108,0.507383282,0.050724805,0.126238245,1,,,,,,,,
,html-keyboard-response,179,760024,0.0-97.0-1.0,"""event"",""trial"",""time""
""fullscreenenter"",""0"",""3303""
","
","
","""event"",""trial"",""time""
""fullscreenenter"",""0"",""3303""
","
",null,<p></p>,null,,,,,,,,,,,,,,,,,,,,,,,
,do_trial,180,765194,0.0-98.0-0.0,"""event"",""trial"",""time""
""fullscreenenter"",""0"",""3303""
","
","
","""event"",""trial"",""time""
""fullscreenenter"",""0"",""3303""
","
",629.1,,,,,,,,49,"0,0,0",1,mountain,37,probe-193,0.595585803,0.052734695,0.104176448,0,,,,,,,,
,html-keyboard-response,181,766201,0.0-98.0-1.0,"""event"",""trial"",""time""
""fullscreenenter"",""0"",""3303""
","
","
","""event"",""trial"",""time""
""fullscreenenter"",""0"",""3303""
","
",null,<p></p>,null,,,,,,,,,,,,,,,,,,,,,,,
,do_trial,182,771011,0.0-99.0-0.0,"""event"",""trial"",""time""
""fullscreenenter"",""0"",""3303""
","
","
","""event"",""trial"",""time""
""fullscreenenter"",""0"",""3303""
","
",272.5,,,,,,,,49,"0,0,0",1,mountain,38,probe-156,0.664509724,0.195145188,0.059824306,0,,,,,,,,
,html-keyboard-response,183,772019,0.0-99.0-1.0,"""event"",""trial"",""time""
""fullscreenenter"",""0"",""3303""
","
","
","""event"",""trial"",""time""
""fullscreenenter"",""0"",""3303""
","
",null,<p></p>,null,,,,,,,,,,,,,,,,,,,,,,,
,do_trial,184,776804,0.0-100.0-0.0,"""event"",""trial"",""time""
""fullscreenenter"",""0"",""3303""
","
","
","""event"",""trial"",""time""
""fullscreenenter"",""0"",""3303""
","
",235.9,,,,,,,,50,"1,0,0",1,mountain,39,probe-111,0.65871575,0.210026156,0.132495141,0,,,,,,,,
,html-keyboard-response,185,777809,0.0-100.0-1.0,"""event"",""trial"",""time""
""fullscreenenter"",""0"",""3303""
","
","
","""event"",""trial"",""time""
""fullscreenenter"",""0"",""3303""
","
",null,<p></p>,null,,,,,,,,,,,,,,,,,,,,,,,
,do_trial,186,783020,0.0-101.0-0.0,"""event"",""trial"",""time""
""fullscreenenter"",""0"",""3303""
","
","
","""event"",""trial"",""time""
""fullscreenenter"",""0"",""3303""
","
",675.5,,,,,,,,51,"1,0,0",1,mountain,40,probe-144,0.517887792,0.212937745,0.248824526,0,,,,,,,,
,html-keyboard-response,187,784031,0.0-101.0-1.0,"""event"",""trial"",""time""
""fullscreenenter"",""0"",""3303""
","
","
","""event"",""trial"",""time""
""fullscreenenter"",""0"",""3303""
","
",null,<p></p>,null,,,,,,,,,,,,,,,,,,,,,,,
,do_trial,188,789653,0.0-102.0-0.0,"""event"",""trial"",""time""
""fullscreenenter"",""0"",""3303""
","
","
","""event"",""trial"",""time""
""fullscreenenter"",""0"",""3303""
","
",1084.5,,,,,,,,49,"0,0,1",1,mountain,41,probe-213,0.461255213,0.059136975,0.265663147,0,,,,,,,,
,html-keyboard-response,189,790662,0.0-102.0-1.0,"""event"",""trial"",""time""
""fullscreenenter"",""0"",""3303""
","
","
","""event"",""trial"",""time""
""fullscreenenter"",""0"",""3303""
","
",null,<p></p>,null,,,,,,,,,,,,,,,,,,,,,,,
,do_trial,190,795760,0.0-103.0-0.0,"""event"",""trial"",""time""
""fullscreenenter"",""0"",""3303""
","
","
","""event"",""trial"",""time""
""fullscreenenter"",""0"",""3303""
","
",558.6,,,,,,,,49,"0,0,0",1,mountain,42,probe-155,0.282076191,0.11107771,0.30389987,0,,,,,,,,
,html-keyboard-response,191,796771,0.0-103.0-1.0,"""event"",""trial"",""time""
""fullscreenenter"",""0"",""3303""
","
","
","""event"",""trial"",""time""
""fullscreenenter"",""0"",""3303""
","
",null,<p></p>,null,,,,,,,,,,,,,,,,,,,,,,,
,do_trial,192,801661,0.0-104.0-0.0,"""event"",""trial"",""time""
""fullscreenenter"",""0"",""3303""
","
","
","""event"",""trial"",""time""
""fullscreenenter"",""0"",""3303""
","
",342,,,,,,,,50,"0,0,1",1,mountain,43,probe-27,0.172238072,0.179391276,0.569219079,0,,,,,,,,
,html-keyboard-response,193,802670,0.0-104.0-1.0,"""event"",""trial"",""time""
""fullscreenenter"",""0"",""3303""
","
","
","""event"",""trial"",""time""
""fullscreenenter"",""0"",""3303""
","
",null,<p></p>,null,,,,,,,,,,,,,,,,,,,,,,,
,do_trial,194,808104,0.0-105.0-0.0,"""event"",""trial"",""time""
""fullscreenenter"",""0"",""3303""
","
","
","""event"",""trial"",""time""
""fullscreenenter"",""0"",""3303""
","
",895.3,,,,,,,,50,"0,0,1",1,mountain,44,probe-50,0.145172272,0.215929167,0.538382143,0,,,,,,,,
,html-keyboard-response,195,809114,0.0-105.0-1.0,"""event"",""trial"",""time""
""fullscreenenter"",""0"",""3303""
","
","
","""event"",""trial"",""time""
""fullscreenenter"",""0"",""3303""
","
",null,<p></p>,null,,,,,,,,,,,,,,,,,,,,,,,
,do_trial,196,814027,0.0-106.0-0.0,"""event"",""trial"",""time""
""fullscreenenter"",""0"",""3303""
","
","
","""event"",""trial"",""time""
""fullscreenenter"",""0"",""3303""
","
",378.6,,,,,,,,51,"0,0,1",1,mountain,45,probe-73,0.225042894,0.537537622,0.593019282,1,,,,,,,,
,html-keyboard-response,197,815035,0.0-106.0-1.0,"""event"",""trial"",""time""
""fullscreenenter"",""0"",""3303""
","
","
","""event"",""trial"",""time""
""fullscreenenter"",""0"",""3303""
","
",null,<p></p>,null,,,,,,,,,,,,,,,,,,,,,,,
,do_trial,198,819959,0.0-107.0-0.0,"""event"",""trial"",""time""
""fullscreenenter"",""0"",""3303""
","
","
","""event"",""trial"",""time""
""fullscreenenter"",""0"",""3303""
","
",385.9,,,,,,,,51,"0,0,1",1,mountain,46,probe-110,0.051181872,0.366716976,0.614273165,1,,,,,,,,
,html-keyboard-response,199,820970,0.0-107.0-1.0,"""event"",""trial"",""time""
""fullscreenenter"",""0"",""3303""
","
","
","""event"",""trial"",""time""
""fullscreenenter"",""0"",""3303""
","
",null,<p></p>,null,,,,,,,,,,,,,,,,,,,,,,,
,do_trial,200,827924,0.0-108.0-0.0,"""event"",""trial"",""time""
""fullscreenenter"",""0"",""3303""
","
","
","""event"",""trial"",""time""
""fullscreenenter"",""0"",""3303""
","
",2408,,,,,,,,51,"1,1,0",1,mountain,47,probe-68,0.226877026,0.489951814,0.55584127,0,,,,,,,,
,html-keyboard-response,201,828930,0.0-108.0-1.0,"""event"",""trial"",""time""
""fullscreenenter"",""0"",""3303""
","
","
","""event"",""trial"",""time""
""fullscreenenter"",""0"",""3303""
","
",null,<p></p>,null,,,,,,,,,,,,,,,,,,,,,,,
,do_trial,202,833730,0.0-109.0-0.0,"""event"",""trial"",""time""
""fullscreenenter"",""0"",""3303""
","
","
","""event"",""trial"",""time""
""fullscreenenter"",""0"",""3303""
","
",267.2,,,,,,,,51,"0,0,0",1,mountain,48,probe-138,0.187385615,0.494645196,0.536246434,0,,,,,,,,
,html-keyboard-response,203,834738,0.0-109.0-1.0,"""event"",""trial"",""time""
""fullscreenenter"",""0"",""3303""
","
","
","""event"",""trial"",""time""
""fullscreenenter"",""0"",""3303""
","
",null,<p></p>,null,,,,,,,,,,,,,,,,,,,,,,,
,do_trial,204,840015,0.0-110.0-0.0,"""event"",""trial"",""time""
""fullscreenenter"",""0"",""3303""
","
","
","""event"",""trial"",""time""
""fullscreenenter"",""0"",""3303""
","
",736.7,,,,,,,,49,"0,0,1",1,mountain,49,probe-46,0.259093332,0.40866988,0.678012064,0,,,,,,,,
,html-keyboard-response,205,841026,0.0-110.0-1.0,"""event"",""trial"",""time""
""fullscreenenter"",""0"",""3303""
","
","
","""event"",""trial"",""time""
""fullscreenenter"",""0"",""3303""
","
",null,<p></p>,null,,,,,,,,,,,,,,,,,,,,,,,
,do_trial,206,845768,0.0-111.0-0.0,"""event"",""trial"",""time""
""fullscreenenter"",""0"",""3303""
","
","
","""event"",""trial"",""time""
""fullscreenenter"",""0"",""3303""
","
",209.4,,,,,,,,49,"0,1,1",1,mountain,50,probe-164,0.31100158,0.445426643,0.699114425,0,,,,,,,,
,html-keyboard-response,207,846780,0.0-111.0-1.0,"""event"",""trial"",""time""
""fullscreenenter"",""0"",""3303""
","
","
","""event"",""trial"",""time""
""fullscreenenter"",""0"",""3303""
","
",null,<p></p>,null,,,,,,,,,,,,,,,,,,,,,,,
,do_trial,208,851562,0.0-112.0-0.0,"""event"",""trial"",""time""
""fullscreenenter"",""0"",""3303""
","
","
","""event"",""trial"",""time""
""fullscreenenter"",""0"",""3303""
","
",245.4,,,,,,,,50,"0,1,0",1,mountain,51,probe-105,0.186388893,0.398390251,0.601788383,1,,,,,,,,
,html-keyboard-response,209,852570,0.0-112.0-1.0,"""event"",""trial"",""time""
""fullscreenenter"",""0"",""3303""
","
","
","""event"",""trial"",""time""
""fullscreenenter"",""0"",""3303""
","
",null,<p></p>,null,,,,,,,,,,,,,,,,,,,,,,,
,do_trial,210,857503,0.0-113.0-0.0,"""event"",""trial"",""time""
""fullscreenenter"",""0"",""3303""
","
","
","""event"",""trial"",""time""
""fullscreenenter"",""0"",""3303""
","
",396.3,,,,,,,,50,"0,0,1",1,mountain,52,probe-20,0.264703964,0.398662504,0.715743794,0,,,,,,,,
,html-keyboard-response,211,858520,0.0-113.0-1.0,"""event"",""trial"",""time""
""fullscreenenter"",""0"",""3303""
","
","
","""event"",""trial"",""time""
""fullscreenenter"",""0"",""3303""
","
",null,<p></p>,null,,,,,,,,,,,,,,,,,,,,,,,
,do_trial,212,863469,0.0-114.0-0.0,"""event"",""trial"",""time""
""fullscreenenter"",""0"",""3303""
","
","
","""event"",""trial"",""time""
""fullscreenenter"",""0"",""3303""
","
",408.5,,,,,,,,50,"1,1,0",1,mountain,53,probe-178,0.179865719,0.34500957,0.67452752,1,,,,,,,,
,html-keyboard-response,213,864480,0.0-114.0-1.0,"""event"",""trial"",""time""
""fullscreenenter"",""0"",""3303""
","
","
","""event"",""trial"",""time""
""fullscreenenter"",""0"",""3303""
","
",null,<p></p>,null,,,,,,,,,,,,,,,,,,,,,,,
,do_trial,214,869423,0.0-115.0-0.0,"""event"",""trial"",""time""
""fullscreenenter"",""0"",""3303""
","
","
","""event"",""trial"",""time""
""fullscreenenter"",""0"",""3303""
","
",408.2,,,,,,,,50,"0,1,1",1,mountain,54,probe-190,0.232761532,0.267451507,0.675799312,1,,,,,,,,
,html-keyboard-response,215,870434,0.0-115.0-1.0,"""event"",""trial"",""time""
""fullscreenenter"",""0"",""3303""
","
","
","""event"",""trial"",""time""
""fullscreenenter"",""0"",""3303""
","
",null,<p></p>,null,,,,,,,,,,,,,,,,,,,,,,,
,do_trial,216,876623,0.0-116.0-0.0,"""event"",""trial"",""time""
""fullscreenenter"",""0"",""3303""
","
","
","""event"",""trial"",""time""
""fullscreenenter"",""0"",""3303""
","
",1650.5,,,,,,,,50,"0,0,0",1,mountain,55,probe-04,0.270350068,0.211432935,0.634426235,0,,,,,,,,
,html-keyboard-response,217,877637,0.0-116.0-1.0,"""event"",""trial"",""time""
""fullscreenenter"",""0"",""3303""
","
","
","""event"",""trial"",""time""
""fullscreenenter"",""0"",""3303""
","
",null,<p></p>,null,,,,,,,,,,,,,,,,,,,,,,,
,do_trial,218,883366,0.0-117.0-0.0,"""event"",""trial"",""time""
""fullscreenenter"",""0"",""3303""
","
","
","""event"",""trial"",""time""
""fullscreenenter"",""0"",""3303""
","
",1195.6,,,,,,,,50,"0,0,1",1,mountain,56,probe-93,0.294513439,0.232360472,0.600540924,0,,,,,,,,
,html-keyboard-response,219,884373,0.0-117.0-1.0,"""event"",""trial"",""time""
""fullscreenenter"",""0"",""3303""
","
","
","""event"",""trial"",""time""
""fullscreenenter"",""0"",""3303""
","
",null,<p></p>,null,,,,,,,,,,,,,,,,,,,,,,,
,do_trial,220,890010,0.0-118.0-0.0,"""event"",""trial"",""time""
""fullscreenenter"",""0"",""3303""
","
","
","""event"",""trial"",""time""
""fullscreenenter"",""0"",""3303""
","
",1100.5,,,,,,,,50,"0,0,0",1,mountain,57,probe-13,0.277334403,0.210275264,0.631460035,0,,,,,,,,
,html-keyboard-response,221,891021,0.0-118.0-1.0,"""event"",""trial"",""time""
""fullscreenenter"",""0"",""3303""
","
","
","""event"",""trial"",""time""
""fullscreenenter"",""0"",""3303""
","
",null,<p></p>,null,,,,,,,,,,,,,,,,,,,,,,,
,do_trial,222,895841,0.0-119.0-0.0,"""event"",""trial"",""time""
""fullscreenenter"",""0"",""3303""
","
","
","""event"",""trial"",""time""
""fullscreenenter"",""0"",""3303""
","
",288,,,,,,,,51,"1,0,1",1,mountain,58,probe-132,0.170916862,0.313878099,0.668906433,1,,,,,,,,
,html-keyboard-response,223,896852,0.0-119.0-1.0,"""event"",""trial"",""time""
""fullscreenenter"",""0"",""3303""
","
","
","""event"",""trial"",""time""
""fullscreenenter"",""0"",""3303""
","
",null,<p></p>,null,,,,,,,,,,,,,,,,,,,,,,,
,do_trial,224,901842,0.0-120.0-0.0,"""event"",""trial"",""time""
""fullscreenenter"",""0"",""3303""
","
","
","""event"",""trial"",""time""
""fullscreenenter"",""0"",""3303""
","
",453.6,,,,,,,,51,"0,0,1",1,mountain,59,probe-170,0.079761371,0.18684184,0.523343501,1,,,,,,,,
,html-keyboard-response,225,902851,0.0-120.0-1.0,"""event"",""trial"",""time""
""fullscreenenter"",""0"",""3303""
","
","
","""event"",""trial"",""time""
""fullscreenenter"",""0"",""3303""
","
",null,<p></p>,null,,,,,,,,,,,,,,,,,,,,,,,
,do_trial,226,907798,0.0-121.0-0.0,"""event"",""trial"",""time""
""fullscreenenter"",""0"",""3303""
","
","
","""event"",""trial"",""time""
""fullscreenenter"",""0"",""3303""
","
",415.8,,,,,,,,51,"0,0,1",1,mountain,60,probe-61,0.156124106,0.315390887,0.583792327,1,,,,,,,,
,html-keyboard-response,227,908802,0.0-121.0-1.0,"""event"",""trial"",""time""
""fullscreenenter"",""0"",""3303""
","
","
","""event"",""trial"",""time""
""fullscreenenter"",""0"",""3303""
","
",null,<p></p>,null,,,,,,,,,,,,,,,,,,,,,,,
,do_trial,228,915262,0.0-122.0-0.0,"""event"",""trial"",""time""
""fullscreenenter"",""0"",""3303""
","
","
","""event"",""trial"",""time""
""fullscreenenter"",""0"",""3303""
","
",1924.2,,,,,,,,51,"0,0,0",1,mountain,61,probe-32,0.183695033,0.310212083,0.479860931,0,,,,,,,,
,html-keyboard-response,229,916267,0.0-122.0-1.0,"""event"",""trial"",""time""
""fullscreenenter"",""0"",""3303""
","
","
","""event"",""trial"",""time""
""fullscreenenter"",""0"",""3303""
","
",null,<p></p>,null,,,,,,,,,,,,,,,,,,,,,,,
,do_trial,230,921969,0.0-123.0-0.0,"""event"",""trial"",""time""
""fullscreenenter"",""0"",""3303""
","
","
","""event"",""trial"",""time""
""fullscreenenter"",""0"",""3303""
","
",1157.5,,,,,,,,51,"1,0,1",1,mountain,62,probe-89,0.221655714,0.319671051,0.51254675,1,,,,,,,,
,html-keyboard-response,231,922976,0.0-123.0-1.0,"""event"",""trial"",""time""
""fullscreenenter"",""0"",""3303""
","
","
","""event"",""trial"",""time""
""fullscreenenter"",""0"",""3303""
","
",null,<p></p>,null,,,,,,,,,,,,,,,,,,,,,,,
,do_trial,232,927568,0.0-124.0-0.0,"""event"",""trial"",""time""
""fullscreenenter"",""0"",""3303""
","
","
","""event"",""trial"",""time""
""fullscreenenter"",""0"",""3303""
","
",56.80000001,,,,,,,,51,"0,0,0",1,mountain,63,probe-192,0.213208271,0.302476038,0.505735895,0,,,,,,,,
,html-keyboard-response,233,928581,0.0-124.0-1.0,"""event"",""trial"",""time""
""fullscreenenter"",""0"",""3303""
","
","
","""event"",""trial"",""time""
""fullscreenenter"",""0"",""3303""
","
",null,<p></p>,null,,,,,,,,,,,,,,,,,,,,,,,
,do_trial,234,934200,0.0-125.0-0.0,"""event"",""trial"",""time""
""fullscreenenter"",""0"",""3303""
","
","
","""event"",""trial"",""time""
""fullscreenenter"",""0"",""3303""
","
",1075.1,,,,,,,,51,"0,0,0",1,mountain,64,probe-194,0.102592313,0.438076437,0.231040291,0,,,,,,,,
,html-keyboard-response,235,935211,0.0-125.0-1.0,"""event"",""trial"",""time""
""fullscreenenter"",""0"",""3303""
","
","
","""event"",""trial"",""time""
""fullscreenenter"",""0"",""3303""
","
",null,<p></p>,null,,,,,,,,,,,,,,,,,,,,,,,
,do_trial,236,940229,0.0-126.0-0.0,"""event"",""trial"",""time""
""fullscreenenter"",""0"",""3303""
","
","
","""event"",""trial"",""time""
""fullscreenenter"",""0"",""3303""
","
",482,,,,,,,,49,"0,0,0",1,mountain,65,probe-63,0.255756727,0.302485393,0.206480375,0,,,,,,,,
,html-keyboard-response,237,941237,0.0-126.0-1.0,"""event"",""trial"",""time""
""fullscreenenter"",""0"",""3303""
","
","
","""event"",""trial"",""time""
""fullscreenenter"",""0"",""3303""
","
",null,<p></p>,null,,,,,,,,,,,,,,,,,,,,,,,
,do_trial,238,946070,0.0-127.0-0.0,"""event"",""trial"",""time""
""fullscreenenter"",""0"",""3303""
","
","
","""event"",""trial"",""time""
""fullscreenenter"",""0"",""3303""
","
",293.5,,,,,,,,49,"1,0,0",1,mountain,66,probe-220,0.194076859,0.248256821,0.406756049,1,,,,,,,,
,html-keyboard-response,239,947080,0.0-127.0-1.0,"""event"",""trial"",""time""
""fullscreenenter"",""0"",""3303""
","
","
","""event"",""trial"",""time""
""fullscreenenter"",""0"",""3303""
","
",null,<p></p>,null,,,,,,,,,,,,,,,,,,,,,,,
,do_trial,240,953414,0.0-128.0-0.0,"""event"",""trial"",""time""
""fullscreenenter"",""0"",""3303""
","
","
","""event"",""trial"",""time""
""fullscreenenter"",""0"",""3303""
","
",1801,,,,,,,,49,"0,0,1",1,mountain,67,probe-34,0.054033509,0.286163487,0.494507316,0,,,,,,,,
,html-keyboard-response,241,954423,0.0-128.0-1.0,"""event"",""trial"",""time""
""fullscreenenter"",""0"",""3303""
","
","
","""event"",""trial"",""time""
""fullscreenenter"",""0"",""3303""
","
",null,<p></p>,null,,,,,,,,,,,,,,,,,,,,,,,
,do_trial,242,959231,0.0-129.0-0.0,"""event"",""trial"",""time""
""fullscreenenter"",""0"",""3303""
","
","
","""event"",""trial"",""time""
""fullscreenenter"",""0"",""3303""
","
",271.6,,,,,,,,49,"0,0,1",1,mountain,68,probe-205,0.136953206,0.234920603,0.62224695,0,,,,,,,,
,html-keyboard-response,243,960238,0.0-129.0-1.0,"""event"",""trial"",""time""
""fullscreenenter"",""0"",""3303""
","
","
","""event"",""trial"",""time""
""fullscreenenter"",""0"",""3303""
","
",null,<p></p>,null,,,,,,,,,,,,,,,,,,,,,,,
,do_trial,244,964981,0.0-130.0-0.0,"""event"",""trial"",""time""
""fullscreenenter"",""0"",""3303""
","
","
","""event"",""trial"",""time""
""fullscreenenter"",""0"",""3303""
","
",197.5,,,,,,,,50,"0,1,1",1,mountain,69,probe-53,0.119813106,0.334375726,0.460109846,1,,,,,,,,
,html-keyboard-response,245,965991,0.0-130.0-1.0,"""event"",""trial"",""time""
""fullscreenenter"",""0"",""3303""
","
","
","""event"",""trial"",""time""
""fullscreenenter"",""0"",""3303""
","
",null,<p></p>,null,,,,,,,,,,,,,,,,,,,,,,,
,do_bye,246,967501,0.0-131.0-0.0,"""event"",""trial"",""time""
""fullscreenenter"",""0"",""3303""
","
","
","""event"",""trial"",""time""
""fullscreenenter"",""0"",""3303""
","
",null,,,,,,,,null,,,,,,,,,,,,,,,,,
,break,247,991046,0.0-131.0-1.0,"""event"",""trial"",""time""
""fullscreenenter"",""0"",""3303""
","
","
","""event"",""trial"",""time""
""fullscreenenter"",""0"",""3303""
","
",23545.1,"<div class='center'><p>Time to take a quick break! You have 2 minutes to rest, but you can move on sooner if you'd like.</p><p> Press the <b>space bar</b> to continue.</p></div>",32,,,,,,,,,,,,,,,,,,,,,,,
,do_travel,248,1000058,0.0-132.0-0.0,"""event"",""trial"",""time""
""fullscreenenter"",""0"",""3303""
","
","
","""event"",""trial"",""time""
""fullscreenenter"",""0"",""3303""
","
",null,,,,,,,,null,,,,,,,,,,,,,,,,,
,do_welcome,249,1004072,0.0-132.0-1.0,"""event"",""trial"",""time""
""fullscreenenter"",""0"",""3303""
","
","
","""event"",""trial"",""time""
""fullscreenenter"",""0"",""3303""
","
",null,,,,,,,,null,,,,,,,,,,,,,,,,,
,do_trial,250,1010251,0.0-133.0-0.0,"""event"",""trial"",""time""
""fullscreenenter"",""0"",""3303""
","
","
","""event"",""trial"",""time""
""fullscreenenter"",""0"",""3303""
","
",1644.3,,,,,,,,49,"1,0,1",2,countryside,70,probe-225,0.239291448,0.492391511,1,1,,,,,,,,
,html-keyboard-response,251,1011263,0.0-133.0-1.0,"""event"",""trial"",""time""
""fullscreenenter"",""0"",""3303""
","
","
","""event"",""trial"",""time""
""fullscreenenter"",""0"",""3303""
","
",null,<p></p>,null,,,,,,,,,,,,,,,,,,,,,,,
,do_trial,252,1016290,0.0-134.0-0.0,"""event"",""trial"",""time""
""fullscreenenter"",""0"",""3303""
","
","
","""event"",""trial"",""time""
""fullscreenenter"",""0"",""3303""
","
",486.7,,,,,,,,50,"0,0,1",2,countryside,71,probe-143,0.093994926,0.421379337,1,0,,,,,,,,
,html-keyboard-response,253,1017295,0.0-134.0-1.0,"""event"",""trial"",""time""
""fullscreenenter"",""0"",""3303""
","
","
","""event"",""trial"",""time""
""fullscreenenter"",""0"",""3303""
","
",null,<p></p>,null,,,,,,,,,,,,,,,,,,,,,,,
,do_trial,254,1023631,0.0-135.0-0.0,"""event"",""trial"",""time""
""fullscreenenter"",""0"",""3303""
","
","
","""event"",""trial"",""time""
""fullscreenenter"",""0"",""3303""
","
",1798.6,,,,,,,,51,"0,1,0",2,countryside,72,probe-01,0.060523774,0.266856647,0.7360156,0,,,,,,,,
,html-keyboard-response,255,1024642,0.0-135.0-1.0,"""event"",""trial"",""time""
""fullscreenenter"",""0"",""3303""
","
","
","""event"",""trial"",""time""
""fullscreenenter"",""0"",""3303""
","
",null,<p></p>,null,,,,,,,,,,,,,,,,,,,,,,,
,do_trial,256,1030298,0.0-136.0-0.0,"""event"",""trial"",""time""
""fullscreenenter"",""0"",""3303""
","
","
","""event"",""trial"",""time""
""fullscreenenter"",""0"",""3303""
","
",1113.7,,,,,,,,49,"0,1,0",2,countryside,73,probe-203,0.118382953,0.328281468,0.533401836,0,,,,,,,,
,html-keyboard-response,257,1031310,0.0-136.0-1.0,"""event"",""trial"",""time""
""fullscreenenter"",""0"",""3303""
","
","
","""event"",""trial"",""time""
""fullscreenenter"",""0"",""3303""
","
",null,<p></p>,null,,,,,,,,,,,,,,,,,,,,,,,
,do_trial,258,1036171,0.0-137.0-0.0,"""event"",""trial"",""time""
""fullscreenenter"",""0"",""3303""
","
","
","""event"",""trial"",""time""
""fullscreenenter"",""0"",""3303""
","
",316.1,,,,,,,,49,"0,0,1",2,countryside,74,probe-38,0.140518525,0.214721923,0.668067801,0,,,,,,,,
,html-keyboard-response,259,1037181,0.0-137.0-1.0,"""event"",""trial"",""time""
""fullscreenenter"",""0"",""3303""
","
","
","""event"",""trial"",""time""
""fullscreenenter"",""0"",""3303""
","
",null,<p></p>,null,,,,,,,,,,,,,,,,,,,,,,,
,do_trial,260,1041998,0.0-138.0-0.0,"""event"",""trial"",""time""
""fullscreenenter"",""0"",""3303""
","
","
","""event"",""trial"",""time""
""fullscreenenter"",""0"",""3303""
","
",288.2,,,,,,,,50,"1,0,1",2,countryside,75,probe-45,0.183967399,0.22642651,0.652212655,0,,,,,,,,
,html-keyboard-response,261,1043006,0.0-138.0-1.0,"""event"",""trial"",""time""
""fullscreenenter"",""0"",""3303""
","
","
","""event"",""trial"",""time""
""fullscreenenter"",""0"",""3303""
","
",null,<p></p>,null,,,,,,,,,,,,,,,,,,,,,,,
,do_trial,262,1048876,0.0-139.0-0.0,"""event"",""trial"",""time""
""fullscreenenter"",""0"",""3303""
","
","
","""event"",""trial"",""time""
""fullscreenenter"",""0"",""3303""
","
",1331.5,,,,,,,,51,"0,0,1",2,countryside,76,probe-101,0.134179964,0.177035091,0.721185783,1,,,,,,,,
,html-keyboard-response,263,1049884,0.0-139.0-1.0,"""event"",""trial"",""time""
""fullscreenenter"",""0"",""3303""
","
","
","""event"",""trial"",""time""
""fullscreenenter"",""0"",""3303""
","
",null,<p></p>,null,,,,,,,,,,,,,,,,,,,,,,,
,do_trial,264,1055083,0.0-140.0-0.0,"""event"",""trial"",""time""
""fullscreenenter"",""0"",""3303""
","
","
","""event"",""trial"",""time""
""fullscreenenter"",""0"",""3303""
","
",667.9,,,,,,,,51,"1,0,0",2,countryside,77,probe-128,0.198414685,0.174115232,0.565733288,0,,,,,,,,
,html-keyboard-response,265,1056087,0.0-140.0-1.0,"""event"",""trial"",""time""
""fullscreenenter"",""0"",""3303""
","
","
","""event"",""trial"",""time""
""fullscreenenter"",""0"",""3303""
","
",null,<p></p>,null,,,,,,,,,,,,,,,,,,,,,,,
,do_trial,266,1060898,0.0-141.0-0.0,"""event"",""trial"",""time""
""fullscreenenter"",""0"",""3303""
","
","
","""event"",""trial"",""time""
""fullscreenenter"",""0"",""3303""
","
",271.9,,,,,,,,51,"0,0,1",2,countryside,78,probe-117,0.140408778,0.159328959,0.669325149,1,,,,,,,,
,html-keyboard-response,267,1061911,0.0-141.0-1.0,"""event"",""trial"",""time""
""fullscreenenter"",""0"",""3303""
","
","
","""event"",""trial"",""time""
""fullscreenenter"",""0"",""3303""
","
",null,<p></p>,null,,,,,,,,,,,,,,,,,,,,,,,
,do_trial,268,1066775,0.0-142.0-0.0,"""event"",""trial"",""time""
""fullscreenenter"",""0"",""3303""
","
","
","""event"",""trial"",""time""
""fullscreenenter"",""0"",""3303""
","
",330.9,,,,,,,,51,"0,0,1",2,countryside,79,probe-206,0.14181724,0.343288996,0.741838476,1,,,,,,,,
,html-keyboard-response,269,1067787,0.0-142.0-1.0,"""event"",""trial"",""time""
""fullscreenenter"",""0"",""3303""
","
","
","""event"",""trial"",""time""
""fullscreenenter"",""0"",""3303""
","
",null,<p></p>,null,,,,,,,,,,,,,,,,,,,,,,,
,do_trial,270,1072763,0.0-143.0-0.0,"""event"",""trial"",""time""
""fullscreenenter"",""0"",""3303""
","
","
","""event"",""trial"",""time""
""fullscreenenter"",""0"",""3303""
","
",428.2,,,,,,,,51,"0,0,1",2,countryside,80,probe-02,0.103569142,0.30676915,0.642807704,1,,,,,,,,
,html-keyboard-response,271,1073772,0.0-143.0-1.0,"""event"",""trial"",""time""
""fullscreenenter"",""0"",""3303""
","
","
","""event"",""trial"",""time""
""fullscreenenter"",""0"",""3303""
","
",null,<p></p>,null,,,,,,,,,,,,,,,,,,,,,,,
,do_trial,272,1078851,0.0-144.0-0.0,"""event"",""trial"",""time""
""fullscreenenter"",""0"",""3303""
","
","
","""event"",""trial"",""time""
""fullscreenenter"",""0"",""3303""
","
",541.5,,,,,,,,51,"0,0,0",2,countryside,81,probe-145,0.084052348,0.309080664,0.701273902,0,,,,,,,,
,html-keyboard-response,273,1079858,0.0-144.0-1.0,"""event"",""trial"",""time""
""fullscreenenter"",""0"",""3303""
","
","
","""event"",""trial"",""time""
""fullscreenenter"",""0"",""3303""
","
",null,<p></p>,null,,,,,,,,,,,,,,,,,,,,,,,
,do_trial,274,1084831,0.0-145.0-0.0,"""event"",""trial"",""time""
""fullscreenenter"",""0"",""3303""
","
","
","""event"",""trial"",""time""
""fullscreenenter"",""0"",""3303""
","
",428.3,,,,,,,,51,"0,0,0",2,countryside,82,probe-148,0.0676449,0.393165107,0.593003834,0,,,,,,,,
,html-keyboard-response,275,1085840,0.0-145.0-1.0,"""event"",""trial"",""time""
""fullscreenenter"",""0"",""3303""
","
","
","""event"",""trial"",""time""
""fullscreenenter"",""0"",""3303""
","
",null,<p></p>,null,,,,,,,,,,,,,,,,,,,,,,,
,do_trial,276,1092256,0.0-146.0-0.0,"""event"",""trial"",""time""
""fullscreenenter"",""0"",""3303""
","
","
","""event"",""trial"",""time""
""fullscreenenter"",""0"",""3303""
","
",1871.9,,,,,,,,49,"0,1,0",2,countryside,83,probe-25,0.255990905,0.379699352,0.399286685,0,,,,,,,,
,html-keyboard-response,277,1093264,0.0-146.0-1.0,"""event"",""trial"",""time""
""fullscreenenter"",""0"",""3303""
","
","
","""event"",""trial"",""time""
""fullscreenenter"",""0"",""3303""
","
",null,<p></p>,null,,,,,,,,,,,,,,,,,,,,,,,
,do_trial,278,1099088,0.0-147.0-0.0,"""event"",""trial"",""time""
""fullscreenenter"",""0"",""3303""
","
","
","""event"",""trial"",""time""
""fullscreenenter"",""0"",""3303""
","
",1287.4,,,,,,,,50,"1,1,0",2,countryside,84,probe-18,0.308757479,0.563939844,0.281513643,1,,,,,,,,
,html-keyboard-response,279,1100100,0.0-147.0-1.0,"""event"",""trial"",""time""
""fullscreenenter"",""0"",""3303""
","
","
","""event"",""trial"",""time""
""fullscreenenter"",""0"",""3303""
","
",null,<p></p>,null,,,,,,,,,,,,,,,,,,,,,,,
,do_trial,280,1105866,0.0-148.0-0.0,"""event"",""trial"",""time""
""fullscreenenter"",""0"",""3303""
","
","
","""event"",""trial"",""time""
""fullscreenenter"",""0"",""3303""
","
",1227.5,,,,,,,,50,"0,1,1",2,countryside,85,probe-223,0.347345429,0.615312192,0.140755027,1,,,,,,,,
,html-keyboard-response,281,1106873,0.0-148.0-1.0,"""event"",""trial"",""time""
""fullscreenenter"",""0"",""3303""
","
","
","""event"",""trial"",""time""
""fullscreenenter"",""0"",""3303""
","
",null,<p></p>,null,,,,,,,,,,,,,,,,,,,,,,,
,do_trial,282,1113453,0.0-149.0-0.0,"""event"",""trial"",""time""
""fullscreenenter"",""0"",""3303""
","
","
","""event"",""trial"",""time""
""fullscreenenter"",""0"",""3303""
","
",2047.4,,,,,,,,50,"1,1,0",2,countryside,86,probe-135,0.406183036,0.681008503,0.065930694,1,,,,,,,,
,html-keyboard-response,283,1114460,0.0-149.0-1.0,"""event"",""trial"",""time""
""fullscreenenter"",""0"",""3303""
","
","
","""event"",""trial"",""time""
""fullscreenenter"",""0"",""3303""
","
",null,<p></p>,null,,,,,,,,,,,,,,,,,,,,,,,
,do_trial,284,1120007,0.0-150.0-0.0,"""event"",""trial"",""time""
""fullscreenenter"",""0"",""3303""
","
","
","""event"",""trial"",""time""
""fullscreenenter"",""0"",""3303""
","
",1004.7,,,,,,,,50,"1,0,0",2,countryside,87,probe-151,0.303815538,0.623249576,0.116041039,0,,,,,,,,
,html-keyboard-response,285,1121011,0.0-150.0-1.0,"""event"",""trial"",""time""
""fullscreenenter"",""0"",""3303""
","
","
","""event"",""trial"",""time""
""fullscreenenter"",""0"",""3303""
","
",null,<p></p>,null,,,,,,,,,,,,,,,,,,,,,,,
,do_trial,286,1126668,0.0-151.0-0.0,"""event"",""trial"",""time""
""fullscreenenter"",""0"",""3303""
","
","
","""event"",""trial"",""time""
""fullscreenenter"",""0"",""3303""
","
",1114.3,,,,,,,,51,"1,1,0",2,countryside,88,probe-230,0.353889121,0.547166969,0.149449326,0,,,,,,,,
,html-keyboard-response,287,1127677,0.0-151.0-1.0,"""event"",""trial"",""time""
""fullscreenenter"",""0"",""3303""
","
","
","""event"",""trial"",""time""
""fullscreenenter"",""0"",""3303""
","
",null,<p></p>,null,,,,,,,,,,,,,,,,,,,,,,,
,do_trial,288,1132433,0.0-152.0-0.0,"""event"",""trial"",""time""
""fullscreenenter"",""0"",""3303""
","
","
","""event"",""trial"",""time""
""fullscreenenter"",""0"",""3303""
","
",225.1,,,,,,,,50,"0,0,0",2,countryside,89,probe-126,0.308555899,0.488842934,0.09674843,0,,,,,,,,
,html-keyboard-response,289,1133444,0.0-152.0-1.0,"""event"",""trial"",""time""
""fullscreenenter"",""0"",""3303""
","
","
","""event"",""trial"",""time""
""fullscreenenter"",""0"",""3303""
","
",null,<p></p>,null,,,,,,,,,,,,,,,,,,,,,,,
,do_trial,290,1138222,0.0-153.0-0.0,"""event"",""trial"",""time""
""fullscreenenter"",""0"",""3303""
","
","
","""event"",""trial"",""time""
""fullscreenenter"",""0"",""3303""
","
",248.6,,,,,,,,49,"0,0,0",2,countryside,90,probe-76,0.221517081,0.501239865,0.240023968,0,,,,,,,,
,html-keyboard-response,291,1139237,0.0-153.0-1.0,"""event"",""trial"",""time""
""fullscreenenter"",""0"",""3303""
","
","
","""event"",""trial"",""time""
""fullscreenenter"",""0"",""3303""
","
",null,<p></p>,null,,,,,,,,,,,,,,,,,,,,,,,
,do_trial,292,1143987,0.0-154.0-0.0,"""event"",""trial"",""time""
""fullscreenenter"",""0"",""3303""
","
","
","""event"",""trial"",""time""
""fullscreenenter"",""0"",""3303""
","
",193.9,,,,,,,,49,"0,1,0",2,countryside,91,probe-59,0.344377986,0.552210322,0.174025961,0,,,,,,,,
,html-keyboard-response,293,1144997,0.0-154.0-1.0,"""event"",""trial"",""time""
""fullscreenenter"",""0"",""3303""
","
","
","""event"",""trial"",""time""
""fullscreenenter"",""0"",""3303""
","
",null,<p></p>,null,,,,,,,,,,,,,,,,,,,,,,,
,do_trial,294,1150358,0.0-155.0-0.0,"""event"",""trial"",""time""
""fullscreenenter"",""0"",""3303""
","
","
","""event"",""trial"",""time""
""fullscreenenter"",""0"",""3303""
","
",818,,,,,,,,50,"1,0,1",2,countryside,92,probe-07,0.263316623,0.707220002,0.09904359,0,,,,,,,,
,html-keyboard-response,295,1151367,0.0-155.0-1.0,"""event"",""trial"",""time""
""fullscreenenter"",""0"",""3303""
","
","
","""event"",""trial"",""time""
""fullscreenenter"",""0"",""3303""
","
",null,<p></p>,null,,,,,,,,,,,,,,,,,,,,,,,
,do_trial,296,1156426,0.0-156.0-0.0,"""event"",""trial"",""time""
""fullscreenenter"",""0"",""3303""
","
","
","""event"",""trial"",""time""
""fullscreenenter"",""0"",""3303""
","
",525.8,,,,,,,,51,"1,0,0",2,countryside,93,probe-109,0.306117403,0.76439264,0.086829,0,,,,,,,,
,html-keyboard-response,297,1157437,0.0-156.0-1.0,"""event"",""trial"",""time""
""fullscreenenter"",""0"",""3303""
","
","
","""event"",""trial"",""time""
""fullscreenenter"",""0"",""3303""
","
",null,<p></p>,null,,,,,,,,,,,,,,,,,,,,,,,
,do_trial,298,1164255,0.0-157.0-0.0,"""event"",""trial"",""time""
""fullscreenenter"",""0"",""3303""
","
","
","""event"",""trial"",""time""
""fullscreenenter"",""0"",""3303""
","
",2273.1,,,,,,,,51,"0,0,0",2,countryside,94,probe-154,0.19243674,0.602432477,0.068648753,0,,,,,,,,
,html-keyboard-response,299,1165266,0.0-157.0-1.0,"""event"",""trial"",""time""
""fullscreenenter"",""0"",""3303""
","
","
","""event"",""trial"",""time""
""fullscreenenter"",""0"",""3303""
","
",null,<p></p>,null,,,,,,,,,,,,,,,,,,,,,,,
,do_trial,300,1170153,0.0-158.0-0.0,"""event"",""trial"",""time""
""fullscreenenter"",""0"",""3303""
","
","
","""event"",""trial"",""time""
""fullscreenenter"",""0"",""3303""
","
",353.5,,,,,,,,50,"0,1,0",2,countryside,95,probe-147,0.202973577,0.681165464,0.075409144,1,,,,,,,,
,html-keyboard-response,301,1171163,0.0-158.0-1.0,"""event"",""trial"",""time""
""fullscreenenter"",""0"",""3303""
","
","
","""event"",""trial"",""time""
""fullscreenenter"",""0"",""3303""
","
",null,<p></p>,null,,,,,,,,,,,,,,,,,,,,,,,
,do_trial,302,1176087,0.0-159.0-0.0,"""event"",""trial"",""time""
""fullscreenenter"",""0"",""3303""
","
","
","""event"",""trial"",""time""
""fullscreenenter"",""0"",""3303""
","
",390.3,,,,,,,,50,"0,0,0",2,countryside,96,probe-44,0.309520029,0.581211078,0.183962137,0,,,,,,,,
,html-keyboard-response,303,1177098,0.0-159.0-1.0,"""event"",""trial"",""time""
""fullscreenenter"",""0"",""3303""
","
","
","""event"",""trial"",""time""
""fullscreenenter"",""0"",""3303""
","
",null,<p></p>,null,,,,,,,,,,,,,,,,,,,,,,,
,do_trial,304,1182079,0.0-160.0-0.0,"""event"",""trial"",""time""
""fullscreenenter"",""0"",""3303""
","
","
","""event"",""trial"",""time""
""fullscreenenter"",""0"",""3303""
","
",436.5,,,,,,,,50,"0,1,0",2,countryside,97,probe-97,0.255647419,0.560658743,0.280000092,1,,,,,,,,
,html-keyboard-response,305,1183090,0.0-160.0-1.0,"""event"",""trial"",""time""
""fullscreenenter"",""0"",""3303""
","
","
","""event"",""trial"",""time""
""fullscreenenter"",""0"",""3303""
","
",null,<p></p>,null,,,,,,,,,,,,,,,,,,,,,,,
,do_trial,306,1188004,0.0-161.0-0.0,"""event"",""trial"",""time""
""fullscreenenter"",""0"",""3303""
","
","
","""event"",""trial"",""time""
""fullscreenenter"",""0"",""3303""
","
",376.9,,,,,,,,50,"0,1,1",2,countryside,98,probe-80,0.225903093,0.575725483,0.230874942,1,,,,,,,,
,html-keyboard-response,307,1189015,0.0-161.0-1.0,"""event"",""trial"",""time""
""fullscreenenter"",""0"",""3303""
","
","
","""event"",""trial"",""time""
""fullscreenenter"",""0"",""3303""
","
",null,<p></p>,null,,,,,,,,,,,,,,,,,,,,,,,
,do_trial,308,1193960,0.0-162.0-0.0,"""event"",""trial"",""time""
""fullscreenenter"",""0"",""3303""
","
","
","""event"",""trial"",""time""
""fullscreenenter"",""0"",""3303""
","
",404.4,,,,,,,,50,"0,0,0",2,countryside,99,probe-197,0.180322801,0.516674051,0.083065256,0,,,,,,,,
,html-keyboard-response,309,1194967,0.0-162.0-1.0,"""event"",""trial"",""time""
""fullscreenenter"",""0"",""3303""
","
","
","""event"",""trial"",""time""
""fullscreenenter"",""0"",""3303""
","
",null,<p></p>,null,,,,,,,,,,,,,,,,,,,,,,,
,do_trial,310,1199706,0.0-163.0-0.0,"""event"",""trial"",""time""
""fullscreenenter"",""0"",""3303""
","
","
","""event"",""trial"",""time""
""fullscreenenter"",""0"",""3303""
","
",197.1,,,,,,,,50,"0,1,0",2,countryside,100,probe-140,0.154688885,0.452211017,0.107337681,1,,,,,,,,
,html-keyboard-response,311,1200714,0.0-163.0-1.0,"""event"",""trial"",""time""
""fullscreenenter"",""0"",""3303""
","
","
","""event"",""trial"",""time""
""fullscreenenter"",""0"",""3303""
","
",null,<p></p>,null,,,,,,,,,,,,,,,,,,,,,,,
,do_trial,312,1206294,0.0-164.0-0.0,"""event"",""trial"",""time""
""fullscreenenter"",""0"",""3303""
","
","
","""event"",""trial"",""time""
""fullscreenenter"",""0"",""3303""
","
",1036.1,,,,,,,,50,"1,0,0",2,countryside,101,probe-166,0.181567726,0.561588098,0.112114491,0,,,,,,,,
,html-keyboard-response,313,1207301,0.0-164.0-1.0,"""event"",""trial"",""time""
""fullscreenenter"",""0"",""3303""
","
","
","""event"",""trial"",""time""
""fullscreenenter"",""0"",""3303""
","
",null,<p></p>,null,,,,,,,,,,,,,,,,,,,,,,,
,do_trial,314,1213146,0.0-165.0-0.0,"""event"",""trial"",""time""
""fullscreenenter"",""0"",""3303""
","
","
","""event"",""trial"",""time""
""fullscreenenter"",""0"",""3303""
","
",1313.5,,,,,,,,50,"1,0,0",2,countryside,102,probe-29,0.19879788,0.630789701,0.146408021,0,,,,,,,,
,html-keyboard-response,315,1214158,0.0-165.0-1.0,"""event"",""trial"",""time""
""fullscreenenter"",""0"",""3303""
","
","
","""event"",""trial"",""time""
""fullscreenenter"",""0"",""3303""
","
",null,<p></p>,null,,,,,,,,,,,,,,,,,,,,,,,
,do_trial,316,1219034,0.0-166.0-0.0,"""event"",""trial"",""time""
""fullscreenenter"",""0"",""3303""
","
","
","""event"",""trial"",""time""
""fullscreenenter"",""0"",""3303""
","
",335.9,,,,,,,,50,"0,0,0",2,countryside,103,probe-60,0.226933773,0.559959159,0.138537288,0,,,,,,,,
,html-keyboard-response,317,1220043,0.0-166.0-1.0,"""event"",""trial"",""time""
""fullscreenenter"",""0"",""3303""
","
","
","""event"",""trial"",""time""
""fullscreenenter"",""0"",""3303""
","
",null,<p></p>,null,,,,,,,,,,,,,,,,,,,,,,,
,do_trial,318,1225312,0.0-167.0-0.0,"""event"",""trial"",""time""
""fullscreenenter"",""0"",""3303""
","
","
","""event"",""trial"",""time""
""fullscreenenter"",""0"",""3303""
","
",733.3,,,,,,,,49,"0,1,0",2,countryside,104,probe-64,0.208898458,0.461029244,0.097876803,0,,,,,,,,
,html-keyboard-response,319,1226320,0.0-167.0-1.0,"""event"",""trial"",""time""
""fullscreenenter"",""0"",""3303""
","
","
","""event"",""trial"",""time""
""fullscreenenter"",""0"",""3303""
","
",null,<p></p>,null,,,,,,,,,,,,,,,,,,,,,,,
,do_trial,320,1232369,0.0-168.0-0.0,"""event"",""trial"",""time""
""fullscreenenter"",""0"",""3303""
","
","
","""event"",""trial"",""time""
""fullscreenenter"",""0"",""3303""
","
",1509.4,,,,,,,,49,"1,0,0",2,countryside,105,probe-229,0.212858243,0.655613019,0.067736854,1,,,,,,,,
,html-keyboard-response,321,1233375,0.0-168.0-1.0,"""event"",""trial"",""time""
""fullscreenenter"",""0"",""3303""
","
","
","""event"",""trial"",""time""
""fullscreenenter"",""0"",""3303""
","
",null,<p></p>,null,,,,,,,,,,,,,,,,,,,,,,,
,do_trial,322,1238299,0.0-169.0-0.0,"""event"",""trial"",""time""
""fullscreenenter"",""0"",""3303""
","
","
","""event"",""trial"",""time""
""fullscreenenter"",""0"",""3303""
","
",380.8,,,,,,,,49,"1,0,0",2,countryside,106,probe-226,0.221522892,0.629654736,0.103860531,1,,,,,,,,
,html-keyboard-response,323,1239305,0.0-169.0-1.0,"""event"",""trial"",""time""
""fullscreenenter"",""0"",""3303""
","
","
","""event"",""trial"",""time""
""fullscreenenter"",""0"",""3303""
","
",null,<p></p>,null,,,,,,,,,,,,,,,,,,,,,,,
,do_trial,324,1244204,0.0-170.0-0.0,"""event"",""trial"",""time""
""fullscreenenter"",""0"",""3303""
","
","
","""event"",""trial"",""time""
""fullscreenenter"",""0"",""3303""
","
",366.5,,,,,,,,49,"1,0,0",2,countryside,107,probe-35,0.330017388,0.604430864,0.129872399,1,,,,,,,,
,html-keyboard-response,325,1245211,0.0-170.0-1.0,"""event"",""trial"",""time""
""fullscreenenter"",""0"",""3303""
","
","
","""event"",""trial"",""time""
""fullscreenenter"",""0"",""3303""
","
",null,<p></p>,null,,,,,,,,,,,,,,,,,,,,,,,
,do_trial,326,1249982,0.0-171.0-0.0,"""event"",""trial"",""time""
""fullscreenenter"",""0"",""3303""
","
","
","""event"",""trial"",""time""
""fullscreenenter"",""0"",""3303""
","
",236.1,,,,,,,,49,"0,1,0",2,countryside,108,probe-87,0.275561453,0.720209987,0.215966902,0,,,,,,,,
,html-keyboard-response,327,1250991,0.0-171.0-1.0,"""event"",""trial"",""time""
""fullscreenenter"",""0"",""3303""
","
","
","""event"",""trial"",""time""
""fullscreenenter"",""0"",""3303""
","
",null,<p></p>,null,,,,,,,,,,,,,,,,,,,,,,,
,do_trial,328,1255795,0.0-172.0-0.0,"""event"",""trial"",""time""
""fullscreenenter"",""0"",""3303""
","
","
","""event"",""trial"",""time""
""fullscreenenter"",""0"",""3303""
","
",270.3,,,,,,,,49,"0,1,0",2,countryside,109,probe-78,0.252987307,0.653192239,0.058453397,0,,,,,,,,
,html-keyboard-response,329,1256804,0.0-172.0-1.0,"""event"",""trial"",""time""
""fullscreenenter"",""0"",""3303""
","
","
","""event"",""trial"",""time""
""fullscreenenter"",""0"",""3303""
","
",null,<p></p>,null,,,,,,,,,,,,,,,,,,,,,,,
,do_bye,330,1258310,0.0-173.0-0.0,"""event"",""trial"",""time""
""fullscreenenter"",""0"",""3303""
","
","