"success","trial_type","trial_index","time_elapsed","internal_node_id","interactions","blur_events","focus_events","fullscreenenter_events","fullscreenexit_events","rt","stimulus","key_press","subject_id","participant_id","age","gender","prompt","response","choice_outcomes","context_n","context_img_id","trial_n","probe_img_id","pR_red","pR_white","pR_black","outcome","contextArray_ind","validImageProbes","invalidImageProbes","pRew_Red","pRew_White","pRew_Black","availableForMemProbe","choice_blocks"
"true","fullscreen","0","5665","0.0-0.0","""event"",""trial"",""time""
""fullscreenenter"",""0"",""4823""
","
","
","""event"",""trial"",""time""
""fullscreenenter"",""0"",""4823""
","
","","","","","","","","","","","","","","","","","","","","","","","","","",""
"","pavlovia","1","5671","0.0-1.0","""event"",""trial"",""time""
""fullscreenenter"",""0"",""4823""
","
","
","""event"",""trial"",""time""
""fullscreenenter"",""0"",""4823""
","
","","","","","","","","","","","","","","","","","","","","","","","","","",""
"","instruc1","2","50799","0.0-2.0","""event"",""trial"",""time""
""fullscreenenter"",""0"",""4823""
","
","
","""event"",""trial"",""time""
""fullscreenenter"",""0"",""4823""
","
","null","run_exp/static/audio/clip_1_welcome.m4a","null","1325","1352","15","Female","<div class='center'><p>Welcome! This is the first part of the study. It will last ~30 minutes. In part 1 and part 2 of the study, you are the head captain of a pirate ship traveling around the world to different islands. You will play a few different games throughout these two parts. Here is an overview of them:</p><br><p>Part 1 (today)</p><p>1. Instructions, practice game, and quiz</p><p>2. Pick a pirate game on 6 different islands</p><br><p>Part 2 (tomorrow)</p><p>3. Pick a pirate game and memory game</p><p>4. Where did you see this ship? </p></div>","","","","","","","","","","","","","","","","","",""
"","html-keyboard-response","3","52304","0.0-3.0","""event"",""trial"",""time""
""fullscreenenter"",""0"",""4823""
","
","
","""event"",""trial"",""time""
""fullscreenenter"",""0"",""4823""
","
","1504","<div class='center'><p>Welcome! This is the first part of the study. It will last ~30 minutes. In part 1 and part 2 of the study, you are the head captain of a pirate ship traveling around the world to different islands. You will play a few different games throughout these two parts. Here is an overview of them:</p><br><p>Part 1 (today)</p><p>1. Instructions, practice game, and quiz</p><p>2. Pick a pirate game on 6 different islands</p><br><p>Part 2 (tomorrow)</p><p>3. Pick a pirate game and memory game</p><p>4. Where did you see this ship? </p><p><b>[Press the space bar to continue]</b></p></div>","32","","","","","","","","","","","","","","","","","","","","","","",""
"","instruc2","4","57596","0.0-4.0","""event"",""trial"",""time""
""fullscreenenter"",""0"",""4823""
","
","
","""event"",""trial"",""time""
""fullscreenenter"",""0"",""4823""
","
","null","run_exp/static/audio/clip_2_different_places.m4a","null","","","","","<div class='center'><p>Today, you’ll visit these 6 islands on your journey. You'll be able to see these islands from your ship.</p><p><img src='run_exp/static/images/contexts/all_contexts.png' height='500'></p></div>","","","","","","","","","","","","","","","","","",""
"","html-keyboard-response","5","64049","0.0-5.0","""event"",""trial"",""time""
""fullscreenenter"",""0"",""4823""
","
","
","""event"",""trial"",""time""
""fullscreenenter"",""0"",""4823""
","
","6451","<div class='center'><p>Today, you’ll visit these 6 islands on your journey. You'll be able to see these islands from your ship.</p><p><img src='run_exp/static/images/contexts/all_contexts.png' height='500'></p><p><b>[Press the space bar to continue]</b></p></div>","32","","","","","","","","","","","","","","","","","","","","","","",""
"","instruc3","6","73755","0.0-6.0","""event"",""trial"",""time""
""fullscreenenter"",""0"",""4823""
","
","
","""event"",""trial"",""time""
""fullscreenenter"",""0"",""4823""
","
","null","run_exp/static/audio/clip_3_goal_of_game_1.m4a","null","","","","","<div class='center'><p> The pirates on your ship will rob other ships as they leave the island.</p> These ships have just sold their goods to the islanders, so they will be filled with lots and lots of gold.</p><p><img src='run_exp/static/images/tutorial/ship_center.png' height='400'></p></div>","","","","","","","","","","","","","","","","","",""
"","html-keyboard-response","7","78794","0.0-7.0","""event"",""trial"",""time""
""fullscreenenter"",""0"",""4823""
","
","
","""event"",""trial"",""time""
""fullscreenenter"",""0"",""4823""
","
","5037","<div class='center'><p> The pirates on your ship will rob other ships as they leave the island.</p> These ships have just sold their goods to the islanders, so they will be filled with lots and lots of gold.</p><p><img src='run_exp/static/images/tutorial/ship_center.png' height='400'></p><p><b>[Press the space bar to continue]</b></p></div>","32","","","","","","","","","","","","","","","","","","","","","","",""
"","instruc4","8","106786","0.0-8.0","""event"",""trial"",""time""
""fullscreenenter"",""0"",""4823""
","
","
","""event"",""trial"",""time""
""fullscreenenter"",""0"",""4823""
","
","null","run_exp/static/audio/clip_4_goal_of_game_2.m4a","null","","","","","<div class='center'><p>As the head captain, you do not have to rob any ships yourself. Another pirate will be doing the robbing for you. First, you will choose a pirate to rob the next ship.</p><p><img src='run_exp/static/images/tutorial/pirates_all_crop.png' height='200'></p><p>Then, you'll see if the pirate successfully robbed the ship of their gold. If they were successful, then you'll get a stack of gold coins like this:</p><p><img src='run_exp/static/images/tutorial/reward.png' height='150'></p><p> If they were <b>not</b> successful, then you'll get no gold coins, and you'll see a big red x like this: </p><p><img src='run_exp/static/images/tutorial/reward_no.png' height='150'></p><p> How much bonus money you make is based on how many gold coins you collect.</p><div>","","","","","","","","","","","","","","","","","",""
"","html-keyboard-response","9","108080","0.0-9.0","""event"",""trial"",""time""
""fullscreenenter"",""0"",""4823""
","
","
","""event"",""trial"",""time""
""fullscreenenter"",""0"",""4823""
","
","1291","<div class='center'><p>As the head captain, you do not have to rob any ships yourself. Another pirate will be doing the robbing for you. First, you will choose a pirate to rob the next ship.</p><p><img src='run_exp/static/images/tutorial/pirates_all_crop.png' height='200'></p><p>Then, you'll see if the pirate successfully robbed the ship of their gold. If they were successful, then you'll get a stack of gold coins like this:</p><p><img src='run_exp/static/images/tutorial/reward.png' height='150'></p><p> If they were <b>not</b> successful, then you'll get no gold coins, and you'll see a big red x like this: </p><p><img src='run_exp/static/images/tutorial/reward_no.png' height='150'></p><p> How much bonus money you make is based on how many gold coins you collect.</p<p><b>[Press the space bar to continue]</b></p></div>","32","","","","","","","","","","","","","","","","","","","","","","",""
"","instruc5","10","130857","0.0-10.0","""event"",""trial"",""time""
""fullscreenenter"",""0"",""4823""
","
","
","""event"",""trial"",""time""
""fullscreenenter"",""0"",""4823""
","
","22775","run_exp/static/audio/clip_5_probabilistic.m4a","49","","","","","<div class='center'><p>Even the most skilled pirate can not rob EVERY ship.</p><p> Some ships will have very strong protections against pirate attacks.</p><p> Blue beard, here, is very, very good at robbing ships, but he won't be successful every time he tries to rob one.</p><p> You can press the <b>‘1’</b> key on the keyboard to choose him.</p><p> Try choosing him 10 times to see how often he succeeds at robbing a ship. </p><p><img src='run_exp/static/images/tutorial/blue.png' height='500'></p></div>","","","","","","","","","","","","","","","","","",""
"","html-keyboard-response","11","132358","0.0-11.0","""event"",""trial"",""time""
""fullscreenenter"",""0"",""4823""
","
","
","""event"",""trial"",""time""
""fullscreenenter"",""0"",""4823""
","
","null","<div class='center'><p><img src='run_exp/static/images/tutorial/blue_win.png' height='500'></p></div>","null","","","","","","","","","","","","","","","","","","","","","","",""
"","html-keyboard-response","12","133693","0.0-12.0","""event"",""trial"",""time""
""fullscreenenter"",""0"",""4823""
","
","
","""event"",""trial"",""time""
""fullscreenenter"",""0"",""4823""
","
","1333","<div class='center'><img src='run_exp/static/images/tutorial/blue.png' height='500'></p></div>","49","","","","","","","","","","","","","","","","","","","","","","",""
"","html-keyboard-response","13","135193","0.0-13.0","""event"",""trial"",""time""
""fullscreenenter"",""0"",""4823""
","
","
","""event"",""trial"",""time""
""fullscreenenter"",""0"",""4823""
","
","null","<div class='center'><p><img src='run_exp/static/images/tutorial/blue_win.png' height='500'></p></div>","null","","","","","","","","","","","","","","","","","","","","","","",""
"","html-keyboard-response","14","136255","0.0-14.0","""event"",""trial"",""time""
""fullscreenenter"",""0"",""4823""
","
","
","""event"",""trial"",""time""
""fullscreenenter"",""0"",""4823""
","
","1061","<div class='center'><img src='run_exp/static/images/tutorial/blue.png' height='500'></p></div>","49","","","","","","","","","","","","","","","","","","","","","","",""
"","html-keyboard-response","15","137756","0.0-15.0","""event"",""trial"",""time""
""fullscreenenter"",""0"",""4823""
","
","
","""event"",""trial"",""time""
""fullscreenenter"",""0"",""4823""
","
","null","<div class='center'><p><img src='run_exp/static/images/tutorial/blue_win.png' height='500'></p></div>","null","","","","","","","","","","","","","","","","","","","","","","",""
"","html-keyboard-response","16","138399","0.0-16.0","""event"",""trial"",""time""
""fullscreenenter"",""0"",""4823""
","
","
","""event"",""trial"",""time""
""fullscreenenter"",""0"",""4823""
","
","641","<div class='center'><img src='run_exp/static/images/tutorial/blue.png' height='500'></p></div>","49","","","","","","","","","","","","","","","","","","","","","","",""
"","html-keyboard-response","17","139899","0.0-17.0","""event"",""trial"",""time""
""fullscreenenter"",""0"",""4823""
","
","
","""event"",""trial"",""time""
""fullscreenenter"",""0"",""4823""
","
","null","<div class='center'><p><img src='run_exp/static/images/tutorial/blue_no_win.png' height='500'></p></div>","null","","","","","","","","","","","","","","","","","","","","","","",""
"","html-keyboard-response","18","140076","0.0-18.0","""event"",""trial"",""time""
""fullscreenenter"",""0"",""4823""
","
","
","""event"",""trial"",""time""
""fullscreenenter"",""0"",""4823""
","
","175","<div class='center'><img src='run_exp/static/images/tutorial/blue.png' height='500'></p></div>","49","","","","","","","","","","","","","","","","","","","","","","",""
"","html-keyboard-response","19","141576","0.0-19.0","""event"",""trial"",""time""
""fullscreenenter"",""0"",""4823""
","
","
","""event"",""trial"",""time""
""fullscreenenter"",""0"",""4823""
","
","null","<div class='center'><p><img src='run_exp/static/images/tutorial/blue_win.png' height='500'></p></div>","null","","","","","","","","","","","","","","","","","","","","","","",""
"","html-keyboard-response","20","142320","0.0-20.0","""event"",""trial"",""time""
""fullscreenenter"",""0"",""4823""
","
","
","""event"",""trial"",""time""
""fullscreenenter"",""0"",""4823""
","
","743","<div class='center'><img src='run_exp/static/images/tutorial/blue.png' height='500'></p></div>","49","","","","","","","","","","","","","","","","","","","","","","",""
"","html-keyboard-response","21","143821","0.0-21.0","""event"",""trial"",""time""
""fullscreenenter"",""0"",""4823""
","
","
","""event"",""trial"",""time""
""fullscreenenter"",""0"",""4823""
","
","null","<div class='center'><p><img src='run_exp/static/images/tutorial/blue_win.png' height='500'></p></div>","null","","","","","","","","","","","","","","","","","","","","","","",""
"","html-keyboard-response","22","144402","0.0-22.0","""event"",""trial"",""time""
""fullscreenenter"",""0"",""4823""
","
","
","""event"",""trial"",""time""
""fullscreenenter"",""0"",""4823""
","
","580","<div class='center'><img src='run_exp/static/images/tutorial/blue.png' height='500'></p></div>","49","","","","","","","","","","","","","","","","","","","","","","",""
"","html-keyboard-response","23","145903","0.0-23.0","""event"",""trial"",""time""
""fullscreenenter"",""0"",""4823""
","
","
","""event"",""trial"",""time""
""fullscreenenter"",""0"",""4823""
","
","null","<div class='center'><p><img src='run_exp/static/images/tutorial/blue_win.png' height='500'></p></div>","null","","","","","","","","","","","","","","","","","","","","","","",""
"","html-keyboard-response","24","146335","0.0-24.0","""event"",""trial"",""time""
""fullscreenenter"",""0"",""4823""
","
","
","""event"",""trial"",""time""
""fullscreenenter"",""0"",""4823""
","
","431","<div class='center'><img src='run_exp/static/images/tutorial/blue.png' height='500'></p></div>","49","","","","","","","","","","","","","","","","","","","","","","",""
"","html-keyboard-response","25","147836","0.0-25.0","""event"",""trial"",""time""
""fullscreenenter"",""0"",""4823""
","
","
","""event"",""trial"",""time""
""fullscreenenter"",""0"",""4823""
","
","null","<div class='center'><p><img src='run_exp/static/images/tutorial/blue_no_win.png' height='500'></p></div>","null","","","","","","","","","","","","","","","","","","","","","","",""
"","html-keyboard-response","26","148429","0.0-26.0","""event"",""trial"",""time""
""fullscreenenter"",""0"",""4823""
","
","
","""event"",""trial"",""time""
""fullscreenenter"",""0"",""4823""
","
","591","<div class='center'><img src='run_exp/static/images/tutorial/blue.png' height='500'></p></div>","49","","","","","","","","","","","","","","","","","","","","","","",""
"","html-keyboard-response","27","149930","0.0-27.0","""event"",""trial"",""time""
""fullscreenenter"",""0"",""4823""
","
","
","""event"",""trial"",""time""
""fullscreenenter"",""0"",""4823""
","
","null","<div class='center'><p><img src='run_exp/static/images/tutorial/blue_win.png' height='500'></p></div>","null","","","","","","","","","","","","","","","","","","","","","","",""
"","html-keyboard-response","28","150369","0.0-28.0","""event"",""trial"",""time""
""fullscreenenter"",""0"",""4823""
","
","
","""event"",""trial"",""time""
""fullscreenenter"",""0"",""4823""
","
","438","<div class='center'><img src='run_exp/static/images/tutorial/blue.png' height='500'></p></div>","49","","","","","","","","","","","","","","","","","","","","","","",""
"","html-keyboard-response","29","151870","0.0-29.0","""event"",""trial"",""time""
""fullscreenenter"",""0"",""4823""
","
","
","""event"",""trial"",""time""
""fullscreenenter"",""0"",""4823""
","
","null","<div class='center'><p><img src='run_exp/static/images/tutorial/blue_win.png' height='500'></p></div>","null","","","","","","","","","","","","","","","","","","","","","","",""
"","instruc6","30","157296","0.0-30.0","""event"",""trial"",""time""
""fullscreenenter"",""0"",""4823""
","
","
","""event"",""trial"",""time""
""fullscreenenter"",""0"",""4823""
","
","null","run_exp/static/audio/clip_6_blue_beard_outcome.m4a","null","","","","","<div class='center'><p> See, he succeeded in robbing the ships most of the time but not every time. </p></div>","","","","","","","","","","","","","","","","","",""
"","html-keyboard-response","31","158539","0.0-31.0","""event"",""trial"",""time""
""fullscreenenter"",""0"",""4823""
","
","
","""event"",""trial"",""time""
""fullscreenenter"",""0"",""4823""
","
","1241","<div class='center'><p> See, he succeeded in robbing the ships most of the time but not every time. </p><p><b>[Press the space bar to continue]</b></p></div>","32","","","","","","","","","","","","","","","","","","","","","","",""
"","audio-keyboard-response","32","174915","0.0-32.0","""event"",""trial"",""time""
""fullscreenenter"",""0"",""4823""
","
","
","""event"",""trial"",""time""
""fullscreenenter"",""0"",""4823""
","
","16375","run_exp/static/audio/clip_7_pick_pirate.m4a","50","","","","","","","","","","","","","","","","","","","","","","",""
"","audio-keyboard-response","33","179140","0.0-33.0-0.0","""event"",""trial"",""time""
""fullscreenenter"",""0"",""4823""
","
","
","""event"",""trial"",""time""
""fullscreenenter"",""0"",""4823""
","
","4222","run_exp/static/audio/clip_8_chosen_pirate_win.m4a","32","","","","","","","","","","","","","","","","","","","","","","",""
"","audio-keyboard-response","34","181281","0.0-33.0-1.0","""event"",""trial"",""time""
""fullscreenenter"",""0"",""4823""
","
","
","""event"",""trial"",""time""
""fullscreenenter"",""0"",""4823""
","
","2139","run_exp/static/audio/clip_9_pick_a_pirate_again.m4a","51","","","","","","","","","","","","","","","","","","","","","","",""
"","audio-keyboard-response","35","182459","0.0-34.0-0.0","""event"",""trial"",""time""
""fullscreenenter"",""0"",""4823""
","
","
","""event"",""trial"",""time""
""fullscreenenter"",""0"",""4823""
","
","1175","run_exp/static/audio/clip_10_chosen_pirate_loss.m4a","32","","","","","","","","","","","","","","","","","","","","","","",""
"","instruc9","36","187946","0.0-35.0-0.0","""event"",""trial"",""time""
""fullscreenenter"",""0"",""4823""
","
","
","""event"",""trial"",""time""
""fullscreenenter"",""0"",""4823""
","
","null","run_exp/static/audio/clip_11_time_out.m4a","null","","","","","<div class='center'><p>If you don’t make your choice fast enough, you’ll have to wait a few seconds before you can make another one. </p><p><img src='run_exp/static/images/miscellaneous/hurry_up.png' height='500'></p></div>","","","","","","","","","","","","","","","","","",""
"","html-keyboard-response","37","189152","0.0-35.0-1.0","""event"",""trial"",""time""
""fullscreenenter"",""0"",""4823""
","
","
","""event"",""trial"",""time""
""fullscreenenter"",""0"",""4823""
","
","1203","<div class='center'><p>If you don’t make your choice fast enough, you’ll have to wait a few seconds before you can make another one. </p><p><img src='run_exp/static/images/miscellaneous/hurry_up.png' height='500'></p><p><b>[Press the space bar to continue]</b></p></div>","32","","","","","","","","","","","","","","","","","","","","","","",""
"","instruc10","38","228237","0.0-35.0-2.0","""event"",""trial"",""time""
""fullscreenenter"",""0"",""4823""
","
","
","""event"",""trial"",""time""
""fullscreenenter"",""0"",""4823""
","
","null","run_exp/static/audio/clip_12_probe.m4a","null","","","","","<div class='center'><p>Once you've chosen a pirate, you’ll be shown the ship they are robbing. You will never rob the same ship twice. Ships can be told apart from one another by the image on them. These are the goods that they sell. See, this ship has a travel mug on it. </p><p> You’ll have to remember which island you saw each ship on. You will win more gold coins and hence more bonus money if you remember correctly! To help you remember, you can imagine a story. For example, here, you could imagine a mug full of water in the desert. Or, as another example, if on the forest island, your pirate robbed a ship with an apple on it, you could imagine an apple falling from a tree in the forest. </p><p><img src='run_exp/static/images/tutorial/example_probe.png' height='500'></p></div>","","","","","","","","","","","","","","","","","",""
"","html-keyboard-response","39","229755","0.0-35.0-3.0","""event"",""trial"",""time""
""fullscreenenter"",""0"",""4823""
","
","
","""event"",""trial"",""time""
""fullscreenenter"",""0"",""4823""
","
","1515","<div class='center'><p>Once you've chosen a pirate, you’ll be shown the ship they are robbing. You will never rob the same ship twice. Ships can be told apart from one another by the image on them. These are the goods that they sell. See, this ship has a travel mug on it. </p><p> You’ll have to remember which island you saw each ship on. You will win more gold coins and hence more bonus money if you remember correctly! To help you remember, you can imagine a story. For example, here, you could imagine a mug full of water in the desert. Or, as another example, if on the forest island, your pirate robbed a ship with an apple on it, you could imagine an apple falling from a tree in the forest. </p><p><img src='run_exp/static/images/tutorial/example_probe.png' height='500'></p><p><b>[Press the space bar to continue]</b></p></div>","32","","","","","","","","","","","","","","","","","","","","","","",""
"","instruc11","40","246157","0.0-35.0-4.0","""event"",""trial"",""time""
""fullscreenenter"",""0"",""4823""
","
","
","""event"",""trial"",""time""
""fullscreenenter"",""0"",""4823""
","
","null","run_exp/static/audio/clip_13_changepoint.m4a","null","","","","","<div class='center'><p>How successful a pirate is at robbing ships will depend on the island you’re on.</p><p> A pirate may have visited this island many times before and gained a lot of practice robbing ships there.</p><p>So, they’re more likely to be successful than a pirate who has never visited the island before.</p></div>","","","","","","","","","","","","","","","","","",""
"","html-keyboard-response","41","250978","0.0-35.0-5.0","""event"",""trial"",""time""
""fullscreenenter"",""0"",""4823""
","
","
","""event"",""trial"",""time""
""fullscreenenter"",""0"",""4823""
","
","4819","<div class='center'><p>How successful a pirate is at robbing ships will depend on the island you’re on.</p><p> A pirate may have visited this island many times before and gained a lot of practice robbing ships there.</p><p>So, they’re more likely to be successful than a pirate who has never visited the island before.</p><p><b>[Press the space bar to continue]</b></p></div>","32","","","","","","","","","","","","","","","","","","","","","","",""
"","instruc12","42","292056","0.0-35.0-6.0","""event"",""trial"",""time""
""fullscreenenter"",""0"",""4823""
","
","
","""event"",""trial"",""time""
""fullscreenenter"",""0"",""4823""
","
","null","run_exp/static/audio/clip_14_drift.m4a","null","","","","","<div class='center'><p>How successful a pirate is at robbing ships can also change over the time spent on the island. </p><p> Ships may hear from islanders about the pirates coming and will improve their protections against the attack. This may make it harder to rob them.</p><p> Ships may also become lazy and weaken the strength of their protections. This may make it easier to rob them.</p><br><p>Things are always changing on the high seas! So, try your best to pay attention!</p><p><img src='run_exp/static/images/tutorial/contingency.png' height='500'></p></div>","","","","","","","","","","","","","","","","","",""
"","html-keyboard-response","43","303600","0.0-35.0-7.0","""event"",""trial"",""time""
""fullscreenenter"",""0"",""4823""
","
","
","""event"",""trial"",""time""
""fullscreenenter"",""0"",""4823""
","
","11541","<div class='center'><p>How successful a pirate is at robbing ships can also change over the time spent on the island. </p><p> Ships may hear from islanders about the pirates coming and will improve their protections against the attack. This may make it harder to rob them.</p><p> Ships may also become lazy and weaken the strength of their protections. This may make it easier to rob them.</p><br><p>Things are always changing on the high seas! So, try your best to pay attention!</p><p><img src='run_exp/static/images/tutorial/contingency.png' height='500'></p><p><b>[Press the space bar to continue]</b></p></div>","32","","","","","","","","","","","","","","","","","","","","","","",""
"","instruc13","44","338766","0.0-35.0-8.0","""event"",""trial"",""time""
""fullscreenenter"",""0"",""4823""
","
","
","""event"",""trial"",""time""
""fullscreenenter"",""0"",""4823""
","
","null","run_exp/static/audio/clip_15_summary.m4a","null","","","","","<div class='center'><p>Let's go over the instructions quickly again. You have two important things to do: </p><b><p> 1. Pick the pirate who is the best at robbing ships on the current island. </p></b><b><p> 2. Remember on which island a ship was robbed.</p> </b><p>The amount of bonus money you can win depends on both.</p><p><br><p>Let’s try a practice game. The game will start by showing you the pirates. First, pick a pirate using the <b> 1, 2, 3 </b> keys on your keyboard. When you are shown a ship, try to remember which island you’re on by making up a story.</p><p>This is just a practice game, so you’re not playing for money. </p><p> Good luck! This game will be very difficult but try your best!</p></div>","","","","","","","","","","","","","","","","","",""
"","html-keyboard-response","45","340020","0.0-35.0-9.0","""event"",""trial"",""time""
""fullscreenenter"",""0"",""4823""
","
","
","""event"",""trial"",""time""
""fullscreenenter"",""0"",""4823""
","
","1252","<div class='center'><p>Let's go over the instructions quickly again. You have two important things to do: </p><b><p> 1. Pick the pirate who is the best at robbing ships on the current island. </p></b><b><p> 2. Remember on which island a ship was robbed.</p> </b><p>The amount of bonus money you can win depends on both.</p><p><br><p>Let’s try a practice game. The game will start by showing you the pirates. First, pick a pirate using the <b> 1, 2, 3 </b> keys on your keyboard. When you are shown a ship, try to remember which island you’re on by making up a story.</p><p>This is just a practice game, so you’re not playing for money. </p><p> Good luck! This game will be very difficult but try your best!</p><p><b>[Press the space bar to continue]</b></p></div>","32","","","","","","","","","","","","","","","","","","","","","","",""
"","do_welcome","46","344029","0.0-35.0-10.0","""event"",""trial"",""time""
""fullscreenenter"",""0"",""4823""
","
","
","""event"",""trial"",""time""
""fullscreenenter"",""0"",""4823""
","
","null","","","","","","","","null","","","","","","","","","","","","","","","","",""
"","do_trial","47","350038","0.0-35.0-11.0","""event"",""trial"",""time""
""fullscreenenter"",""0"",""4823""
","
","
","""event"",""trial"",""time""
""fullscreenenter"",""0"",""4823""
","
","null","","","","","","","","null","1,0,0","","","","","","","","","","","","","","","",""
"","html-keyboard-response","48","351039","0.0-36.0-0.0","""event"",""trial"",""time""
""fullscreenenter"",""0"",""4823""
","
","
","""event"",""trial"",""time""
""fullscreenenter"",""0"",""4823""
","
","null","<p></p>","null","","","","","","","","","","","","","","","","","","","","","","",""
"","do_trial","49","356123","0.0-36.0-1.0","""event"",""trial"",""time""
""fullscreenenter"",""0"",""4823""
","
","
","""event"",""trial"",""time""
""fullscreenenter"",""0"",""4823""
","
","576","","","","","","","","50","1,0,0","","","","","","","","","","","","","","","",""
"","html-keyboard-response","50","357124","0.0-37.0-0.0","""event"",""trial"",""time""
""fullscreenenter"",""0"",""4823""
","
","
","""event"",""trial"",""time""
""fullscreenenter"",""0"",""4823""
","
","null","<p></p>","null","","","","","","","","","","","","","","","","","","","","","","",""
"","do_trial","51","362722","0.0-37.0-1.0","""event"",""trial"",""time""
""fullscreenenter"",""0"",""4823""
","
","
","""event"",""trial"",""time""
""fullscreenenter"",""0"",""4823""
","
","1091","","","","","","","","51","1,1,0","","","","","","","","","","","","","","","",""
"","html-keyboard-response","52","363723","0.0-38.0-0.0","""event"",""trial"",""time""
""fullscreenenter"",""0"",""4823""
","
","
","""event"",""trial"",""time""
""fullscreenenter"",""0"",""4823""
","
","null","<p></p>","null","","","","","","","","","","","","","","","","","","","","","","",""
"","do_trial","53","369273","0.0-38.0-1.0","""event"",""trial"",""time""
""fullscreenenter"",""0"",""4823""
","
","
","""event"",""trial"",""time""
""fullscreenenter"",""0"",""4823""
","
","1042","","","","","","","","49","1,0,1","","","","","","","","","","","","","","","",""
"","html-keyboard-response","54","370274","0.0-39.0-0.0","""event"",""trial"",""time""
""fullscreenenter"",""0"",""4823""
","
","
","""event"",""trial"",""time""
""fullscreenenter"",""0"",""4823""
","
","null","<p></p>","null","","","","","","","","","","","","","","","","","","","","","","",""
"","do_trial","55","375606","0.0-39.0-1.0","""event"",""trial"",""time""
""fullscreenenter"",""0"",""4823""
","
","
","""event"",""trial"",""time""
""fullscreenenter"",""0"",""4823""
","
","824","","","","","","","","50","0,1,0","","","","","","","","","","","","","","","",""
"","html-keyboard-response","56","376607","0.0-40.0-0.0","""event"",""trial"",""time""
""fullscreenenter"",""0"",""4823""
","
","
","""event"",""trial"",""time""
""fullscreenenter"",""0"",""4823""
","
","null","<p></p>","null","","","","","","","","","","","","","","","","","","","","","","",""
"","do_trial","57","381631","0.0-40.0-1.0","""event"",""trial"",""time""
""fullscreenenter"",""0"",""4823""
","
","
","""event"",""trial"",""time""
""fullscreenenter"",""0"",""4823""
","
","516","","","","","","","","51","1,0,0","","","","","","","","","","","","","","","",""
"","do_bye","58","383137","0.0-41.0-0.0","""event"",""trial"",""time""
""fullscreenenter"",""0"",""4823""
","
","
","""event"",""trial"",""time""
""fullscreenenter"",""0"",""4823""
","
","null","","","","","","","","null","","","","","","","","","","","","","","","","",""
"","do_travel","59","392140","0.0-41.0-1.0","""event"",""trial"",""time""
""fullscreenenter"",""0"",""4823""
","
","
","""event"",""trial"",""time""
""fullscreenenter"",""0"",""4823""
","
","null","","","","","","","","null","","","","","","","","","","","","","","","","",""
"","do_welcome","60","396147","0.0-41.0-2.0","""event"",""trial"",""time""
""fullscreenenter"",""0"",""4823""
","
","
","""event"",""trial"",""time""
""fullscreenenter"",""0"",""4823""
","
","null","","","","","","","","null","","","","","","","","","","","","","","","","",""
"","do_trial","61","401029","0.0-41.0-3.0","""event"",""trial"",""time""
""fullscreenenter"",""0"",""4823""
","
","
","""event"",""trial"",""time""
""fullscreenenter"",""0"",""4823""
","
","373","","","","","","","","49","1,0,0","","","","","","","","","","","","","","","",""
"","html-keyboard-response","62","402030","0.0-42.0-0.0","""event"",""trial"",""time""
""fullscreenenter"",""0"",""4823""
","
","
","""event"",""trial"",""time""
""fullscreenenter"",""0"",""4823""
","
","null","<p></p>","null","","","","","","","","","","","","","","","","","","","","","","",""
"","do_trial","63","407438","0.0-42.0-1.0","""event"",""trial"",""time""
""fullscreenenter"",""0"",""4823""
","
","
","""event"",""trial"",""time""
""fullscreenenter"",""0"",""4823""
","
","900","","","","","","","","51","1,0,1","","","","","","","","","","","","","","","",""
"","html-keyboard-response","64","408439","0.0-43.0-0.0","""event"",""trial"",""time""
""fullscreenenter"",""0"",""4823""
","
","
","""event"",""trial"",""time""
""fullscreenenter"",""0"",""4823""
","
","null","<p></p>","null","","","","","","","","","","","","","","","","","","","","","","",""
"","do_trial","65","414086","0.0-43.0-1.0","""event"",""trial"",""time""
""fullscreenenter"",""0"",""4823""
","
","
","""event"",""trial"",""time""
""fullscreenenter"",""0"",""4823""
","
","1140","","","","","","","","50","1,1,0","","","","","","","","","","","","","","","",""
"","html-keyboard-response","66","415087","0.0-44.0-0.0","""event"",""trial"",""time""
""fullscreenenter"",""0"",""4823""
","
","
","""event"",""trial"",""time""
""fullscreenenter"",""0"",""4823""
","
","null","<p></p>","null","","","","","","","","","","","","","","","","","","","","","","",""
"","do_trial","67","420572","0.0-44.0-1.0","""event"",""trial"",""time""
""fullscreenenter"",""0"",""4823""
","
","
","""event"",""trial"",""time""
""fullscreenenter"",""0"",""4823""
","
","977","","","","","","","","49","0,0,1","","","","","","","","","","","","","","","",""
"","html-keyboard-response","68","421573","0.0-45.0-0.0","""event"",""trial"",""time""
""fullscreenenter"",""0"",""4823""
","
","
","""event"",""trial"",""time""
""fullscreenenter"",""0"",""4823""
","
","null","<p></p>","null","","","","","","","","","","","","","","","","","","","","","","",""
"","do_trial","69","426586","0.0-45.0-1.0","""event"",""trial"",""time""
""fullscreenenter"",""0"",""4823""
","
","
","""event"",""trial"",""time""
""fullscreenenter"",""0"",""4823""
","
","505","","","","","","","","51","1,0,1","","","","","","","","","","","","","","","",""
"","html-keyboard-response","70","433425","0.0-46.0-0.0","""event"",""trial"",""time""
""fullscreenenter"",""0"",""4823""
","
","
","""event"",""trial"",""time""
""fullscreenenter"",""0"",""4823""
","
","6837","<div class='center'><p><img src='run_exp/static/images/tutorial/prac_best_pirate.png'  height='500'></p></div>","50","","","","","","","","","","","","","","","","","","","","","","",""
"","html-keyboard-response","71","435290","0.0-47.0-0.0","""event"",""trial"",""time""
""fullscreenenter"",""0"",""4823""
","
","
","""event"",""trial"",""time""
""fullscreenenter"",""0"",""4823""
","
","1863","<div class='center'><p>That's incorrect! Red beard was the best.</p><p><b>[Press the space bar to continue]</b></p></div>","32","","","","","","","","","","","","","","","","","","","","","","",""
"","html-keyboard-response","72","440142","0.0-47.0-1.0","""event"",""trial"",""time""
""fullscreenenter"",""0"",""4823""
","
","
","""event"",""trial"",""time""
""fullscreenenter"",""0"",""4823""
","
","4851","<div class='center'><p><img src='run_exp/static/images/tutorial/prac_source.png'  height='500'></p></div>","50","","","","","","","","","","","","","","","","","","","","","","",""
"","html-keyboard-response","73","441519","0.0-48.0-0.0","""event"",""trial"",""time""
""fullscreenenter"",""0"",""4823""
","
","
","""event"",""trial"",""time""
""fullscreenenter"",""0"",""4823""
","
","1376","<div class='center'><p>That's correct! You saw this ship on the cavern island.</p><p><b>[Press the space bar to continue]</b></p></div>","32","","","","","","","","","","","","","","","","","","","","","","",""
"","quiz_beginning","74","452737","0.0-48.0-1.0","""event"",""trial"",""time""
""fullscreenenter"",""0"",""4823""
","
","
","""event"",""trial"",""time""
""fullscreenenter"",""0"",""4823""
","
","null","run_exp/static/audio/clip_16_quiz_intro.m4a","null","","","","","<div class='center'><p>Good job on the practice game! Now, you will be asked some true or false questions to make sure you really understand the rules of the game.</p><p> Press <b>'1'</b> on the keyboard for true and press <b>'2'</b> for false.</p></div>","","","","","","","","","","","","","","","","","",""
"","audio-keyboard-response","75","461495","0.0-48.0-2.0","""event"",""trial"",""time""
""fullscreenenter"",""0"",""4823""
","
","
","""event"",""trial"",""time""
""fullscreenenter"",""0"",""4823""
","
","8756","run_exp/static/audio/clip_17_q1.m4a","49","","","","","","","","","","","","","","","","","","","","","","",""
"","correct","76","463896","0.0-49.0-0.0","""event"",""trial"",""time""
""fullscreenenter"",""0"",""4823""
","
","
","""event"",""trial"",""time""
""fullscreenenter"",""0"",""4823""
","
","null","run_exp/static/audio/clip_18_correct.m4a","null","","","","","<div class='center'><p>That's correct!</p></div>","","","","","","","","","","","","","","","","","",""
"","html-keyboard-response","77","465822","0.0-49.0-1.0","""event"",""trial"",""time""
""fullscreenenter"",""0"",""4823""
","
","
","""event"",""trial"",""time""
""fullscreenenter"",""0"",""4823""
","
","1925","<div class='center'><p>That's correct!</p><p><b>[Press the space bar to continue]</b></p></div>","32","","","","","","","","","","","","","","","","","","","","","","",""
"","audio-keyboard-response","78","473612","0.0-49.0-2.0","""event"",""trial"",""time""
""fullscreenenter"",""0"",""4823""
","
","
","""event"",""trial"",""time""
""fullscreenenter"",""0"",""4823""
","
","7788","run_exp/static/audio/clip_20_q2.m4a","50","","","","","","","","","","","","","","","","","","","","","","",""
"","correct","79","475995","0.0-50.0-0.0","""event"",""trial"",""time""
""fullscreenenter"",""0"",""4823""
","
","
","""event"",""trial"",""time""
""fullscreenenter"",""0"",""4823""
","
","null","run_exp/static/audio/clip_18_correct.m4a","null","","","","","<div class='center'><p>That's correct!</p></div>","","","","","","","","","","","","","","","","","",""
"","html-keyboard-response","80","477238","0.0-50.0-1.0","""event"",""trial"",""time""
""fullscreenenter"",""0"",""4823""
","
","
","""event"",""trial"",""time""
""fullscreenenter"",""0"",""4823""
","
","1242","<div class='center'><p>That's correct!</p><p><b>[Press the space bar to continue]</b></p></div>","32","","","","","","","","","","","","","","","","","","","","","","",""
"","audio-keyboard-response","81","483699","0.0-50.0-2.0","""event"",""trial"",""time""
""fullscreenenter"",""0"",""4823""
","
","
","""event"",""trial"",""time""
""fullscreenenter"",""0"",""4823""
","
","6459","run_exp/static/audio/clip_22_q3.m4a","50","","","","","","","","","","","","","","","","","","","","","","",""
"","correct","82","486096","0.0-51.0-0.0","""event"",""trial"",""time""
""fullscreenenter"",""0"",""4823""
","
","
","""event"",""trial"",""time""
""fullscreenenter"",""0"",""4823""
","
","null","run_exp/static/audio/clip_18_correct.m4a","null","","","","","<div class='center'><p>That's correct!</p></div>","","","","","","","","","","","","","","","","","",""
"","html-keyboard-response","83","486816","0.0-51.0-1.0","""event"",""trial"",""time""
""fullscreenenter"",""0"",""4823""
","
","
","""event"",""trial"",""time""
""fullscreenenter"",""0"",""4823""
","
","718","<div class='center'><p>That's correct!</p><p><b>[Press the space bar to continue]</b></p></div>","32","","","","","","","","","","","","","","","","","","","","","","",""
"","audio-keyboard-response","84","491290","0.0-51.0-2.0","""event"",""trial"",""time""
""fullscreenenter"",""0"",""4823""
","
","
","""event"",""trial"",""time""
""fullscreenenter"",""0"",""4823""
","
","4472","run_exp/static/audio/clip_24_q4.m4a","49","","","","","","","","","","","","","","","","","","","","","","",""
"","correct","85","493776","0.0-52.0-0.0","""event"",""trial"",""time""
""fullscreenenter"",""0"",""4823""
","
","
","""event"",""trial"",""time""
""fullscreenenter"",""0"",""4823""
","
","null","run_exp/static/audio/clip_18_correct.m4a","null","","","","","<div class='center'><p>That's correct!</p></div>","","","","","","","","","","","","","","","","","",""
"","html-keyboard-response","86","494494","0.0-52.0-1.0","""event"",""trial"",""time""
""fullscreenenter"",""0"",""4823""
","
","
","""event"",""trial"",""time""
""fullscreenenter"",""0"",""4823""
","
","718","<div class='center'><p>That's correct!</p><p><b>[Press the space bar to continue]</b></p></div>","32","","","","","","","","","","","","","","","","","","","","","","",""
"","q_all_corr","87","502977","0.0-53.0-0.0","""event"",""trial"",""time""
""fullscreenenter"",""0"",""4823""
","
","
","""event"",""trial"",""time""
""fullscreenenter"",""0"",""4823""
","
","null","run_exp/static/audio/clip_27_quiz_all_correct.m4a","null","","","","","<div class='center'><p>Good job! You’re now ready to move on to the real game! Remember this game will be difficult but don't get discouraged and try your best!</p></div>","","","","","","","","","","","","","","","","","",""
"","html-keyboard-response","88","507664","0.0-53.0-1.0","""event"",""trial"",""time""
""fullscreenenter"",""0"",""4823""
","
","
","""event"",""trial"",""time""
""fullscreenenter"",""0"",""4823""
","
","4685","<div class='center'><p>Good job! You’re now ready to move on to the real game! Remember this game will be difficult but don't get discouraged and try your best!</p><p><b>[Press the space bar to continue]</b></p></div>","32","","","","","","","","","","","","","","","","","","","","","","",""
"","do_welcome","89","511671","0.0-54.0-0.0","""event"",""trial"",""time""
""fullscreenenter"",""0"",""4823""
","
","
","""event"",""trial"",""time""
""fullscreenenter"",""0"",""4823""
","
","null","","","","","","","","null","","","","","","","","","","","","","","","","",""
"","do_trial","90","517849","0.0-55.0-0.0","""event"",""trial"",""time""
""fullscreenenter"",""0"",""4823""
","
","
","""event"",""trial"",""time""
""fullscreenenter"",""0"",""4823""
","
","1585","","","","","","","","50","1,0,0","0","mountain","0","probe-170","0.6","0.3","0.1","0","","","","","","","",""
"","html-keyboard-response","91","518852","0.0-55.0-1.0","""event"",""trial"",""time""
""fullscreenenter"",""0"",""4823""
","
","
","""event"",""trial"",""time""
""fullscreenenter"",""0"",""4823""
","
","null","<p></p>","null","","","","","","","","","","","","","","","","","","","","","","",""
"","do_trial","92","523787","0.0-56.0-0.0","""event"",""trial"",""time""
""fullscreenenter"",""0"",""4823""
","
","
","""event"",""trial"",""time""
""fullscreenenter"",""0"",""4823""
","
","346","","","","","","","","51","1,0,0","0","mountain","1","probe-143","0.7259168870939385","0.2790158886734549","0.07500331939110287","0","","","","","","","",""
"","html-keyboard-response","93","524788","0.0-56.0-1.0","""event"",""trial"",""time""
""fullscreenenter"",""0"",""4823""
","
","
","""event"",""trial"",""time""
""fullscreenenter"",""0"",""4823""
","
","null","<p></p>","null","","","","","","","","","","","","","","","","","","","","","","",""
"","do_trial","94","529757","0.0-57.0-0.0","""event"",""trial"",""time""
""fullscreenenter"",""0"",""4823""
","
","
","""event"",""trial"",""time""
""fullscreenenter"",""0"",""4823""
","
","376","","","","","","","","49","0,1,0","0","mountain","2","probe-86","0.6749613185326742","0.3433566761313962","0.07424130437492804","0","","","","","","","",""
"","html-keyboard-response","95","530758","0.0-57.0-1.0","""event"",""trial"",""time""
""fullscreenenter"",""0"",""4823""
","
","
","""event"",""trial"",""time""
""fullscreenenter"",""0"",""4823""
","
","null","<p></p>","null","","","","","","","","","","","","","","","","","","","","","","",""
"","do_trial","96","535686","0.0-58.0-0.0","""event"",""trial"",""time""
""fullscreenenter"",""0"",""4823""
","
","
","""event"",""trial"",""time""
""fullscreenenter"",""0"",""4823""
","
","334","","","","","","","","50","0,1,1","0","mountain","3","probe-19","0.6034306959665053","0.2500565569096444","0.09064623485902219","1","","","","","","","",""
"","html-keyboard-response","97","536687","0.0-58.0-1.0","""event"",""trial"",""time""
""fullscreenenter"",""0"",""4823""
","
","
","""event"",""trial"",""time""
""fullscreenenter"",""0"",""4823""
","
","null","<p></p>","null","","","","","","","","","","","","","","","","","","","","","","",""
"","do_trial","98","541781","0.0-59.0-0.0","""event"",""trial"",""time""
""fullscreenenter"",""0"",""4823""
","
","
","""event"",""trial"",""time""
""fullscreenenter"",""0"",""4823""
","
","502","","","","","","","","51","0,0,1","0","mountain","4","probe-139","0.49765045642431677","0.21866530509556417","0.12520093359862788","1","","","","","","","",""
"","html-keyboard-response","99","542782","0.0-59.0-1.0","""event"",""trial"",""time""
""fullscreenenter"",""0"",""4823""
","
","
","""event"",""trial"",""time""
""fullscreenenter"",""0"",""4823""
","
","null","<p></p>","null","","","","","","","","","","","","","","","","","","","","","","",""
"","do_trial","100","548873","0.0-60.0-0.0","""event"",""trial"",""time""
""fullscreenenter"",""0"",""4823""
","
","
","""event"",""trial"",""time""
""fullscreenenter"",""0"",""4823""
","
","1495","","","","","","","","49","0,1,0","0","mountain","5","probe-137","0.5068974668835002","0.4031378210048877","0.06804416915526798","0","","","","","","","",""
"","html-keyboard-response","101","549874","0.0-60.0-1.0","""event"",""trial"",""time""
""fullscreenenter"",""0"",""4823""
","
","
","""event"",""trial"",""time""
""fullscreenenter"",""0"",""4823""
","
","null","<p></p>","null","","","","","","","","","","","","","","","","","","","","","","",""
"","do_trial","102","555223","0.0-61.0-0.0","""event"",""trial"",""time""
""fullscreenenter"",""0"",""4823""
","
","
","""event"",""trial"",""time""
""fullscreenenter"",""0"",""4823""
","
","757","","","","","","","","50","1,0,0","0","mountain","6","probe-154","0.4982899672740939","0.39188511792649394","0.05349250410203887","0","","","","","","","",""
"","html-keyboard-response","103","556224","0.0-61.0-1.0","""event"",""trial"",""time""
""fullscreenenter"",""0"",""4823""
","
","
","""event"",""trial"",""time""
""fullscreenenter"",""0"",""4823""
","
","null","<p></p>","null","","","","","","","","","","","","","","","","","","","","","","",""
"","do_trial","104","561926","0.0-62.0-0.0","""event"",""trial"",""time""
""fullscreenenter"",""0"",""4823""
","
","
","""event"",""trial"",""time""
""fullscreenenter"",""0"",""4823""
","
","1114","","","","","","","","51","1,0,0","0","mountain","7","probe-45","0.47284778765341623","0.43116964819542414","0.09619344381600671","0","","","","","","","",""
"","html-keyboard-response","105","562927","0.0-62.0-1.0","""event"",""trial"",""time""
""fullscreenenter"",""0"",""4823""
","
","
","""event"",""trial"",""time""
""fullscreenenter"",""0"",""4823""
","
","null","<p></p>","null","","","","","","","","","","","","","","","","","","","","","","",""
"","do_trial","106","567987","0.0-63.0-0.0","""event"",""trial"",""time""
""fullscreenenter"",""0"",""4823""
","
","
","""event"",""trial"",""time""
""fullscreenenter"",""0"",""4823""
","
","468","","","","","","","","49","1,1,0","0","mountain","8","probe-68","0.5967786073482985","0.37027433755155953","0.06216202284152934","1","","","","","","","",""
"","html-keyboard-response","107","568988","0.0-63.0-1.0","""event"",""trial"",""time""
""fullscreenenter"",""0"",""4823""
","
","
","""event"",""trial"",""time""
""fullscreenenter"",""0"",""4823""
","
","null","<p></p>","null","","","","","","","","","","","","","","","","","","","","","","",""
"","do_trial","108","573950","0.0-64.0-0.0","""event"",""trial"",""time""
""fullscreenenter"",""0"",""4823""
","
","
","""event"",""trial"",""time""
""fullscreenenter"",""0"",""4823""
","
","371","","","","","","","","51","1,1,0","0","mountain","9","probe-112","0.7040814869933376","0.22090958145258546","0.0926998944220674","0","","","","","","","",""
"","html-keyboard-response","109","574951","0.0-64.0-1.0","""event"",""trial"",""time""
""fullscreenenter"",""0"",""4823""
","
","
","""event"",""trial"",""time""
""fullscreenenter"",""0"",""4823""
","
","null","<p></p>","null","","","","","","","","","","","","","","","","","","","","","","",""
"","do_trial","110","580027","0.0-65.0-0.0","""event"",""trial"",""time""
""fullscreenenter"",""0"",""4823""
","
","
","""event"",""trial"",""time""
""fullscreenenter"",""0"",""4823""
","
","488","","","","","","","","50","1,1,0","0","mountain","10","probe-28","0.777187504371871","0.2852480180210182","0.09821964449476639","1","","","","","","","",""
"","html-keyboard-response","111","581028","0.0-65.0-1.0","""event"",""trial"",""time""
""fullscreenenter"",""0"",""4823""
","
","
","""event"",""trial"",""time""
""fullscreenenter"",""0"",""4823""
","
","null","<p></p>","null","","","","","","","","","","","","","","","","","","","","","","",""
"","do_trial","112","585999","0.0-66.0-0.0","""event"",""trial"",""time""
""fullscreenenter"",""0"",""4823""
","
","
","""event"",""trial"",""time""
""fullscreenenter"",""0"",""4823""
","
","384","","","","","","","","49","1,0,0","0","mountain","11","probe-10","0.62725884443093","0.38431561906914624","0.08945632422525965","1","","","","","","","",""
"","html-keyboard-response","113","587000","0.0-66.0-1.0","""event"",""trial"",""time""
""fullscreenenter"",""0"",""4823""
","
","
","""event"",""trial"",""time""
""fullscreenenter"",""0"",""4823""
","
","null","<p></p>","null","","","","","","","","","","","","","","","","","","","","","","",""
"","do_trial","114","593160","0.0-67.0-0.0","""event"",""trial"",""time""
""fullscreenenter"",""0"",""4823""
","
","
","""event"",""trial"",""time""
""fullscreenenter"",""0"",""4823""
","
","1573","","","","","","","","51","1,1,0","0","mountain","12","probe-105","0.7440018325518508","0.3037406620768086","0.23995508140854901","0","","","","","","","",""
"","html-keyboard-response","115","594161","0.0-67.0-1.0","""event"",""trial"",""time""
""fullscreenenter"",""0"",""4823""
","
","
","""event"",""trial"",""time""
""fullscreenenter"",""0"",""4823""
","
","null","<p></p>","null","","","","","","","","","","","","","","","","","","","","","","",""
"","do_trial","116","599177","0.0-68.0-0.0","""event"",""trial"",""time""
""fullscreenenter"",""0"",""4823""
","
","
","""event"",""trial"",""time""
""fullscreenenter"",""0"",""4823""
","
","424","","","","","","","","50","1,0,0","0","mountain","13","probe-37","0.8149788775155458","0.44151381995506256","0.297058006764105","0","","","","","","","",""
"","html-keyboard-response","117","600179","0.0-68.0-1.0","""event"",""trial"",""time""
""fullscreenenter"",""0"",""4823""
","
","
","""event"",""trial"",""time""
""fullscreenenter"",""0"",""4823""
","
","null","<p></p>","null","","","","","","","","","","","","","","","","","","","","","","",""
"","do_trial","118","605167","0.0-69.0-0.0","""event"",""trial"",""time""
""fullscreenenter"",""0"",""4823""
","
","
","""event"",""trial"",""time""
""fullscreenenter"",""0"",""4823""
","
","395","","","","","","","","49","1,0,0","0","mountain","14","probe-216","0.7610829047112617","0.3473335572624596","0.14975405655070778","1","","","","","","","",""
"","html-keyboard-response","119","606168","0.0-69.0-1.0","""event"",""trial"",""time""
""fullscreenenter"",""0"",""4823""
","
","
","""event"",""trial"",""time""
""fullscreenenter"",""0"",""4823""
","
","null","<p></p>","null","","","","","","","","","","","","","","","","","","","","","","",""
"","do_trial","120","611231","0.0-70.0-0.0","""event"",""trial"",""time""
""fullscreenenter"",""0"",""4823""
","
","
","""event"",""trial"",""time""
""fullscreenenter"",""0"",""4823""
","
","476","","","","","","","","50","0,0,0","0","mountain","15","probe-101","0.654288386261714","0.44009809859592425","0.05561088823433728","0","","","","","","","",""
"","html-keyboard-response","121","612232","0.0-70.0-1.0","""event"",""trial"",""time""
""fullscreenenter"",""0"",""4823""
","
","
","""event"",""trial"",""time""
""fullscreenenter"",""0"",""4823""
","
","null","<p></p>","null","","","","","","","","","","","","","","","","","","","","","","",""
"","do_trial","122","617173","0.0-71.0-0.0","""event"",""trial"",""time""
""fullscreenenter"",""0"",""4823""
","
","
","""event"",""trial"",""time""
""fullscreenenter"",""0"",""4823""
","
","354","","","","","","","","49","0,0,0","0","mountain","16","probe-136","0.6778782927668529","0.32914467211429693","0.12456940882910882","0","","","","","","","",""
"","html-keyboard-response","123","618174","0.0-71.0-1.0","""event"",""trial"",""time""
""fullscreenenter"",""0"",""4823""
","
","
","""event"",""trial"",""time""
""fullscreenenter"",""0"",""4823""
","
","null","<p></p>","null","","","","","","","","","","","","","","","","","","","","","","",""
"","do_trial","124","623090","0.0-72.0-0.0","""event"",""trial"",""time""
""fullscreenenter"",""0"",""4823""
","
","
","""event"",""trial"",""time""
""fullscreenenter"",""0"",""4823""
","
","328","","","","","","","","51","1,1,0","0","mountain","17","probe-76","0.6923006290536284","0.29477524533726046","0.20227573627373424","0","","","","","","","",""
"","html-keyboard-response","125","624092","0.0-72.0-1.0","""event"",""trial"",""time""
""fullscreenenter"",""0"",""4823""
","
","
","""event"",""trial"",""time""
""fullscreenenter"",""0"",""4823""
","
","null","<p></p>","null","","","","","","","","","","","","","","","","","","","","","","",""
"","do_trial","126","629352","0.0-73.0-0.0","""event"",""trial"",""time""
""fullscreenenter"",""0"",""4823""
","
","
","""event"",""trial"",""time""
""fullscreenenter"",""0"",""4823""
","
","668","","","","","","","","49","1,1,0","0","mountain","18","probe-132","0.5840420229991601","0.31834896522016976","0.07514272182582905","1","","","","","","","",""
"","html-keyboard-response","127","630353","0.0-73.0-1.0","""event"",""trial"",""time""
""fullscreenenter"",""0"",""4823""
","
","
","""event"",""trial"",""time""
""fullscreenenter"",""0"",""4823""
","
","null","<p></p>","null","","","","","","","","","","","","","","","","","","","","","","",""
"","do_trial","128","635794","0.0-74.0-0.0","""event"",""trial"",""time""
""fullscreenenter"",""0"",""4823""
","
","
","""event"",""trial"",""time""
""fullscreenenter"",""0"",""4823""
","
","854","","","","","","","","51","1,1,0","0","mountain","19","probe-98","0.5221296633361002","0.4837146349832564","0.12633098327105258","0","","","","","","","",""
"","html-keyboard-response","129","636795","0.0-74.0-1.0","""event"",""trial"",""time""
""fullscreenenter"",""0"",""4823""
","
","
","""event"",""trial"",""time""
""fullscreenenter"",""0"",""4823""
","
","null","<p></p>","null","","","","","","","","","","","","","","","","","","","","","","",""
"","do_trial","130","642055","0.0-75.0-0.0","""event"",""trial"",""time""
""fullscreenenter"",""0"",""4823""
","
","
","""event"",""trial"",""time""
""fullscreenenter"",""0"",""4823""
","
","672","","","","","","","","50","1,1,0","0","mountain","20","probe-70","0.5188190582718575","0.5169093932091617","0.06578262072969551","1","","","","","","","",""
"","html-keyboard-response","131","643057","0.0-75.0-1.0","""event"",""trial"",""time""
""fullscreenenter"",""0"",""4823""
","
","
","""event"",""trial"",""time""
""fullscreenenter"",""0"",""4823""
","
","null","<p></p>","null","","","","","","","","","","","","","","","","","","","","","","",""
"","do_trial","132","648332","0.0-76.0-0.0","""event"",""trial"",""time""
""fullscreenenter"",""0"",""4823""
","
","
","""event"",""trial"",""time""
""fullscreenenter"",""0"",""4823""
","
","688","","","","","","","","49","0,1,0","0","mountain","21","probe-30","0.5466366986286137","0.44410739857252424","0.13856017521372954","0","","","","","","","",""
"","html-keyboard-response","133","649333","0.0-76.0-1.0","""event"",""trial"",""time""
""fullscreenenter"",""0"",""4823""
","
","
","""event"",""trial"",""time""
""fullscreenenter"",""0"",""4823""
","
","null","<p></p>","null","","","","","","","","","","","","","","","","","","","","","","",""
"","do_trial","134","654275","0.0-77.0-0.0","""event"",""trial"",""time""
""fullscreenenter"",""0"",""4823""
","
","
","""event"",""trial"",""time""
""fullscreenenter"",""0"",""4823""
","
","354","","","","","","","","50","1,0,0","0","mountain","22","probe-201","0.760993528303919","0.3093725460165057","0.11317085944202918","0","","","","","","","",""
"","html-keyboard-response","135","655276","0.0-77.0-1.0","""event"",""trial"",""time""
""fullscreenenter"",""0"",""4823""
","
","
","""event"",""trial"",""time""
""fullscreenenter"",""0"",""4823""
","
","null","<p></p>","null","","","","","","","","","","","","","","","","","","","","","","",""
"","do_trial","136","660921","0.0-78.0-0.0","""event"",""trial"",""time""
""fullscreenenter"",""0"",""4823""
","
","
","""event"",""trial"",""time""
""fullscreenenter"",""0"",""4823""
","
","1053","","","","","","","","49","1,0,0","0","mountain","23","probe-99","0.6474215311328362","0.3405335909931843","0.06674152684170136","1","","","","","","","",""
"","html-keyboard-response","137","661922","0.0-78.0-1.0","""event"",""trial"",""time""
""fullscreenenter"",""0"",""4823""
","
","
","""event"",""trial"",""time""
""fullscreenenter"",""0"",""4823""
","
","null","<p></p>","null","","","","","","","","","","","","","","","","","","","","","","",""
"","do_trial","138","667713","0.0-79.0-0.0","""event"",""trial"",""time""
""fullscreenenter"",""0"",""4823""
","
","
","""event"",""trial"",""time""
""fullscreenenter"",""0"",""4823""
","
","1199","","","","","","","","49","0,0,0","0","mountain","24","probe-43","0.7306990516620273","0.4344961499835902","0.17676138765280364","0","","","","","","","",""
"","html-keyboard-response","139","668714","0.0-79.0-1.0","""event"",""trial"",""time""
""fullscreenenter"",""0"",""4823""
","
","
","""event"",""trial"",""time""
""fullscreenenter"",""0"",""4823""
","
","null","<p></p>","null","","","","","","","","","","","","","","","","","","","","","","",""
"","do_trial","140","673777","0.0-80.0-0.0","""event"",""trial"",""time""
""fullscreenenter"",""0"",""4823""
","
","
","""event"",""trial"",""time""
""fullscreenenter"",""0"",""4823""
","
","471","","","","","","","","51","1,0,0","0","mountain","25","probe-47","0.5892044972658823","0.2597209828200423","0.22704017649277186","0","","","","","","","",""
"","html-keyboard-response","141","674778","0.0-80.0-1.0","""event"",""trial"",""time""
""fullscreenenter"",""0"",""4823""
","
","
","""event"",""trial"",""time""
""fullscreenenter"",""0"",""4823""
","
","null","<p></p>","null","","","","","","","","","","","","","","","","","","","","","","",""
"","do_trial","142","679894","0.0-81.0-0.0","""event"",""trial"",""time""
""fullscreenenter"",""0"",""4823""
","
","
","""event"",""trial"",""time""
""fullscreenenter"",""0"",""4823""
","
","528","","","","","","","","49","0,0,0","0","mountain","26","probe-204","0.5783388415859152","0.2746630718386329","0.4093774364702511","0","","","","","","","",""
"","html-keyboard-response","143","680895","0.0-81.0-1.0","""event"",""trial"",""time""
""fullscreenenter"",""0"",""4823""
","
","
","""event"",""trial"",""time""
""fullscreenenter"",""0"",""4823""
","
","null","<p></p>","null","","","","","","","","","","","","","","","","","","","","","","",""
"","do_trial","144","686100","0.0-82.0-0.0","""event"",""trial"",""time""
""fullscreenenter"",""0"",""4823""
","
","
","""event"",""trial"",""time""
""fullscreenenter"",""0"",""4823""
","
","618","","","","","","","","50","1,1,0","0","mountain","27","probe-18","0.48649965200008277","0.19922697680917448","0.44292066699596194","1","","","","","","","",""
"","html-keyboard-response","145","687102","0.0-82.0-1.0","""event"",""trial"",""time""
""fullscreenenter"",""0"",""4823""
","
","
","""event"",""trial"",""time""
""fullscreenenter"",""0"",""4823""
","
","null","<p></p>","null","","","","","","","","","","","","","","","","","","","","","","",""
"","do_trial","146","692212","0.0-83.0-0.0","""event"",""trial"",""time""
""fullscreenenter"",""0"",""4823""
","
","
","""event"",""trial"",""time""
""fullscreenenter"",""0"",""4823""
","
","522","","","","","","","","49","1,0,0","0","mountain","28","probe-214","0.5536686686497104","0.20192117338418417","0.3794052211822402","1","","","","","","","",""
"","html-keyboard-response","147","693213","0.0-83.0-1.0","""event"",""trial"",""time""
""fullscreenenter"",""0"",""4823""
","
","
","""event"",""trial"",""time""
""fullscreenenter"",""0"",""4823""
","
","null","<p></p>","null","","","","","","","","","","","","","","","","","","","","","","",""
"","do_trial","148","698316","0.0-84.0-0.0","""event"",""trial"",""time""
""fullscreenenter"",""0"",""4823""
","
","
","""event"",""trial"",""time""
""fullscreenenter"",""0"",""4823""
","
","514","","","","","","","","50","1,0,0","0","mountain","29","probe-102","0.68010069488669","0.2703580725567227","0.33683069489509215","0","","","","","","","",""
"","html-keyboard-response","149","699317","0.0-84.0-1.0","""event"",""trial"",""time""
""fullscreenenter"",""0"",""4823""
","
","
","""event"",""trial"",""time""
""fullscreenenter"",""0"",""4823""
","
","null","<p></p>","null","","","","","","","","","","","","","","","","","","","","","","",""
"","do_bye","150","700822","0.0-85.0-0.0","""event"",""trial"",""time""
""fullscreenenter"",""0"",""4823""
","
","
","""event"",""trial"",""time""
""fullscreenenter"",""0"",""4823""
","
","null","","","","","","","","null","","","","","","","","","","","","","","","","",""
"","break","151","708955","0.0-85.0-1.0","""event"",""trial"",""time""
""fullscreenenter"",""0"",""4823""
","
","
","""event"",""trial"",""time""
""fullscreenenter"",""0"",""4823""
","
","8132","<div class='center'><p>Time to take a quick break! You have 2 minutes to rest, but you can move on sooner if you'd like.</p><p> Press the <b>space bar</b> to continue.</p></div>","32","","","","","","","","","","","","","","","","","","","","","","",""
"","do_travel","152","717958","0.0-86.0-0.0","""event"",""trial"",""time""
""fullscreenenter"",""0"",""4823""
","
","
","""event"",""trial"",""time""
""fullscreenenter"",""0"",""4823""
","
","null","","","","","","","","null","","","","","","","","","","","","","","","","",""
"","do_welcome","153","721965","0.0-86.0-1.0","""event"",""trial"",""time""
""fullscreenenter"",""0"",""4823""
","
","
","""event"",""trial"",""time""
""fullscreenenter"",""0"",""4823""
","
","null","","","","","","","","null","","","","","","","","","","","","","","","","",""
"","do_trial","154","727868","0.0-87.0-0.0","""event"",""trial"",""time""
""fullscreenenter"",""0"",""4823""
","
","
","""event"",""trial"",""time""
""fullscreenenter"",""0"",""4823""
","
","1315","","","","","","","","51","1,0,0","1","coast","30","probe-08","1","0.2376664949803289","0.291993024156574","0","","","","","","","",""
"","html-keyboard-response","155","728869","0.0-87.0-1.0","""event"",""trial"",""time""
""fullscreenenter"",""0"",""4823""
","
","
","""event"",""trial"",""time""
""fullscreenenter"",""0"",""4823""
","
","null","<p></p>","null","","","","","","","","","","","","","","","","","","","","","","",""
"","do_trial","156","733818","0.0-88.0-0.0","""event"",""trial"",""time""
""fullscreenenter"",""0"",""4823""
","
","
","""event"",""trial"",""time""
""fullscreenenter"",""0"",""4823""
","
","356","","","","","","","","50","1,0,0","1","coast","31","probe-166","1","0.3550364590330129","0.10499482648917945","0","","","","","","","",""
"","html-keyboard-response","157","734819","0.0-88.0-1.0","""event"",""trial"",""time""
""fullscreenenter"",""0"",""4823""
","
","
","""event"",""trial"",""time""
""fullscreenenter"",""0"",""4823""
","
","null","<p></p>","null","","","","","","","","","","","","","","","","","","","","","","",""
"","do_trial","158","739816","0.0-89.0-0.0","""event"",""trial"",""time""
""fullscreenenter"",""0"",""4823""
","
","
","""event"",""trial"",""time""
""fullscreenenter"",""0"",""4823""
","
","409","","","","","","","","49","1,0,0","1","coast","32","probe-185","1","0.36749268108323885","0.055423508625699246","1","","","","","","","",""
"","html-keyboard-response","159","740817","0.0-89.0-1.0","""event"",""trial"",""time""
""fullscreenenter"",""0"",""4823""
","
","
","""event"",""trial"",""time""
""fullscreenenter"",""0"",""4823""
","
","null","<p></p>","null","","","","","","","","","","","","","","","","","","","","","","",""
"","do_trial","160","746288","0.0-90.0-0.0","""event"",""trial"",""time""
""fullscreenenter"",""0"",""4823""
","
","
","""event"",""trial"",""time""
""fullscreenenter"",""0"",""4823""
","
","882","","","","","","","","51","0,0,0","1","coast","33","probe-142","0.8134008040993668","0.34947510925302083","0.13379867010481927","0","","","","","","","",""
"","html-keyboard-response","161","747289","0.0-90.0-1.0","""event"",""trial"",""time""
""fullscreenenter"",""0"",""4823""
","
","
","""event"",""trial"",""time""
""fullscreenenter"",""0"",""4823""
","
","null","<p></p>","null","","","","","","","","","","","","","","","","","","","","","","",""
"","do_trial","162","752255","0.0-91.0-0.0","""event"",""trial"",""time""
""fullscreenenter"",""0"",""4823""
","
","
","""event"",""trial"",""time""
""fullscreenenter"",""0"",""4823""
","
","378","","","","","","","","50","1,0,0","1","coast","34","probe-223","0.7600137669401755","0.3528726208026997","0.20561218074674795","0","","","","","","","",""
"","html-keyboard-response","163","753256","0.0-91.0-1.0","""event"",""trial"",""time""
""fullscreenenter"",""0"",""4823""
","
","
","""event"",""trial"",""time""
""fullscreenenter"",""0"",""4823""
","
","null","<p></p>","null","","","","","","","","","","","","","","","","","","","","","","",""
"","do_trial","164","758496","0.0-92.0-0.0","""event"",""trial"",""time""
""fullscreenenter"",""0"",""4823""
","
","
","""event"",""trial"",""time""
""fullscreenenter"",""0"",""4823""
","
","647","","","","","","","","49","0,1,1","1","coast","35","probe-205","0.641356813300006","0.4214191436402874","0.34890569345947997","0","","","","","","","",""
"","html-keyboard-response","165","759497","0.0-92.0-1.0","""event"",""trial"",""time""
""fullscreenenter"",""0"",""4823""
","
","
","""event"",""trial"",""time""
""fullscreenenter"",""0"",""4823""
","
","null","<p></p>","null","","","","","","","","","","","","","","","","","","","","","","",""
"","do_trial","166","764625","0.0-93.0-0.0","""event"",""trial"",""time""
""fullscreenenter"",""0"",""4823""
","
","
","""event"",""trial"",""time""
""fullscreenenter"",""0"",""4823""
","
","541","","","","","","","","49","1,0,1","1","coast","36","probe-144","0.6844183692656514","0.47241850726946283","0.15999466902969905","1","","","","","","","",""
"","html-keyboard-response","167","765626","0.0-93.0-1.0","""event"",""trial"",""time""
""fullscreenenter"",""0"",""4823""
","
","
","""event"",""trial"",""time""
""fullscreenenter"",""0"",""4823""
","
","null","<p></p>","null","","","","","","","","","","","","","","","","","","","","","","",""
"","do_trial","168","770838","0.0-94.0-0.0","""event"",""trial"",""time""
""fullscreenenter"",""0"",""4823""
","
","
","""event"",""trial"",""time""
""fullscreenenter"",""0"",""4823""
","
","618","","","","","","","","51","1,0,0","1","coast","37","probe-153","0.6295556519907126","0.4948008150199766","0.16394433327634514","0","","","","","","","",""
"","html-keyboard-response","169","771840","0.0-94.0-1.0","""event"",""trial"",""time""
""fullscreenenter"",""0"",""4823""
","
","
","""event"",""trial"",""time""
""fullscreenenter"",""0"",""4823""
","
","null","<p></p>","null","","","","","","","","","","","","","","","","","","","","","","",""
"","do_trial","170","776476","0.0-95.0-0.0","""event"",""trial"",""time""
""fullscreenenter"",""0"",""4823""
","
","
","""event"",""trial"",""time""
""fullscreenenter"",""0"",""4823""
","
","43","","","","","","","","50","1,0,1","1","coast","38","probe-176","0.7463196435901307","0.35705656758592275","0.17396833769625064","0","","","","","","","",""
"","html-keyboard-response","171","777477","0.0-95.0-1.0","""event"",""trial"",""time""
""fullscreenenter"",""0"",""4823""
","
","
","""event"",""trial"",""time""
""fullscreenenter"",""0"",""4823""
","
","null","<p></p>","null","","","","","","","","","","","","","","","","","","","","","","",""
"","do_trial","172","782482","0.0-96.0-0.0","""event"",""trial"",""time""
""fullscreenenter"",""0"",""4823""
","
","
","""event"",""trial"",""time""
""fullscreenenter"",""0"",""4823""
","
","413","","","","","","","","49","1,1,1","1","coast","39","probe-107","0.6251394246754826","0.4031325557333856","0.12330296717153758","1","","","","","","","",""
"","html-keyboard-response","173","783483","0.0-96.0-1.0","""event"",""trial"",""time""
""fullscreenenter"",""0"",""4823""
","
","
","""event"",""trial"",""time""
""fullscreenenter"",""0"",""4823""
","
","null","<p></p>","null","","","","","","","","","","","","","","","","","","","","","","",""
"","do_trial","174","788715","0.0-97.0-0.0","""event"",""trial"",""time""
""fullscreenenter"",""0"",""4823""
","
","
","""event"",""trial"",""time""
""fullscreenenter"",""0"",""4823""
","
","645","","","","","","","","51","0,1,0","1","coast","40","probe-182","0.6300088666933648","0.49794422682343065","0.21165130381281966","0","","","","","","","",""
"","html-keyboard-response","175","789716","0.0-97.0-1.0","""event"",""trial"",""time""
""fullscreenenter"",""0"",""4823""
","
","
","""event"",""trial"",""time""
""fullscreenenter"",""0"",""4823""
","
","null","<p></p>","null","","","","","","","","","","","","","","","","","","","","","","",""
"","do_trial","176","794593","0.0-98.0-0.0","""event"",""trial"",""time""
""fullscreenenter"",""0"",""4823""
","
","
","""event"",""trial"",""time""
""fullscreenenter"",""0"",""4823""
","
","288","","","","","","","","49","1,0,1","1","coast","41","probe-193","0.6002053893330876","0.49564461780892344","0.3472732564023199","1","","","","","","","",""
"","html-keyboard-response","177","795594","0.0-98.0-1.0","""event"",""trial"",""time""
""fullscreenenter"",""0"",""4823""
","
","
","""event"",""trial"",""time""
""fullscreenenter"",""0"",""4823""
","
","null","<p></p>","null","","","","","","","","","","","","","","","","","","","","","","",""
"","do_trial","178","801136","0.0-99.0-0.0","""event"",""trial"",""time""
""fullscreenenter"",""0"",""4823""
","
","
","""event"",""trial"",""time""
""fullscreenenter"",""0"",""4823""
","
","949","","","","","","","","50","1,1,0","1","coast","42","probe-96","0.5065413160206688","0.42574011789697513","0.46158794905847705","1","","","","","","","",""
"","html-keyboard-response","179","802137","0.0-99.0-1.0","""event"",""trial"",""time""
""fullscreenenter"",""0"",""4823""
","
","
","""event"",""trial"",""time""
""fullscreenenter"",""0"",""4823""
","
","null","<p></p>","null","","","","","","","","","","","","","","","","","","","","","","",""
"","do_trial","180","807391","0.0-100.0-0.0","""event"",""trial"",""time""
""fullscreenenter"",""0"",""4823""
","
","
","""event"",""trial"",""time""
""fullscreenenter"",""0"",""4823""
","
","663","","","","","","","","51","1,0,1","1","coast","43","probe-225","0.47829585348620984","0.37321961940398957","0.5760252513737093","1","","","","","","","",""
"","html-keyboard-response","181","808392","0.0-100.0-1.0","""event"",""trial"",""time""
""fullscreenenter"",""0"",""4823""
","
","
","""event"",""trial"",""time""
""fullscreenenter"",""0"",""4823""
","
","null","<p></p>","null","","","","","","","","","","","","","","","","","","","","","","",""
"","do_trial","182","813312","0.0-101.0-0.0","""event"",""trial"",""time""
""fullscreenenter"",""0"",""4823""
","
","
","""event"",""trial"",""time""
""fullscreenenter"",""0"",""4823""
","
","327","","","","","","","","50","1,0,0","1","coast","44","probe-155","0.34285121252193107","0.2790258724688199","0.5431979779390362","0","","","","","","","",""
"","html-keyboard-response","183","814313","0.0-101.0-1.0","""event"",""trial"",""time""
""fullscreenenter"",""0"",""4823""
","
","
","""event"",""trial"",""time""
""fullscreenenter"",""0"",""4823""
","
","null","<p></p>","null","","","","","","","","","","","","","","","","","","","","","","",""
"","do_trial","184","819351","0.0-102.0-0.0","""event"",""trial"",""time""
""fullscreenenter"",""0"",""4823""
","
","
","""event"",""trial"",""time""
""fullscreenenter"",""0"",""4823""
","
","451","","","","","","","","51","0,1,0","1","coast","45","probe-165","0.2035709014152699","0.29795197895980857","0.5252319179538965","0","","","","","","","",""
"","html-keyboard-response","185","820352","0.0-102.0-1.0","""event"",""trial"",""time""
""fullscreenenter"",""0"",""4823""
","
","
","""event"",""trial"",""time""
""fullscreenenter"",""0"",""4823""
","
","null","<p></p>","null","","","","","","","","","","","","","","","","","","","","","","",""
"","do_trial","186","825312","0.0-103.0-0.0","""event"",""trial"",""time""
""fullscreenenter"",""0"",""4823""
","
","
","""event"",""trial"",""time""
""fullscreenenter"",""0"",""4823""
","
","369","","","","","","","","49","0,0,1","1","coast","46","probe-222","0.14957545697414826","0.25021373591263474","0.5672249409148435","0","","","","","","","",""
"","html-keyboard-response","187","826313","0.0-103.0-1.0","""event"",""trial"",""time""
""fullscreenenter"",""0"",""4823""
","
","
","""event"",""trial"",""time""
""fullscreenenter"",""0"",""4823""
","
","null","<p></p>","null","","","","","","","","","","","","","","","","","","","","","","",""
"","do_trial","188","831222","0.0-104.0-0.0","""event"",""trial"",""time""
""fullscreenenter"",""0"",""4823""
","
","
","""event"",""trial"",""time""
""fullscreenenter"",""0"",""4823""
","
","323","","","","","","","","49","0,0,1","1","coast","47","probe-113","0.15905277932106635","0.2603068927115702","0.47404294340375613","0","","","","","","","",""
"","html-keyboard-response","189","832223","0.0-104.0-1.0","""event"",""trial"",""time""
""fullscreenenter"",""0"",""4823""
","
","
","""event"",""trial"",""time""
""fullscreenenter"",""0"",""4823""
","
","null","<p></p>","null","","","","","","","","","","","","","","","","","","","","","","",""
"","do_trial","190","837354","0.0-105.0-0.0","""event"",""trial"",""time""
""fullscreenenter"",""0"",""4823""
","
","
","""event"",""trial"",""time""
""fullscreenenter"",""0"",""4823""
","
","543","","","","","","","","49","0,0,0","1","coast","48","probe-126","0.17752546112574144","0.28657411002648225","0.3060786314767749","0","","","","","","","",""
"","html-keyboard-response","191","838355","0.0-105.0-1.0","""event"",""trial"",""time""
""fullscreenenter"",""0"",""4823""
","
","
","""event"",""trial"",""time""
""fullscreenenter"",""0"",""4823""
","
","null","<p></p>","null","","","","","","","","","","","","","","","","","","","","","","",""
"","do_trial","192","843290","0.0-106.0-0.0","""event"",""trial"",""time""
""fullscreenenter"",""0"",""4823""
","
","
","""event"",""trial"",""time""
""fullscreenenter"",""0"",""4823""
","
","347","","","","","","","","50","1,0,1","1","coast","49","probe-69","0.19593696646907327","0.18940231112184264","0.47402872971243815","0","","","","","","","",""
"","html-keyboard-response","193","844291","0.0-106.0-1.0","""event"",""trial"",""time""
""fullscreenenter"",""0"",""4823""
","
","
","""event"",""trial"",""time""
""fullscreenenter"",""0"",""4823""
","
","null","<p></p>","null","","","","","","","","","","","","","","","","","","","","","","",""
"","do_trial","194","849078","0.0-107.0-0.0","""event"",""trial"",""time""
""fullscreenenter"",""0"",""4823""
","
","
","""event"",""trial"",""time""
""fullscreenenter"",""0"",""4823""
","
","200","","","","","","","","51","0,1,1","1","coast","50","probe-150","0.1556400534699714","0.272691383678833","0.4430811044131056","1","","","","","","","",""
"","html-keyboard-response","195","850079","0.0-107.0-1.0","""event"",""trial"",""time""
""fullscreenenter"",""0"",""4823""
","
","
","""event"",""trial"",""time""
""fullscreenenter"",""0"",""4823""
","
","null","<p></p>","null","","","","","","","","","","","","","","","","","","","","","","",""
"","do_trial","196","855492","0.0-108.0-0.0","""event"",""trial"",""time""
""fullscreenenter"",""0"",""4823""
","
","
","""event"",""trial"",""time""
""fullscreenenter"",""0"",""4823""
","
","820","","","","","","","","51","0,0,1","1","coast","51","probe-63","0.09234169646344131","0.3774953617163341","0.444683008083953","1","","","","","","","",""
"","html-keyboard-response","197","856493","0.0-108.0-1.0","""event"",""trial"",""time""
""fullscreenenter"",""0"",""4823""
","
","
","""event"",""trial"",""time""
""fullscreenenter"",""0"",""4823""
","
","null","<p></p>","null","","","","","","","","","","","","","","","","","","","","","","",""
"","do_trial","198","861527","0.0-109.0-0.0","""event"",""trial"",""time""
""fullscreenenter"",""0"",""4823""
","
","
","""event"",""trial"",""time""
""fullscreenenter"",""0"",""4823""
","
","447","","","","","","","","51","0,0,1","1","coast","52","probe-129","0.07893119657379571","0.38469539109541473","0.5328170931448921","1","","","","","","","",""
"","html-keyboard-response","199","862528","0.0-109.0-1.0","""event"",""trial"",""time""
""fullscreenenter"",""0"",""4823""
","
","
","""event"",""trial"",""time""
""fullscreenenter"",""0"",""4823""
","
","null","<p></p>","null","","","","","","","","","","","","","","","","","","","","","","",""
"","do_trial","200","868092","0.0-110.0-0.0","""event"",""trial"",""time""
""fullscreenenter"",""0"",""4823""
","
","
","""event"",""trial"",""time""
""fullscreenenter"",""0"",""4823""
","
","977","","","","","","","","51","0,1,0","1","coast","53","probe-32","0.10536844633255245","0.40993592435377885","0.4024352932728494","0","","","","","","","",""
"","html-keyboard-response","201","869093","0.0-110.0-1.0","""event"",""trial"",""time""
""fullscreenenter"",""0"",""4823""
","
","
","""event"",""trial"",""time""
""fullscreenenter"",""0"",""4823""
","
","null","<p></p>","null","","","","","","","","","","","","","","","","","","","","","","",""
"","do_trial","202","874366","0.0-111.0-0.0","""event"",""trial"",""time""
""fullscreenenter"",""0"",""4823""
","
","
","""event"",""trial"",""time""
""fullscreenenter"",""0"",""4823""
","
","686","","","","","","","","49","0,0,1","1","coast","54","probe-54","0.0644496759004143","0.4099810230622697","0.5272614902079796","0","","","","","","","",""
"","html-keyboard-response","203","875367","0.0-111.0-1.0","""event"",""trial"",""time""
""fullscreenenter"",""0"",""4823""
","
","
","""event"",""trial"",""time""
""fullscreenenter"",""0"",""4823""
","
","null","<p></p>","null","","","","","","","","","","","","","","","","","","","","","","",""
"","do_trial","204","880293","0.0-112.0-0.0","""event"",""trial"",""time""
""fullscreenenter"",""0"",""4823""
","
","
","""event"",""trial"",""time""
""fullscreenenter"",""0"",""4823""
","
","338","","","","","","","","50","0,0,0","1","coast","55","probe-177","0.09739728160830766","0.39490223152034865","0.5545062428514009","0","","","","","","","",""
"","html-keyboard-response","205","881294","0.0-112.0-1.0","""event"",""trial"",""time""
""fullscreenenter"",""0"",""4823""
","
","
","""event"",""trial"",""time""
""fullscreenenter"",""0"",""4823""
","
","null","<p></p>","null","","","","","","","","","","","","","","","","","","","","","","",""
"","do_trial","206","886407","0.0-113.0-0.0","""event"",""trial"",""time""
""fullscreenenter"",""0"",""4823""
","
","
","""event"",""trial"",""time""
""fullscreenenter"",""0"",""4823""
","
","520","","","","","","","","51","1,0,0","1","coast","56","probe-05","0.38270774490385884","0.36456161314537755","0.6300104605796264","0","","","","","","","",""
"","html-keyboard-response","207","887408","0.0-113.0-1.0","""event"",""trial"",""time""
""fullscreenenter"",""0"",""4823""
","
","
","""event"",""trial"",""time""
""fullscreenenter"",""0"",""4823""
","
","null","<p></p>","null","","","","","","","","","","","","","","","","","","","","","","",""
"","do_trial","208","892391","0.0-114.0-0.0","""event"",""trial"",""time""
""fullscreenenter"",""0"",""4823""
","
","
","""event"",""trial"",""time""
""fullscreenenter"",""0"",""4823""
","
","395","","","","","","","","51","0,0,1","1","coast","57","probe-26","0.12297424648538624","0.22591318960874343","0.5805602523081385","1","","","","","","","",""
"","html-keyboard-response","209","893392","0.0-114.0-1.0","""event"",""trial"",""time""
""fullscreenenter"",""0"",""4823""
","
","
","""event"",""trial"",""time""
""fullscreenenter"",""0"",""4823""
","
","null","<p></p>","null","","","","","","","","","","","","","","","","","","","","","","",""
"","do_trial","210","898860","0.0-115.0-0.0","""event"",""trial"",""time""
""fullscreenenter"",""0"",""4823""
","
","
","""event"",""trial"",""time""
""fullscreenenter"",""0"",""4823""
","
","880","","","","","","","","49","0,1,1","1","coast","58","probe-120","0.19809774359921167","0.27751054829158384","0.5836426906984814","0","","","","","","","",""
"","html-keyboard-response","211","899861","0.0-115.0-1.0","""event"",""trial"",""time""
""fullscreenenter"",""0"",""4823""
","
","
","""event"",""trial"",""time""
""fullscreenenter"",""0"",""4823""
","
","null","<p></p>","null","","","","","","","","","","","","","","","","","","","","","","",""
"","do_trial","212","904836","0.0-116.0-0.0","""event"",""trial"",""time""
""fullscreenenter"",""0"",""4823""
","
","
","""event"",""trial"",""time""
""fullscreenenter"",""0"",""4823""
","
","383","","","","","","","","51","0,0,1","1","coast","59","probe-174","0.056801979538299324","0.1752313296040019","0.6931012197662139","1","","","","","","","",""
"","html-keyboard-response","213","905837","0.0-116.0-1.0","""event"",""trial"",""time""
""fullscreenenter"",""0"",""4823""
","
","
","""event"",""trial"",""time""
""fullscreenenter"",""0"",""4823""
","
","null","<p></p>","null","","","","","","","","","","","","","","","","","","","","","","",""
"","do_trial","214","911669","0.0-117.0-0.0","""event"",""trial"",""time""
""fullscreenenter"",""0"",""4823""
","
","
","""event"",""trial"",""time""
""fullscreenenter"",""0"",""4823""
","
","1245","","","","","","","","51","0,1,0","1","coast","60","probe-20","0.10541711769554717","0.2488108386522882","0.7320037265255757","0","","","","","","","",""
"","html-keyboard-response","215","912670","0.0-117.0-1.0","""event"",""trial"",""time""
""fullscreenenter"",""0"",""4823""
","
","
","""event"",""trial"",""time""
""fullscreenenter"",""0"",""4823""
","
","null","<p></p>","null","","","","","","","","","","","","","","","","","","","","","","",""
"","do_trial","216","917699","0.0-118.0-0.0","""event"",""trial"",""time""
""fullscreenenter"",""0"",""4823""
","
","
","""event"",""trial"",""time""
""fullscreenenter"",""0"",""4823""
","
","442","","","","","","","","49","0,0,1","1","coast","61","probe-46","0.08626257861669887","0.17721002780970568","0.7768823506858427","0","","","","","","","",""
"","html-keyboard-response","217","918700","0.0-118.0-1.0","""event"",""trial"",""time""
""fullscreenenter"",""0"",""4823""
","
","
","""event"",""trial"",""time""
""fullscreenenter"",""0"",""4823""
","
","null","<p></p>","null","","","","","","","","","","","","","","","","","","","","","","",""
"","do_trial","218","923760","0.0-119.0-0.0","""event"",""trial"",""time""
""fullscreenenter"",""0"",""4823""
","
","
","""event"",""trial"",""time""
""fullscreenenter"",""0"",""4823""
","
","467","","","","","","","","51","0,0,1","1","coast","62","probe-71","0.12053078367035687","0.12390374336747595","0.7977831146770497","1","","","","","","","",""
"","html-keyboard-response","219","924761","0.0-119.0-1.0","""event"",""trial"",""time""
""fullscreenenter"",""0"",""4823""
","
","
","""event"",""trial"",""time""
""fullscreenenter"",""0"",""4823""
","
","null","<p></p>","null","","","","","","","","","","","","","","","","","","","","","","",""
"","do_trial","220","929972","0.0-120.0-0.0","""event"",""trial"",""time""
""fullscreenenter"",""0"",""4823""
","
","
","""event"",""trial"",""time""
""fullscreenenter"",""0"",""4823""
","
","623","","","","","","","","50","0,0,1","1","coast","63","probe-159","0.1258451009270637","0.11385511888821713","0.7362350194418186","0","","","","","","","",""
"","html-keyboard-response","221","930973","0.0-120.0-1.0","""event"",""trial"",""time""
""fullscreenenter"",""0"",""4823""
","
","
","""event"",""trial"",""time""
""fullscreenenter"",""0"",""4823""
","
","null","<p></p>","null","","","","","","","","","","","","","","","","","","","","","","",""
"","do_trial","222","935722","0.0-121.0-0.0","""event"",""trial"",""time""
""fullscreenenter"",""0"",""4823""
","
","
","""event"",""trial"",""time""
""fullscreenenter"",""0"",""4823""
","
","156","","","","","","","","51","1,1,0","1","coast","64","probe-123","0.10848023614278697","0.18238124723279317","0.7350426797138736","0","","","","","","","",""
"","html-keyboard-response","223","936723","0.0-121.0-1.0","""event"",""trial"",""time""
""fullscreenenter"",""0"",""4823""
","
","
","""event"",""trial"",""time""
""fullscreenenter"",""0"",""4823""
","
","null","<p></p>","null","","","","","","","","","","","","","","","","","","","","","","",""
"","do_trial","224","941929","0.0-122.0-0.0","""event"",""trial"",""time""
""fullscreenenter"",""0"",""4823""
","
","
","""event"",""trial"",""time""
""fullscreenenter"",""0"",""4823""
","
","616","","","","","","","","51","0,1,0","1","coast","65","probe-24","0.16171940293862277","0.36070241116441365","0.6590131187581474","0","","","","","","","",""
"","html-keyboard-response","225","942930","0.0-122.0-1.0","""event"",""trial"",""time""
""fullscreenenter"",""0"",""4823""
","
","
","""event"",""trial"",""time""
""fullscreenenter"",""0"",""4823""
","
","null","<p></p>","null","","","","","","","","","","","","","","","","","","","","","","",""
"","do_trial","226","948150","0.0-123.0-0.0","""event"",""trial"",""time""
""fullscreenenter"",""0"",""4823""
","
","
","""event"",""trial"",""time""
""fullscreenenter"",""0"",""4823""
","
","632","","","","","","","","49","0,1,1","1","coast","66","probe-75","0.19280510541236895","0.44566280241116013","0.707651396093394","0","","","","","","","",""
"","html-keyboard-response","227","949152","0.0-123.0-1.0","""event"",""trial"",""time""
""fullscreenenter"",""0"",""4823""
","
","
","""event"",""trial"",""time""
""fullscreenenter"",""0"",""4823""
","
","null","<p></p>","null","","","","","","","","","","","","","","","","","","","","","","",""
"","do_trial","228","954155","0.0-124.0-0.0","""event"",""trial"",""time""
""fullscreenenter"",""0"",""4823""
","
","
","""event"",""trial"",""time""
""fullscreenenter"",""0"",""4823""
","
","417","","","","","","","","51","0,1,1","1","coast","67","probe-149","0.16051072020503632","0.3184245086770406","0.6811301740888182","1","","","","","","","",""
"","html-keyboard-response","229","955156","0.0-124.0-1.0","""event"",""trial"",""time""
""fullscreenenter"",""0"",""4823""
","
","
","""event"",""trial"",""time""
""fullscreenenter"",""0"",""4823""
","
","null","<p></p>","null","","","","","","","","","","","","","","","","","","","","","","",""
"","do_trial","230","960836","0.0-125.0-0.0","""event"",""trial"",""time""
""fullscreenenter"",""0"",""4823""
","
","
","""event"",""trial"",""time""
""fullscreenenter"",""0"",""4823""
","
","1093","","","","","","","","51","0,1,1","1","coast","68","probe-147","0.10178722672151948","0.29416737539928767","0.6358083302051524","1","","","","","","","",""
"","html-keyboard-response","231","961837","0.0-125.0-1.0","""event"",""trial"",""time""
""fullscreenenter"",""0"",""4823""
","
","
","""event"",""trial"",""time""
""fullscreenenter"",""0"",""4823""
","
","null","<p></p>","null","","","","","","","","","","","","","","","","","","","","","","",""
"","do_trial","232","968492","0.0-126.0-0.0","""event"",""trial"",""time""
""fullscreenenter"",""0"",""4823""
","
","
","""event"",""trial"",""time""
""fullscreenenter"",""0"",""4823""
","
","2062","","","","","","","","49","1,0,1","1","coast","69","probe-65","0.19976922362947774","0.205322267912076","0.6492288534285424","1","","","","","","","",""
"","html-keyboard-response","233","969493","0.0-126.0-1.0","""event"",""trial"",""time""
""fullscreenenter"",""0"",""4823""
","
","
","""event"",""trial"",""time""
""fullscreenenter"",""0"",""4823""
","
","null","<p></p>","null","","","","","","","","","","","","","","","","","","","","","","",""
"","do_bye","234","970998","0.0-127.0-0.0","""event"",""trial"",""time""
""fullscreenenter"",""0"",""4823""
","
","
","""event"",""trial"",""time""
""fullscreenenter"",""0"",""4823""
","
","null","","","","","","","","null","","","","","","","","","","","","","","","","",""
"","break","235","979944","0.0-127.0-1.0","""event"",""trial"",""time""
""fullscreenenter"",""0"",""4823""
","
","
","""event"",""trial"",""time""
""fullscreenenter"",""0"",""4823""
","
","8944","<div class='center'><p>Time to take a quick break! You have 2 minutes to rest, but you can move on sooner if you'd like.</p><p> Press the <b>space bar</b> to continue.</p></div>","32","","","","","","","","","","","","","","","","","","","","","","",""
"","do_travel","236","988946","0.0-128.0-0.0","""event"",""trial"",""time""
""fullscreenenter"",""0"",""4823""
","
","
","""event"",""trial"",""time""
""fullscreenenter"",""0"",""4823""
","
","null","","","","","","","","null","","","","","","","","","","","","","","","","",""
"","do_welcome","237","992953","0.0-128.0-1.0","""event"",""trial"",""time""
""fullscreenenter"",""0"",""4823""
","
","
","""event"",""trial"",""time""
""fullscreenenter"",""0"",""4823""
","
","null","","","","","","","","null","","","","","","","","","","","","","","","","",""
"","do_trial","238","998710","0.0-129.0-0.0","""event"",""trial"",""time""
""fullscreenenter"",""0"",""4823""
","
","
","""event"",""trial"",""time""
""fullscreenenter"",""0"",""4823""
","
","1169","","","","","","","","50","0,0,1","2","highway","70","probe-91","0.2717074578361348","0.20856350797846773","1","0","","","","","","","",""
"","html-keyboard-response","239","999711","0.0-129.0-1.0","""event"",""trial"",""time""
""fullscreenenter"",""0"",""4823""
","
","
","""event"",""trial"",""time""
""fullscreenenter"",""0"",""4823""
","
","null","<p></p>","null","","","","","","","","","","","","","","","","","","","","","","",""
"","do_trial","240","1004886","0.0-130.0-0.0","""event"",""trial"",""time""
""fullscreenenter"",""0"",""4823""
","
","
","""event"",""trial"",""time""
""fullscreenenter"",""0"",""4823""
","
","586","","","","","","","","49","0,0,1","2","highway","71","probe-226","0.22818357014892093","0.15349965063914597","1","0","","","","","","","",""
"","html-keyboard-response","241","1005887","0.0-130.0-1.0","""event"",""trial"",""time""
""fullscreenenter"",""0"",""4823""
","
","
","""event"",""trial"",""time""
""fullscreenenter"",""0"",""4823""
","
","null","<p></p>","null","","","","","","","","","","","","","","","","","","","","","","",""
"","do_trial","242","1010808","0.0-131.0-0.0","""event"",""trial"",""time""
""fullscreenenter"",""0"",""4823""
","
","
","""event"",""trial"",""time""
""fullscreenenter"",""0"",""4823""
","
","334","","","","","","","","51","0,1,1","2","highway","72","probe-164","0.2994805172698017","0.4379283695228746","0.894842128981897","1","","","","","","","",""
"","html-keyboard-response","243","1011809","0.0-131.0-1.0","""event"",""trial"",""time""
""fullscreenenter"",""0"",""4823""
","
","
","""event"",""trial"",""time""
""fullscreenenter"",""0"",""4823""
","
","null","<p></p>","null","","","","","","","","","","","","","","","","","","","","","","",""
"","do_trial","244","1016398","0.0-132.0-0.0","""event"",""trial"",""time""
""fullscreenenter"",""0"",""4823""
","
","
","""event"",""trial"",""time""
""fullscreenenter"",""0"",""4823""
","
","1","","","","","","","","50","0,1,1","2","highway","73","probe-42","0.08425875673110994","0.26407560164453253","0.6917926963497106","1","","","","","","","",""
"","html-keyboard-response","245","1017399","0.0-132.0-1.0","""event"",""trial"",""time""
""fullscreenenter"",""0"",""4823""
","
","
","""event"",""trial"",""time""
""fullscreenenter"",""0"",""4823""
","
","null","<p></p>","null","","","","","","","","","","","","","","","","","","","","","","",""
"","do_trial","246","1022761","0.0-133.0-0.0","""event"",""trial"",""time""
""fullscreenenter"",""0"",""4823""
","
","
","""event"",""trial"",""time""
""fullscreenenter"",""0"",""4823""
","
","775","","","","","","","","50","0,1,1","2","highway","74","probe-180","0.19894716434957757","0.2881061279551486","0.6354326825822115","1","","","","","","","",""
"","html-keyboard-response","247","1023762","0.0-133.0-1.0","""event"",""trial"",""time""
""fullscreenenter"",""0"",""4823""
","
","
","""event"",""trial"",""time""
""fullscreenenter"",""0"",""4823""
","
","null","<p></p>","null","","","","","","","","","","","","","","","","","","","","","","",""
"","do_trial","248","1028841","0.0-134.0-0.0","""event"",""trial"",""time""
""fullscreenenter"",""0"",""4823""
","
","
","""event"",""trial"",""time""
""fullscreenenter"",""0"",""4823""
","
","491","","","","","","","","51","0,1,1","2","highway","75","probe-55","0.09743737702656852","0.48140287347643973","0.6645917673055172","1","","","","","","","",""
"","html-keyboard-response","249","1029842","0.0-134.0-1.0","""event"",""trial"",""time""
""fullscreenenter"",""0"",""4823""
","
","
","""event"",""trial"",""time""
""fullscreenenter"",""0"",""4823""
","
","null","<p></p>","null","","","","","","","","","","","","","","","","","","","","","","",""
"","do_trial","250","1035191","0.0-135.0-0.0","""event"",""trial"",""time""
""fullscreenenter"",""0"",""4823""
","
","
","""event"",""trial"",""time""
""fullscreenenter"",""0"",""4823""
","
","761","","","","","","","","51","0,0,1","2","highway","76","probe-116","0.05272842937079092","0.3927719537587067","0.5915399038746365","1","","","","","","","",""
"","html-keyboard-response","251","1036192","0.0-135.0-1.0","""event"",""trial"",""time""
""fullscreenenter"",""0"",""4823""
","
","
","""event"",""trial"",""time""
""fullscreenenter"",""0"",""4823""
","
","null","<p></p>","null","","","","","","","","","","","","","","","","","","","","","","",""
"","do_trial","252","1041354","0.0-136.0-0.0","""event"",""trial"",""time""
""fullscreenenter"",""0"",""4823""
","
","
","""event"",""trial"",""time""
""fullscreenenter"",""0"",""4823""
","
","575","","","","","","","","50","0,1,1","2","highway","77","probe-141","0.13705399097429133","0.29742235725792426","0.5881346424577109","1","","","","","","","",""
"","html-keyboard-response","253","1042355","0.0-136.0-1.0","""event"",""trial"",""time""
""fullscreenenter"",""0"",""4823""
","
","
","""event"",""trial"",""time""
""fullscreenenter"",""0"",""4823""
","
","null","<p></p>","null","","","","","","","","","","","","","","","","","","","","","","",""
"","do_trial","254","1047340","0.0-137.0-0.0","""event"",""trial"",""time""
""fullscreenenter"",""0"",""4823""
","
","
","""event"",""trial"",""time""
""fullscreenenter"",""0"",""4823""
","
","391","","","","","","","","51","0,0,0","2","highway","78","probe-133","0.1454145671706914","0.34290589105891334","0.5061154971278649","0","","","","","","","",""
"","html-keyboard-response","255","1048341","0.0-137.0-1.0","""event"",""trial"",""time""
""fullscreenenter"",""0"",""4823""
","
","
","""event"",""trial"",""time""
""fullscreenenter"",""0"",""4823""
","
","null","<p></p>","null","","","","","","","","","","","","","","","","","","","","","","",""
"","do_trial","256","1053622","0.0-138.0-0.0","""event"",""trial"",""time""
""fullscreenenter"",""0"",""4823""
","
","
","""event"",""trial"",""time""
""fullscreenenter"",""0"",""4823""
","
","689","","","","","","","","49","0,1,1","2","highway","79","probe-72","0.1847046869933309","0.37870875209919475","0.4738851745406519","0","","","","","","","",""
"","html-keyboard-response","257","1054623","0.0-138.0-1.0","""event"",""trial"",""time""
""fullscreenenter"",""0"",""4823""
","
","
","""event"",""trial"",""time""
""fullscreenenter"",""0"",""4823""
","
","null","<p></p>","null","","","","","","","","","","","","","","","","","","","","","","",""
"","do_trial","258","1059663","0.0-139.0-0.0","""event"",""trial"",""time""
""fullscreenenter"",""0"",""4823""
","
","
","""event"",""trial"",""time""
""fullscreenenter"",""0"",""4823""
","
","452","","","","","","","","50","0,0,1","2","highway","80","probe-162","0.18594675294417734","0.4917094620425758","0.4689946818043174","0","","","","","","","",""
"","html-keyboard-response","259","1060664","0.0-139.0-1.0","""event"",""trial"",""time""
""fullscreenenter"",""0"",""4823""
","
","
","""event"",""trial"",""time""
""fullscreenenter"",""0"",""4823""
","
","null","<p></p>","null","","","","","","","","","","","","","","","","","","","","","","",""
"","do_trial","260","1065256","0.0-140.0-0.0","""event"",""trial"",""time""
""fullscreenenter"",""0"",""4823""
","
","
","""event"",""trial"",""time""
""fullscreenenter"",""0"",""4823""
","
","0","","","","","","","","51","0,0,1","2","highway","81","probe-196","0.19137380796754147","0.40176394628942275","0.5147353355649944","1","","","","","","","",""
"","html-keyboard-response","261","1066257","0.0-140.0-1.0","""event"",""trial"",""time""
""fullscreenenter"",""0"",""4823""
","
","
","""event"",""trial"",""time""
""fullscreenenter"",""0"",""4823""
","
","null","<p></p>","null","","","","","","","","","","","","","","","","","","","","","","",""
"","do_trial","262","1071604","0.0-141.0-0.0","""event"",""trial"",""time""
""fullscreenenter"",""0"",""4823""
","
","
","""event"",""trial"",""time""
""fullscreenenter"",""0"",""4823""
","
","758","","","","","","","","49","0,0,0","2","highway","82","probe-200","0.5328212352418278","0.2921532356874874","0.3222903063054426","0","","","","","","","",""
"","html-keyboard-response","263","1072605","0.0-141.0-1.0","""event"",""trial"",""time""
""fullscreenenter"",""0"",""4823""
","
","
","""event"",""trial"",""time""
""fullscreenenter"",""0"",""4823""
","
","null","<p></p>","null","","","","","","","","","","","","","","","","","","","","","","",""
"","do_trial","264","1078030","0.0-142.0-0.0","""event"",""trial"",""time""
""fullscreenenter"",""0"",""4823""
","
","
","""event"",""trial"",""time""
""fullscreenenter"",""0"",""4823""
","
","834","","","","","","","","51","1,1,0","2","highway","83","probe-13","0.520482916001694","0.31087979243479813","0.23212252096347175","0","","","","","","","",""
"","html-keyboard-response","265","1079031","0.0-142.0-1.0","""event"",""trial"",""time""
""fullscreenenter"",""0"",""4823""
","
","
","""event"",""trial"",""time""
""fullscreenenter"",""0"",""4823""
","
","null","<p></p>","null","","","","","","","","","","","","","","","","","","","","","","",""
"","do_trial","266","1084245","0.0-143.0-0.0","""event"",""trial"",""time""
""fullscreenenter"",""0"",""4823""
","
","
","""event"",""trial"",""time""
