"success","trial_type","trial_index","time_elapsed","internal_node_id","interactions","blur_events","focus_events","fullscreenenter_events","fullscreenexit_events","rt","stimulus","key_press","subject_id","participant_id","age","gender","prompt","response","choice_outcomes","context_n","context_img_id","trial_n","probe_img_id","pR_red","pR_white","pR_black","outcome","contextArray_ind","validImageProbes","invalidImageProbes","pRew_Red","pRew_White","pRew_Black","availableForMemProbe","choice_blocks"
"true","fullscreen","0","2712","0.0-0.0","""event"",""trial"",""time""
""fullscreenenter"",""0"",""1738""
","
","
","""event"",""trial"",""time""
""fullscreenenter"",""0"",""1738""
","
","","","","","","","","","","","","","","","","","","","","","","","","","",""
"","pavlovia","1","2718","0.0-1.0","""event"",""trial"",""time""
""fullscreenenter"",""0"",""1738""
","
","
","""event"",""trial"",""time""
""fullscreenenter"",""0"",""1738""
","
","","","","","","","","","","","","","","","","","","","","","","","","","",""
"","instruc1","2","47837","0.0-2.0","""event"",""trial"",""time""
""fullscreenenter"",""0"",""1738""
","
","
","""event"",""trial"",""time""
""fullscreenenter"",""0"",""1738""
","
","null","run_exp/static/audio/clip_1_welcome.m4a","null","925","225","18","Female","<div class='center'><p>Welcome! This is the first part of the study. It will last ~30 minutes. In part 1 and part 2 of the study, you are the head captain of a pirate ship traveling around the world to different islands. You will play a few different games throughout these two parts. Here is an overview of them:</p><br><p>Part 1 (today)</p><p>1. Instructions, practice game, and quiz</p><p>2. Pick a pirate game on 6 different islands</p><br><p>Part 2 (tomorrow)</p><p>3. Pick a pirate game and memory game</p><p>4. Where did you see this ship? </p></div>","","","","","","","","","","","","","","","","","",""
"","html-keyboard-response","3","49366","0.0-3.0","""event"",""trial"",""time""
""fullscreenenter"",""0"",""1738""
","
","
","""event"",""trial"",""time""
""fullscreenenter"",""0"",""1738""
","
","1523","<div class='center'><p>Welcome! This is the first part of the study. It will last ~30 minutes. In part 1 and part 2 of the study, you are the head captain of a pirate ship traveling around the world to different islands. You will play a few different games throughout these two parts. Here is an overview of them:</p><br><p>Part 1 (today)</p><p>1. Instructions, practice game, and quiz</p><p>2. Pick a pirate game on 6 different islands</p><br><p>Part 2 (tomorrow)</p><p>3. Pick a pirate game and memory game</p><p>4. Where did you see this ship? </p><p><b>[Press the space bar to continue]</b></p></div>","32","","","","","","","","","","","","","","","","","","","","","","",""
"","instruc2","4","54685","0.0-4.0","""event"",""trial"",""time""
""fullscreenenter"",""0"",""1738""
","
","
","""event"",""trial"",""time""
""fullscreenenter"",""0"",""1738""
","
","null","run_exp/static/audio/clip_2_different_places.m4a","null","","","","","<div class='center'><p>Today, you’ll visit these 6 islands on your journey. You'll be able to see these islands from your ship.</p><p><img src='run_exp/static/images/contexts/all_contexts.png' height='500'></p></div>","","","","","","","","","","","","","","","","","",""
"","html-keyboard-response","5","55571","0.0-5.0","""event"",""trial"",""time""
""fullscreenenter"",""0"",""1738""
","
","
","""event"",""trial"",""time""
""fullscreenenter"",""0"",""1738""
","
","883.4000000357628","<div class='center'><p>Today, you’ll visit these 6 islands on your journey. You'll be able to see these islands from your ship.</p><p><img src='run_exp/static/images/contexts/all_contexts.png' height='500'></p><p><b>[Press the space bar to continue]</b></p></div>","32","","","","","","","","","","","","","","","","","","","","","","",""
"","instruc3","6","65273","0.0-6.0","""event"",""trial"",""time""
""fullscreenenter"",""0"",""1738""
","
","
","""event"",""trial"",""time""
""fullscreenenter"",""0"",""1738""
","
","null","run_exp/static/audio/clip_3_goal_of_game_1.m4a","null","","","","","<div class='center'><p> The pirates on your ship will rob other ships as they leave the island.</p> These ships have just sold their goods to the islanders, so they will be filled with lots and lots of gold.</p><p><img src='run_exp/static/images/tutorial/ship_center.png' height='400'></p></div>","","","","","","","","","","","","","","","","","",""
"","html-keyboard-response","7","66530","0.0-7.0","""event"",""trial"",""time""
""fullscreenenter"",""0"",""1738""
","
","
","""event"",""trial"",""time""
""fullscreenenter"",""0"",""1738""
","
","1254.300000011921","<div class='center'><p> The pirates on your ship will rob other ships as they leave the island.</p> These ships have just sold their goods to the islanders, so they will be filled with lots and lots of gold.</p><p><img src='run_exp/static/images/tutorial/ship_center.png' height='400'></p><p><b>[Press the space bar to continue]</b></p></div>","32","","","","","","","","","","","","","","","","","","","","","","",""
"","instruc4","8","94530","0.0-8.0","""event"",""trial"",""time""
""fullscreenenter"",""0"",""1738""
","
","
","""event"",""trial"",""time""
""fullscreenenter"",""0"",""1738""
","
","null","run_exp/static/audio/clip_4_goal_of_game_2.m4a","null","","","","","<div class='center'><p>As the head captain, you do not have to rob any ships yourself. Another pirate will be doing the robbing for you. First, you will choose a pirate to rob the next ship.</p><p><img src='run_exp/static/images/tutorial/pirates_all_crop.png' height='200'></p><p>Then, you'll see if the pirate successfully robbed the ship of their gold. If they were successful, then you'll get a stack of gold coins like this:</p><p><img src='run_exp/static/images/tutorial/reward.png' height='150'></p><p> If they were <b>not</b> successful, then you'll get no gold coins, and you'll see a big red x like this: </p><p><img src='run_exp/static/images/tutorial/reward_no.png' height='150'></p><p> How much bonus money you make is based on how many gold coins you collect.</p><div>","","","","","","","","","","","","","","","","","",""
"","html-keyboard-response","9","95456","0.0-9.0","""event"",""trial"",""time""
""fullscreenenter"",""0"",""1738""
","
","
","""event"",""trial"",""time""
""fullscreenenter"",""0"",""1738""
","
","923.3999999761581","<div class='center'><p>As the head captain, you do not have to rob any ships yourself. Another pirate will be doing the robbing for you. First, you will choose a pirate to rob the next ship.</p><p><img src='run_exp/static/images/tutorial/pirates_all_crop.png' height='200'></p><p>Then, you'll see if the pirate successfully robbed the ship of their gold. If they were successful, then you'll get a stack of gold coins like this:</p><p><img src='run_exp/static/images/tutorial/reward.png' height='150'></p><p> If they were <b>not</b> successful, then you'll get no gold coins, and you'll see a big red x like this: </p><p><img src='run_exp/static/images/tutorial/reward_no.png' height='150'></p><p> How much bonus money you make is based on how many gold coins you collect.</p<p><b>[Press the space bar to continue]</b></p></div>","32","","","","","","","","","","","","","","","","","","","","","","",""
"","instruc5","10","106546","0.0-10.0","""event"",""trial"",""time""
""fullscreenenter"",""0"",""1738""
","
","
","""event"",""trial"",""time""
""fullscreenenter"",""0"",""1738""
","
","11088.199999988079","run_exp/static/audio/clip_5_probabilistic.m4a","49","","","","","<div class='center'><p>Even the most skilled pirate can not rob EVERY ship.</p><p> Some ships will have very strong protections against pirate attacks.</p><p> Blue beard, here, is very, very good at robbing ships, but he won't be successful every time he tries to rob one.</p><p> You can press the <b>‘1’</b> key on the keyboard to choose him.</p><p> Try choosing him 10 times to see how often he succeeds at robbing a ship. </p><p><img src='run_exp/static/images/tutorial/blue.png' height='500'></p></div>","","","","","","","","","","","","","","","","","",""
"","html-keyboard-response","11","108054","0.0-11.0","""event"",""trial"",""time""
""fullscreenenter"",""0"",""1738""
","
","
","""event"",""trial"",""time""
""fullscreenenter"",""0"",""1738""
","
","null","<div class='center'><p><img src='run_exp/static/images/tutorial/blue_win.png' height='500'></p></div>","null","","","","","","","","","","","","","","","","","","","","","","",""
"","html-keyboard-response","12","108978","0.0-12.0","""event"",""trial"",""time""
""fullscreenenter"",""0"",""1738""
","
","
","""event"",""trial"",""time""
""fullscreenenter"",""0"",""1738""
","
","922.5","<div class='center'><img src='run_exp/static/images/tutorial/blue.png' height='500'></p></div>","49","","","","","","","","","","","","","","","","","","","","","","",""
"","html-keyboard-response","13","110482","0.0-13.0","""event"",""trial"",""time""
""fullscreenenter"",""0"",""1738""
","
","
","""event"",""trial"",""time""
""fullscreenenter"",""0"",""1738""
","
","null","<div class='center'><p><img src='run_exp/static/images/tutorial/blue_win.png' height='500'></p></div>","null","","","","","","","","","","","","","","","","","","","","","","",""
"","html-keyboard-response","14","111204","0.0-14.0","""event"",""trial"",""time""
""fullscreenenter"",""0"",""1738""
","
","
","""event"",""trial"",""time""
""fullscreenenter"",""0"",""1738""
","
","720.1999999880791","<div class='center'><img src='run_exp/static/images/tutorial/blue.png' height='500'></p></div>","49","","","","","","","","","","","","","","","","","","","","","","",""
"","html-keyboard-response","15","112708","0.0-15.0","""event"",""trial"",""time""
""fullscreenenter"",""0"",""1738""
","
","
","""event"",""trial"",""time""
""fullscreenenter"",""0"",""1738""
","
","null","<div class='center'><p><img src='run_exp/static/images/tutorial/blue_win.png' height='500'></p></div>","null","","","","","","","","","","","","","","","","","","","","","","",""
"","html-keyboard-response","16","113033","0.0-16.0","""event"",""trial"",""time""
""fullscreenenter"",""0"",""1738""
","
","
","""event"",""trial"",""time""
""fullscreenenter"",""0"",""1738""
","
","323.7000000476837","<div class='center'><img src='run_exp/static/images/tutorial/blue.png' height='500'></p></div>","49","","","","","","","","","","","","","","","","","","","","","","",""
"","html-keyboard-response","17","114540","0.0-17.0","""event"",""trial"",""time""
""fullscreenenter"",""0"",""1738""
","
","
","""event"",""trial"",""time""
""fullscreenenter"",""0"",""1738""
","
","null","<div class='center'><p><img src='run_exp/static/images/tutorial/blue_no_win.png' height='500'></p></div>","null","","","","","","","","","","","","","","","","","","","","","","",""
"","html-keyboard-response","18","115053","0.0-18.0","""event"",""trial"",""time""
""fullscreenenter"",""0"",""1738""
","
","
","""event"",""trial"",""time""
""fullscreenenter"",""0"",""1738""
","
","511.5","<div class='center'><img src='run_exp/static/images/tutorial/blue.png' height='500'></p></div>","49","","","","","","","","","","","","","","","","","","","","","","",""
"","html-keyboard-response","19","116555","0.0-19.0","""event"",""trial"",""time""
""fullscreenenter"",""0"",""1738""
","
","
","""event"",""trial"",""time""
""fullscreenenter"",""0"",""1738""
","
","null","<div class='center'><p><img src='run_exp/static/images/tutorial/blue_win.png' height='500'></p></div>","null","","","","","","","","","","","","","","","","","","","","","","",""
"","html-keyboard-response","20","117003","0.0-20.0","""event"",""trial"",""time""
""fullscreenenter"",""0"",""1738""
","
","
","""event"",""trial"",""time""
""fullscreenenter"",""0"",""1738""
","
","447.5","<div class='center'><img src='run_exp/static/images/tutorial/blue.png' height='500'></p></div>","49","","","","","","","","","","","","","","","","","","","","","","",""
"","html-keyboard-response","21","118510","0.0-21.0","""event"",""trial"",""time""
""fullscreenenter"",""0"",""1738""
","
","
","""event"",""trial"",""time""
""fullscreenenter"",""0"",""1738""
","
","null","<div class='center'><p><img src='run_exp/static/images/tutorial/blue_win.png' height='500'></p></div>","null","","","","","","","","","","","","","","","","","","","","","","",""
"","html-keyboard-response","22","118796","0.0-22.0","""event"",""trial"",""time""
""fullscreenenter"",""0"",""1738""
","
","
","""event"",""trial"",""time""
""fullscreenenter"",""0"",""1738""
","
","284.80000001192093","<div class='center'><img src='run_exp/static/images/tutorial/blue.png' height='500'></p></div>","49","","","","","","","","","","","","","","","","","","","","","","",""
"","html-keyboard-response","23","120303","0.0-23.0","""event"",""trial"",""time""
""fullscreenenter"",""0"",""1738""
","
","
","""event"",""trial"",""time""
""fullscreenenter"",""0"",""1738""
","
","null","<div class='center'><p><img src='run_exp/static/images/tutorial/blue_win.png' height='500'></p></div>","null","","","","","","","","","","","","","","","","","","","","","","",""
"","html-keyboard-response","24","120774","0.0-24.0","""event"",""trial"",""time""
""fullscreenenter"",""0"",""1738""
","
","
","""event"",""trial"",""time""
""fullscreenenter"",""0"",""1738""
","
","469.30000001192093","<div class='center'><img src='run_exp/static/images/tutorial/blue.png' height='500'></p></div>","49","","","","","","","","","","","","","","","","","","","","","","",""
"","html-keyboard-response","25","122280","0.0-25.0","""event"",""trial"",""time""
""fullscreenenter"",""0"",""1738""
","
","
","""event"",""trial"",""time""
""fullscreenenter"",""0"",""1738""
","
","null","<div class='center'><p><img src='run_exp/static/images/tutorial/blue_no_win.png' height='500'></p></div>","null","","","","","","","","","","","","","","","","","","","","","","",""
"","html-keyboard-response","26","122727","0.0-26.0","""event"",""trial"",""time""
""fullscreenenter"",""0"",""1738""
","
","
","""event"",""trial"",""time""
""fullscreenenter"",""0"",""1738""
","
","445.4000000357628","<div class='center'><img src='run_exp/static/images/tutorial/blue.png' height='500'></p></div>","49","","","","","","","","","","","","","","","","","","","","","","",""
"","html-keyboard-response","27","124234","0.0-27.0","""event"",""trial"",""time""
""fullscreenenter"",""0"",""1738""
","
","
","""event"",""trial"",""time""
""fullscreenenter"",""0"",""1738""
","
","null","<div class='center'><p><img src='run_exp/static/images/tutorial/blue_win.png' height='500'></p></div>","null","","","","","","","","","","","","","","","","","","","","","","",""
"","html-keyboard-response","28","124544","0.0-28.0","""event"",""trial"",""time""
""fullscreenenter"",""0"",""1738""
","
","
","""event"",""trial"",""time""
""fullscreenenter"",""0"",""1738""
","
","308.2999999523163","<div class='center'><img src='run_exp/static/images/tutorial/blue.png' height='500'></p></div>","49","","","","","","","","","","","","","","","","","","","","","","",""
"","html-keyboard-response","29","126051","0.0-29.0","""event"",""trial"",""time""
""fullscreenenter"",""0"",""1738""
","
","
","""event"",""trial"",""time""
""fullscreenenter"",""0"",""1738""
","
","null","<div class='center'><p><img src='run_exp/static/images/tutorial/blue_win.png' height='500'></p></div>","null","","","","","","","","","","","","","","","","","","","","","","",""
"","instruc6","30","131452","0.0-30.0","""event"",""trial"",""time""
""fullscreenenter"",""0"",""1738""
","
","
","""event"",""trial"",""time""
""fullscreenenter"",""0"",""1738""
","
","null","run_exp/static/audio/clip_6_blue_beard_outcome.m4a","null","","","","","<div class='center'><p> See, he succeeded in robbing the ships most of the time but not every time. </p></div>","","","","","","","","","","","","","","","","","",""
"","html-keyboard-response","31","131918","0.0-31.0","""event"",""trial"",""time""
""fullscreenenter"",""0"",""1738""
","
","
","""event"",""trial"",""time""
""fullscreenenter"",""0"",""1738""
","
","464.2999999523163","<div class='center'><p> See, he succeeded in robbing the ships most of the time but not every time. </p><p><b>[Press the space bar to continue]</b></p></div>","32","","","","","","","","","","","","","","","","","","","","","","",""
"","audio-keyboard-response","32","138354","0.0-32.0","""event"",""trial"",""time""
""fullscreenenter"",""0"",""1738""
","
","
","""event"",""trial"",""time""
""fullscreenenter"",""0"",""1738""
","
","6434","run_exp/static/audio/clip_7_pick_pirate.m4a","50","","","","","","","","","","","","","","","","","","","","","","",""
"","audio-keyboard-response","33","140343","0.0-33.0-0.0","""event"",""trial"",""time""
""fullscreenenter"",""0"",""1738""
","
","
","""event"",""trial"",""time""
""fullscreenenter"",""0"",""1738""
","
","1985.6000000238419","run_exp/static/audio/clip_8_chosen_pirate_win.m4a","32","","","","","","","","","","","","","","","","","","","","","","",""
"","audio-keyboard-response","34","141803","0.0-33.0-1.0","""event"",""trial"",""time""
""fullscreenenter"",""0"",""1738""
","
","
","""event"",""trial"",""time""
""fullscreenenter"",""0"",""1738""
","
","1458","run_exp/static/audio/clip_9_pick_a_pirate_again.m4a","49","","","","","","","","","","","","","","","","","","","","","","",""
"","audio-keyboard-response","35","143278","0.0-34.0-0.0","""event"",""trial"",""time""
""fullscreenenter"",""0"",""1738""
","
","
","""event"",""trial"",""time""
""fullscreenenter"",""0"",""1738""
","
","1472","run_exp/static/audio/clip_10_chosen_pirate_loss.m4a","32","","","","","","","","","","","","","","","","","","","","","","",""
"","instruc9","36","148774","0.0-35.0-0.0","""event"",""trial"",""time""
""fullscreenenter"",""0"",""1738""
","
","
","""event"",""trial"",""time""
""fullscreenenter"",""0"",""1738""
","
","null","run_exp/static/audio/clip_11_time_out.m4a","null","","","","","<div class='center'><p>If you don’t make your choice fast enough, you’ll have to wait a few seconds before you can make another one. </p><p><img src='run_exp/static/images/miscellaneous/hurry_up.png' height='500'></p></div>","","","","","","","","","","","","","","","","","",""
"","html-keyboard-response","37","149243","0.0-35.0-1.0","""event"",""trial"",""time""
""fullscreenenter"",""0"",""1738""
","
","
","""event"",""trial"",""time""
""fullscreenenter"",""0"",""1738""
","
","467.39999997615814","<div class='center'><p>If you don’t make your choice fast enough, you’ll have to wait a few seconds before you can make another one. </p><p><img src='run_exp/static/images/miscellaneous/hurry_up.png' height='500'></p><p><b>[Press the space bar to continue]</b></p></div>","32","","","","","","","","","","","","","","","","","","","","","","",""
"","instruc10","38","188340","0.0-35.0-2.0","""event"",""trial"",""time""
""fullscreenenter"",""0"",""1738""
","
","
","""event"",""trial"",""time""
""fullscreenenter"",""0"",""1738""
","
","null","run_exp/static/audio/clip_12_probe.m4a","null","","","","","<div class='center'><p>Once you've chosen a pirate, you’ll be shown the ship they are robbing. You will never rob the same ship twice. Ships can be told apart from one another by the image on them. These are the goods that they sell. See, this ship has a travel mug on it. </p><p> You’ll have to remember which island you saw each ship on. You will win more gold coins and hence more bonus money if you remember correctly! To help you remember, you can imagine a story. For example, here, you could imagine a mug full of water in the desert. Or, as another example, if on the forest island, your pirate robbed a ship with an apple on it, you could imagine an apple falling from a tree in the forest. </p><p><img src='run_exp/static/images/tutorial/example_probe.png' height='500'></p></div>","","","","","","","","","","","","","","","","","",""
"","html-keyboard-response","39","206188","0.0-35.0-3.0","""event"",""trial"",""time""
""fullscreenenter"",""0"",""1738""
","
","
","""event"",""trial"",""time""
""fullscreenenter"",""0"",""1738""
","
","17846.19999998808","<div class='center'><p>Once you've chosen a pirate, you’ll be shown the ship they are robbing. You will never rob the same ship twice. Ships can be told apart from one another by the image on them. These are the goods that they sell. See, this ship has a travel mug on it. </p><p> You’ll have to remember which island you saw each ship on. You will win more gold coins and hence more bonus money if you remember correctly! To help you remember, you can imagine a story. For example, here, you could imagine a mug full of water in the desert. Or, as another example, if on the forest island, your pirate robbed a ship with an apple on it, you could imagine an apple falling from a tree in the forest. </p><p><img src='run_exp/static/images/tutorial/example_probe.png' height='500'></p><p><b>[Press the space bar to continue]</b></p></div>","32","","","","","","","","","","","","","","","","","","","","","","",""
"","instruc11","40","222620","0.0-35.0-4.0","""event"",""trial"",""time""
""fullscreenenter"",""0"",""1738""
","
","
","""event"",""trial"",""time""
""fullscreenenter"",""0"",""1738""
","
","null","run_exp/static/audio/clip_13_changepoint.m4a","null","","","","","<div class='center'><p>How successful a pirate is at robbing ships will depend on the island you’re on.</p><p> A pirate may have visited this island many times before and gained a lot of practice robbing ships there.</p><p>So, they’re more likely to be successful than a pirate who has never visited the island before.</p></div>","","","","","","","","","","","","","","","","","",""
"","html-keyboard-response","41","223534","0.0-35.0-5.0","""event"",""trial"",""time""
""fullscreenenter"",""0"",""1738""
","
","
","""event"",""trial"",""time""
""fullscreenenter"",""0"",""1738""
","
","912.4000000357628","<div class='center'><p>How successful a pirate is at robbing ships will depend on the island you’re on.</p><p> A pirate may have visited this island many times before and gained a lot of practice robbing ships there.</p><p>So, they’re more likely to be successful than a pirate who has never visited the island before.</p><p><b>[Press the space bar to continue]</b></p></div>","32","","","","","","","","","","","","","","","","","","","","","","",""
"","instruc12","42","264647","0.0-35.0-6.0","""event"",""trial"",""time""
""fullscreenenter"",""0"",""1738""
","
","
","""event"",""trial"",""time""
""fullscreenenter"",""0"",""1738""
","
","null","run_exp/static/audio/clip_14_drift.m4a","null","","","","","<div class='center'><p>How successful a pirate is at robbing ships can also change over the time spent on the island. </p><p> Ships may hear from islanders about the pirates coming and will improve their protections against the attack. This may make it harder to rob them.</p><p> Ships may also become lazy and weaken the strength of their protections. This may make it easier to rob them.</p><br><p>Things are always changing on the high seas! So, try your best to pay attention!</p><p><img src='run_exp/static/images/tutorial/contingency.png' height='500'></p></div>","","","","","","","","","","","","","","","","","",""
"","html-keyboard-response","43","294448","0.0-35.0-7.0","""event"",""trial"",""time""
""fullscreenenter"",""0"",""1738""
""blur"",""44"",""309484""
""focus"",""44"",""310102""
","""event"",""trial"",""time""
""blur"",""44"",""309484""
","""event"",""trial"",""time""
""focus"",""44"",""310102""
","""event"",""trial"",""time""
""fullscreenenter"",""0"",""1738""
","
","29799.5","<div class='center'><p>How successful a pirate is at robbing ships can also change over the time spent on the island. </p><p> Ships may hear from islanders about the pirates coming and will improve their protections against the attack. This may make it harder to rob them.</p><p> Ships may also become lazy and weaken the strength of their protections. This may make it easier to rob them.</p><br><p>Things are always changing on the high seas! So, try your best to pay attention!</p><p><img src='run_exp/static/images/tutorial/contingency.png' height='500'></p><p><b>[Press the space bar to continue]</b></p></div>","32","","","","","","","","","","","","","","","","","","","","","","",""
"","instruc13","44","329643","0.0-35.0-8.0","""event"",""trial"",""time""
""fullscreenenter"",""0"",""1738""
""blur"",""44"",""309484""
""focus"",""44"",""310102""
","""event"",""trial"",""time""
""blur"",""44"",""309484""
","""event"",""trial"",""time""
""focus"",""44"",""310102""
","""event"",""trial"",""time""
""fullscreenenter"",""0"",""1738""
","
","null","run_exp/static/audio/clip_15_summary.m4a","null","","","","","<div class='center'><p>Let's go over the instructions quickly again. You have two important things to do: </p><b><p> 1. Pick the pirate who is the best at robbing ships on the current island. </p></b><b><p> 2. Remember on which island a ship was robbed.</p> </b><p>The amount of bonus money you can win depends on both.</p><p><br><p>Let’s try a practice game. The game will start by showing you the pirates. First, pick a pirate using the <b> 1, 2, 3 </b> keys on your keyboard. When you are shown a ship, try to remember which island you’re on by making up a story.</p><p>This is just a practice game, so you’re not playing for money. </p><p> Good luck! This game will be very difficult but try your best!</p></div>","","","","","","","","","","","","","","","","","",""
"","html-keyboard-response","45","330454","0.0-35.0-9.0","""event"",""trial"",""time""
""fullscreenenter"",""0"",""1738""
""blur"",""44"",""309484""
""focus"",""44"",""310102""
","""event"",""trial"",""time""
""blur"",""44"",""309484""
","""event"",""trial"",""time""
""focus"",""44"",""310102""
","""event"",""trial"",""time""
""fullscreenenter"",""0"",""1738""
","
","809.2000000476837","<div class='center'><p>Let's go over the instructions quickly again. You have two important things to do: </p><b><p> 1. Pick the pirate who is the best at robbing ships on the current island. </p></b><b><p> 2. Remember on which island a ship was robbed.</p> </b><p>The amount of bonus money you can win depends on both.</p><p><br><p>Let’s try a practice game. The game will start by showing you the pirates. First, pick a pirate using the <b> 1, 2, 3 </b> keys on your keyboard. When you are shown a ship, try to remember which island you’re on by making up a story.</p><p>This is just a practice game, so you’re not playing for money. </p><p> Good luck! This game will be very difficult but try your best!</p><p><b>[Press the space bar to continue]</b></p></div>","32","","","","","","","","","","","","","","","","","","","","","","",""
"","do_welcome","46","334465","0.0-35.0-10.0","""event"",""trial"",""time""
""fullscreenenter"",""0"",""1738""
""blur"",""44"",""309484""
""focus"",""44"",""310102""
","""event"",""trial"",""time""
""blur"",""44"",""309484""
","""event"",""trial"",""time""
""focus"",""44"",""310102""
","""event"",""trial"",""time""
""fullscreenenter"",""0"",""1738""
","
","null","","","","","","","","null","","","","","","","","","","","","","","","","",""
"","do_trial","47","340486","0.0-35.0-11.0","""event"",""trial"",""time""
""fullscreenenter"",""0"",""1738""
""blur"",""44"",""309484""
""focus"",""44"",""310102""
","""event"",""trial"",""time""
""blur"",""44"",""309484""
","""event"",""trial"",""time""
""focus"",""44"",""310102""
","""event"",""trial"",""time""
""fullscreenenter"",""0"",""1738""
","
","null","","","","","","","","null","1,0,0","","","","","","","","","","","","","","","",""
"","html-keyboard-response","48","341492","0.0-36.0-0.0","""event"",""trial"",""time""
""fullscreenenter"",""0"",""1738""
""blur"",""44"",""309484""
""focus"",""44"",""310102""
","""event"",""trial"",""time""
""blur"",""44"",""309484""
","""event"",""trial"",""time""
""focus"",""44"",""310102""
","""event"",""trial"",""time""
""fullscreenenter"",""0"",""1738""
","
","null","<p></p>","null","","","","","","","","","","","","","","","","","","","","","","",""
"","do_trial","49","347129","0.0-36.0-1.0","""event"",""trial"",""time""
""fullscreenenter"",""0"",""1738""
""blur"",""44"",""309484""
""focus"",""44"",""310102""
","""event"",""trial"",""time""
""blur"",""44"",""309484""
","""event"",""trial"",""time""
""focus"",""44"",""310102""
","""event"",""trial"",""time""
""fullscreenenter"",""0"",""1738""
","
","1125.2999999523163","","","","","","","","50","1,0,0","","","","","","","","","","","","","","","",""
"","html-keyboard-response","50","348137","0.0-37.0-0.0","""event"",""trial"",""time""
""fullscreenenter"",""0"",""1738""
""blur"",""44"",""309484""
""focus"",""44"",""310102""
","""event"",""trial"",""time""
""blur"",""44"",""309484""
","""event"",""trial"",""time""
""focus"",""44"",""310102""
","""event"",""trial"",""time""
""fullscreenenter"",""0"",""1738""
","
","null","<p></p>","null","","","","","","","","","","","","","","","","","","","","","","",""
"","do_trial","51","353356","0.0-37.0-1.0","""event"",""trial"",""time""
""fullscreenenter"",""0"",""1738""
""blur"",""44"",""309484""
""focus"",""44"",""310102""
","""event"",""trial"",""time""
""blur"",""44"",""309484""
","""event"",""trial"",""time""
""focus"",""44"",""310102""
","""event"",""trial"",""time""
""fullscreenenter"",""0"",""1738""
","
","704.8999999761581","","","","","","","","50","1,1,0","","","","","","","","","","","","","","","",""
"","html-keyboard-response","52","354358","0.0-38.0-0.0","""event"",""trial"",""time""
""fullscreenenter"",""0"",""1738""
""blur"",""44"",""309484""
""focus"",""44"",""310102""
","""event"",""trial"",""time""
""blur"",""44"",""309484""
","""event"",""trial"",""time""
""focus"",""44"",""310102""
","""event"",""trial"",""time""
""fullscreenenter"",""0"",""1738""
","
","null","<p></p>","null","","","","","","","","","","","","","","","","","","","","","","",""
"","do_trial","53","359555","0.0-38.0-1.0","""event"",""trial"",""time""
""fullscreenenter"",""0"",""1738""
""blur"",""44"",""309484""
""focus"",""44"",""310102""
","""event"",""trial"",""time""
""blur"",""44"",""309484""
","""event"",""trial"",""time""
""focus"",""44"",""310102""
","""event"",""trial"",""time""
""fullscreenenter"",""0"",""1738""
","
","683.1999999880791","","","","","","","","50","1,0,1","","","","","","","","","","","","","","","",""
"","html-keyboard-response","54","360563","0.0-39.0-0.0","""event"",""trial"",""time""
""fullscreenenter"",""0"",""1738""
""blur"",""44"",""309484""
""focus"",""44"",""310102""
","""event"",""trial"",""time""
""blur"",""44"",""309484""
","""event"",""trial"",""time""
""focus"",""44"",""310102""
","""event"",""trial"",""time""
""fullscreenenter"",""0"",""1738""
","
","null","<p></p>","null","","","","","","","","","","","","","","","","","","","","","","",""
"","do_trial","55","365554","0.0-39.0-1.0","""event"",""trial"",""time""
""fullscreenenter"",""0"",""1738""
""blur"",""44"",""309484""
""focus"",""44"",""310102""
","""event"",""trial"",""time""
""blur"",""44"",""309484""
","""event"",""trial"",""time""
""focus"",""44"",""310102""
","""event"",""trial"",""time""
""fullscreenenter"",""0"",""1738""
","
","480.39999997615814","","","","","","","","50","0,1,0","","","","","","","","","","","","","","","",""
"","html-keyboard-response","56","366560","0.0-40.0-0.0","""event"",""trial"",""time""
""fullscreenenter"",""0"",""1738""
""blur"",""44"",""309484""
""focus"",""44"",""310102""
","""event"",""trial"",""time""
""blur"",""44"",""309484""
","""event"",""trial"",""time""
""focus"",""44"",""310102""
","""event"",""trial"",""time""
""fullscreenenter"",""0"",""1738""
","
","null","<p></p>","null","","","","","","","","","","","","","","","","","","","","","","",""
"","do_trial","57","372036","0.0-40.0-1.0","""event"",""trial"",""time""
""fullscreenenter"",""0"",""1738""
""blur"",""44"",""309484""
""focus"",""44"",""310102""
","""event"",""trial"",""time""
""blur"",""44"",""309484""
","""event"",""trial"",""time""
""focus"",""44"",""310102""
","""event"",""trial"",""time""
""fullscreenenter"",""0"",""1738""
","
","961","","","","","","","","50","1,0,0","","","","","","","","","","","","","","","",""
"","do_bye","58","373543","0.0-41.0-0.0","""event"",""trial"",""time""
""fullscreenenter"",""0"",""1738""
""blur"",""44"",""309484""
""focus"",""44"",""310102""
","""event"",""trial"",""time""
""blur"",""44"",""309484""
","""event"",""trial"",""time""
""focus"",""44"",""310102""
","""event"",""trial"",""time""
""fullscreenenter"",""0"",""1738""
","
","null","","","","","","","","null","","","","","","","","","","","","","","","","",""
"","do_travel","59","382553","0.0-41.0-1.0","""event"",""trial"",""time""
""fullscreenenter"",""0"",""1738""
""blur"",""44"",""309484""
""focus"",""44"",""310102""
","""event"",""trial"",""time""
""blur"",""44"",""309484""
","""event"",""trial"",""time""
""focus"",""44"",""310102""
","""event"",""trial"",""time""
""fullscreenenter"",""0"",""1738""
","
","null","","","","","","","","null","","","","","","","","","","","","","","","","",""
"","do_welcome","60","386563","0.0-41.0-2.0","""event"",""trial"",""time""
""fullscreenenter"",""0"",""1738""
""blur"",""44"",""309484""
""focus"",""44"",""310102""
","""event"",""trial"",""time""
""blur"",""44"",""309484""
","""event"",""trial"",""time""
""focus"",""44"",""310102""
","""event"",""trial"",""time""
""fullscreenenter"",""0"",""1738""
","
","null","","","","","","","","null","","","","","","","","","","","","","","","","",""
"","do_trial","61","392902","0.0-41.0-3.0","""event"",""trial"",""time""
""fullscreenenter"",""0"",""1738""
""blur"",""44"",""309484""
""focus"",""44"",""310102""
","""event"",""trial"",""time""
""blur"",""44"",""309484""
","""event"",""trial"",""time""
""focus"",""44"",""310102""
","""event"",""trial"",""time""
""fullscreenenter"",""0"",""1738""
","
","1825.800000011921","","","","","","","","50","1,0,0","","","","","","","","","","","","","","","",""
"","html-keyboard-response","62","393906","0.0-42.0-0.0","""event"",""trial"",""time""
""fullscreenenter"",""0"",""1738""
""blur"",""44"",""309484""
""focus"",""44"",""310102""
","""event"",""trial"",""time""
""blur"",""44"",""309484""
","""event"",""trial"",""time""
""focus"",""44"",""310102""
","""event"",""trial"",""time""
""fullscreenenter"",""0"",""1738""
","
","null","<p></p>","null","","","","","","","","","","","","","","","","","","","","","","",""
"","do_trial","63","398758","0.0-42.0-1.0","""event"",""trial"",""time""
""fullscreenenter"",""0"",""1738""
""blur"",""44"",""309484""
""focus"",""44"",""310102""
","""event"",""trial"",""time""
""blur"",""44"",""309484""
","""event"",""trial"",""time""
""focus"",""44"",""310102""
","""event"",""trial"",""time""
""fullscreenenter"",""0"",""1738""
","
","338.69999998807907","","","","","","","","50","1,0,1","","","","","","","","","","","","","","","",""
"","html-keyboard-response","64","399765","0.0-43.0-0.0","""event"",""trial"",""time""
""fullscreenenter"",""0"",""1738""
""blur"",""44"",""309484""
""focus"",""44"",""310102""
","""event"",""trial"",""time""
""blur"",""44"",""309484""
","""event"",""trial"",""time""
""focus"",""44"",""310102""
","""event"",""trial"",""time""
""fullscreenenter"",""0"",""1738""
","
","null","<p></p>","null","","","","","","","","","","","","","","","","","","","","","","",""
"","do_trial","65","404633","0.0-43.0-1.0","""event"",""trial"",""time""
""fullscreenenter"",""0"",""1738""
""blur"",""44"",""309484""
""focus"",""44"",""310102""
","""event"",""trial"",""time""
""blur"",""44"",""309484""
","""event"",""trial"",""time""
""focus"",""44"",""310102""
","""event"",""trial"",""time""
""fullscreenenter"",""0"",""1738""
","
","356.30000001192093","","","","","","","","49","1,1,0","","","","","","","","","","","","","","","",""
"","html-keyboard-response","66","405640","0.0-44.0-0.0","""event"",""trial"",""time""
""fullscreenenter"",""0"",""1738""
""blur"",""44"",""309484""
""focus"",""44"",""310102""
","""event"",""trial"",""time""
""blur"",""44"",""309484""
","""event"",""trial"",""time""
""focus"",""44"",""310102""
","""event"",""trial"",""time""
""fullscreenenter"",""0"",""1738""
","
","null","<p></p>","null","","","","","","","","","","","","","","","","","","","","","","",""
"","do_trial","67","410796","0.0-44.0-1.0","""event"",""trial"",""time""
""fullscreenenter"",""0"",""1738""
""blur"",""44"",""309484""
""focus"",""44"",""310102""
","""event"",""trial"",""time""
""blur"",""44"",""309484""
","""event"",""trial"",""time""
""focus"",""44"",""310102""
","""event"",""trial"",""time""
""fullscreenenter"",""0"",""1738""
","
","641.8000000119209","","","","","","","","49","0,0,1","","","","","","","","","","","","","","","",""
"","html-keyboard-response","68","411804","0.0-45.0-0.0","""event"",""trial"",""time""
""fullscreenenter"",""0"",""1738""
""blur"",""44"",""309484""
""focus"",""44"",""310102""
","""event"",""trial"",""time""
""blur"",""44"",""309484""
","""event"",""trial"",""time""
""focus"",""44"",""310102""
","""event"",""trial"",""time""
""fullscreenenter"",""0"",""1738""
","
","null","<p></p>","null","","","","","","","","","","","","","","","","","","","","","","",""
"","do_trial","69","416623","0.0-45.0-1.0","""event"",""trial"",""time""
""fullscreenenter"",""0"",""1738""
""blur"",""44"",""309484""
""focus"",""44"",""310102""
","""event"",""trial"",""time""
""blur"",""44"",""309484""
","""event"",""trial"",""time""
""focus"",""44"",""310102""
","""event"",""trial"",""time""
""fullscreenenter"",""0"",""1738""
","
","305.5999999642372","","","","","","","","49","1,0,1","","","","","","","","","","","","","","","",""
"","html-keyboard-response","70","419659","0.0-46.0-0.0","""event"",""trial"",""time""
""fullscreenenter"",""0"",""1738""
""blur"",""44"",""309484""
""focus"",""44"",""310102""
","""event"",""trial"",""time""
""blur"",""44"",""309484""
","""event"",""trial"",""time""
""focus"",""44"",""310102""
","""event"",""trial"",""time""
""fullscreenenter"",""0"",""1738""
","
","3033.400000035763","<div class='center'><p><img src='run_exp/static/images/tutorial/prac_best_pirate.png'  height='500'></p></div>","49","","","","","","","","","","","","","","","","","","","","","","",""
"","html-keyboard-response","71","421664","0.0-47.0-0.0","""event"",""trial"",""time""
""fullscreenenter"",""0"",""1738""
""blur"",""44"",""309484""
""focus"",""44"",""310102""
","""event"",""trial"",""time""
""blur"",""44"",""309484""
","""event"",""trial"",""time""
""focus"",""44"",""310102""
","""event"",""trial"",""time""
""fullscreenenter"",""0"",""1738""
","
","2003.300000011921","<div class='center'><p>That's correct! Red beard was the best.</p><p><b>[Press the space bar to continue]</b></p></div>","32","","","","","","","","","","","","","","","","","","","","","","",""
"","html-keyboard-response","72","424892","0.0-47.0-1.0","""event"",""trial"",""time""
""fullscreenenter"",""0"",""1738""
""blur"",""44"",""309484""
""focus"",""44"",""310102""
","""event"",""trial"",""time""
""blur"",""44"",""309484""
","""event"",""trial"",""time""
""focus"",""44"",""310102""
","""event"",""trial"",""time""
""fullscreenenter"",""0"",""1738""
","
","3225.7999999523163","<div class='center'><p><img src='run_exp/static/images/tutorial/prac_source.png'  height='500'></p></div>","50","","","","","","","","","","","","","","","","","","","","","","",""
"","html-keyboard-response","73","426224","0.0-48.0-0.0","""event"",""trial"",""time""
""fullscreenenter"",""0"",""1738""
""blur"",""44"",""309484""
""focus"",""44"",""310102""
","""event"",""trial"",""time""
""blur"",""44"",""309484""
","""event"",""trial"",""time""
""focus"",""44"",""310102""
","""event"",""trial"",""time""
""fullscreenenter"",""0"",""1738""
","
","1330.800000011921","<div class='center'><p>That's correct! You saw this ship on the cavern island.</p><p><b>[Press the space bar to continue]</b></p></div>","32","","","","","","","","","","","","","","","","","","","","","","",""
"","quiz_beginning","74","437427","0.0-48.0-1.0","""event"",""trial"",""time""
""fullscreenenter"",""0"",""1738""
""blur"",""44"",""309484""
""focus"",""44"",""310102""
","""event"",""trial"",""time""
""blur"",""44"",""309484""
","""event"",""trial"",""time""
""focus"",""44"",""310102""
","""event"",""trial"",""time""
""fullscreenenter"",""0"",""1738""
","
","null","run_exp/static/audio/clip_16_quiz_intro.m4a","null","","","","","<div class='center'><p>Good job on the practice game! Now, you will be asked some true or false questions to make sure you really understand the rules of the game.</p><p> Press <b>'1'</b> on the keyboard for true and press <b>'2'</b> for false.</p></div>","","","","","","","","","","","","","","","","","",""
"","audio-keyboard-response","75","442077","0.0-48.0-2.0","""event"",""trial"",""time""
""fullscreenenter"",""0"",""1738""
""blur"",""44"",""309484""
""focus"",""44"",""310102""
","""event"",""trial"",""time""
""blur"",""44"",""309484""
","""event"",""trial"",""time""
""focus"",""44"",""310102""
","""event"",""trial"",""time""
""fullscreenenter"",""0"",""1738""
","
","4648.300000011921","run_exp/static/audio/clip_17_q1.m4a","49","","","","","","","","","","","","","","","","","","","","","","",""
"","correct","76","444486","0.0-49.0-0.0","""event"",""trial"",""time""
""fullscreenenter"",""0"",""1738""
""blur"",""44"",""309484""
""focus"",""44"",""310102""
","""event"",""trial"",""time""
""blur"",""44"",""309484""
","""event"",""trial"",""time""
""focus"",""44"",""310102""
","""event"",""trial"",""time""
""fullscreenenter"",""0"",""1738""
","
","null","run_exp/static/audio/clip_18_correct.m4a","null","","","","","<div class='center'><p>That's correct!</p></div>","","","","","","","","","","","","","","","","","",""
"","html-keyboard-response","77","445569","0.0-49.0-1.0","""event"",""trial"",""time""
""fullscreenenter"",""0"",""1738""
""blur"",""44"",""309484""
""focus"",""44"",""310102""
","""event"",""trial"",""time""
""blur"",""44"",""309484""
","""event"",""trial"",""time""
""focus"",""44"",""310102""
","""event"",""trial"",""time""
""fullscreenenter"",""0"",""1738""
","
","1081.300000011921","<div class='center'><p>That's correct!</p><p><b>[Press the space bar to continue]</b></p></div>","32","","","","","","","","","","","","","","","","","","","","","","",""
"","audio-keyboard-response","78","448376","0.0-49.0-2.0","""event"",""trial"",""time""
""fullscreenenter"",""0"",""1738""
""blur"",""44"",""309484""
""focus"",""44"",""310102""
","""event"",""trial"",""time""
""blur"",""44"",""309484""
","""event"",""trial"",""time""
""focus"",""44"",""310102""
","""event"",""trial"",""time""
""fullscreenenter"",""0"",""1738""
","
","2805.600000023842","run_exp/static/audio/clip_20_q2.m4a","50","","","","","","","","","","","","","","","","","","","","","","",""
"","correct","79","450779","0.0-50.0-0.0","""event"",""trial"",""time""
""fullscreenenter"",""0"",""1738""
""blur"",""44"",""309484""
""focus"",""44"",""310102""
","""event"",""trial"",""time""
""blur"",""44"",""309484""
","""event"",""trial"",""time""
""focus"",""44"",""310102""
","""event"",""trial"",""time""
""fullscreenenter"",""0"",""1738""
","
","null","run_exp/static/audio/clip_18_correct.m4a","null","","","","","<div class='center'><p>That's correct!</p></div>","","","","","","","","","","","","","","","","","",""
"","html-keyboard-response","80","451602","0.0-50.0-1.0","""event"",""trial"",""time""
""fullscreenenter"",""0"",""1738""
""blur"",""44"",""309484""
""focus"",""44"",""310102""
","""event"",""trial"",""time""
""blur"",""44"",""309484""
","""event"",""trial"",""time""
""focus"",""44"",""310102""
","""event"",""trial"",""time""
""fullscreenenter"",""0"",""1738""
","
","822.5","<div class='center'><p>That's correct!</p><p><b>[Press the space bar to continue]</b></p></div>","32","","","","","","","","","","","","","","","","","","","","","","",""
"","audio-keyboard-response","81","453205","0.0-50.0-2.0","""event"",""trial"",""time""
""fullscreenenter"",""0"",""1738""
""blur"",""44"",""309484""
""focus"",""44"",""310102""
","""event"",""trial"",""time""
""blur"",""44"",""309484""
","""event"",""trial"",""time""
""focus"",""44"",""310102""
","""event"",""trial"",""time""
""fullscreenenter"",""0"",""1738""
","
","1601.699999988079","run_exp/static/audio/clip_22_q3.m4a","50","","","","","","","","","","","","","","","","","","","","","","",""
"","correct","82","455609","0.0-51.0-0.0","""event"",""trial"",""time""
""fullscreenenter"",""0"",""1738""
""blur"",""44"",""309484""
""focus"",""44"",""310102""
","""event"",""trial"",""time""
""blur"",""44"",""309484""
","""event"",""trial"",""time""
""focus"",""44"",""310102""
","""event"",""trial"",""time""
""fullscreenenter"",""0"",""1738""
","
","null","run_exp/static/audio/clip_18_correct.m4a","null","","","","","<div class='center'><p>That's correct!</p></div>","","","","","","","","","","","","","","","","","",""
"","html-keyboard-response","83","456524","0.0-51.0-1.0","""event"",""trial"",""time""
""fullscreenenter"",""0"",""1738""
""blur"",""44"",""309484""
""focus"",""44"",""310102""
","""event"",""trial"",""time""
""blur"",""44"",""309484""
","""event"",""trial"",""time""
""focus"",""44"",""310102""
","""event"",""trial"",""time""
""fullscreenenter"",""0"",""1738""
","
","914","<div class='center'><p>That's correct!</p><p><b>[Press the space bar to continue]</b></p></div>","32","","","","","","","","","","","","","","","","","","","","","","",""
"","audio-keyboard-response","84","458303","0.0-51.0-2.0","""event"",""trial"",""time""
""fullscreenenter"",""0"",""1738""
""blur"",""44"",""309484""
""focus"",""44"",""310102""
","""event"",""trial"",""time""
""blur"",""44"",""309484""
","""event"",""trial"",""time""
""focus"",""44"",""310102""
","""event"",""trial"",""time""
""fullscreenenter"",""0"",""1738""
","
","1777.800000011921","run_exp/static/audio/clip_24_q4.m4a","49","","","","","","","","","","","","","","","","","","","","","","",""
"","correct","85","460741","0.0-52.0-0.0","""event"",""trial"",""time""
""fullscreenenter"",""0"",""1738""
""blur"",""44"",""309484""
""focus"",""44"",""310102""
","""event"",""trial"",""time""
""blur"",""44"",""309484""
","""event"",""trial"",""time""
""focus"",""44"",""310102""
","""event"",""trial"",""time""
""fullscreenenter"",""0"",""1738""
","
","null","run_exp/static/audio/clip_18_correct.m4a","null","","","","","<div class='center'><p>That's correct!</p></div>","","","","","","","","","","","","","","","","","",""
"","html-keyboard-response","86","461301","0.0-52.0-1.0","""event"",""trial"",""time""
""fullscreenenter"",""0"",""1738""
""blur"",""44"",""309484""
""focus"",""44"",""310102""
","""event"",""trial"",""time""
""blur"",""44"",""309484""
","""event"",""trial"",""time""
""focus"",""44"",""310102""
","""event"",""trial"",""time""
""fullscreenenter"",""0"",""1738""
","
","558.9000000357628","<div class='center'><p>That's correct!</p><p><b>[Press the space bar to continue]</b></p></div>","32","","","","","","","","","","","","","","","","","","","","","","",""
"","q_all_corr","87","469796","0.0-53.0-0.0","""event"",""trial"",""time""
""fullscreenenter"",""0"",""1738""
""blur"",""44"",""309484""
""focus"",""44"",""310102""
","""event"",""trial"",""time""
""blur"",""44"",""309484""
","""event"",""trial"",""time""
""focus"",""44"",""310102""
","""event"",""trial"",""time""
""fullscreenenter"",""0"",""1738""
","
","null","run_exp/static/audio/clip_27_quiz_all_correct.m4a","null","","","","","<div class='center'><p>Good job! You’re now ready to move on to the real game! Remember this game will be difficult but don't get discouraged and try your best!</p></div>","","","","","","","","","","","","","","","","","",""
"","html-keyboard-response","88","471393","0.0-53.0-1.0","""event"",""trial"",""time""
""fullscreenenter"",""0"",""1738""
""blur"",""44"",""309484""
""focus"",""44"",""310102""
","""event"",""trial"",""time""
""blur"",""44"",""309484""
","""event"",""trial"",""time""
""focus"",""44"",""310102""
","""event"",""trial"",""time""
""fullscreenenter"",""0"",""1738""
","
","1594.800000011921","<div class='center'><p>Good job! You’re now ready to move on to the real game! Remember this game will be difficult but don't get discouraged and try your best!</p><p><b>[Press the space bar to continue]</b></p></div>","32","","","","","","","","","","","","","","","","","","","","","","",""
"","do_welcome","89","475405","0.0-54.0-0.0","""event"",""trial"",""time""
""fullscreenenter"",""0"",""1738""
""blur"",""44"",""309484""
""focus"",""44"",""310102""
","""event"",""trial"",""time""
""blur"",""44"",""309484""
","""event"",""trial"",""time""
""focus"",""44"",""310102""
","""event"",""trial"",""time""
""fullscreenenter"",""0"",""1738""
","
","null","","","","","","","","null","","","","","","","","","","","","","","","","",""
"","do_trial","90","481320","0.0-55.0-0.0","""event"",""trial"",""time""
""fullscreenenter"",""0"",""1738""
""blur"",""44"",""309484""
""focus"",""44"",""310102""
","""event"",""trial"",""time""
""blur"",""44"",""309484""
","""event"",""trial"",""time""
""focus"",""44"",""310102""
","""event"",""trial"",""time""
""fullscreenenter"",""0"",""1738""
","
","1357.699999988079","","","","","","","","51","0,0,0","0","countryside","0","probe-212","0.6","0.3","0.1","0","","","","","","","",""
"","html-keyboard-response","91","482328","0.0-55.0-1.0","""event"",""trial"",""time""
""fullscreenenter"",""0"",""1738""
""blur"",""44"",""309484""
""focus"",""44"",""310102""
","""event"",""trial"",""time""
""blur"",""44"",""309484""
","""event"",""trial"",""time""
""focus"",""44"",""310102""
","""event"",""trial"",""time""
""fullscreenenter"",""0"",""1738""
","
","null","<p></p>","null","","","","","","","","","","","","","","","","","","","","","","",""
"","do_trial","92","487678","0.0-56.0-0.0","""event"",""trial"",""time""
""fullscreenenter"",""0"",""1738""
""blur"",""44"",""309484""
""focus"",""44"",""310102""
","""event"",""trial"",""time""
""blur"",""44"",""309484""
","""event"",""trial"",""time""
""focus"",""44"",""310102""
","""event"",""trial"",""time""
""fullscreenenter"",""0"",""1738""
","
","789.5999999642372","","","","","","","","49","1,0,1","0","countryside","1","probe-127","0.7036030403484084","0.30651499118825604","0.07224853898969098","1","","","","","","","",""
"","html-keyboard-response","93","488685","0.0-56.0-1.0","""event"",""trial"",""time""
""fullscreenenter"",""0"",""1738""
""blur"",""44"",""309484""
""focus"",""44"",""310102""
","""event"",""trial"",""time""
""blur"",""44"",""309484""
","""event"",""trial"",""time""
""focus"",""44"",""310102""
","""event"",""trial"",""time""
""fullscreenenter"",""0"",""1738""
","
","null","<p></p>","null","","","","","","","","","","","","","","","","","","","","","","",""
"","do_trial","94","493879","0.0-57.0-0.0","""event"",""trial"",""time""
""fullscreenenter"",""0"",""1738""
""blur"",""44"",""309484""
""focus"",""44"",""310102""
","""event"",""trial"",""time""
""blur"",""44"",""309484""
","""event"",""trial"",""time""
""focus"",""44"",""310102""
","""event"",""trial"",""time""
""fullscreenenter"",""0"",""1738""
","
","639.7999999523163","","","","","","","","49","1,0,1","0","countryside","2","probe-208","0.5683663236542585","0.30657768328435914","0.23917805410652485","1","","","","","","","",""
"","html-keyboard-response","95","494884","0.0-57.0-1.0","""event"",""trial"",""time""
""fullscreenenter"",""0"",""1738""
""blur"",""44"",""309484""
""focus"",""44"",""310102""
","""event"",""trial"",""time""
""blur"",""44"",""309484""
","""event"",""trial"",""time""
""focus"",""44"",""310102""
","""event"",""trial"",""time""
""fullscreenenter"",""0"",""1738""
","
","null","<p></p>","null","","","","","","","","","","","","","","","","","","","","","","",""
"","do_trial","96","500485","0.0-58.0-0.0","""event"",""trial"",""time""
""fullscreenenter"",""0"",""1738""
""blur"",""44"",""309484""
""focus"",""44"",""310102""
","""event"",""trial"",""time""
""blur"",""44"",""309484""
","""event"",""trial"",""time""
""focus"",""44"",""310102""
","""event"",""trial"",""time""
""fullscreenenter"",""0"",""1738""
","
","1044.300000011921","","","","","","","","49","1,0,1","0","countryside","3","probe-94","0.57697095083237","0.32862587450812925","0.24716540011457278","1","","","","","","","",""
"","html-keyboard-response","97","501492","0.0-58.0-1.0","""event"",""trial"",""time""
""fullscreenenter"",""0"",""1738""
""blur"",""44"",""309484""
""focus"",""44"",""310102""
","""event"",""trial"",""time""
""blur"",""44"",""309484""
","""event"",""trial"",""time""
""focus"",""44"",""310102""
","""event"",""trial"",""time""
""fullscreenenter"",""0"",""1738""
","
","null","<p></p>","null","","","","","","","","","","","","","","","","","","","","","","",""
"","do_trial","98","506562","0.0-59.0-0.0","""event"",""trial"",""time""
""fullscreenenter"",""0"",""1738""
""blur"",""44"",""309484""
""focus"",""44"",""310102""
","""event"",""trial"",""time""
""blur"",""44"",""309484""
","""event"",""trial"",""time""
""focus"",""44"",""310102""
","""event"",""trial"",""time""
""fullscreenenter"",""0"",""1738""
","
","518.5","","","","","","","","49","1,0,0","0","countryside","4","probe-199","0.4845943833283716","0.21661540060322174","0.17142507604040183","1","","","","","","","",""
"","html-keyboard-response","99","507567","0.0-59.0-1.0","""event"",""trial"",""time""
""fullscreenenter"",""0"",""1738""
""blur"",""44"",""309484""
""focus"",""44"",""310102""
","""event"",""trial"",""time""
""blur"",""44"",""309484""
","""event"",""trial"",""time""
""focus"",""44"",""310102""
","""event"",""trial"",""time""
""fullscreenenter"",""0"",""1738""
","
","null","<p></p>","null","","","","","","","","","","","","","","","","","","","","","","",""
"","do_trial","100","512810","0.0-60.0-0.0","""event"",""trial"",""time""
""fullscreenenter"",""0"",""1738""
""blur"",""44"",""309484""
""focus"",""44"",""310102""
","""event"",""trial"",""time""
""blur"",""44"",""309484""
","""event"",""trial"",""time""
""focus"",""44"",""310102""
","""event"",""trial"",""time""
""fullscreenenter"",""0"",""1738""
","
","681.4000000357628","","","","","","","","49","0,0,0","0","countryside","5","probe-76","0.4527630986222061","0.2101041519214785","0.14730765249753242","0","","","","","","","",""
"","html-keyboard-response","101","513813","0.0-60.0-1.0","""event"",""trial"",""time""
""fullscreenenter"",""0"",""1738""
""blur"",""44"",""309484""
""focus"",""44"",""310102""
","""event"",""trial"",""time""
""blur"",""44"",""309484""
","""event"",""trial"",""time""
""focus"",""44"",""310102""
","""event"",""trial"",""time""
""fullscreenenter"",""0"",""1738""
","
","null","<p></p>","null","","","","","","","","","","","","","","","","","","","","","","",""
"","do_trial","102","519037","0.0-61.0-0.0","""event"",""trial"",""time""
""fullscreenenter"",""0"",""1738""
""blur"",""44"",""309484""
""focus"",""44"",""310102""
","""event"",""trial"",""time""
""blur"",""44"",""309484""
","""event"",""trial"",""time""
""focus"",""44"",""310102""
","""event"",""trial"",""time""
""fullscreenenter"",""0"",""1738""
","
","667.3999999761581","","","","","","","","49","1,0,0","0","countryside","6","probe-173","0.5369292210325814","0.19709051539468952","0.14725342514145592","1","","","","","","","",""
"","html-keyboard-response","103","520044","0.0-61.0-1.0","""event"",""trial"",""time""
""fullscreenenter"",""0"",""1738""
""blur"",""44"",""309484""
""focus"",""44"",""310102""
","""event"",""trial"",""time""
""blur"",""44"",""309484""
","""event"",""trial"",""time""
""focus"",""44"",""310102""
","""event"",""trial"",""time""
""fullscreenenter"",""0"",""1738""
","
","null","<p></p>","null","","","","","","","","","","","","","","","","","","","","","","",""
"","do_trial","104","524987","0.0-62.0-0.0","""event"",""trial"",""time""
""fullscreenenter"",""0"",""1738""
""blur"",""44"",""309484""
""focus"",""44"",""310102""
","""event"",""trial"",""time""
""blur"",""44"",""309484""
","""event"",""trial"",""time""
""focus"",""44"",""310102""
","""event"",""trial"",""time""
""fullscreenenter"",""0"",""1738""
","
","389.39999997615814","","","","","","","","49","1,0,0","0","countryside","7","probe-132","0.5296012496028767","0.2098894522739174","0.2452214136310069","1","","","","","","","",""
"","html-keyboard-response","105","525991","0.0-62.0-1.0","""event"",""trial"",""time""
""fullscreenenter"",""0"",""1738""
""blur"",""44"",""309484""
""focus"",""44"",""310102""
","""event"",""trial"",""time""
""blur"",""44"",""309484""
","""event"",""trial"",""time""
""focus"",""44"",""310102""
","""event"",""trial"",""time""
""fullscreenenter"",""0"",""1738""
","
","null","<p></p>","null","","","","","","","","","","","","","","","","","","","","","","",""
"","do_trial","106","530926","0.0-63.0-0.0","""event"",""trial"",""time""
""fullscreenenter"",""0"",""1738""
""blur"",""44"",""309484""
""focus"",""44"",""310102""
","""event"",""trial"",""time""
""blur"",""44"",""309484""
","""event"",""trial"",""time""
""focus"",""44"",""310102""
","""event"",""trial"",""time""
""fullscreenenter"",""0"",""1738""
","
","376.2999999523163","","","","","","","","49","1,0,0","0","countryside","8","probe-202","0.5163875116106569","0.20380377760861387","0.16650925239555342","1","","","","","","","",""
"","html-keyboard-response","107","531929","0.0-63.0-1.0","""event"",""trial"",""time""
""fullscreenenter"",""0"",""1738""
""blur"",""44"",""309484""
""focus"",""44"",""310102""
","""event"",""trial"",""time""
""blur"",""44"",""309484""
","""event"",""trial"",""time""
""focus"",""44"",""310102""
","""event"",""trial"",""time""
""fullscreenenter"",""0"",""1738""
","
","null","<p></p>","null","","","","","","","","","","","","","","","","","","","","","","",""
"","do_trial","108","537985","0.0-64.0-0.0","""event"",""trial"",""time""
""fullscreenenter"",""0"",""1738""
""blur"",""44"",""309484""
""focus"",""44"",""310102""
","""event"",""trial"",""time""
""blur"",""44"",""309484""
","""event"",""trial"",""time""
""focus"",""44"",""310102""
","""event"",""trial"",""time""
""fullscreenenter"",""0"",""1738""
","
","null","","","","","","","","null","1,0,0","0","countryside","9","probe-177","0.5032276305789329","0.17215606490703653","0.12872571930532106","","","","","","","","",""
"","html-keyboard-response","109","538992","0.0-64.0-1.0","""event"",""trial"",""time""
""fullscreenenter"",""0"",""1738""
""blur"",""44"",""309484""
""focus"",""44"",""310102""
","""event"",""trial"",""time""
""blur"",""44"",""309484""
","""event"",""trial"",""time""
""focus"",""44"",""310102""
","""event"",""trial"",""time""
""fullscreenenter"",""0"",""1738""
","
","null","<p></p>","null","","","","","","","","","","","","","","","","","","","","","","",""
"","do_trial","110","544215","0.0-65.0-0.0","""event"",""trial"",""time""
""fullscreenenter"",""0"",""1738""
""blur"",""44"",""309484""
""focus"",""44"",""310102""
","""event"",""trial"",""time""
""blur"",""44"",""309484""
","""event"",""trial"",""time""
""focus"",""44"",""310102""
","""event"",""trial"",""time""
""fullscreenenter"",""0"",""1738""
","
","666.0999999642372","","","","","","","","49","1,0,0","0","countryside","10","probe-230","0.5237155288814942","0.19669460186668736","0.1445260313881852","1","","","","","","","",""
"","html-keyboard-response","111","545219","0.0-65.0-1.0","""event"",""trial"",""time""
""fullscreenenter"",""0"",""1738""
""blur"",""44"",""309484""
""focus"",""44"",""310102""
","""event"",""trial"",""time""
""blur"",""44"",""309484""
","""event"",""trial"",""time""
""focus"",""44"",""310102""
","""event"",""trial"",""time""
""fullscreenenter"",""0"",""1738""
","
","null","<p></p>","null","","","","","","","","","","","","","","","","","","","","","","",""
"","do_trial","112","550391","0.0-66.0-0.0","""event"",""trial"",""time""
""fullscreenenter"",""0"",""1738""
""blur"",""44"",""309484""
""focus"",""44"",""310102""
","""event"",""trial"",""time""
""blur"",""44"",""309484""
","""event"",""trial"",""time""
""focus"",""44"",""310102""
","""event"",""trial"",""time""
""fullscreenenter"",""0"",""1738""
","
","610.8000000119209","","","","","","","","49","1,0,0","0","countryside","11","probe-167","0.509927222489346","0.21709118067807853","0.08203579646499452","1","","","","","","","",""
"","html-keyboard-response","113","551399","0.0-66.0-1.0","""event"",""trial"",""time""
""fullscreenenter"",""0"",""1738""
""blur"",""44"",""309484""
""focus"",""44"",""310102""
","""event"",""trial"",""time""
""blur"",""44"",""309484""
","""event"",""trial"",""time""
""focus"",""44"",""310102""
","""event"",""trial"",""time""
""fullscreenenter"",""0"",""1738""
","
","null","<p></p>","null","","","","","","","","","","","","","","","","","","","","","","",""
"","do_trial","114","556532","0.0-67.0-0.0","""event"",""trial"",""time""
""fullscreenenter"",""0"",""1738""
""blur"",""44"",""309484""
""focus"",""44"",""310102""
","""event"",""trial"",""time""
""blur"",""44"",""309484""
","""event"",""trial"",""time""
""focus"",""44"",""310102""
","""event"",""trial"",""time""
""fullscreenenter"",""0"",""1738""
","
","575.0999999642372","","","","","","","","49","0,0,0","0","countryside","12","probe-06","0.43507938251510153","0.31382471085890634","0.2041105079797959","0","","","","","","","",""
"","html-keyboard-response","115","557539","0.0-67.0-1.0","""event"",""trial"",""time""
""fullscreenenter"",""0"",""1738""
""blur"",""44"",""309484""
""focus"",""44"",""310102""
","""event"",""trial"",""time""
""blur"",""44"",""309484""
","""event"",""trial"",""time""
""focus"",""44"",""310102""
","""event"",""trial"",""time""
""fullscreenenter"",""0"",""1738""
","
","null","<p></p>","null","","","","","","","","","","","","","","","","","","","","","","",""
"","do_trial","116","562420","0.0-68.0-0.0","""event"",""trial"",""time""
""fullscreenenter"",""0"",""1738""
""blur"",""44"",""309484""
""focus"",""44"",""310102""
","""event"",""trial"",""time""
""blur"",""44"",""309484""
","""event"",""trial"",""time""
""focus"",""44"",""310102""
","""event"",""trial"",""time""
""fullscreenenter"",""0"",""1738""
","
","319.80000001192093","","","","","","","","49","0,1,0","0","countryside","13","probe-179","0.7712562530173992","0.2537445980657548","0.28365942315539056","0","","","","","","","",""
"","html-keyboard-response","117","563426","0.0-68.0-1.0","""event"",""trial"",""time""
""fullscreenenter"",""0"",""1738""
""blur"",""44"",""309484""
""focus"",""44"",""310102""
","""event"",""trial"",""time""
""blur"",""44"",""309484""
","""event"",""trial"",""time""
""focus"",""44"",""310102""
","""event"",""trial"",""time""
""fullscreenenter"",""0"",""1738""
","
","null","<p></p>","null","","","","","","","","","","","","","","","","","","","","","","",""
"","do_trial","118","568454","0.0-69.0-0.0","""event"",""trial"",""time""
""fullscreenenter"",""0"",""1738""
""blur"",""44"",""309484""
""focus"",""44"",""310102""
","""event"",""trial"",""time""
""blur"",""44"",""309484""
","""event"",""trial"",""time""
""focus"",""44"",""310102""
","""event"",""trial"",""time""
""fullscreenenter"",""0"",""1738""
","
","471.69999998807907","","","","","","","","50","1,1,0","0","countryside","14","probe-145","0.7656575185433802","0.2655808552474072","0.2918952578302312","1","","","","","","","",""
"","html-keyboard-response","119","569460","0.0-69.0-1.0","""event"",""trial"",""time""
""fullscreenenter"",""0"",""1738""
""blur"",""44"",""309484""
""focus"",""44"",""310102""
","""event"",""trial"",""time""
""blur"",""44"",""309484""
","""event"",""trial"",""time""
""focus"",""44"",""310102""
","""event"",""trial"",""time""
""fullscreenenter"",""0"",""1738""
","
","null","<p></p>","null","","","","","","","","","","","","","","","","","","","","","","",""
"","do_trial","120","574518","0.0-70.0-0.0","""event"",""trial"",""time""
""fullscreenenter"",""0"",""1738""
""blur"",""44"",""309484""
""focus"",""44"",""310102""
","""event"",""trial"",""time""
""blur"",""44"",""309484""
","""event"",""trial"",""time""
""focus"",""44"",""310102""
","""event"",""trial"",""time""
""fullscreenenter"",""0"",""1738""
","
","501","","","","","","","","50","1,0,0","0","countryside","15","probe-182","0.8870752124562051","0.12555697847701539","0.21211014477596007","0","","","","","","","",""
"","html-keyboard-response","121","575525","0.0-70.0-1.0","""event"",""trial"",""time""
""fullscreenenter"",""0"",""1738""
""blur"",""44"",""309484""
""focus"",""44"",""310102""
","""event"",""trial"",""time""
""blur"",""44"",""309484""
","""event"",""trial"",""time""
""focus"",""44"",""310102""
","""event"",""trial"",""time""
""fullscreenenter"",""0"",""1738""
","
","null","<p></p>","null","","","","","","","","","","","","","","","","","","","","","","",""
"","do_trial","122","580380","0.0-71.0-0.0","""event"",""trial"",""time""
""fullscreenenter"",""0"",""1738""
""blur"",""44"",""309484""
""focus"",""44"",""310102""
","""event"",""trial"",""time""
""blur"",""44"",""309484""
","""event"",""trial"",""time""
""focus"",""44"",""310102""
","""event"",""trial"",""time""
""fullscreenenter"",""0"",""1738""
","
","297.69999998807907","","","","","","","","50","1,0,0","0","countryside","16","probe-52","0.6624470153399727","0.14823265526062737","0.05636627915430618","0","","","","","","","",""
"","html-keyboard-response","123","581387","0.0-71.0-1.0","""event"",""trial"",""time""
""fullscreenenter"",""0"",""1738""
""blur"",""44"",""309484""
""focus"",""44"",""310102""
","""event"",""trial"",""time""
""blur"",""44"",""309484""
","""event"",""trial"",""time""
""focus"",""44"",""310102""
","""event"",""trial"",""time""
""fullscreenenter"",""0"",""1738""
","
","null","<p></p>","null","","","","","","","","","","","","","","","","","","","","","","",""
"","do_trial","124","586505","0.0-72.0-0.0","""event"",""trial"",""time""
""fullscreenenter"",""0"",""1738""
""blur"",""44"",""309484""
""focus"",""44"",""310102""
","""event"",""trial"",""time""
""blur"",""44"",""309484""
","""event"",""trial"",""time""
""focus"",""44"",""310102""
","""event"",""trial"",""time""
""fullscreenenter"",""0"",""1738""
","
","559.8000000119209","","","","","","","","49","0,0,0","0","countryside","17","probe-143","0.687112384650026","0.15965035261772684","0.0574677077008982","0","","","","","","","",""
"","html-keyboard-response","125","587512","0.0-72.0-1.0","""event"",""trial"",""time""
""fullscreenenter"",""0"",""1738""
""blur"",""44"",""309484""
""focus"",""44"",""310102""
","""event"",""trial"",""time""
""blur"",""44"",""309484""
","""event"",""trial"",""time""
""focus"",""44"",""310102""
","""event"",""trial"",""time""
""fullscreenenter"",""0"",""1738""
","
","null","<p></p>","null","","","","","","","","","","","","","","","","","","","","","","",""
"","do_trial","126","592655","0.0-73.0-0.0","""event"",""trial"",""time""
""fullscreenenter"",""0"",""1738""
""blur"",""44"",""309484""
""focus"",""44"",""310102""
","""event"",""trial"",""time""
""blur"",""44"",""309484""
","""event"",""trial"",""time""
""focus"",""44"",""310102""
","""event"",""trial"",""time""
""fullscreenenter"",""0"",""1738""
","
","583.8000000119209","","","","","","","","51","1,1,0","0","countryside","18","probe-104","0.6294595388499223","0.24168954084948874","0.05886637109590053","0","","","","","","","",""
"","html-keyboard-response","127","593660","0.0-73.0-1.0","""event"",""trial"",""time""
""fullscreenenter"",""0"",""1738""
""blur"",""44"",""309484""
""focus"",""44"",""310102""
","""event"",""trial"",""time""
""blur"",""44"",""309484""
","""event"",""trial"",""time""
""focus"",""44"",""310102""
","""event"",""trial"",""time""
""fullscreenenter"",""0"",""1738""
","
","null","<p></p>","null","","","","","","","","","","","","","","","","","","","","","","",""
"","do_trial","128","599342","0.0-74.0-0.0","""event"",""trial"",""time""
""fullscreenenter"",""0"",""1738""
""blur"",""44"",""309484""
""focus"",""44"",""310102""
","""event"",""trial"",""time""
""blur"",""44"",""309484""
","""event"",""trial"",""time""
""focus"",""44"",""310102""
","""event"",""trial"",""time""
""fullscreenenter"",""0"",""1738""
","
","1126.699999988079","","","","","","","","51","1,0,0","0","countryside","19","probe-161","0.5997054691911636","0.17877116799170686","0.097606392004237","0","","","","","","","",""
"","html-keyboard-response","129","600349","0.0-74.0-1.0","""event"",""trial"",""time""
""fullscreenenter"",""0"",""1738""
""blur"",""44"",""309484""
""focus"",""44"",""310102""
","""event"",""trial"",""time""
""blur"",""44"",""309484""
","""event"",""trial"",""time""
""focus"",""44"",""310102""
","""event"",""trial"",""time""
""fullscreenenter"",""0"",""1738""
","
","null","<p></p>","null","","","","","","","","","","","","","","","","","","","","","","",""
"","do_trial","130","605320","0.0-75.0-0.0","""event"",""trial"",""time""
""fullscreenenter"",""0"",""1738""
""blur"",""44"",""309484""
""focus"",""44"",""310102""
","""event"",""trial"",""time""
""blur"",""44"",""309484""
","""event"",""trial"",""time""
""focus"",""44"",""310102""
","""event"",""trial"",""time""
""fullscreenenter"",""0"",""1738""
","
","415.39999997615814","","","","","","","","50","0,0,0","0","countryside","20","probe-130","0.679473495235876","0.190898544958057","0.09138464624668088","0","","","","","","","",""
"","html-keyboard-response","131","606327","0.0-75.0-1.0","""event"",""trial"",""time""
""fullscreenenter"",""0"",""1738""
""blur"",""44"",""309484""
""focus"",""44"",""310102""
","""event"",""trial"",""time""
""blur"",""44"",""309484""
","""event"",""trial"",""time""
""focus"",""44"",""310102""
","""event"",""trial"",""time""
""fullscreenenter"",""0"",""1738""
","
","null","<p></p>","null","","","","","","","","","","","","","","","","","","","","","","",""
"","do_trial","132","611353","0.0-76.0-0.0","""event"",""trial"",""time""
""fullscreenenter"",""0"",""1738""
""blur"",""44"",""309484""
""focus"",""44"",""310102""
","""event"",""trial"",""time""
""blur"",""44"",""309484""
","""event"",""trial"",""time""
""focus"",""44"",""310102""
","""event"",""trial"",""time""
""fullscreenenter"",""0"",""1738""
","
","473.5","","","","","","","","49","0,0,0","0","countryside","21","probe-65","0.6174563790695871","0.20248964293919025","0.08283453431621707","0","","","","","","","",""
"","html-keyboard-response","133","612361","0.0-76.0-1.0","""event"",""trial"",""time""
""fullscreenenter"",""0"",""1738""
""blur"",""44"",""309484""
""focus"",""44"",""310102""
","""event"",""trial"",""time""
""blur"",""44"",""309484""
","""event"",""trial"",""time""
""focus"",""44"",""310102""
","""event"",""trial"",""time""
""fullscreenenter"",""0"",""1738""
","
","null","<p></p>","null","","","","","","","","","","","","","","","","","","","","","","",""
"","do_trial","134","617378","0.0-77.0-0.0","""event"",""trial"",""time""
""fullscreenenter"",""0"",""1738""
""blur"",""44"",""309484""
""focus"",""44"",""310102""
","""event"",""trial"",""time""
""blur"",""44"",""309484""
","""event"",""trial"",""time""
""focus"",""44"",""310102""
","""event"",""trial"",""time""
""fullscreenenter"",""0"",""1738""
","
","461.5","","","","","","","","50","0,0,0","0","countryside","22","probe-215","0.5504558105530941","0.17734892878651606","0.07740249964226453","0","","","","","","","",""
"","html-keyboard-response","135","618384","0.0-77.0-1.0","""event"",""trial"",""time""
""fullscreenenter"",""0"",""1738""
""blur"",""44"",""309484""
""focus"",""44"",""310102""
","""event"",""trial"",""time""
""blur"",""44"",""309484""
","""event"",""trial"",""time""
""focus"",""44"",""310102""
","""event"",""trial"",""time""
""fullscreenenter"",""0"",""1738""
","
","null","<p></p>","null","","","","","","","","","","","","","","","","","","","","","","",""
"","do_trial","136","623689","0.0-78.0-0.0","""event"",""trial"",""time""
""fullscreenenter"",""0"",""1738""
""blur"",""44"",""309484""
""focus"",""44"",""310102""
","""event"",""trial"",""time""
""blur"",""44"",""309484""
","""event"",""trial"",""time""
""focus"",""44"",""310102""
","""event"",""trial"",""time""
""fullscreenenter"",""0"",""1738""
","
","749.1000000238419","","","","","","","","51","0,0,1","0","countryside","23","probe-26","0.6430595127777115","0.1739725281979208","0.07449283335243642","1","","","","","","","",""
"","html-keyboard-response","137","624696","0.0-78.0-1.0","""event"",""trial"",""time""
""fullscreenenter"",""0"",""1738""
""blur"",""44"",""309484""
""focus"",""44"",""310102""
","""event"",""trial"",""time""
""blur"",""44"",""309484""
","""event"",""trial"",""time""
""focus"",""44"",""310102""
","""event"",""trial"",""time""
""fullscreenenter"",""0"",""1738""
","
","null","<p></p>","null","","","","","","","","","","","","","","","","","","","","","","",""
"","do_trial","138","629802","0.0-79.0-0.0","""event"",""trial"",""time""
""fullscreenenter"",""0"",""1738""
""blur"",""44"",""309484""
""focus"",""44"",""310102""
","""event"",""trial"",""time""
""blur"",""44"",""309484""
","""event"",""trial"",""time""
""focus"",""44"",""310102""
","""event"",""trial"",""time""
""fullscreenenter"",""0"",""1738""
","
","553","","","","","","","","51","1,0,0","0","countryside","24","probe-14","0.570082388677612","0.15274612172480578","0.07739491565318994","0","","","","","","","",""
"","html-keyboard-response","139","630808","0.0-79.0-1.0","""event"",""trial"",""time""
""fullscreenenter"",""0"",""1738""
""blur"",""44"",""309484""
""focus"",""44"",""310102""
","""event"",""trial"",""time""
""blur"",""44"",""309484""
","""event"",""trial"",""time""
""focus"",""44"",""310102""
","""event"",""trial"",""time""
""fullscreenenter"",""0"",""1738""
","
","null","<p></p>","null","","","","","","","","","","","","","","","","","","","","","","",""
"","do_trial","140","636537","0.0-80.0-0.0","""event"",""trial"",""time""
""fullscreenenter"",""0"",""1738""
""blur"",""44"",""309484""
""focus"",""44"",""310102""
","""event"",""trial"",""time""
""blur"",""44"",""309484""
","""event"",""trial"",""time""
""focus"",""44"",""310102""
","""event"",""trial"",""time""
""fullscreenenter"",""0"",""1738""
","
","1172.8999999761581","","","","","","","","51","0,1,0","0","countryside","25","probe-195","0.5593198737004168","0.15282714667625363","0.14731780815893455","0","","","","","","","",""
"","html-keyboard-response","141","637543","0.0-80.0-1.0","""event"",""trial"",""time""
""fullscreenenter"",""0"",""1738""
""blur"",""44"",""309484""
""focus"",""44"",""310102""
","""event"",""trial"",""time""
""blur"",""44"",""309484""
","""event"",""trial"",""time""
""focus"",""44"",""310102""
","""event"",""trial"",""time""
""fullscreenenter"",""0"",""1738""
","
","null","<p></p>","null","","","","","","","","","","","","","","","","","","","","","","",""
"","do_trial","142","642784","0.0-81.0-0.0","""event"",""trial"",""time""
""fullscreenenter"",""0"",""1738""
""blur"",""44"",""309484""
""focus"",""44"",""310102""
","""event"",""trial"",""time""
""blur"",""44"",""309484""
","""event"",""trial"",""time""
""focus"",""44"",""310102""
","""event"",""trial"",""time""
""fullscreenenter"",""0"",""1738""
","
","690.7000000476837","","","","","","","","51","1,0,0","0","countryside","26","probe-169","0.41698646604442074","0.26709685791102883","0.07193312903627982","0","","","","","","","",""
"","html-keyboard-response","143","643791","0.0-81.0-1.0","""event"",""trial"",""time""
""fullscreenenter"",""0"",""1738""
""blur"",""44"",""309484""
""focus"",""44"",""310102""
","""event"",""trial"",""time""
""blur"",""44"",""309484""
","""event"",""trial"",""time""
""focus"",""44"",""310102""
","""event"",""trial"",""time""
""fullscreenenter"",""0"",""1738""
","
","null","<p></p>","null","","","","","","","","","","","","","","","","","","","","","","",""
"","do_trial","144","648756","0.0-82.0-0.0","""event"",""trial"",""time""
""fullscreenenter"",""0"",""1738""
""blur"",""44"",""309484""
""focus"",""44"",""310102""
","""event"",""trial"",""time""
""blur"",""44"",""309484""
","""event"",""trial"",""time""
""focus"",""44"",""310102""
","""event"",""trial"",""time""
""fullscreenenter"",""0"",""1738""
","
","406.19999998807907","","","","","","","","49","0,0,0","0","countryside","27","probe-228","0.5061214882460653","0.18558671197364576","0.09795668349463714","0","","","","","","","",""
"","html-keyboard-response","145","649759","0.0-82.0-1.0","""event"",""trial"",""time""
""fullscreenenter"",""0"",""1738""
""blur"",""44"",""309484""
""focus"",""44"",""310102""
","""event"",""trial"",""time""
""blur"",""44"",""309484""
","""event"",""trial"",""time""
""focus"",""44"",""310102""
","""event"",""trial"",""time""
""fullscreenenter"",""0"",""1738""
","
","null","<p></p>","null","","","","","","","","","","","","","","","","","","","","","","",""
"","do_trial","146","654625","0.0-83.0-0.0","""event"",""trial"",""time""
""fullscreenenter"",""0"",""1738""
""blur"",""44"",""309484""
""focus"",""44"",""310102""
","""event"",""trial"",""time""
""blur"",""44"",""309484""
","""event"",""trial"",""time""
""focus"",""44"",""310102""
","""event"",""trial"",""time""
""fullscreenenter"",""0"",""1738""
","
","307.5999999642372","","","","","","","","50","1,0,0","0","countryside","28","probe-152","0.5755199003947152","0.22633819779971448","0.11016713570621278","0","","","","","","","",""
"","html-keyboard-response","147","655628","0.0-83.0-1.0","""event"",""trial"",""time""
""fullscreenenter"",""0"",""1738""
""blur"",""44"",""309484""
""focus"",""44"",""310102""
","""event"",""trial"",""time""
""blur"",""44"",""309484""
","""event"",""trial"",""time""
""focus"",""44"",""310102""
","""event"",""trial"",""time""
""fullscreenenter"",""0"",""1738""
","
","null","<p></p>","null","","","","","","","","","","","","","","","","","","","","","","",""
"","do_trial","148","660596","0.0-84.0-0.0","""event"",""trial"",""time""
""fullscreenenter"",""0"",""1738""
""blur"",""44"",""309484""
""focus"",""44"",""310102""
","""event"",""trial"",""time""
""blur"",""44"",""309484""
","""event"",""trial"",""time""
""focus"",""44"",""310102""
","""event"",""trial"",""time""
""fullscreenenter"",""0"",""1738""
","
","414.89999997615814","","","","","","","","51","1,0,1","0","countryside","29","probe-92","0.6475467971392564","0.22865228231522605","0.21631463137578372","1","","","","","","","",""
"","html-keyboard-response","149","661601","0.0-84.0-1.0","""event"",""trial"",""time""
""fullscreenenter"",""0"",""1738""
""blur"",""44"",""309484""
""focus"",""44"",""310102""
","""event"",""trial"",""time""
""blur"",""44"",""309484""
","""event"",""trial"",""time""
""focus"",""44"",""310102""
","""event"",""trial"",""time""
""fullscreenenter"",""0"",""1738""
","
","null","<p></p>","null","","","","","","","","","","","","","","","","","","","","","","",""
"","do_bye","150","663109","0.0-85.0-0.0","""event"",""trial"",""time""
""fullscreenenter"",""0"",""1738""
""blur"",""44"",""309484""
""focus"",""44"",""310102""
","""event"",""trial"",""time""
""blur"",""44"",""309484""
","""event"",""trial"",""time""
""focus"",""44"",""310102""
","""event"",""trial"",""time""
""fullscreenenter"",""0"",""1738""
","
","null","","","","","","","","null","","","","","","","","","","","","","","","","",""
"","break","151","666716","0.0-85.0-1.0","""event"",""trial"",""time""
""fullscreenenter"",""0"",""1738""
""blur"",""44"",""309484""
""focus"",""44"",""310102""
","""event"",""trial"",""time""
""blur"",""44"",""309484""
","""event"",""trial"",""time""
""focus"",""44"",""310102""
","""event"",""trial"",""time""
""fullscreenenter"",""0"",""1738""
","
","3604.5","<div class='center'><p>Time to take a quick break! You have 2 minutes to rest, but you can move on sooner if you'd like.</p><p> Press the <b>space bar</b> to continue.</p></div>","32","","","","","","","","","","","","","","","","","","","","","","",""
"","do_travel","152","675726","0.0-86.0-0.0","""event"",""trial"",""time""
""fullscreenenter"",""0"",""1738""
""blur"",""44"",""309484""
""focus"",""44"",""310102""
","""event"",""trial"",""time""
""blur"",""44"",""309484""
","""event"",""trial"",""time""
""focus"",""44"",""310102""
","""event"",""trial"",""time""
""fullscreenenter"",""0"",""1738""
","
","null","","","","","","","","null","","","","","","","","","","","","","","","","",""
"","do_welcome","153","679735","0.0-86.0-1.0","""event"",""trial"",""time""
""fullscreenenter"",""0"",""1738""
""blur"",""44"",""309484""
""focus"",""44"",""310102""
","""event"",""trial"",""time""
""blur"",""44"",""309484""
","""event"",""trial"",""time""
""focus"",""44"",""310102""
","""event"",""trial"",""time""
""fullscreenenter"",""0"",""1738""
","
","null","","","","","","","","null","","","","","","","","","","","","","","","","",""
"","do_trial","154","685763","0.0-87.0-0.0","""event"",""trial"",""time""
""fullscreenenter"",""0"",""1738""
""blur"",""44"",""309484""
""focus"",""44"",""310102""
","""event"",""trial"",""time""
""blur"",""44"",""309484""
","""event"",""trial"",""time""
""focus"",""44"",""310102""
","""event"",""trial"",""time""
""fullscreenenter"",""0"",""1738""
","
","1468.300000011921","","","","","","","","49","1,0,0","1","forest","30","probe-20","1","0.27955449561994167","0.14722830828326314","1","","","","","","","",""
"","html-keyboard-response","155","686766","0.0-87.0-1.0","""event"",""trial"",""time""
""fullscreenenter"",""0"",""1738""
""blur"",""44"",""309484""
""focus"",""44"",""310102""
","""event"",""trial"",""time""
""blur"",""44"",""309484""
","""event"",""trial"",""time""
""focus"",""44"",""310102""
","""event"",""trial"",""time""
""fullscreenenter"",""0"",""1738""
","
","null","<p></p>","null","","","","","","","","","","","","","","","","","","","","","","",""
"","do_trial","156","691798","0.0-88.0-0.0","""event"",""trial"",""time""
""fullscreenenter"",""0"",""1738""
""blur"",""44"",""309484""
""focus"",""44"",""310102""
","""event"",""trial"",""time""
""blur"",""44"",""309484""
","""event"",""trial"",""time""
""focus"",""44"",""310102""
","""event"",""trial"",""time""
""fullscreenenter"",""0"",""1738""
","
","472.4000000357628","","","","","","","","49","1,0,0","1","forest","31","probe-189","1","0.35542689964828855","0.1121216170942753","1","","","","","","","",""
"","html-keyboard-response","157","692804","0.0-88.0-1.0","""event"",""trial"",""time""
""fullscreenenter"",""0"",""1738""
""blur"",""44"",""309484""
""focus"",""44"",""310102""
","""event"",""trial"",""time""
""blur"",""44"",""309484""
","""event"",""trial"",""time""
""focus"",""44"",""310102""
","""event"",""trial"",""time""
""fullscreenenter"",""0"",""1738""
","
","null","<p></p>","null","","","","","","","","","","","","","","","","","","","","","","",""
"","do_trial","158","697861","0.0-89.0-0.0","""event"",""trial"",""time""
""fullscreenenter"",""0"",""1738""
""blur"",""44"",""309484""
""focus"",""44"",""310102""
","""event"",""trial"",""time""
""blur"",""44"",""309484""
","""event"",""trial"",""time""
""focus"",""44"",""310102""
","""event"",""trial"",""time""
""fullscreenenter"",""0"",""1738""
","
","499.69999998807907","","","","","","","","49","1,1,0","1","forest","32","probe-200","1","0.3486752964310902","0.08279894180598038","1","","","","","","","",""
"","html-keyboard-response","159","698868","0.0-89.0-1.0","""event"",""trial"",""time""
""fullscreenenter"",""0"",""1738""
""blur"",""44"",""309484""
""focus"",""44"",""310102""
","""event"",""trial"",""time""
""blur"",""44"",""309484""
","""event"",""trial"",""time""
""focus"",""44"",""310102""
","""event"",""trial"",""time""
""fullscreenenter"",""0"",""1738""
","
","null","<p></p>","null","","","","","","","","","","","","","","","","","","","","","","",""
"","do_trial","160","704115","0.0-90.0-0.0","""event"",""trial"",""time""
""fullscreenenter"",""0"",""1738""
""blur"",""44"",""309484""
""focus"",""44"",""310102""
","""event"",""trial"",""time""
""blur"",""44"",""309484""
","""event"",""trial"",""time""
""focus"",""44"",""310102""
","""event"",""trial"",""time""
""fullscreenenter"",""0"",""1738""
","
","691.2000000476837","","","","","","","","49","1,1,0","1","forest","33","probe-216","0.9407941911164618","0.3793750740711361","0.16938338091924224","1","","","","","","","",""
"","html-keyboard-response","161","705122","0.0-90.0-1.0","""event"",""trial"",""time""
""fullscreenenter"",""0"",""1738""
""blur"",""44"",""309484""
""focus"",""44"",""310102""
","""event"",""trial"",""time""
""blur"",""44"",""309484""
","""event"",""trial"",""time""
""focus"",""44"",""310102""
","""event"",""trial"",""time""
""fullscreenenter"",""0"",""1738""
","
","null","<p></p>","null","","","","","","","","","","","","","","","","","","","","","","",""
"","do_trial","162","710862","0.0-91.0-0.0","""event"",""trial"",""time""
""fullscreenenter"",""0"",""1738""
""blur"",""44"",""309484""
""focus"",""44"",""310102""
","""event"",""trial"",""time""
""blur"",""44"",""309484""
","""event"",""trial"",""time""
""focus"",""44"",""310102""
","""event"",""trial"",""time""
""fullscreenenter"",""0"",""1738""
","
","1183.6000000238419","","","","","","","","49","1,0,0","1","forest","34","probe-206","0.9000586131072252","0.29975697254958084","0.16234384500169313","1","","","","","","","",""
"","html-keyboard-response","163","711865","0.0-91.0-1.0","""event"",""trial"",""time""
""fullscreenenter"",""0"",""1738""
""blur"",""44"",""309484""
""focus"",""44"",""310102""
","""event"",""trial"",""time""
""blur"",""44"",""309484""
","""event"",""trial"",""time""
""focus"",""44"",""310102""
","""event"",""trial"",""time""
""fullscreenenter"",""0"",""1738""
","
","null","<p></p>","null","","","","","","","","","","","","","","","","","","","","","","",""
"","do_trial","164","717682","0.0-92.0-0.0","""event"",""trial"",""time""
""fullscreenenter"",""0"",""1738""
""blur"",""44"",""309484""
""focus"",""44"",""310102""
","""event"",""trial"",""time""
""blur"",""44"",""309484""
","""event"",""trial"",""time""
""focus"",""44"",""310102""
","""event"",""trial"",""time""
""fullscreenenter"",""0"",""1738""
","
","1263.800000011921","","","","","","","","49","1,0,1","1","forest","35","probe-102","0.8261891522123009","0.2149087881244342","0.25313769234846195","1","","","","","","","",""
"","html-keyboard-response","165","718689","0.0-92.0-1.0","""event"",""trial"",""time""
""fullscreenenter"",""0"",""1738""
""blur"",""44"",""309484""
""focus"",""44"",""310102""
","""event"",""trial"",""time""
""blur"",""44"",""309484""
","""event"",""trial"",""time""
""focus"",""44"",""310102""
","""event"",""trial"",""time""
""fullscreenenter"",""0"",""1738""
","
","null","<p></p>","null","","","","","","","","","","","","","","","","","","","","","","",""
"","do_trial","166","724203","0.0-93.0-0.0","""event"",""trial"",""time""
""fullscreenenter"",""0"",""1738""
""blur"",""44"",""309484""
""focus"",""44"",""310102""
","""event"",""trial"",""time""
""blur"",""44"",""309484""
","""event"",""trial"",""time""
""focus"",""44"",""310102""
","""event"",""trial"",""time""
""fullscreenenter"",""0"",""1738""
","
","957.7000000476837","","","","","","","","49","0,1,0","1","forest","36","probe-101","0.5717615483552708","0.10413127014286307","0.1877085643476132","0","","","","","","","",""
"","html-keyboard-response","167","725210","0.0-93.0-1.0","""event"",""trial"",""time""
""fullscreenenter"",""0"",""1738""
""blur"",""44"",""309484""
""focus"",""44"",""310102""
","""event"",""trial"",""time""
""blur"",""44"",""309484""
","""event"",""trial"",""time""
""focus"",""44"",""310102""
","""event"",""trial"",""time""
""fullscreenenter"",""0"",""1738""
","
","null","<p></p>","null","","","","","","","","","","","","","","","","","","","","","","",""
"","do_trial","168","730676","0.0-94.0-0.0","""event"",""trial"",""time""
""fullscreenenter"",""0"",""1738""
""blur"",""44"",""309484""
""focus"",""44"",""310102""
","""event"",""trial"",""time""
""blur"",""44"",""309484""
","""event"",""trial"",""time""
""focus"",""44"",""310102""
","""event"",""trial"",""time""
""fullscreenenter"",""0"",""1738""
","
","909.7000000476837","","","","","","","","49","0,0,0","1","forest","37","probe-128","0.4863837433151795","0.11143093435394436","0.2212312383002366","0","","","","","","","",""
"","html-keyboard-response","169","731681","0.0-94.0-1.0","""event"",""trial"",""time""
""fullscreenenter"",""0"",""1738""
""blur"",""44"",""309484""
""focus"",""44"",""310102""
","""event"",""trial"",""time""
""blur"",""44"",""309484""
","""event"",""trial"",""time""
""focus"",""44"",""310102""
","""event"",""trial"",""time""
""fullscreenenter"",""0"",""1738""
","
","null","<p></p>","null","","","","","","","","","","","","","","","","","","","","","","",""
"","do_trial","170","737130","0.0-95.0-0.0","""event"",""trial"",""time""
""fullscreenenter"",""0"",""1738""
""blur"",""44"",""309484""
""focus"",""44"",""310102""
","""event"",""trial"",""time""
""blur"",""44"",""309484""
","""event"",""trial"",""time""
""focus"",""44"",""310102""
","""event"",""trial"",""time""
""fullscreenenter"",""0"",""1738""
","
","889","","","","","","","","49","0,0,0","1","forest","38","probe-44","0.5093350391535103","0.16712206566832954","0.24412777977367459","0","","","","","","","",""
"","html-keyboard-response","171","738137","0.0-95.0-1.0","""event"",""trial"",""time""
""fullscreenenter"",""0"",""1738""
""blur"",""44"",""309484""
""focus"",""44"",""310102""
","""event"",""trial"",""time""
""blur"",""44"",""309484""
","""event"",""trial"",""time""
""focus"",""44"",""310102""
","""event"",""trial"",""time""
""fullscreenenter"",""0"",""1738""
","
","null","<p></p>","null","","","","","","","","","","","","","","","","","","","","","","",""
"","do_trial","172","743052","0.0-96.0-0.0","""event"",""trial"",""time""
""fullscreenenter"",""0"",""1738""
""blur"",""44"",""309484""
""focus"",""44"",""310102""
","""event"",""trial"",""time""
""blur"",""44"",""309484""
","""event"",""trial"",""time""
""focus"",""44"",""310102""
","""event"",""trial"",""time""
""fullscreenenter"",""0"",""1738""
","
","356.60000002384186","","","","","","","","49","1,0,0","1","forest","39","probe-113","0.7523782445530515","0.23339405532533733","0.2813034379086307","1","","","","","","","",""
"","html-keyboard-response","173","744059","0.0-96.0-1.0","""event"",""trial"",""time""
""fullscreenenter"",""0"",""1738""
""blur"",""44"",""309484""
""focus"",""44"",""310102""
","""event"",""trial"",""time""
""blur"",""44"",""309484""
","""event"",""trial"",""time""
""focus"",""44"",""310102""
","""event"",""trial"",""time""
""fullscreenenter"",""0"",""1738""
","
","null","<p></p>","null","","","","","","","","","","","","","","","","","","","","","","",""
"","do_trial","174","749360","0.0-97.0-0.0","""event"",""trial"",""time""
""fullscreenenter"",""0"",""1738""
""blur"",""44"",""309484""
""focus"",""44"",""310102""
","""event"",""trial"",""time""
""blur"",""44"",""309484""
","""event"",""trial"",""time""
""focus"",""44"",""310102""
","""event"",""trial"",""time""
""fullscreenenter"",""0"",""1738""
","
","741.3000000119209","","","","","","","","49","0,0,1","1","forest","40","probe-201","0.679074609590428","0.13959707618707068","0.33151849240055564","0","","","","","","","",""
"","html-keyboard-response","175","750362","0.0-97.0-1.0","""event"",""trial"",""time""
""fullscreenenter"",""0"",""1738""
""blur"",""44"",""309484""
""focus"",""44"",""310102""
","""event"",""trial"",""time""
""blur"",""44"",""309484""
","""event"",""trial"",""time""
""focus"",""44"",""310102""
","""event"",""trial"",""time""
""fullscreenenter"",""0"",""1738""
","
","null","<p></p>","null","","","","","","","","","","","","","","","","","","","","","","",""
"","do_trial","176","755348","0.0-98.0-0.0","""event"",""trial"",""time""
""fullscreenenter"",""0"",""1738""
""blur"",""44"",""309484""
""focus"",""44"",""310102""
","""event"",""trial"",""time""
""blur"",""44"",""309484""
","""event"",""trial"",""time""
""focus"",""44"",""310102""
","""event"",""trial"",""time""
""fullscreenenter"",""0"",""1738""
","
","435.5999999642372","","","","","","","","49","1,1,0","1","forest","41","probe-214","0.7039785775717989","0.09300303376508846","0.33409654117538573","1","","","","","","","",""
"","html-keyboard-response","177","756355","0.0-98.0-1.0","""event"",""trial"",""time""
""fullscreenenter"",""0"",""1738""
""blur"",""44"",""309484""
""focus"",""44"",""310102""
","""event"",""trial"",""time""
""blur"",""44"",""309484""
","""event"",""trial"",""time""
""focus"",""44"",""310102""
","""event"",""trial"",""time""
""fullscreenenter"",""0"",""1738""
","
","null","<p></p>","null","","","","","","","","","","","","","","","","","","","","","","",""
"","do_trial","178","761941","0.0-99.0-0.0","""event"",""trial"",""time""
""fullscreenenter"",""0"",""1738""
""blur"",""44"",""309484""
""focus"",""44"",""310102""
","""event"",""trial"",""time""
""blur"",""44"",""309484""
","""event"",""trial"",""time""
""focus"",""44"",""310102""
","""event"",""trial"",""time""
""fullscreenenter"",""0"",""1738""
","
","1028","","","","","","","","49","0,0,0","1","forest","42","probe-160","0.5401099947052409","0.10723552701405041","0.42117780422485107","0","","","","","","","",""
"","html-keyboard-response","179","762948","0.0-99.0-1.0","""event"",""trial"",""time""
""fullscreenenter"",""0"",""1738""
""blur"",""44"",""309484""
""focus"",""44"",""310102""
","""event"",""trial"",""time""
""blur"",""44"",""309484""
","""event"",""trial"",""time""
""focus"",""44"",""310102""
","""event"",""trial"",""time""
""fullscreenenter"",""0"",""1738""
","
","null","<p></p>","null","","","","","","","","","","","","","","","","","","","","","","",""
"","do_trial","180","768347","0.0-100.0-0.0","""event"",""trial"",""time""
""fullscreenenter"",""0"",""1738""
""blur"",""44"",""309484""
""focus"",""44"",""310102""
","""event"",""trial"",""time""
""blur"",""44"",""309484""
","""event"",""trial"",""time""
""focus"",""44"",""310102""
","""event"",""trial"",""time""
""fullscreenenter"",""0"",""1738""
","
","840.8000000119209","","","","","","","","50","1,0,1","1","forest","43","probe-47","0.5197661305330662","0.06777547341640464","0.5568789599287196","0","","","","","","","",""
"","html-keyboard-response","181","769355","0.0-100.0-1.0","""event"",""trial"",""time""
""fullscreenenter"",""0"",""1738""
""blur"",""44"",""309484""
""focus"",""44"",""310102""
","""event"",""trial"",""time""
""blur"",""44"",""309484""
","""event"",""trial"",""time""
""focus"",""44"",""310102""
","""event"",""trial"",""time""
""fullscreenenter"",""0"",""1738""
","
","null","<p></p>","null","","","","","","","","","","","","","","","","","","","","","","",""
"","do_trial","182","774285","0.0-101.0-0.0","""event"",""trial"",""time""
""fullscreenenter"",""0"",""1738""
""blur"",""44"",""309484""
""focus"",""44"",""310102""
","""event"",""trial"",""time""
""blur"",""44"",""309484""
","""event"",""trial"",""time""
""focus"",""44"",""310102""
","""event"",""trial"",""time""
""fullscreenenter"",""0"",""1738""
","
","371.89999997615814","","","","","","","","51","0,0,1","1","forest","44","probe-78","0.29600712815921354","0.2044267547747476","0.5964202407650018","1","","","","","","","",""
"","html-keyboard-response","183","775292","0.0-101.0-1.0","""event"",""trial"",""time""
""fullscreenenter"",""0"",""1738""
""blur"",""44"",""309484""
""focus"",""44"",""310102""
","""event"",""trial"",""time""
""blur"",""44"",""309484""
","""event"",""trial"",""time""
""focus"",""44"",""310102""
","""event"",""trial"",""time""
""fullscreenenter"",""0"",""1738""
","
","null","<p></p>","null","","","","","","","","","","","","","","","","","","","","","","",""
"","do_trial","184","780926","0.0-102.0-0.0","""event"",""trial"",""time""
""fullscreenenter"",""0"",""1738""
""blur"",""44"",""309484""
""focus"",""44"",""310102""
","""event"",""trial"",""time""
""blur"",""44"",""309484""
","""event"",""trial"",""time""
""focus"",""44"",""310102""
","""event"",""trial"",""time""
""fullscreenenter"",""0"",""1738""
","
","1074.0999999642372","","","","","","","","51","1,0,0","1","forest","45","probe-31","0.2071849957153772","0.29530431293762976","0.5577451658667458","0","","","","","","","",""
"","html-keyboard-response","185","781931","0.0-102.0-1.0","""event"",""trial"",""time""
""fullscreenenter"",""0"",""1738""
""blur"",""44"",""309484""
""focus"",""44"",""310102""
","""event"",""trial"",""time""
""blur"",""44"",""309484""
","""event"",""trial"",""time""
""focus"",""44"",""310102""
","""event"",""trial"",""time""
""fullscreenenter"",""0"",""1738""
","
","null","<p></p>","null","","","","","","","","","","","","","","","","","","","","","","",""
"","do_trial","186","787048","0.0-103.0-0.0","""event"",""trial"",""time""
""fullscreenenter"",""0"",""1738""
""blur"",""44"",""309484""
""focus"",""44"",""310102""
","""event"",""trial"",""time""
""blur"",""44"",""309484""
","""event"",""trial"",""time""
""focus"",""44"",""310102""
","""event"",""trial"",""time""
""fullscreenenter"",""0"",""1738""
","
","561.6000000238419","","","","","","","","51","0,1,1","1","forest","46","probe-29","0.22161688599700122","0.28820992580847793","0.5367053285663745","1","","","","","","","",""
"","html-keyboard-response","187","788056","0.0-103.0-1.0","""event"",""trial"",""time""
""fullscreenenter"",""0"",""1738""
""blur"",""44"",""309484""
""focus"",""44"",""310102""
","""event"",""trial"",""time""
""blur"",""44"",""309484""
","""event"",""trial"",""time""
""focus"",""44"",""310102""
","""event"",""trial"",""time""
""fullscreenenter"",""0"",""1738""
","
","null","<p></p>","null","","","","","","","","","","","","","","","","","","","","","","",""
"","do_trial","188","793845","0.0-104.0-0.0","""event"",""trial"",""time""
""fullscreenenter"",""0"",""1738""
""blur"",""44"",""309484""
""focus"",""44"",""310102""
","""event"",""trial"",""time""
""blur"",""44"",""309484""
","""event"",""trial"",""time""
""focus"",""44"",""310102""
