"success","trial_type","trial_index","time_elapsed","internal_node_id","rt","stimulus","key_press","subject_id","response","choice_outcomes","context_n","context_img_id","trial_n","probe_img_id","pR_red","pR_white","pR_black","outcome","contextArray_ind","validImageProbes","invalidImageProbes","pRew_Red","pRew_White","pRew_Black","availableForMemProbe","choice_blocks"
"true","fullscreen","0","4488","0.0-0.0","","","","","","","","","","","","","","","","","","","","","",""
"","pavlovia","1","4500","0.0-1.0","","","","","","","","","","","","","","","","","","","","","",""
"","html-keyboard-response","2","30376","0.0-2.0","25872.699999999255","<div class='center'><p>Welcome! This is the first day of the experiment which will last ~30 minutes. In this experiment, you are the head captain of a pirate ship traveling around the world to different places. You will complete several different tasks during this experiment. Here is an overview of these tasks:</p><br><p>Day 1</p><p>1. Tutorial and quiz</p><p>2. Pick a pirate game in 6 different places</p><br><p>Day 2</p><p>3. Pick a pirate game and memory game</p><p>4. Final questions and payment</p><br><p>If you complete the entire experiment, you will receive $15 and a possible bonus payment.</p><p><b>[Press the space bar to begin the tutorial]</b></p></div>","32","5e77b301a4d61d32c335e5bf","","","","","","","","","","","","","","","","","",""
"","html-keyboard-response","3","39117","0.0-3.0","8738.300000000745","<div class='center'><p>You’ll stop at these 6 islands on your journey. You'll be able to see them in the distance from your ship.</p><p><img src='run_exp/static/images/contexts/all_contexts.png' height='500'></p><p><b>[Press the space bar to continue]</b></p></div>","32","","","","","","","","","","","","","","","","","","",""
"","html-keyboard-response","4","61981","0.0-4.0","22861.699999999255","<div class='center'><p> The pirates on your ship will rob other ships as they leave island</p> These ships have just sold their things to the people living on the island, so they will have lots and lots of gold on them.</p><p><img src='run_exp/static/images/tutorial/ship_center.png' height='400'></p><p><b>[Press the space bar to continue]</b></p></div>","32","","","","","","","","","","","","","","","","","","",""
"","html-keyboard-response","5","82909","0.0-5.0","20923.699999999255","<div class='center'><p>As the head captain, you do not have to rob any ships yourself.</p><p>Another pirate will be doing the robbing for you. </p><p><img src='run_exp/static/images/tutorial/pirates_all_crop.png' height='200'></p><p>If they could rob the ship, then you will get a stack of gold coins like this:</p><p><img src='run_exp/static/images/tutorial/reward.png' height='150'></p><p> If they couldn't rob the ship, then you will get no gold coins and you'll see a big red x like this: </p><p><img src='run_exp/static/images/tutorial/reward_no.png' height='150'></p><p> How much bonus money you make is based on how many gold coins you collect.</p><p><b>[Press the space bar to continue]</b></p><div>","32","","","","","","","","","","","","","","","","","","",""
"","html-keyboard-response","6","101250","0.0-6.0","18338.20000000298","<div class='center'><p>Even the most skilled pirate can not rob EVERY ship.</p><p> Some ships will have very strong defenses against pirate attacks.</p><p> For example, blue beard, here, is very, very good at robbing ships.</p><p> You can press the <b>‘1’</b> button on the keyboard to choose him.</p><p> Try choosing him 10 times to see how often he can rob a ship. </p><p><img src='run_exp/static/images/tutorial/blue.png' height='500'></p></div>","49","","","","","","","","","","","","","","","","","","",""
"","html-keyboard-response","7","102753","0.0-7.0","null","<div class='center'><p><img src='run_exp/static/images/tutorial/blue_win.png' height='500'></p></div>","null","","","","","","","","","","","","","","","","","","",""
"","html-keyboard-response","8","102786","0.0-8.0","30.100000001490116","<div class='center'><img src='run_exp/static/images/tutorial/blue.png' height='500'></p></div>","49","","","","","","","","","","","","","","","","","","",""
"","html-keyboard-response","9","104290","0.0-9.0","null","<div class='center'><p><img src='run_exp/static/images/tutorial/blue_win.png' height='500'></p></div>","null","","","","","","","","","","","","","","","","","","",""
"","html-keyboard-response","10","106622","0.0-10.0","2329.300000000745","<div class='center'><img src='run_exp/static/images/tutorial/blue.png' height='500'></p></div>","49","","","","","","","","","","","","","","","","","","",""
"","html-keyboard-response","11","108134","0.0-11.0","null","<div class='center'><p><img src='run_exp/static/images/tutorial/blue_win.png' height='500'></p></div>","null","","","","","","","","","","","","","","","","","","",""
"","html-keyboard-response","12","108302","0.0-12.0","166.39999999850988","<div class='center'><img src='run_exp/static/images/tutorial/blue.png' height='500'></p></div>","49","","","","","","","","","","","","","","","","","","",""
"","html-keyboard-response","13","109805","0.0-13.0","null","<div class='center'><p><img src='run_exp/static/images/tutorial/blue_no_win.png' height='500'></p></div>","null","","","","","","","","","","","","","","","","","","",""
"","html-keyboard-response","14","110118","0.0-14.0","311.30000000074506","<div class='center'><img src='run_exp/static/images/tutorial/blue.png' height='500'></p></div>","49","","","","","","","","","","","","","","","","","","",""
"","html-keyboard-response","15","111620","0.0-15.0","null","<div class='center'><p><img src='run_exp/static/images/tutorial/blue_win.png' height='500'></p></div>","null","","","","","","","","","","","","","","","","","","",""
"","html-keyboard-response","16","111834","0.0-16.0","211.90000000223517","<div class='center'><img src='run_exp/static/images/tutorial/blue.png' height='500'></p></div>","49","","","","","","","","","","","","","","","","","","",""
"","html-keyboard-response","17","113337","0.0-17.0","null","<div class='center'><p><img src='run_exp/static/images/tutorial/blue_win.png' height='500'></p></div>","null","","","","","","","","","","","","","","","","","","",""
"","html-keyboard-response","18","113442","0.0-18.0","104.19999999925494","<div class='center'><img src='run_exp/static/images/tutorial/blue.png' height='500'></p></div>","49","","","","","","","","","","","","","","","","","","",""
"","html-keyboard-response","19","114944","0.0-19.0","null","<div class='center'><p><img src='run_exp/static/images/tutorial/blue_win.png' height='500'></p></div>","null","","","","","","","","","","","","","","","","","","",""
"","html-keyboard-response","20","115790","0.0-20.0","844.5","<div class='center'><img src='run_exp/static/images/tutorial/blue.png' height='500'></p></div>","49","","","","","","","","","","","","","","","","","","",""
"","html-keyboard-response","21","117293","0.0-21.0","null","<div class='center'><p><img src='run_exp/static/images/tutorial/blue_no_win.png' height='500'></p></div>","null","","","","","","","","","","","","","","","","","","",""
"","html-keyboard-response","22","119865","0.0-22.0","2570.300000000745","<div class='center'><img src='run_exp/static/images/tutorial/blue.png' height='500'></p></div>","49","","","","","","","","","","","","","","","","","","",""
"","html-keyboard-response","23","121368","0.0-23.0","null","<div class='center'><p><img src='run_exp/static/images/tutorial/blue_win.png' height='500'></p></div>","null","","","","","","","","","","","","","","","","","","",""
"","html-keyboard-response","24","122026","0.0-24.0","657","<div class='center'><img src='run_exp/static/images/tutorial/blue.png' height='500'></p></div>","49","","","","","","","","","","","","","","","","","","",""
"","html-keyboard-response","25","123529","0.0-25.0","null","<div class='center'><p><img src='run_exp/static/images/tutorial/blue_win.png' height='500'></p></div>","null","","","","","","","","","","","","","","","","","","",""
"","html-keyboard-response","26","128694","0.0-26.0","5163.599999997765","<div class='center'><p> See, he could rob the ships most of the time but not every time. </p><p><b>[Press the space bar to continue]</b></p></div>","32","","","","","","","","","","","","","","","","","","",""
"","html-keyboard-response","27","142378","0.0-27.0","13680.89999999851","<div class='center'><p>You will get to choose which of three pirates you want to rob the next ship. <p>Press the <b>‘1’</b> button on your keyboard to pick the pirate with the red beard.</p><p> Press <b>‘2’</b> to pick the pirate with the white beard.</p><p> Press <b>‘3’</b> to pick the pirate with the black beard.</p><p>Try picking a pirate now!</p><p><img src='run_exp/static/images/tutorial/all_pirates.png' height='500'></p></div>","50","","","","","","","","","","","","","","","","","","",""
"","html-keyboard-response","28","145502","0.0-28.0-0.0","3119.5","<div class='center'><p>This pirate could rob the ship!</p><p><img src='run_exp/static/images/tutorial/white_win.png' height='500'></p><p><b>[Press the space bar to continue]</b></p></div>","32","","","","","","","","","","","","","","","","","","",""
"","html-keyboard-response","29","150362","0.0-28.0-1.0","4858.199999999255","<div class='center'><p>Now try choosing another</p><p><img src='run_exp/static/images/tutorial/all_pirates.png' height='500'></p></div>","49","","","","","","","","","","","","","","","","","","",""
"","html-keyboard-response","30","152652","0.0-29.0-0.0","2287.099999997765","<div class='center'><p>This pirate could not rob the ship.</p><p><img src='run_exp/static/images/tutorial/red_no_win.png' height='500'></p><p><b>[Press the space bar to continue]</b></p></div>","32","","","","","","","","","","","","","","","","","","",""
"","html-keyboard-response","31","160374","0.0-30.0-0.0","7720.199999999255","<div class='center'><p>If you don’t make your choice fast enough, you’ll have to wait a few seconds before you can make another one. </p><p>You can’t collect more gold coins. You just have to sit and wait.</p><p><img src='run_exp/static/images/miscellaneous/hurry_up.png' height='500'></p><p><b>[Press the space bar to continue]</b></p></div>","32","","","","","","","","","","","","","","","","","","",""
"","html-keyboard-response","32","191613","0.0-30.0-1.0","31236.699999999255","<div class='center'><p>Once you choose a pirate, you’ll be shown the ship they are robbing.</p><p>You will never rob the same ship twice.</p><p>Ships can be told apart from one another by the image on them.</p><p> Every time you see a ship, you will have to remember on which island you saw it.</p><p> Remembering correctly will help you win more bonus money!</p><p>A helpful strategy is to try to come up with a story of the object on the ship interacting with the current island scene.</p><p> For example, here, you could imagine a mug full of water in the desert. </p><p>For a ship with an apple on it on the forest island, you could imagine an apple falling from a tree in the forest.</p><p><img src='run_exp/static/images/tutorial/example_probe.png' height='500'></p><p><b>[Press the space bar to continue]</b></p></div>","32","","","","","","","","","","","","","","","","","","",""
"","html-keyboard-response","33","203495","0.0-30.0-2.0","11880.10000000149","<div class='center'><p>How good a pirate is at robbing ships will depend on the current island.</p><p> A pirate may have visited the island many times before and gained a lot of practice robbing ships there.</p><p>So, they're more likely to bring back gold coins than a pirate who has never visited this island before. </p><p><b>[Press the space bar to continue]</b></p></div>","32","","","","","","","","","","","","","","","","","","",""
"","html-keyboard-response","34","236015","0.0-30.0-3.0","32517.900000002235","<div class='center'><p>How good a pirate is at robbing ships can also change over the time spent on the island<p> Ships may hear from islanders about the pirates coming and will improve their protection against the attack. This may make it harder to rob them.</p><p> Ships may also become lazy and lower their protection. This may make it easier to rob them.</p><br><p>Things are always changing on the high seas! So, try your best to pay attention!</p><p><img src='run_exp/static/images/tutorial/contingency.png' height='500'></p><p><b>[Press the space bar to continue]</b></p></div>","32","","","","","","","","","","","","","","","","","","",""
"","html-keyboard-response","35","246946","0.0-30.0-4.0","10929.39999999851","<div class='center'><p>Let's go over the instructions quickly again.You have two important things to do: </p><b><p> 1. Pick the pirate who is the best at robbing ships on the current island.</p></b><b><p> 2. Remember on which island a ship was robbed.</p> </b><p>How much bonus money you make is based on both. </p><br><p>Let’s try a practice game. The game will start by showing you the pirates. First pick a pirate using the <b> 1, 2, 3 </b> buttons on your keyboard. When you are shown a ship, try to remember the island you’re on by making up a story.</p><p> You only have 3 seconds to pick a pirate, so please make a choice quickly! If you are too slow, you’ll have to wait a bit during the time out.</p><p> Don’t feel rushed, but please do try to make a choice every time.</p><p>This is just a practice game, so you’re not playing for money. </p><p> Good luck, remember press <b>'1'</b> to choose red beard, <b>'2'</b> to choose white beard, and <b>'3'</b> to choose black beard</p><p><b>[Press the space bar to begin the practice game]</b></p></div>","32","","","","","","","","","","","","","","","","","","",""
"","do_welcome","36","248457","0.0-30.0-5.0","null","","","","null","","","","","","","","","","","","","","","","",""
"","do_trial","37","254476","0.0-30.0-6.0","null","","","","null","1,0,0","","","","","","","","","","","","","","","",""
"","html-keyboard-response","38","255479","0.0-31.0-0.0","null","<p></p>","null","","","","","","","","","","","","","","","","","","",""
"","do_trial","39","262220","0.0-31.0-1.0","2227.89999999851","","","","50","1,0,0","","","","","","","","","","","","","","","",""
"","html-keyboard-response","40","263222","0.0-32.0-0.0","null","<p></p>","null","","","","","","","","","","","","","","","","","","",""
"","do_trial","41","269236","0.0-32.0-1.0","null","","","","null","1,1,0","","","","","","","","","","","","","","","",""
"","html-keyboard-response","42","270239","0.0-33.0-0.0","null","<p></p>","null","","","","","","","","","","","","","","","","","","",""
"","do_trial","43","275831","0.0-33.0-1.0","1081.5","","","","51","1,1,0","","","","","","","","","","","","","","","",""
"","html-keyboard-response","44","276835","0.0-34.0-0.0","null","<p></p>","null","","","","","","","","","","","","","","","","","","",""
"","do_trial","45","282632","0.0-34.0-1.0","1283.5","","","","49","1,0,1","","","","","","","","","","","","","","","",""
"","html-keyboard-response","46","283635","0.0-35.0-0.0","null","<p></p>","null","","","","","","","","","","","","","","","","","","",""
"","do_trial","47","289086","0.0-35.0-1.0","939.5","","","","50","0,1,0","","","","","","","","","","","","","","","",""
"","html-keyboard-response","48","290089","0.0-36.0-0.0","null","<p></p>","null","","","","","","","","","","","","","","","","","","",""
"","do_trial","49","295282","0.0-36.0-1.0","684.8000000007451","","","","51","1,0,0","","","","","","","","","","","","","","","",""
"","do_bye","50","296795","0.0-37.0-0.0","null","","","","null","","","","","","","","","","","","","","","","",""
"","do_travel","51","302800","0.0-37.0-1.0","null","","","","null","","","","","","","","","","","","","","","","",""
"","do_welcome","52","304307","0.0-37.0-2.0","null","","","","null","","","","","","","","","","","","","","","","",""
"","do_trial","53","310319","0.0-37.0-3.0","null","","","","null","1,0,0","","","","","","","","","","","","","","","",""
"","do_bye","54","311827","0.0-38.0-0.0","null","","","","null","","","","","","","","","","","","","","","","",""
"","do_travel","55","317830","0.0-38.0-1.0","null","","","","null","","","","","","","","","","","","","","","","",""
"","do_welcome","56","319340","0.0-38.0-2.0","null","","","","null","","","","","","","","","","","","","","","","",""
"","do_trial","57","324706","0.0-38.0-3.0","851.5999999977648","","","","50","1,0,0","","","","","","","","","","","","","","","",""
"","html-keyboard-response","58","325708","0.0-39.0-0.0","null","<p></p>","null","","","","","","","","","","","","","","","","","","",""
"","do_trial","59","331807","0.0-39.0-1.0","1586.9000000022352","","","","51","1,0,1","","","","","","","","","","","","","","","",""
"","html-keyboard-response","60","332809","0.0-40.0-0.0","null","<p></p>","null","","","","","","","","","","","","","","","","","","",""
"","do_trial","61","338582","0.0-40.0-1.0","1261.1000000014901","","","","49","1,1,0","","","","","","","","","","","","","","","",""
"","html-keyboard-response","62","339585","0.0-41.0-0.0","null","<p></p>","null","","","","","","","","","","","","","","","","","","",""
"","do_trial","63","344890","0.0-41.0-1.0","790.3000000007451","","","","50","0,0,1","","","","","","","","","","","","","","","",""
"","html-keyboard-response","64","345892","0.0-42.0-0.0","null","<p></p>","null","","","","","","","","","","","","","","","","","","",""
"","do_trial","65","351454","0.0-42.0-1.0","1051.1000000014901","","","","51","1,0,1","","","","","","","","","","","","","","","",""
"","html-keyboard-response","66","354973","0.0-43.0-0.0","3515.300000000745","<div class='center'><p><img src='run_exp/static/images/tutorial/prac_best_pirate.png'  height='500'></p></div>","49","","","","","","","","","","","","","","","","","","",""
"","html-keyboard-response","67","357973","0.0-44.0-0.0","2997.89999999851","<div class='center'><p>That's correct! Red beard was the best.</p><p><b>[Press the space bar to continue]</b></p></div>","32","","","","","","","","","","","","","","","","","","",""
"","html-keyboard-response","68","362081","0.0-44.0-1.0","4106.300000000745","<div class='center'><p><img src='run_exp/static/images/tutorial/prac_source.png'  height='500'></p></div>","50","","","","","","","","","","","","","","","","","","",""
"","html-keyboard-response","69","364148","0.0-45.0-0.0","2064.60000000149","<div class='center'><p>That's correct! You saw this ship on the cavern island.</p><p><b>[Press the space bar to continue]</b></p></div>","32","","","","","","","","","","","","","","","","","","",""
"","html-keyboard-response","70","371940","0.0-45.0-1.0","7786.5","<div class='center'><p>Good job on the practice game! Now, you will be asked you some true or false questions to make sure you really understand the rules of the game.</p><p> Press <b>'1'</b> on the keyboard for true and press <b>'2'</b> for false.</p><p><b>[Press the space bar to begin the quiz]</b></p></div>","32","","","","","","","","","","","","","","","","","","",""
"","html-keyboard-response","71","376415","0.0-45.0-2.0","4473.099999997765","<div class='center'><p>You win bonus money by making choices as fast as possible.</p><p>Press 1 for true and press  2 for false.</p></div>","50","","","","","","","","","","","","","","","","","","",""
"","html-keyboard-response","72","377618","0.0-46.0-0.0","1200.3999999985099","<div class='center'><p>That's correct!</p> <p><b>[press the space bar to continue with the quiz]</b></p></div>","32","","","","","","","","","","","","","","","","","","",""
"","html-keyboard-response","73","383551","0.0-46.0-1.0","5932.199999999255","<div class='center'><p>You press the <b>‘3’</b> button on the keyboard to choose the red bearded pirate. </p><p>Press 1 for true and press  2 for false.</p></div>","50","","","","","","","","","","","","","","","","","","",""
"","html-keyboard-response","74","384639","0.0-47.0-0.0","1085.6000000014901","<div class='center'><p>That's correct!</p> <p><b>[press the space bar to continue with the quiz]</b></p></div>","32","","","","","","","","","","","","","","","","","","",""
"","html-keyboard-response","75","388950","0.0-47.0-1.0","4309.699999999255","<div class='center'><p>The pirate who is the best at robbing ships on the first island will be the best on every other island.</p><p>Press 1 for true and press  2 for false.</p></div>","50","","","","","","","","","","","","","","","","","","",""
"","html-keyboard-response","76","389924","0.0-48.0-0.0","971.8000000007451","<div class='center'><p>That's correct!</p> <p><b>[press the space bar to continue with the quiz]</b></p></div>","32","","","","","","","","","","","","","","","","","","",""
"","html-keyboard-response","77","393223","0.0-48.0-1.0","3297.5","<div class='center'><p>You should remember the island where a pirate robbed a ship.</p><p>Press 1 for true and press  2 for false.</p></div>","49","","","","","","","","","","","","","","","","","","",""
"","html-keyboard-response","78","394193","0.0-49.0-0.0","954.6999999992549","<div class='center'><p>That's correct!</p> <p><b>[press the space bar to continue with the quiz]</b></p></div>","32","","","","","","","","","","","","","","","","","","",""
"","html-keyboard-response","79","396013","0.0-50.0-0.0","1818.699999999255","<div class='center'><p>Good job! You’re now ready to move on to the real game!</p> <p><br>[press the space bar to begin!]</br></p></div>","32","","","","","","","","","","","","","","","","","","",""
"","do_welcome","80","397523","0.0-51.0-0.0","null","","","","null","","","","","","","","","","","","","","","","",""
"","do_trial","81","403577","0.0-52.0-0.0","null","","","","null","0,0,0","0","highway","0","probe-101","0.6","0.3","0.1","","","","","","","","",""
"","html-keyboard-response","82","404581","0.0-52.0-1.0","null","<p></p>","null","","","","","","","","","","","","","","","","","","",""
"","do_trial","83","409642","0.0-53.0-0.0","492.30000000074506","","","","49","1,0,1","0","highway","1","probe-191","0.6120816637231355","0.2458645479314774","0.16807378705286588","1","","","","","","","",""
"","html-keyboard-response","84","410645","0.0-53.0-1.0","null","<p></p>","null","","","","","","","","","","","","","","","","","","",""
"","do_trial","85","416543","0.0-54.0-0.0","1324.199999999255","","","","50","0,0,1","0","highway","2","probe-124","0.5152942846907957","0.2764225320374271","0.05418773131993948","0","","","","","","","",""
"","html-keyboard-response","86","417546","0.0-54.0-1.0","null","<p></p>","null","","","","","","","","","","","","","","","","","","",""
"","do_trial","87","423651","0.0-55.0-0.0","1530.8999999985099","","","","51","1,0,0","0","highway","3","probe-62","0.6505706933451748","0.16577205712942217","0.17394475203252455","0","","","","","","","",""
"","html-keyboard-response","88","424655","0.0-55.0-1.0","null","<p></p>","null","","","","","","","","","","","","","","","","","","",""
"","do_trial","89","429823","0.0-56.0-0.0","600.5","","","","49","0,0,0","0","highway","4","probe-144","0.7551584604494154","0.0954327585399067","0.10794712326616339","0","","","","","","","",""
"","html-keyboard-response","90","430826","0.0-56.0-1.0","null","<p></p>","null","","","","","","","","","","","","","","","","","","",""
"","do_trial","91","436464","0.0-57.0-0.0","1065.1000000014901","","","","50","1,0,0","0","highway","5","probe-40","0.6574550041675642","0.11041604691730966","0.05475515165832949","0","","","","","","","",""
"","html-keyboard-response","92","437467","0.0-57.0-1.0","null","<p></p>","null","","","","","","","","","","","","","","","","","","",""
"","do_trial","93","443042","0.0-58.0-0.0","1009.2999999970198","","","","51","1,0,0","0","highway","6","probe-227","0.6645056926892201","0.15567333379434112","0.06649869592349072","0","","","","","","","",""
"","html-keyboard-response","94","444045","0.0-58.0-1.0","null","<p></p>","null","","","","","","","","","","","","","","","","","","",""
"","do_trial","95","449845","0.0-59.0-0.0","1245.8999999985099","","","","51","1,1,0","0","highway","7","probe-49","0.6819092582719481","0.1738583121390406","0.07977697714096103","0","","","","","","","",""
"","html-keyboard-response","96","450848","0.0-59.0-1.0","null","<p></p>","null","","","","","","","","","","","","","","","","","","",""
"","do_trial","97","456268","0.0-60.0-0.0","853.4000000022352","","","","50","1,0,1","0","highway","8","probe-156","0.5893498029135353","0.1943856919611045","0.11188762091213006","0","","","","","","","",""
"","html-keyboard-response","98","457271","0.0-60.0-1.0","null","<p></p>","null","","","","","","","","","","","","","","","","","","",""
"","do_trial","99","462432","0.0-61.0-0.0","585.5999999977648","","","","49","1,0,0","0","highway","9","probe-197","0.6274067342110958","0.27678322567776925","0.18688934770599475","1","","","","","","","",""
"","html-keyboard-response","100","463435","0.0-61.0-1.0","null","<p></p>","null","","","","","","","","","","","","","","","","","","",""
"","do_trial","101","469071","0.0-62.0-0.0","1063.199999999255","","","","49","1,0,0","0","highway","10","probe-133","0.6215544638717057","0.26449977998584806","0.18816103324982922","1","","","","","","","",""
"","html-keyboard-response","102","470073","0.0-62.0-1.0","null","<p></p>","null","","","","","","","","","","","","","","","","","","",""
"","do_trial","103","475622","0.0-63.0-0.0","982.1000000014901","","","","51","1,0,0","0","highway","11","probe-174","0.73883671050568","0.25787578449856435","0.09708372181974478","0","","","","","","","",""
"","html-keyboard-response","104","476625","0.0-63.0-1.0","null","<p></p>","null","","","","","","","","","","","","","","","","","","",""
"","do_trial","105","482266","0.0-64.0-0.0","1071.300000000745","","","","51","0,0,0","0","highway","12","probe-30","0.7566070064702028","0.36649707175386453","0.08587583645253785","0","","","","","","","",""
"","html-keyboard-response","106","483270","0.0-64.0-1.0","null","<p></p>","null","","","","","","","","","","","","","","","","","","",""
"","do_trial","107","488936","0.0-65.0-0.0","1091.800000000745","","","","50","1,1,0","0","highway","13","probe-162","0.6708120220416163","0.37116271438977755","0.14081235284830013","1","","","","","","","",""
"","html-keyboard-response","108","489939","0.0-65.0-1.0","null","<p></p>","null","","","","","","","","","","","","","","","","","","",""
"","do_trial","109","495230","0.0-66.0-0.0","726.6000000014901","","","","50","0,0,0","0","highway","14","probe-20","0.6177027700309732","0.35110929161797005","0.28030031335045236","0","","","","","","","",""
"","html-keyboard-response","110","496234","0.0-66.0-1.0","null","<p></p>","null","","","","","","","","","","","","","","","","","","",""
"","do_trial","111","501355","0.0-67.0-0.0","547.3000000007451","","","","49","1,0,0","0","highway","15","probe-142","0.7319571708067427","0.37094642517622617","0.2998569507951199","1","","","","","","","",""
"","html-keyboard-response","112","502359","0.0-67.0-1.0","null","<p></p>","null","","","","","","","","","","","","","","","","","","",""
"","do_trial","113","507944","0.0-68.0-0.0","1021.7999999970198","","","","49","0,1,1","0","highway","16","probe-171","0.6853037094798148","0.2696829789775136","0.13465841356009328","0","","","","","","","",""
"","html-keyboard-response","114","508948","0.0-68.0-1.0","null","<p></p>","null","","","","","","","","","","","","","","","","","","",""
"","do_trial","115","514149","0.0-69.0-0.0","623.6999999992549","","","","49","1,0,0","0","highway","17","probe-128","0.5639004755173767","0.302903817602283","0.060759862277894226","1","","","","","","","",""
"","html-keyboard-response","116","515153","0.0-69.0-1.0","null","<p></p>","null","","","","","","","","","","","","","","","","","","",""
"","do_trial","117","520926","0.0-70.0-0.0","1216.8999999985099","","","","50","1,0,0","0","highway","18","probe-38","0.5690852421194221","0.26588907428890407","0.08552139171219579","0","","","","","","","",""
"","html-keyboard-response","118","521928","0.0-70.0-1.0","null","<p></p>","null","","","","","","","","","","","","","","","","","","",""
"","do_trial","119","527126","0.0-71.0-0.0","638.2999999970198","","","","50","0,1,0","0","highway","19","probe-90","0.5689590257794305","0.3697986537796852","0.0975595978394958","1","","","","","","","",""
"","html-keyboard-response","120","528130","0.0-71.0-1.0","null","<p></p>","null","","","","","","","","","","","","","","","","","","",""
"","do_trial","121","533419","0.0-72.0-0.0","730.8000000007451","","","","50","1,0,0","0","highway","20","probe-167","0.49402067911158165","0.39183017400257464","0.2080219180017128","0","","","","","","","",""
"","html-keyboard-response","122","534422","0.0-72.0-1.0","null","<p></p>","null","","","","","","","","","","","","","","","","","","",""
"","do_trial","123","539763","0.0-73.0-0.0","772.5","","","","51","1,0,0","0","highway","21","probe-67","0.7124688398627242","0.12314227608859557","0.080037566508285","0","","","","","","","",""
"","html-keyboard-response","124","540766","0.0-73.0-1.0","null","<p></p>","null","","","","","","","","","","","","","","","","","","",""
"","do_trial","125","545866","0.0-74.0-0.0","533.6000000014901","","","","51","0,0,1","0","highway","22","probe-178","0.6275408908247492","0.220128979389653","0.17282563584507787","1","","","","","","","",""
"","html-keyboard-response","126","546869","0.0-74.0-1.0","null","<p></p>","null","","","","","","","","","","","","","","","","","","",""
"","do_trial","127","552437","0.0-75.0-0.0","996.1000000014901","","","","51","1,1,0","0","highway","23","probe-132","0.5622368191651467","0.29807921515457925","0.2289640310250769","0","","","","","","","",""
"","html-keyboard-response","128","553440","0.0-75.0-1.0","null","<p></p>","null","","","","","","","","","","","","","","","","","","",""
"","do_trial","129","558496","0.0-76.0-0.0","493.6000000014901","","","","51","0,0,1","0","highway","24","probe-199","0.7102106095313129","0.2455369130010755","0.11154267490203536","1","","","","","","","",""
"","html-keyboard-response","130","559499","0.0-76.0-1.0","null","<p></p>","null","","","","","","","","","","","","","","","","","","",""
"","do_trial","131","564538","0.0-77.0-0.0","489.9000000022352","","","","49","1,0,0","0","highway","25","probe-198","0.6319694163113764","0.25477705796038774","0.32633048732437203","1","","","","","","","",""
"","html-keyboard-response","132","565541","0.0-77.0-1.0","null","<p></p>","null","","","","","","","","","","","","","","","","","","",""
"","do_trial","133","571263","0.0-78.0-0.0","1159","","","","49","1,0,0","0","highway","26","probe-64","0.5643036618056416","0.43360446352916976","0.3434681275320963","1","","","","","","","",""
"","html-keyboard-response","134","572267","0.0-78.0-1.0","null","<p></p>","null","","","","","","","","","","","","","","","","","","",""
"","do_trial","135","577407","0.0-79.0-0.0","562.8000000007451","","","","50","1,1,0","0","highway","27","probe-201","0.5345009103956533","0.45030157124241416","0.2906900627501611","1","","","","","","","",""
"","html-keyboard-response","136","578410","0.0-79.0-1.0","null","<p></p>","null","","","","","","","","","","","","","","","","","","",""
"","do_trial","137","583664","0.0-80.0-0.0","674.5","","","","50","1,1,0","0","highway","28","probe-176","0.5776211455755539","0.27911565419841816","0.09034022394128582","1","","","","","","","",""
"","html-keyboard-response","138","584667","0.0-80.0-1.0","null","<p></p>","null","","","","","","","","","","","","","","","","","","",""
"","do_trial","139","589910","0.0-81.0-0.0","672.2000000029802","","","","50","0,1,0","0","highway","29","probe-14","0.3530972155646782","0.2132439397304336","0.12297947677661426","1","","","","","","","",""
"","html-keyboard-response","140","590914","0.0-81.0-1.0","null","<p></p>","null","","","","","","","","","","","","","","","","","","",""
"","do_bye","141","592420","0.0-82.0-0.0","null","","","","null","","","","","","","","","","","","","","","","",""
"","do_travel","142","598425","0.0-83.0-0.0","null","","","","null","","","","","","","","","","","","","","","","",""
"","do_welcome","143","599935","0.0-83.0-1.0","null","","","","null","","","","","","","","","","","","","","","","",""
"","do_trial","144","605986","0.0-84.0-0.0","null","","","","null","1,0,0","1","coast","30","probe-181","1","0.304065503694309","0.07558898160600254","","","","","","","","",""
"","html-keyboard-response","145","606989","0.0-84.0-1.0","null","<p></p>","null","","","","","","","","","","","","","","","","","","",""
"","do_trial","146","612402","0.0-85.0-0.0","834.8000000007451","","","","50","1,0,0","1","coast","31","probe-186","1","0.38605132935996067","0.11120135977627542","0","","","","","","","",""
"","html-keyboard-response","147","613405","0.0-85.0-1.0","null","<p></p>","null","","","","","","","","","","","","","","","","","","",""
"","do_trial","148","618590","0.0-86.0-0.0","612.8000000007451","","","","50","1,1,0","1","coast","32","probe-229","1","0.2738331785912928","0.16746551876604407","1","","","","","","","",""
"","html-keyboard-response","149","619592","0.0-86.0-1.0","null","<p></p>","null","","","","","","","","","","","","","","","","","","",""
"","do_trial","150","624797","0.0-87.0-0.0","619.4000000022352","","","","50","1,1,0","1","coast","33","probe-28","0.8725042489896532","0.34690336276230066","0.1437006816032129","1","","","","","","","",""
"","html-keyboard-response","151","625800","0.0-87.0-1.0","null","<p></p>","null","","","","","","","","","","","","","","","","","","",""
"","do_trial","152","631076","0.0-88.0-0.0","706.1999999992549","","","","50","0,0,0","1","coast","34","probe-95","0.8314383298340593","0.3522669430604947","0.14017327530807966","0","","","","","","","",""
"","html-keyboard-response","153","632077","0.0-88.0-1.0","null","<p></p>","null","","","","","","","","","","","","","","","","","","",""
"","do_trial","154","637297","0.0-89.0-0.0","654.5","","","","51","1,1,0","1","coast","35","probe-26","0.8142744601882146","0.43980389047651697","0.13856055359768965","0","","","","","","","",""
"","html-keyboard-response","155","638300","0.0-89.0-1.0","null","<p></p>","null","","","","","","","","","","","","","","","","","","",""
"","do_trial","156","643723","0.0-90.0-0.0","865.6999999992549","","","","51","1,1,0","1","coast","36","probe-86","0.745046783011601","0.3147572535455549","0.07345434150434633","0","","","","","","","",""
"","html-keyboard-response","157","644727","0.0-90.0-1.0","null","<p></p>","null","","","","","","","","","","","","","","","","","","",""
"","do_trial","158","649962","0.0-91.0-0.0","641.7000000029802","","","","51","1,0,0","1","coast","37","probe-34","0.7547776208880338","0.39384083915357193","0.1290614590248613","0","","","","","","","",""
"","html-keyboard-response","159","650965","0.0-91.0-1.0","null","<p></p>","null","","","","","","","","","","","","","","","","","","",""
"","do_trial","160","656107","0.0-92.0-0.0","569.0999999977648","","","","51","1,0,0","1","coast","38","probe-74","0.504087902900404","0.3601323566564193","0.16810226481809729","0","","","","","","","",""
"","html-keyboard-response","161","657111","0.0-92.0-1.0","null","<p></p>","null","","","","","","","","","","","","","","","","","","",""
"","do_trial","162","662514","0.0-93.0-0.0","846.8999999985099","","","","51","1,1,0","1","coast","39","probe-110","0.7148382499447478","0.2687354422454035","0.08020735727051882","0","","","","","","","",""
"","html-keyboard-response","163","663517","0.0-93.0-1.0","null","<p></p>","null","","","","","","","","","","","","","","","","","","",""
"","do_trial","164","669119","0.0-94.0-0.0","1037","","","","49","0,0,0","1","coast","40","probe-88","0.7683258125179273","0.0656677335852316","0.13157524929586678","0","","","","","","","",""
"","html-keyboard-response","165","670122","0.0-94.0-1.0","null","<p></p>","null","","","","","","","","","","","","","","","","","","",""
"","do_trial","166","675188","0.0-95.0-0.0","504.30000000074506","","","","49","1,0,0","1","coast","41","probe-53","0.7472448234306652","0.10863666872132477","0.13131335278828446","1","","","","","","","",""
"","html-keyboard-response","167","676192","0.0-95.0-1.0","null","<p></p>","null","","","","","","","","","","","","","","","","","","",""
"","do_trial","168","682415","0.0-96.0-0.0","1658","","","","49","1,0,0","1","coast","42","probe-120","0.4420682507308812","0.06254097308378694","0.28940770942391836","1","","","","","","","",""
"","html-keyboard-response","169","683418","0.0-96.0-1.0","null","<p></p>","null","","","","","","","","","","","","","","","","","","",""
"","do_trial","170","689134","0.0-97.0-0.0","1156.9000000022352","","","","49","0,0,1","1","coast","43","probe-146","0.331813401483612","0.1324993106632633","0.4533692056329439","0","","","","","","","",""
"","html-keyboard-response","171","690137","0.0-97.0-1.0","null","<p></p>","null","","","","","","","","","","","","","","","","","","",""
"","do_trial","172","695183","0.0-98.0-0.0","466.5999999977648","","","","49","0,1,1","1","coast","44","probe-114","0.4345854105357944","0.18716810829948913","0.5543638248380498","0","","","","","","","",""
"","html-keyboard-response","173","696186","0.0-98.0-1.0","null","<p></p>","null","","","","","","","","","","","","","","","","","","",""
"","do_trial","174","701373","0.0-99.0-0.0","617.7000000029802","","","","49","1,0,0","1","coast","45","probe-155","0.41518611802911437","0.07275580048192165","0.5078187458532507","1","","","","","","","",""
"","html-keyboard-response","175","702378","0.0-99.0-1.0","null","<p></p>","null","","","","","","","","","","","","","","","","","","",""
"","do_trial","176","707660","0.0-100.0-0.0","721.3999999985099","","","","49","0,0,0","1","coast","46","probe-153","0.3577040171864151","0.08720988623218728","0.40137531636121154","0","","","","","","","",""
"","html-keyboard-response","177","708663","0.0-100.0-1.0","null","<p></p>","null","","","","","","","","","","","","","","","","","","",""
"","do_trial","178","713674","0.0-101.0-0.0","440.5","","","","50","0,0,1","1","coast","47","probe-213","0.4620212189460915","0.05682027692187214","0.41687688796169164","0","","","","","","","",""
"","html-keyboard-response","179","714677","0.0-101.0-1.0","null","<p></p>","null","","","","","","","","","","","","","","","","","","",""
"","do_trial","180","719827","0.0-102.0-0.0","577.7999999970198","","","","50","0,0,1","1","coast","48","probe-189","0.34201136208763366","0.05072514090397036","0.46711384502866965","0","","","","","","","",""
"","html-keyboard-response","181","720829","0.0-102.0-1.0","null","<p></p>","null","","","","","","","","","","","","","","","","","","",""
"","do_trial","182","726890","0.0-103.0-0.0","1479.800000000745","","","","50","0,0,1","1","coast","49","probe-33","0.36279507476882555","0.11032075485159756","0.4807999577231726","0","","","","","","","",""
"","html-keyboard-response","183","727894","0.0-103.0-1.0","null","<p></p>","null","","","","","","","","","","","","","","","","","","",""
"","do_trial","184","733058","0.0-104.0-0.0","595.5","","","","50","0,0,0","1","coast","50","probe-63","0.4390598227152499","0.10628966247506251","0.5707512329463326","0","","","","","","","",""
"","html-keyboard-response","185","734061","0.0-104.0-1.0","null","<p></p>","null","","","","","","","","","","","","","","","","","","",""
"","do_trial","186","739794","0.0-105.0-0.0","1156.800000000745","","","","51","1,0,0","1","coast","51","probe-220","0.3977880263756577","0.06348669544543073","0.6436388988403893","0","","","","","","","",""
"","html-keyboard-response","187","740797","0.0-105.0-1.0","null","<p></p>","null","","","","","","","","","","","","","","","","","","",""
"","do_trial","188","745993","0.0-106.0-0.0","631.1000000014901","","","","51","0,0,0","1","coast","52","probe-212","0.24645106587497226","0.050326804154416094","0.5569154483418167","0","","","","","","","",""
"","html-keyboard-response","189","746995","0.0-106.0-1.0","null","<p></p>","null","","","","","","","","","","","","","","","","","","",""
"","do_trial","190","752619","0.0-107.0-0.0","1049.699999999255","","","","51","0,0,1","1","coast","53","probe-42","0.3272307910549887","0.10281635056927162","0.5665189382897918","1","","","","","","","",""
"","html-keyboard-response","191","753622","0.0-107.0-1.0","null","<p></p>","null","","","","","","","","","","","","","","","","","","",""
"","do_trial","192","760309","0.0-108.0-0.0","2129.900000002235","","","","51","1,0,1","1","coast","54","probe-149","0.29969321386304476","0.06025429049717964","0.5021853002102901","1","","","","","","","",""
"","html-keyboard-response","193","761313","0.0-108.0-1.0","null","<p></p>","null","","","","","","","","","","","","","","","","","","",""
"","do_trial","194","766635","0.0-109.0-0.0","760.8000000007451","","","","51","0,0,1","1","coast","55","probe-76","0.2377090974488715","0.13844499683467543","0.5606573859676247","1","","","","","","","",""
"","html-keyboard-response","195","767639","0.0-109.0-1.0","null","<p></p>","null","","","","","","","","","","","","","","","","","","",""
"","do_trial","196","772808","0.0-110.0-0.0","598.6999999992549","","","","51","0,0,0","1","coast","56","probe-219","0.17322286097524006","0.07207246783829556","0.5450353153628922","0","","","","","","","",""
"","html-keyboard-response","197","773811","0.0-110.0-1.0","null","<p></p>","null","","","","","","","","","","","","","","","","","","",""
"","do_trial","198","779687","0.0-111.0-0.0","1317.7999999970198","","","","51","0,0,0","1","coast","57","probe-117","0.19398766835192774","0.08468452937829019","0.600768488501978","0","","","","","","","",""
"","html-keyboard-response","199","780691","0.0-111.0-1.0","null","<p></p>","null","","","","","","","","","","","","","","","","","","",""
"","do_trial","200","785738","0.0-112.0-0.0","478.30000000074506","","","","50","0,0,0","1","coast","58","probe-151","0.11002244540078206","0.17971606129843537","0.6061142476519796","0","","","","","","","",""
"","html-keyboard-response","201","786742","0.0-112.0-1.0","null","<p></p>","null","","","","","","","","","","","","","","","","","","",""
"","do_trial","202","792635","0.0-113.0-0.0","1337.699999999255","","","","50","0,0,1","1","coast","59","probe-27","0.060235177774357586","0.12015177623964711","0.6100789995145535","0","","","","","","","",""
"","html-keyboard-response","203","793639","0.0-113.0-1.0","null","<p></p>","null","","","","","","","","","","","","","","","","","","",""
"","do_trial","204","798732","0.0-114.0-0.0","534.8000000007451","","","","50","0,0,1","1","coast","60","probe-01","0.14573809990366834","0.17326716542056617","0.5727596894291144","0","","","","","","","",""
"","html-keyboard-response","205","799736","0.0-114.0-1.0","null","<p></p>","null","","","","","","","","","","","","","","","","","","",""
"","do_trial","206","804683","0.0-115.0-0.0","372.30000000074506","","","","50","0,0,1","1","coast","61","probe-159","0.21990133905193557","0.09305745224520408","0.5961403022971075","0","","","","","","","",""
"","html-keyboard-response","207","805685","0.0-115.0-1.0","null","<p></p>","null","","","","","","","","","","","","","","","","","","",""
"","do_trial","208","810756","0.0-116.0-0.0","519.5999999977648","","","","50","0,1,1","1","coast","62","probe-89","0.2416799955969303","0.08408828137152456","0.6093269946966727","1","","","","","","","",""
"","html-keyboard-response","209","811760","0.0-116.0-1.0","null","<p></p>","null","","","","","","","","","","","","","","","","","","",""
"","do_trial","210","818004","0.0-117.0-0.0","1677.800000000745","","","","50","0,0,1","1","coast","63","probe-230","0.24472277279829713","0.09973697406534697","0.6578716447979265","0","","","","","","","",""
"","html-keyboard-response","211","819007","0.0-117.0-1.0","null","<p></p>","null","","","","","","","","","","","","","","","","","","",""
"","do_trial","212","824357","0.0-118.0-0.0","798.1000000014901","","","","50","1,1,1","1","coast","64","probe-96","0.3442712916947479","0.10052298165854576","0.6386718352916159","1","","","","","","","",""
"","html-keyboard-response","213","825360","0.0-118.0-1.0","null","<p></p>","null","","","","","","","","","","","","","","","","","","",""
"","do_trial","214","831196","0.0-119.0-0.0","1259","","","","50","0,0,1","1","coast","65","probe-12","0.2403403809805162","0.0644427326495093","0.6815636723686385","0","","","","","","","",""
"","html-keyboard-response","215","832199","0.0-119.0-1.0","null","<p></p>","null","","","","","","","","","","","","","","","","","","",""
"","do_trial","216","837927","0.0-120.0-0.0","1168.5","","","","49","1,0,0","1","coast","66","probe-43","0.2964556927887995","0.10451633177598849","0.48679935913585587","1","","","","","","","",""
"","html-keyboard-response","217","838931","0.0-120.0-1.0","null","<p></p>","null","","","","","","","","","","","","","","","","","","",""
"","do_trial","218","844337","0.0-121.0-0.0","849.3999999985099","","","","49","1,0,1","1","coast","67","probe-206","0.286498160142863","0.07030702304008718","0.5686333535019602","1","","","","","","","",""
"","html-keyboard-response","219","845340","0.0-121.0-1.0","null","<p></p>","null","","","","","","","","","","","","","","","","","","",""
"","do_trial","220","851174","0.0-122.0-0.0","1259.8999999985099","","","","49","0,0,0","1","coast","68","probe-66","0.15366863729303318","0.16451149334805926","0.5968662072856163","0","","","","","","","",""
"","html-keyboard-response","221","852176","0.0-122.0-1.0","null","<p></p>","null","","","","","","","","","","","","","","","","","","",""
"","do_trial","222","858588","0.0-123.0-0.0","1815.2000000029802","","","","49","0,0,0","1","coast","69","probe-58","0.2831687471331218","0.2124883072280375","0.5303006033911538","0","","","","","","","",""
"","html-keyboard-response","223","859591","0.0-123.0-1.0","null","<p></p>","null","","","","","","","","","","","","","","","","","","",""
"","do_bye","224","861103","0.0-124.0-0.0","null","","","","null","","","","","","","","","","","","","","","","",""
"","do_travel","225","867106","0.0-125.0-0.0","null","","","","null","","","","","","","","","","","","","","","","",""
"","do_welcome","226","868616","0.0-125.0-1.0","null","","","","null","","","","","","","","","","","","","","","","",""
"","do_trial","227","874689","0.0-126.0-0.0","null","","","","null","1,0,1","2","countryside","70","probe-50","0.24577008984238785","0.15394986634307556","1","","","","","","","","",""
"","html-keyboard-response","228","875692","0.0-126.0-1.0","null","<p></p>","null","","","","","","","","","","","","","","","","","","",""
"","do_trial","229","880798","0.0-127.0-0.0","548","","","","51","0,0,1","2","countryside","71","probe-06","0.21007354324488664","0.083971340881047","1","1","","","","","","","",""
"","html-keyboard-response","230","881802","0.0-127.0-1.0","null","<p></p>","null","","","","","","","","","","","","","","","","","","",""
"","do_trial","231","887025","0.0-128.0-0.0","660.5","","","","51","0,0,1","2","countryside","72","probe-139","0.15457596077474633","0.18070507631336413","0.7759987680594109","1","","","","","","","",""
"","html-keyboard-response","232","888029","0.0-128.0-1.0","null","<p></p>","null","","","","","","","","","","","","","","","","","","",""
"","do_trial","233","893285","0.0-129.0-0.0","651.5","","","","51","1,0,0","2","countryside","73","probe-44","0.25296574821984585","0.22221023010660165","0.8074080694147984","0","","","","","","","",""
"","html-keyboard-response","234","894289","0.0-129.0-1.0","null","<p></p>","null","","","","","","","","","","","","","","","","","","",""
"","do_trial","235","899601","0.0-130.0-0.0","752.5","","","","50","1,0,1","2","countryside","74","probe-148","0.31278503492416443","0.09686371052304424","0.6509563561982418","0","","","","","","","",""
"","html-keyboard-response","236","900604","0.0-130.0-1.0","null","<p></p>","null","","","","","","","","","","","","","","","","","","",""
"","do_trial","237","905525","0.0-131.0-0.0","352.3999999985099","","","","50","0,0,0","2","countryside","75","probe-187","0.32040914792800324","0.17490631520307304","0.5965549953690419","0","","","","","","","",""
"","html-keyboard-response","238","906529","0.0-131.0-1.0","null","<p></p>","null","","","","","","","","","","","","","","","","","","",""
"","do_trial","239","911530","0.0-132.0-0.0","422.30000000074506","","","","49","1,0,1","2","countryside","76","probe-19","0.28439224339999003","0.05307294326958788","0.5763661326029986","1","","","","","","","",""
"","html-keyboard-response","240","912534","0.0-132.0-1.0","null","<p></p>","null","","","","","","","","","","","","","","","","","","",""
"","do_trial","241","917676","0.0-133.0-0.0","551.1999999992549","","","","49","1,0,0","2","countryside","77","probe-180","0.260625147580867","0.05148303541218951","0.5092424410717074","1","","","","","","","",""
"","html-keyboard-response","242","918680","0.0-133.0-1.0","null","<p></p>","null","","","","","","","","","","","","","","","","","","",""
"","do_trial","243","923651","0.0-134.0-0.0","413","","","","49","0,0,1","2","countryside","78","probe-81","0.36725179793013263","0.1309039498507346","0.5085113751819067","0","","","","","","","",""
"","html-keyboard-response","244","924653","0.0-134.0-1.0","null","<p></p>","null","","","","","","","","","","","","","","","","","","",""
"","do_trial","245","929634","0.0-135.0-0.0","416.6000000014901","","","","49","0,0,1","2","countryside","79","probe-130","0.3103353354246399","0.08078827184654502","0.5385071362168283","0","","","","","","","",""
"","html-keyboard-response","246","930637","0.0-135.0-1.0","null","<p></p>","null","","","","","","","","","","","","","","","","","","",""
"","do_trial","247","935755","0.0-136.0-0.0","559.6000000014901","","","","50","0,0,1","2","countryside","80","probe-190","0.2463223100062543","0.15703095774340567","0.4416678832434699","0","","","","","","","",""
"","html-keyboard-response","248","936757","0.0-136.0-1.0","null","<p></p>","null","","","","","","","","","","","","","","","","","","",""
"","do_trial","249","941782","0.0-137.0-0.0","439","","","","50","1,0,0","2","countryside","81","probe-24","0.4148663861675608","0.21241721169710878","0.4194642672602726","0","","","","","","","",""
"","html-keyboard-response","250","942785","0.0-137.0-1.0","null","<p></p>","null","","","","","","","","","","","","","","","","","","",""
"","do_trial","251","947879","0.0-138.0-0.0","511","","","","50","0,0,1","2","countryside","82","probe-214","0.44533449631297367","0.2842348727366743","0.3984884405095335","0","","","","","","","",""
"","html-keyboard-response","252","948882","0.0-138.0-1.0","null","<p></p>","null","","","","","","","","","","","","","","","","","","",""
"","do_trial","253","954334","0.0-139.0-0.0","895.6999999992549","","","","50","1,1,0","2","countryside","83","probe-138","0.6760044727275053","0.266817637269654","0.4405102391412596","1","","","","","","","",""
"","html-keyboard-response","254","955336","0.0-139.0-1.0","null","<p></p>","null","","","","","","","","","","","","","","","","","","",""
"","do_trial","255","960695","0.0-140.0-0.0","799.5","","","","51","1,0,0","2","countryside","84","probe-223","0.7108299194693808","0.19010900745148845","0.30541027944209315","0","","","","","","","",""
"","html-keyboard-response","256","961699","0.0-140.0-1.0","null","<p></p>","null","","","","","","","","","","","","","","","","","","",""
"","do_trial","257","966990","0.0-141.0-0.0","725.3000000007451","","","","51","0,0,0","2","countryside","85","probe-60","0.6277436569094418","0.2768915967149716","0.21097812032065164","0","","","","","","","",""
"","html-keyboard-response","258","967993","0.0-141.0-1.0","null","<p></p>","null","","","","","","","","","","","","","","","","","","",""
"","do_trial","259","973204","0.0-142.0-0.0","643.0999999977648","","","","49","1,1,1","2","countryside","86","probe-193","0.6565721822474396","0.3666489541526325","0.3012517912440086","1","","","","","","","",""
"","html-keyboard-response","260","974208","0.0-142.0-1.0","null","<p></p>","null","","","","","","","","","","","","","","","","","","",""
"","do_trial","261","979398","0.0-143.0-0.0","631.1999999992549","","","","49","1,0,0","2","countryside","87","probe-113","0.7290248874984895","0.11856284479226059","0.3004624591401499","1","","","","","","","",""
"","html-keyboard-response","262","980407","0.0-143.0-1.0","null","<p></p>","null","","","","","","","","","","","","","","","","","","",""
"","do_trial","263","986464","0.0-144.0-0.0","null","","","","null","1,0,1","2","countryside","88","probe-123","0.7217390563972234","0.28734668031438076","0.18678112393391672","","","","","","","","",""
"","html-keyboard-response","264","987467","0.0-144.0-1.0","null","<p></p>","null","","","","","","","","","","","","","","","","","","",""
"","do_trial","265","992487","0.0-145.0-0.0","461.9000000022352","","","","49","0,0,0","2","countryside","89","probe-115","0.8390401531808747","0.2978467341357492","0.15249754761802245","0","","","","","","","",""
"","html-keyboard-response","266","993490","0.0-145.0-1.0","null","<p></p>","null","","","","","","","","","","","","","","","","","","",""
"","do_trial","267","999553","0.0-146.0-0.0","null","","","","null","0,1,0","2","countryside","90","probe-150","0.7448824580163546","0.24775748026712965","0.24124222823315505","","","","","","","","",""
"","html-keyboard-response","268","1000556","0.0-146.0-1.0","null","<p></p>","null","","","","","","","","","","","","","","","","","","",""
"","do_trial","269","1005539","0.0-147.0-0.0","395.79999999701977","","","","50","0,0,0","2","countryside","91","probe-170","0.628828042924841","0.32274249361500396","0.20393315036085688","0","","","","","","","",""
"","html-keyboard-response","270","1006541","0.0-147.0-1.0","null","<p></p>","null","","","","","","","","","","","","","","","","","","",""
"","do_trial","271","1011736","0.0-148.0-0.0","634.1000000014901","","","","50","0,0,0","2","countryside","92","probe-116","0.6548591181456542","0.3704697839632031","0.1385153904225864","0","","","","","","","",""
"","html-keyboard-response","272","1012739","0.0-148.0-1.0","null","<p></p>","null","","","","","","","","","","","","","","","","","","",""
"","do_trial","273","1017803","0.0-149.0-0.0","494.30000000074506","","","","50","1,1,0","2","countryside","93","probe-107","0.6174139869869643","0.4428466100039786","0.11045100556527021","1","","","","","","","",""
"","html-keyboard-response","274","1018806","0.0-149.0-1.0","null","<p></p>","null","","","","","","","","","","","","","","","","","","",""
"","do_trial","275","1023737","0.0-150.0-0.0","356.3999999985099","","","","51","0,0,0","2","countryside","94","probe-208","0.7515213477727247","0.23237268071236572","0.09490771136201807","0","","","","","","","",""
"","html-keyboard-response","276","1024740","0.0-150.0-1.0","null","<p></p>","null","","","","","","","","","","","","","","","","","","",""
"","do_trial","277","1029856","0.0-151.0-0.0","548","","","","51","0,1,0","2","countryside","95","probe-04","0.6374668834484647","0.3577039983503694","0.05600845300518753","0","","","","","","","",""
"","html-keyboard-response","278","1030860","0.0-151.0-1.0","null","<p></p>","null","","","","","","","","","","","","","","","","","","",""
"","do_trial","279","1036002","0.0-152.0-0.0","572.8999999985099","","","","51","1,1,0","2","countryside","96","probe-140","0.6017721338567826","0.3612775752776307","0.07097668203692724","0","","","","","","","",""
"","html-keyboard-response","280","1037004","0.0-152.0-1.0","null","<p></p>","null","","","","","","","","","","","","","","","","","","",""
"","do_trial","281","1041980","0.0-153.0-0.0","404.19999999925494","","","","50","1,1,0","2","countryside","97","probe-56","0.6473052541570279","0.2922344288406785","0.10186935153523216","1","","","","","","","",""
"","html-keyboard-response","282","1042983","0.0-153.0-1.0","null","<p></p>","null","","","","","","","","","","","","","","","","","","",""
"","do_trial","283","1048353","0.0-154.0-0.0","803.3000000007451","","","","50","1,0,1","2","countryside","98","probe-98","0.681507275983476","0.2600642863740892","0.20388774929291983","0","","","","","","","",""
"","html-keyboard-response","284","1049357","0.0-154.0-1.0","null","<p></p>","null","","","","","","","","","","","","","","","","","","",""
"","do_trial","285","1054559","0.0-155.0-0.0","643.7999999970198","","","","50","1,0,0","2","countryside","99","probe-108","0.7815864286745651","0.35892840124563324","0.19009030514171749","0","","","","","","","",""
"","html-keyboard-response","286","1055562","0.0-155.0-1.0","null","<p></p>","null","","","","","","","","","","","","","","","","","","",""
"","do_trial","287","1060706","0.0-156.0-0.0","594.1000000014901","","","","49","1,1,0","2","countryside","100","probe-112","0.6039334477853535","0.47325426044218805","0.20909902202011318","1","","","","","","","",""
"","html-keyboard-response","288","1061710","0.0-156.0-1.0","null","<p></p>","null","","","","","","","","","","","","","","","","","","",""
"","do_trial","289","1066842","0.0-157.0-0.0","567.4000000022352","","","","49","0,0,0","2","countryside","101","probe-84","0.5980991871785645","0.3261647036209001","0.17415624320647205","0","","","","","","","",""
"","html-keyboard-response","290","1067845","0.0-157.0-1.0","null","<p></p>","null","","","","","","","","","","","","","","","","","","",""
"","do_trial","291","1074131","0.0-158.0-0.0","1694","","","","49","1,0,0","2","countryside","102","probe-45","0.5909522299861245","0.13142654108343924","0.12629738235392876","1","","","","","","","",""
"","html-keyboard-response","292","1075135","0.0-158.0-1.0","null","<p></p>","null","","","","","","","","","","","","","","","","","","",""
"","do_trial","293","1080380","0.0-159.0-0.0","688.6000000014901","","","","49","0,0,0","2","countryside","103","probe-25","0.5690783527583615","0.23427046580594854","0.07190539052072835","0","","","","","","","",""
"","html-keyboard-response","294","1081383","0.0-159.0-1.0","null","<p></p>","null","","","","","","","","","","","","","","","","","","",""
"","do_trial","295","1086440","0.0-160.0-0.0","481.3999999985099","","","","50","1,0,0","2","countryside","104","probe-125","0.627672319737389","0.2543041700365943","0.11316883639435617","0","","","","","","","",""
"","html-keyboard-response","296","1087444","0.0-160.0-1.0","null","<p></p>","null","","","","","","","","","","","","","","","","","","",""
"","do_trial","297","1092309","0.0-161.0-0.0","298.30000000074506","","","","50","0,0,0","2","countryside","105","probe-106","0.632667840749326","0.2350608048114935","0.1494389753360328","0","","","","","","","",""
"","html-keyboard-response","298","1093312","0.0-161.0-1.0","null","<p></p>","null","","","","","","","","","","","","","","","","","","",""
"","do_trial","299","1099291","0.0-162.0-0.0","1427.199999999255","","","","51","1,0,0","2","countryside","106","probe-08","0.6233879167463701","0.2470148525294841","0.19092835464984625","0","","","","","","","",""
"","html-keyboard-response","300","1100294","0.0-162.0-1.0","null","<p></p>","null","","","","","","","","","","","","","","","","","","",""
"","do_trial","301","1106411","0.0-163.0-0.0","1556.5","","","","51","1,0,0","2","countryside","107","probe-39","0.5099276275932435","0.4255437058193365","0.20186154075213958","0","","","","","","","",""
"","html-keyboard-response","302","1107415","0.0-163.0-1.0","null","<p></p>","null","","","","","","","","","","","","","","","","","","",""
"","do_trial","303","1113156","0.0-164.0-0.0","1168.2999999970198","","","","51","1,0,0","2","countryside","108","probe-61","0.6449299957700523","0.3510811369823818","0.2848118733537383","0","","","","","","","",""
"","html-keyboard-response","304","1114159","0.0-164.0-1.0","null","<p></p>","null","","","","","","","","","","","","","","","","","","",""
"","do_trial","305","1120014","0.0-165.0-0.0","1287.3999999985099","","","","51","1,0,0","2","countryside","109","probe-05","0.6159097413669762","0.2818145381100845","0.12495092864735226","0","","","","","","","",""
"","html-keyboard-response","306","1121018","0.0-165.0-1.0","null","<p></p>","null","","","","","","","","","","","","","","","","","","",""
"","do_bye","307","1122529","0.0-166.0-0.0","null","","","","null","","","","","","","","","","","","","","","","",""
"","do_travel","308","1128534","0.0-167.0-0.0","null","","","","null","","","","","","","","","","","","","","","","",""
"","do_welcome","309","1130044","0.0-167.0-1.0","null","","","","null","","","","","","","","","","","","","","","","",""
"","do_trial","310","1136098","0.0-168.0-0.0","null","","","","null","1,0,0","3","mountain","110","probe-70","1","0.286198987624046","0.14059321634749727","","","","","","","","",""
"","html-keyboard-response","311","1137101","0.0-168.0-1.0","null","<p></p>","null","","","","","","","","","","","","","","","","","","",""
"","do_trial","312","1143130","0.0-169.0-0.0","1470.8999999985099","","","","51","1,0,0","3","mountain","111","probe-17","1","0.2613624508832889","0.07103490129099158","0","","","","","","","",""
"","html-keyboard-response","313","1144133","0.0-169.0-1.0","null","<p></p>","null","","","","","","","","","","","","","","","","","","",""
"","do_trial","314","1150192","0.0-170.0-0.0","null","","","","null","1,0,0","3","mountain","112","probe-195","0.9007079364344744","0.2877907614362341","0.08624362388090166","","","","","","","","",""
"","html-keyboard-response","315","1151196","0.0-170.0-1.0","null","<p></p>","null","","","","","","","","","","","","","","","","","","",""
"","do_trial","316","1156452","0.0-171.0-0.0","699.4000000022352","","","","51","1,0,0","3","mountain","113","probe-185","0.7299043362233392","0.4338283274608287","0.09325224314989905","0","","","","","","","",""
"","html-keyboard-response","317","1157455","0.0-171.0-1.0","null","<p></p>","null","","","","","","","","","","","","","","","","","","",""
"","do_trial","318","1162607","0.0-172.0-0.0","590.8999999985099","","","","50","1,0,0","3","mountain","114","probe-143","0.5551152588757748","0.23214398564880268","0.13104789910022707","0","","","","","","","",""
"","html-keyboard-response","319","1163610","0.0-172.0-1.0","null","<p></p>","null","","","","","","","","","","","","","","","","","","",""
"","do_trial","320","1168776","0.0-173.0-0.0","597.5","","","","50","1,0,0","3","mountain","115","probe-183","0.4464763380554068","0.2738286699726694","0.153581348656378","0","","","","","","","",""
"","html-keyboard-response","321","1169802","0.0-173.0-1.0","null","<p></p>","null","","","","","","","","","","","","","","","","","","",""
"","do_trial","322","1174732","0.0-174.0-0.0","367.0999999977648","","","","51","1,0,0","3","mountain","116","probe-93","0.4823055929193258","0.2787829153383277","0.18979130370331984","0","","","","","","","",""
"","html-keyboard-response","323","1175735","0.0-174.0-1.0","null","<p></p>","null","","","","","","","","","","","","","","","","","","",""
"","do_trial","324","1180795","0.0-175.0-0.0","477","","","","51","1,0,0","3","mountain","117","probe-91","0.6354802963295395","0.20946853811935062","0.09268219816482588","0","","","","","","","",""
"","html-keyboard-response","325","1181798","0.0-175.0-1.0","null","<p></p>","null","","","","","","","","","","","","","","","","","","",""
"","do_trial","326","1186406","0.0-176.0-0.0","45.900000002235174","","","","50","0,0,0","3","mountain","118","probe-177","0.5847770984381198","0.24446835687539176","0.09466798852564193","0","","","","","","","",""
"","html-keyboard-response","327","1187409","0.0-176.0-1.0","null","<p></p>","null","","","","","","","","","","","","","","","","","","",""
"","do_trial","328","1192942","0.0-177.0-0.0","966","","","","50","1,0,0","3","mountain","119","probe-57","0.6765346252521621","0.09500543969239512","0.11565853369493466","0","","","","","","","",""
"","html-keyboard-response","329","1193944","0.0-177.0-1.0","null","<p></p>","null","","","","","","","","","","","","","","","","","","",""
"","do_trial","330","1198925","0.0-178.0-0.0","411.8999999985099","","","","49","1,0,0","3","mountain","120","probe-204","0.4936170273428536","0.1344012088681159","0.164761106638461","1","","","","","","","",""
"","html-keyboard-response","331","1199928","0.0-178.0-1.0","null","<p></p>","null","","","","","","","","","","","","","","","","","","",""
"","do_trial","332","1204882","0.0-179.0-0.0","396.8999999985099","","","","49","0,0,0","3","mountain","121","probe-147","0.5282115828533013","0.3305435983552391","0.12524002543108428","0","","","","","","","",""
"","html-keyboard-response","333","1205885","0.0-179.0-1.0","null","<p></p>","null","","","","","","","","","","","","","","","","","","",""
"","do_trial","334","1210987","0.0-180.0-0.0","512.5999999977648","","","","49","1,1,0","3","mountain","122","probe-99","0.4639265873706113","0.5188770462512827","0.15912076487531832","1","","","","","","","",""
"","html-keyboard-response","335","1211990","0.0-180.0-1.0","null","<p></p>","null","","","","","","","","","","","","","","","","","","",""
"","do_trial","336","1217040","0.0-181.0-0.0","475.30000000074506","","","","50","0,1,0","3","mountain","123","probe-205","0.3649042359282687","0.5854156331164836","0.2249037844894308","1","","","","","","","",""
"","html-keyboard-response","337","1218043","0.0-181.0-1.0","null","<p></p>","null","","","","","","","","","","","","","","","","","","",""
"","do_trial","338","1223012","0.0-182.0-0.0","408.5999999977648","","","","50","0,0,0","3","mountain","124","probe-73","0.23457644109045775","0.5345844540279218","0.35670144342861404","0","","","","","","","",""
"","html-keyboard-response","339","1224015","0.0-182.0-1.0","null","<p></p>","null","","","","","","","","","","","","","","","","","","",""
"","do_trial","340","1229507","0.0-183.0-0.0","923.1999999992549","","","","50","0,1,0","3","mountain","125","probe-215","0.09473577322322921","0.6363135636619376","0.3908277465418044","1","","","","","","","",""
"","html-keyboard-response","341","1230511","0.0-183.0-1.0","null","<p></p>","null","","","","","","","","","","","","","","","","","","",""
"","do_trial","342","1236554","0.0-184.0-0.0","1467.8999999985099","","","","50","0,0,0","3","mountain","126","probe-175","0.06103975800796459","0.5715612171549418","0.35761632818357797","0","","","","","","","",""
"","html-keyboard-response","343","1237557","0.0-184.0-1.0","null","<p></p>","null","","","","","","","","","","","","","","","","","","",""
"","do_trial","344","1242597","0.0-185.0-0.0","472.19999999925494","","","","49","0,1,0","3","mountain","127","probe-02","0.1025915095416493","0.5662376404092085","0.34486168384145716","0","","","","","","","",""
"","html-keyboard-response","345","1243600","0.0-185.0-1.0","null","<p></p>","null","","","","","","","","","","","","","","","","","","",""
"","do_trial","346","1248550","0.0-186.0-0.0","380.80000000074506","","","","49","0,1,0","3","mountain","128","probe-118","0.06700620154498589","0.6315133333649315","0.39548382744648825","0","","","","","","","",""
"","html-keyboard-response","347","1249552","0.0-186.0-1.0","null","<p></p>","null","","","","","","","","","","","","","","","","","","",""
"","do_trial","348","1254750","0.0-187.0-0.0","624.8999999985099","","","","49","1,1,0","3","mountain","129","probe-83","0.11512958745528083","0.6940784211157839","0.37550660839271993","1","","","","","","","",""
"","html-keyboard-response","349","1255754","0.0-187.0-1.0","null","<p></p>","null","","","","","","","","","","","","","","","","","","",""
"","do_trial","350","1260705","0.0-188.0-0.0","378.5","","","","49","0,1,0","3","mountain","130","probe-119","0.23120990935609154","0.761878320197459","0.277100589186052","0","","","","","","","",""
"","html-keyboard-response","351","1261708","0.0-188.0-1.0","null","<p></p>","null","","","","","","","","","","","","","","","","","","",""
"","do_trial","352","1267783","0.0-189.0-0.0","null","","","","null","0,1,0","3","mountain","131","probe-184","0.22555969428107212","0.6736181886879588","0.18458913989734868","","","","","","","","",""
"","html-keyboard-response","353","1268786","0.0-189.0-1.0","null","<p></p>","null","","","","","","","","","","","","","","","","","","",""
"","do_trial","354","1273897","0.0-190.0-0.0","532.6999999992549","","","","50","0,1,0","3","mountain","132","probe-59","0.22875644018114918","0.7628851160877187","0.1746210925310553","1","","","","","","","",""
"","html-keyboard-response","355","1274901","0.0-190.0-1.0","null","<p></p>","null","","","","","","","","","","","","","","","","","","",""
"","do_trial","356","1280040","0.0-191.0-0.0","581.8000000007451","","","","50","0,1,0","3","mountain","133","probe-228","0.2612616791560783","0.7169862566090847","0.1941214540966547","1","","","","","","","",""
"","html-keyboard-response","357","1281043","0.0-191.0-1.0","null","<p></p>","null","","","","","","","","","","","","","","","","","","",""
"","do_trial","358","1286992","0.0-192.0-0.0","1373.3999999985099","","","","51","0,1,1","3","mountain","134","probe-111","0.2686630303737268","0.7346078189043521","0.2190986983272844","1","","","","","","","",""
"","html-keyboard-response","359","1287995","0.0-192.0-1.0","null","<p></p>","null","","","","","","","","","","","","","","","","","","",""
"","do_trial","360","1293159","0.0-193.0-0.0","606.5999999977648","","","","51","0,1,1","3","mountain","135","probe-13","0.0956868750688885","0.7347402737466335","0.33941880809247954","1","","","","","","","",""
"","html-keyboard-response","361","1294162","0.0-193.0-1.0","null","<p></p>","null","","","","","","","","","","","","","","","","","","",""
"","do_trial","362","1299451","0.0-194.0-0.0","697.6999999992549","","","","51","0,1,0","3","mountain","136","probe-160","0.12193212760646495","0.6585582546816906","0.18929202701779477","0","","","","","","","",""
"","html-keyboard-response","363","1300455","0.0-194.0-1.0","null","<p></p>","null","","","","","","","","","","","","","","","","","","",""
"","do_trial","364","1305598","0.0-195.0-0.0","587","","","","50","0,1,0","3","mountain","137","probe-136","0.07279030170694037","0.7769852235486954","0.1443770129580631","1","","","","","","","",""
"","html-keyboard-response","365","1306603","0.0-195.0-1.0","null","<p></p>","null","","","","","","","","","","","","","","","","","","",""
"","do_trial","366","1311639","0.0-196.0-0.0","467.19999999925494","","","","50","0,1,0","3","mountain","138","probe-216","0.06755349641822651","0.6712592885722389","0.14700214241561907","1","","","","","","","",""
"","html-keyboard-response","367","1312641","0.0-196.0-1.0","null","<p></p>","null","","","","","","","","","","","","","","","","","","",""
"","do_trial","368","1317590","0.0-197.0-0.0","384","","","","50","1,0,0","3","mountain","139","probe-78","0.2068659833777109","0.6110618008503744","0.18367942745523166","0","","","","","","","",""
"","html-keyboard-response","369","1318595","0.0-197.0-1.0","null","<p></p>","null","","","","","","","","","","","","","","","","","","",""
"","do_trial","370","1323546","0.0-198.0-0.0","366.5","","","","50","0,1,0","3","mountain","140","probe-103","0.18360136739861","0.5317240106377008","0.3203466136992138","1","","","","","","","",""
"","html-keyboard-response","371","1324549","0.0-198.0-1.0","null","<p></p>","null","","","","","","","","","","","","","","","","","","",""
"","do_trial","372","1329611","0.0-199.0-0.0","496","","","","50","0,0,0","3","mountain","141","probe-47","0.22315879804694952","0.456045357168786","0.25900094708343707","0","","","","","","","",""
"","html-keyboard-response","373","1330614","0.0-199.0-1.0","null","<p></p>","null","","","","","","","","","","","","","","","","","","",""
"","do_trial","374","1335809","0.0-200.0-0.0","616.8999999985099","","","","50","0,0,0","3","mountain","142","probe-224","0.22140772374182008","0.5663534317494805","0.27341037014964065","0","","","","","","","",""
"","html-keyboard-response","375","1336812","0.0-200.0-1.0","null","<p></p>","null","","","","","","","","","","","","","","","","","","",""
"","do_trial","376","1342887","0.0-201.0-0.0","null","","","","null","0,1,0","3","mountain","143","probe-122","0.22687233741706914","0.5060296450511366","0.1799205017827849","","","","","","","","",""
"","html-keyboard-response","377","1343890","0.0-201.0-1.0","null","<p></p>","null","","","","","","","","","","","","","","","","","","",""
"","do_trial","378","1349504","0.0-202.0-0.0","1042","","","","49","0,1,1","3","mountain","144","probe-207","0.17986320993560656","0.6533900797458521","0.19487103738190395","0","","","","","","","",""
"","html-keyboard-response","379","1350506","0.0-202.0-1.0","null","<p></p>","null","","","","","","","","","","","","","","","","","","",""
"","do_trial","380","1355512","0.0-203.0-0.0","437.5","","","","49","0,1,0","3","mountain","145","probe-221","0.2856054666835582","0.7015256394101338","0.32347222604988074","0","","","","","","","",""
"","html-keyboard-response","381","1356515","0.0-203.0-1.0","null","<p></p>","null","","","","","","","","","","","","","","","","","","",""
"","do_trial","382","1361083","0.0-204.0-0.0","0.5","","","","49","0,1,1","3","mountain","146","probe-192","0.19913285447358595","0.6455478798353133","0.39628239821500294","0","","","","","","","",""
"","html-keyboard-response","383","1362088","0.0-204.0-1.0","null","<p></p>","null","","","","","","","","","","","","","","","","","","",""
"","do_trial","384","1367197","0.0-205.0-0.0","533.7999999970198","","","","49","0,1,1","3","mountain","147","probe-31","0.1695216991756882","0.6244436377090801","0.331887071787474","0","","","","","","","",""
"","html-keyboard-response","385","1368201","0.0-205.0-1.0","null","<p></p>","null","","","","","","","","","","","","","","","","","","",""
"","do_trial","386","1373281","0.0-206.0-0.0","522.6999999992549","","","","50","0,1,0","3","mountain","148","probe-172","0.35850656744771076","0.631432567685748","0.26873767400924","1","","","","","","","",""
"","html-keyboard-response","387","1374284","0.0-206.0-1.0","null","<p></p>","null","","","","","","","","","","","","","","","","","","",""
"","do_trial","388","1379285","0.0-207.0-0.0","416.3999999985099","","","","50","1,1,0","3","mountain","149","probe-145","0.07934669331170081","0.633726288703063","0.2578478243745935","1","","","","","","","",""
"","html-keyboard-response","389","1380287","0.0-207.0-1.0","null","<p></p>","null","","","","","","","","","","","","","","","","","","",""
"","do_bye","390","1381793","0.0-208.0-0.0","null","","","","null","","","","","","","","","","","","","","","","",""
"","do_travel","391","1387803","0.0-209.0-0.0","null","","","","null","","","","","","","","","","","","","","","","",""
"","do_welcome","392","1389312","0.0-209.0-1.0","null","","","","null","","","","","","","","","","","","","","","","",""
"","do_trial","393","1395384","0.0-210.0-0.0","null","","","","null","0,1,0","4","city","150","probe-36","0.15380756693952063","1","0.21749950482388933","","","","","","","","",""
"","html-keyboard-response","394","1396386","0.0-210.0-1.0","null","<p></p>","null","","","","","","","","","","","","","","","","","","",""
"","do_trial","395","1401702","0.0-211.0-0.0","744.2000000029802","","","","51","1,1,0","4","city","151","probe-135","0.16411644043147738","1","0.31861174663610525","0","","","","","","","",""
"","html-keyboard-response","396","1402704","0.0-211.0-1.0","null","<p></p>","null","","","","","","","","","","","","","","","","","","",""
"","do_trial","397","1408328","0.0-212.0-0.0","1042.800000000745","","","","50","0,1,0","4","city","152","probe-164","0.16142907309773633","0.8953797221103557","0.3329163346008249","1","","","","","","","",""
"","html-keyboard-response","398","1409332","0.0-212.0-1.0","null","<p></p>","null","","","","","","","","","","","","","","","","","","",""
"","do_trial","399","1414567","0.0-213.0-0.0","638.8999999985099","","","","50","0,0,0","4","city","153","probe-196","0.09725858194991815","0.6629965150498867","0.22417213845249173","0","","","","","","","",""
"","html-keyboard-response","400","1415570","0.0-213.0-1.0","null","<p></p>","null","","","","","","","","","","","","","","","","","","",""
"","do_trial","401","1421008","0.0-214.0-0.0","857.3000000007451","","","","50","0,1,0","4","city","154","probe-209","0.07567925205839712","0.6992669320267402","0.265924957109071","1","","","","","","","",""
"","html-keyboard-response","402","1422014","0.0-214.0-1.0","null","<p></p>","null","","","","","","","","","","","","","","","","","","",""
"","do_trial","403","1427230","0.0-215.0-0.0","626.5","","","","50","0,1,0","4","city","155","probe-134","0.07212531812758478","0.6143607303952413","0.2932381361225616","1","","","","","","","",""
"","html-keyboard-response","404","1428234","0.0-215.0-1.0","null","<p></p>","null","","","","","","","","","","","","","","","","","","",""
"","do_trial","405","1433522","0.0-216.0-0.0","706.2999999970198","","","","50","0,0,0","4","city","156","probe-104","0.10049412657514434","0.7262682851676203","0.43863770255564133","0","","","","","","","",""
"","html-keyboard-response","406","1434525","0.0-216.0-1.0","null","<p></p>","null","","","","","","","","","","","","","","","","","","",""
"","do_trial","407","1439530","0.0-217.0-0.0","423.1000000014901","","","","50","0,1,0","4","city","157","probe-218","0.15074534328407801","0.7237695446834128","0.40115910157881113","1","","","","","","","",""
"","html-keyboard-response","408","1440534","0.0-217.0-1.0","null","<p></p>","null","","","","","","","","","","","","","","","","","","",""
"","do_trial","409","1445449","0.0-218.0-0.0","331.5","","","","50","0,1,0","4","city","158","probe-165","0.1932011304388306","0.7421371728200982","0.30706740665414967","1","","","","","","","",""
"","html-keyboard-response","410","1446452","0.0-218.0-1.0","null","<p></p>","null","","","","","","","","","","","","","","","","","","",""
"","do_trial","411","1451860","0.0-219.0-0.0","833","","","","49","0,0,1","4","city","159","probe-127","0.06596051326453775","0.5708278440989376","0.35261553150102515","0","","","","","","","",""
"","html-keyboard-response","412","1452863","0.0-219.0-1.0","null","<p></p>","null","","","","","","","","","","","","","","","","","","",""
"","do_trial","413","1457833","0.0-220.0-0.0","401.5999999977648","","","","49","0,0,0","4","city","160","probe-11","0.14424395662542194","0.5336407968397816","0.2778256944387362","0","","","","","","","",""
"","html-keyboard-response","414","1458835","0.0-220.0-1.0","null","<p></p>","null","","","","","","","","","","","","","","","","","","",""
"","do_trial","415","1464323","0.0-221.0-0.0","916.5","","","","49","1,1,1","4","city","161","probe-87","0.23409059516641414","0.7020712635450229","0.2767352577526666","1","","","","","","","",""
"","html-keyboard-response","416","1465326","0.0-221.0-1.0","null","<p></p>","null","","","","","","","","","","","","","","","","","","",""
"","do_trial","417","1470802","0.0-222.0-0.0","909.6999999992549","","","","49","0,1,0","4","city","162","probe-200","0.5440531820230515","0.5145210411058663","0.1826363161667254","0","","","","","","","",""
"","html-keyboard-response","418","1471805","0.0-222.0-1.0","null","<p></p>","null","","","","","","","","","","","","","","","","","","",""
"","do_trial","419","1476970","0.0-223.0-0.0","592.3999999985099","","","","49","0,0,0","4","city","163","probe-225","0.5723066167562435","0.3838143588241384","0.25826167478880635","0","","","","","","","",""
"","html-keyboard-response","420","1477973","0.0-223.0-1.0","null","<p></p>","null","","","","","","","","","","","","","","","","","","",""
"","do_trial","421","1483284","0.0-224.0-0.0","742.9000000022352","","","","49","0,0,0","4","city","164","probe-129","0.6822337180393833","0.20814243064371912","0.28498103386153334","0","","","","","","","",""
"","html-keyboard-response","422","1484289","0.0-224.0-1.0","null","<p></p>","null","","","","","","","","","","","","","","","","","","",""
"","do_trial","423","1489294","0.0-225.0-0.0","436.69999999925494","","","","49","0,1,0","4","city","165","probe-179","0.6151237086780255","0.19480503601419671","0.16704511329972838","0","","","","","","","",""
"","html-keyboard-response","424","1490297","0.0-225.0-1.0","null","<p></p>","null","","","","","","","","","","","","","","","","","","",""
"","do_trial","425","1495782","0.0-226.0-0.0","913.1000000014901","","","","50","0,0,0","4","city","166","probe-65","0.7186794534553809","0.21735323396798592","0.1474004664398941","0","","","","","","","",""
"","html-keyboard-response","426","1496785","0.0-226.0-1.0","null","<p></p>","null","","","","","","","","","","","","","","","","","","",""
"","do_trial","427","1502853","0.0-227.0-0.0","null","","","","null","0,0,0","4","city","167","probe-211","0.6889715602381478","0.10017039271011616","0.23522555560827219","","","","","","","","",""
"","html-keyboard-response","428","1503856","0.0-227.0-1.0","null","<p></p>","null","","","","","","","","","","","","","","","","","","",""
"","do_trial","429","1509434","0.0-228.0-0.0","1010.5","","","","50","1,0,0","4","city","168","probe-173","0.7352059642456246","0.06115099382611611","0.26113715985543506","0","","","","","","","",""
"","html-keyboard-response","430","1510436","0.0-228.0-1.0","null","<p></p>","null","","","","","","","","","","","","","","","","","","",""
"","do_trial","431","1515679","0.0-229.0-0.0","676.3999999985099","","","","50","1,0,0","4","city","169","probe-46","0.5823941127589156","0.11301176692783355","0.25595091035985074","0","","","","","","","",""
"","html-keyboard-response","432","1516682","0.0-229.0-1.0","null","<p></p>","null","","","","","","","","","","","","","","","","","","",""
"","do_trial","433","1521961","0.0-230.0-0.0","712.6000000014901","","","","50","1,0,1","4","city","170","probe-100","0.5271636930912501","0.19794702467335654","0.30403541614828467","0","","","","","","","",""
"","html-keyboard-response","434","1522963","0.0-230.0-1.0","null","<p></p>","null","","","","","","","","","","","","","","","","","","",""
"","do_trial","435","1528066","0.0-231.0-0.0","535.5","","","","50","0,0,0","4","city","171","probe-121","0.5198099574690825","0.24375302857415723","0.41630071712464345","0","","","","","","","",""
"","html-keyboard-response","436","1529069","0.0-231.0-1.0","null","<p></p>","null","","","","","","","","","","","","","","","","","","",""
"","do_trial","437","1534457","0.0-232.0-0.0","822.1999999992549","","","","50","1,0,0","4","city","172","probe-54","0.572611206179525","0.18251048494197172","0.4409456682294093","0","","","","","","","",""
"","html-keyboard-response","438","1535461","0.0-232.0-1.0","null","<p></p>","null","","","","","","","","","","","","","","","","","","",""
"","do_trial","439","1540595","0.0-233.0-0.0","565","","","","50","1,0,1","4","city","173","probe-69","0.5229320789093704","0.19811827974198082","0.4249199908722053","0","","","","","","","",""
"","html-keyboard-response","440","1541598","0.0-233.0-1.0","null","<p></p>","null","","","","","","","","","","","","","","","","","","",""
"","do_trial","441","1546839","0.0-234.0-0.0","671.5","","","","50","0,0,0","4","city","174","probe-157","0.5931943807637331","0.14564871006264207","0.2868569410624969","0","","","","","","","",""
"","html-keyboard-response","442","1547842","0.0-234.0-1.0","null","<p></p>","null","","","","","","","","","","","","","","","","","","",""
"","do_trial","443","1553309","0.0-235.0-0.0","898.3999999985099","","","","51","1,0,0","4","city","175","probe-75","0.5841627212250642","0.05098097100449276","0.2952864646262501","0","","","","","","","",""
"","html-keyboard-response","444","1554311","0.0-235.0-1.0","null","<p></p>","null","","","","","","","","","","","","","","","","","","",""
"","do_trial","445","1559707","0.0-236.0-0.0","824.2000000029802","","","","51","0,0,0","4","city","176","probe-32","0.5810761985363272","0.09919061897349693","0.18831765567345418","0","","","","","","","",""
"","html-keyboard-response","446","1560711","0.0-236.0-1.0","null","<p></p>","null","","","","","","","","","","","","","","","","","","",""
"","do_trial","447","1565679","0.0-237.0-0.0","404.80000000074506","","","","51","0,0,0","4","city","177","probe-82","0.6109815716511421","0.11161647017510601","0.24160897554281277","0","","","","","","","",""
"","html-keyboard-response","448","1566681","0.0-237.0-1.0","null","<p></p>","null","","","","","","","","","","","","","","","","","","",""
"","do_trial","449","1571825","0.0-238.0-0.0","579.8999999985099","","","","51","1,0,0","4","city","178","probe-222","0.4785858877422804","0.16155056049934935","0.30707077289854906","0","","","","","","","",""
"","html-keyboard-response","450","1572827","0.0-238.0-1.0","null","<p></p>","null","","","","","","","","","","","","","","","","","","",""
"","do_trial","451","1577976","0.0-239.0-0.0","584.6999999992549","","","","51","0,1,1","4","city","179","probe-126","0.6220476247506701","0.14385303704026237","0.3484849952292807","1","","","","","","","",""
"","html-keyboard-response","452","1578978","0.0-239.0-1.0","null","<p></p>","null","","","","","","","","","","","","","","","","","","",""
"","do_trial","453","1584116","0.0-240.0-0.0","570.4000000022352","","","","51","0,0,0","4","city","180","probe-52","0.5511036762519699","0.10292177015914859","0.3176439523687952","0","","","","","","","",""
"","html-keyboard-response","454","1585118","0.0-240.0-1.0","null","<p></p>","null","","","","","","","","","","","","","","","","","","",""
"","do_trial","455","1590275","0.0-241.0-0.0","591.8999999985099","","","","51","1,0,0","4","city","181","probe-03","0.5364751322414257","0.09889993681274246","0.23012371254792438","0","","","","","","","",""
"","html-keyboard-response","456","1591279","0.0-241.0-1.0","null","<p></p>","null","","","","","","","","","","","","","","","","","","",""
"","do_trial","457","1596328","0.0-242.0-0.0","483.5","","","","51","1,0,0","4","city","182","probe-137","0.6267130344103481","0.16056032692816266","0.2109226086884798","0","","","","","","","",""
"","html-keyboard-response","458","1597331","0.0-242.0-1.0","null","<p></p>","null","","","","","","","","","","","","","","","","","","",""
"","do_trial","459","1602854","0.0-243.0-0.0","958.1999999992549","","","","51","0,1,1","4","city","183","probe-68","0.5391363918813779","0.14602966295806968","0.35345907257598286","1","","","","","","","",""
"","html-keyboard-response","460","1603856","0.0-243.0-1.0","null","<p></p>","null","","","","","","","","","","","","","","","","","","",""
"","do_trial","461","1608921","0.0-244.0-0.0","498.9000000022352","","","","50","1,0,1","4","city","184","probe-226","0.5477069916692546","0.16798921920725135","0.34364271945380054","0","","","","","","","",""
"","html-keyboard-response","462","1609923","0.0-244.0-1.0","null","<p></p>","null","","","","","","","","","","","","","","","","","","",""
"","do_trial","463","1616246","0.0-245.0-0.0","1759.5","","","","50","1,0,0","4","city","185","probe-72","0.5999863554138795","0.2443144368148318","0.2750578637315547","0","","","","","","","",""
"","html-keyboard-response","464","1617248","0.0-245.0-1.0","null","<p></p>","null","","","","","","","","","","","","","","","","","","",""
"","do_trial","465","1622448","0.0-246.0-0.0","635.8000000007451","","","","50","0,0,0","4","city","186","probe-168","0.517839844980027","0.13535394579597754","0.4253993032443779","0","","","","","","","",""
"","html-keyboard-response","466","1623450","0.0-246.0-1.0","null","<p></p>","null","","","","","","","","","","","","","","","","","","",""
"","do_trial","467","1628903","0.0-247.0-0.0","888","","","","50","0,0,0","4","city","187","probe-51","0.556184633684773","0.07113998544836773","0.2526884272059021","0","","","","","","","",""
"","html-keyboard-response","468","1629906","0.0-247.0-1.0","null","<p></p>","null","","","","","","","","","","","","","","","","","","",""
"","do_trial","469","1635203","0.0-248.0-0.0","730.8999999985099","","","","49","0,0,1","4","city","188","probe-152","0.6772768175590477","0.09643816283286384","0.39019980578676466","0","","","","","","","",""
"","html-keyboard-response","470","1636206","0.0-248.0-1.0","null","<p></p>","null","","","","","","","","","","","","","","","","","","",""
"","do_trial","471","1641610","0.0-249.0-0.0","837.1999999992549","","","","49","1,0,0","4","city","189","probe-18","0.6783870084993019","0.06789739800175508","0.18878650226572663","1","","","","","","","",""
"","html-keyboard-response","472","1642612","0.0-249.0-1.0","null","<p></p>","null","","","","","","","","","","","","","","","","","","",""
"","do_bye","473","1644118","0.0-250.0-0.0","null","","","","null","","","","","","","","","","","","","","","","",""
"","do_travel","474","1650122","0.0-251.0-0.0","null","","","","null","","","","","","","","","","","","","","","","",""
"","do_welcome","475","1651628","0.0-251.0-1.0","null","","","","null","","","","","","","","","","","","","","","","",""
"","do_trial","476","1658648","0.0-252.0-0.0","2452.400000002235","","","","51","1,0,0","5","forest","190","probe-131","1","0.05402161481290875","0.22186991767366415","0","","","","","","","",""
"","html-keyboard-response","477","1659651","0.0-252.0-1.0","null","<p></p>","null","","","","","","","","","","","","","","","","","","",""
"","do_trial","478","1664944","0.0-253.0-0.0","727.1999999992549","","","","51","1,0,0","5","forest","191","probe-154","1","0.15361999048354716","0.18988321615879006","0","","","","","","","",""
"","html-keyboard-response","479","1665948","0.0-253.0-1.0","null","<p></p>","null","","","","","","","","","","","","","","","","","","",""
"","do_trial","480","1671069","0.0-254.0-0.0","553","","","","51","1,0,0","5","forest","192","probe-194","0.8820903101839599","0.17097837909482785","0.3004674574092456","0","","","","","","","",""
"","html-keyboard-response","481","1672072","0.0-254.0-1.0","null","<p></p>","null","","","","","","","","","","","","","","","","","","",""
"","do_trial","482","1677263","0.0-255.0-0.0","624.3999999985099","","","","50","1,0,0","5","forest","193","probe-22","0.6757578250426505","0.22829379765629307","0.305565905711315","0","","","","","","","",""
"","html-keyboard-response","483","1678265","0.0-255.0-1.0","null","<p></p>","null","","","","","","","","","","","","","","","","","","",""
"","do_trial","484","1683517","0.0-256.0-0.0","680.1000000014901","","","","51","1,0,0","5","forest","194","probe-07","0.7030334367151475","0.2696401984705916","0.259768401482609","0","","","","","","","",""
"","html-keyboard-response","485","1684520","0.0-256.0-1.0","null","<p></p>","null","","","","","","","","","","","","","","","","","","",""
"","do_trial","486","1689748","0.0-257.0-0.0","661","","","","51","1,1,0","5","forest","195","probe-161","0.5777871706759335","0.1422196262955593","0.4351424256280499","0","","","","","","","",""
"","html-keyboard-response","487","1690752","0.0-257.0-1.0","null","<p></p>","null","","","","","","","","","","","","","","","","","","",""
"","do_trial","488","1695987","0.0-258.0-0.0","668.8999999985099","","","","51","0,0,1","5","forest","196","probe-97","0.6011247809884696","0.09781291813497024","0.40737609262133023","1","","","","","","","",""
"","html-keyboard-response","489","1696991","0.0-258.0-1.0","null","<p></p>","null","","","","","","","","","","","","","","","","","","",""
"","do_trial","490","1702290","0.0-259.0-0.0","735.1000000014901","","","","50","1,1,1","5","forest","197","probe-169","0.5309806572325992","0.194114210577872","0.20265216101153719","1","","","","","","","",""
"","html-keyboard-response","491","1703293","0.0-259.0-1.0","null","<p></p>","null","","","","","","","","","","","","","","","","","","",""
"","do_trial","492","1708819","0.0-260.0-0.0","961.1999999992549","","","","50","0,0,0","5","forest","198","probe-71","0.4936922414639365","0.10703515376801032","0.31770814487927523","0","","","","","","","",""
"","html-keyboard-response","493","1709822","0.0-260.0-1.0","null","<p></p>","null","","","","","","","","","","","","","","","","","","",""
"","do_trial","494","1715517","0.0-261.0-0.0","1128.7999999970198","","","","50","1,1,0","5","forest","199","probe-77","0.5562675608554162","0.2840153816740739","0.22638611388299723","1","","","","","","","",""
"","html-keyboard-response","495","1716520","0.0-261.0-1.0","null","<p></p>","null","","","","","","","","","","","","","","","","","","",""
"","do_trial","496","1721480","0.0-262.0-0.0","393.30000000074506","","","","50","0,1,0","5","forest","200","probe-21","0.5244200238289047","0.2566828608101764","0.20801524656313464","1","","","","","","","",""
"","html-keyboard-response","497","1722483","0.0-262.0-1.0","null","<p></p>","null","","","","","","","","","","","","","","","","","","",""
"","do_trial","498","1727449","0.0-263.0-0.0","401.1000000014901","","","","50","1,0,0","5","forest","201","probe-41","0.5103643192933324","0.3114971722163759","0.11768139502510185","0","","","","","","","",""
"","html-keyboard-response","499","1728451","0.0-263.0-1.0","null","<p></p>","null","","","","","","","","","","","","","","","","","","",""
"","do_trial","500","1733441","0.0-264.0-0.0","425.19999999925494","","","","49","0,0,0","5","forest","202","probe-92","0.5253492369216598","0.3208105043589599","0.2698029318064917","0","","","","","","","",""
"","html-keyboard-response","501","1734444","0.0-264.0-1.0","null","<p></p>","null","","","","","","","","","","","","","","","","","","",""
"","do_trial","502","1739665","0.0-265.0-0.0","654.3000000007451","","","","49","1,1,0","5","forest","203","probe-210","0.4328167058969043","0.16863492942386843","0.5277685381080073","1","","","","","","","",""
"","html-keyboard-response","503","1740668","0.0-265.0-1.0","null","<p></p>","null","","","","","","","","","","","","","","","","","","",""
"","do_trial","504","1745678","0.0-266.0-0.0","443.80000000074506","","","","49","1,1,1","5","forest","204","probe-94","0.5158870249264761","0.2852915161956891","0.5899813101616441","1","","","","","","","",""
"","html-keyboard-response","505","1746680","0.0-266.0-1.0","null","<p></p>","null","","","","","","","","","","","","","","","","","","",""
"","do_trial","506","1751915","0.0-267.0-0.0","670.3000000007451","","","","49","1,0,0","5","forest","205","probe-79","0.36543322058137306","0.28573901805924967","0.6436378532409883","1","","","","","","","",""
"","html-keyboard-response","507","1752918","0.0-267.0-1.0","null","<p></p>","null","","","","","","","","","","","","","","","","","","",""
"","do_trial","508","1757800","0.0-268.0-0.0","316.3999999985099","","","","49","0,0,0","5","forest","206","probe-37","0.1773314989916114","0.3469366621661853","0.5744825135139403","0","","","","","","","",""
"","html-keyboard-response","509","1758805","0.0-268.0-1.0","null","<p></p>","null","","","","","","","","","","","","","","","","","","",""
"","do_trial","510","1763786","0.0-269.0-0.0","418.4000000022352","","","","51","1,0,1","5","forest","207","probe-48","0.22948389525200952","0.15927189266036998","0.6588824440835357","1","","","","","","","",""
"","html-keyboard-response","511","1764790","0.0-269.0-1.0","null","<p></p>","null","","","","","","","","","","","","","","","","","","",""
"","do_trial","512","1769855","0.0-270.0-0.0","496.5999999977648","","","","51","0,1,0","5","forest","208","probe-23","0.34804157021304455","0.24103578518793584","0.6732053400824759","0","","","","","","","",""
"","html-keyboard-response","513","1770858","0.0-270.0-1.0","null","<p></p>","null","","","","","","","","","","","","","","","","","","",""
"","do_trial","514","1776136","0.0-271.0-0.0","694.4000000022352","","","","51","0,0,1","5","forest","209","probe-105","0.3921462153309854","0.1400609280537873","0.6272941220995173","1","","","","","","","",""
"","html-keyboard-response","515","1777139","0.0-271.0-1.0","null","<p></p>","null","","","","","","","","","","","","","","","","","","",""
"","do_trial","516","1782458","0.0-272.0-0.0","754.7999999970198","","","","51","1,0,1","5","forest","210","probe-29","0.4022308214301101","0.22387827762154527","0.5749554785015157","1","","","","","","","",""
"","html-keyboard-response","517","1783461","0.0-272.0-1.0","null","<p></p>","null","","","","","","","","","","","","","","","","","","",""
"","do_trial","518","1788952","0.0-273.0-0.0","923.6999999992549","","","","51","0,0,0","5","forest","211","probe-188","0.24711066286527378","0.247399709338359","0.7867504529326727","0","","","","","","","",""
"","html-keyboard-response","519","1789954","0.0-273.0-1.0","null","<p></p>","null","","","","","","","","","","","","","","","","","","",""
"","do_trial","520","1795139","0.0-274.0-0.0","617.3000000007451","","","","51","0,1,1","5","forest","212","probe-166","0.19442838147997168","0.22932088483665916","0.7597202467522288","1","","","","","","","",""
"","html-keyboard-response","521","1796141","0.0-274.0-1.0","null","<p></p>","null","","","","","","","","","","","","","","","","","","",""
"","do_trial","522","1800923","0.0-275.0-0.0","217.60000000149012","","","","51","0,0,0","5","forest","213","probe-202","0.21675367875212254","0.27069925116161","0.74883463420464","0","","","","","","","",""
"","html-keyboard-response","523","1801927","0.0-275.0-1.0","null","<p></p>","null","","","","","","","","","","","","","","","","","","",""
"","do_trial","524","1807055","0.0-276.0-0.0","562.7999999970198","","","","51","1,1,1","5","forest","214","probe-217","0.30376229877107874","0.1912582246817054","0.7419851327818894","1","","","","","","","",""
"","html-keyboard-response","525","1808059","0.0-276.0-1.0","null","<p></p>","null","","","","","","","","","","","","","","","","","","",""
"","do_trial","526","1813221","0.0-277.0-0.0","597.5","","","","51","1,0,1","5","forest","215","probe-203","0.3679614529215489","0.050853040448449786","0.8040662509717516","1","","","","","","","",""
"","html-keyboard-response","527","1814224","0.0-277.0-1.0","null","<p></p>","null","","","","","","","","","","","","","","","","","","",""
"","do_trial","528","1819231","0.0-278.0-0.0","444.19999999925494","","","","51","0,0,0","5","forest","216","probe-109","0.44439151075680705","0.0524832628707508","0.7005075176132851","0","","","","","","","",""
"","html-keyboard-response","529","1820235","0.0-278.0-1.0","null","<p></p>","null","","","","","","","","","","","","","","","","","","",""
"","do_trial","530","1825463","0.0-279.0-0.0","660.6999999992549","","","","50","1,0,1","5","forest","217","probe-102","0.4014918613854589","0.10161556004953952","0.6119916662221591","0","","","","","","","",""
"","html-keyboard-response","531","1826466","0.0-279.0-1.0","null","<p></p>","null","","","","","","","","","","","","","","","","","","",""
"","do_trial","532","1831507","0.0-280.0-0.0","477","","","","50","0,0,0","5","forest","218","probe-141","0.27314863140433693","0.15580038204626623","0.41393937666254665","0","","","","","","","",""
"","html-keyboard-response","533","1832510","0.0-280.0-1.0","null","<p></p>","null","","","","","","","","","","","","","","","","","","",""
