"success","trial_type","trial_index","time_elapsed","internal_node_id","rt","stimulus","key_press","subject_id","response","choice_outcomes","context_n","context_img_id","trial_n","probe_img_id","pR_red","pR_white","pR_black","outcome","contextArray_ind","validImageProbes","invalidImageProbes","pRew_Red","pRew_White","pRew_Black","availableForMemProbe","choice_blocks"
"true","fullscreen","0","8047","0.0-0.0","","","","","","","","","","","","","","","","","","","","","",""
"","pavlovia","1","8051","0.0-1.0","","","","","","","","","","","","","","","","","","","","","",""
"","html-keyboard-response","2","35544","0.0-2.0","27490.79999999999","<div class='center'><p>Welcome! This is the first day of the experiment which will last ~30 minutes. In this experiment, you are the head captain of a pirate ship traveling around the world to different places. You will complete several different tasks during this experiment. Here is an overview of these tasks:</p><br><p>Day 1</p><p>1. Tutorial and quiz</p><p>2. Pick a pirate game in 6 different places</p><br><p>Day 2</p><p>3. Pick a pirate game and memory game</p><p>4. Final questions and payment</p><br><p>If you complete the entire experiment, you will receive $15 and a possible bonus payment.</p><p><b>[Press the space bar to begin the tutorial]</b></p></div>","32","6108a9d24e7f19c6f3469291","","","","","","","","","","","","","","","","","",""
"","html-keyboard-response","3","40933","0.0-3.0","5387.599999999977","<div class='center'><p>You’ll stop at these 6 islands on your journey. You'll be able to see them in the distance from your ship.</p><p><img src='run_exp/static/images/contexts/all_contexts.png' height='500'></p><p><b>[Press the space bar to continue]</b></p></div>","32","","","","","","","","","","","","","","","","","","",""
"","html-keyboard-response","4","47158","0.0-4.0","6224.5","<div class='center'><p> The pirates on your ship will rob other ships as they leave island</p> These ships have just sold their things to the people living on the island, so they will have lots and lots of gold on them.</p><p><img src='run_exp/static/images/tutorial/ship_center.png' height='400'></p><p><b>[Press the space bar to continue]</b></p></div>","32","","","","","","","","","","","","","","","","","","",""
"","html-keyboard-response","5","58234","0.0-5.0","11074","<div class='center'><p>As the head captain, you do not have to rob any ships yourself.</p><p>Another pirate will be doing the robbing for you. </p><p><img src='run_exp/static/images/tutorial/pirates_all_crop.png' height='200'></p><p>If they could rob the ship, then you will get a stack of gold coins like this:</p><p><img src='run_exp/static/images/tutorial/reward.png' height='150'></p><p> If they couldn't rob the ship, then you will get no gold coins and you'll see a big red x like this: </p><p><img src='run_exp/static/images/tutorial/reward_no.png' height='150'></p><p> How much bonus money you make is based on how many gold coins you collect.</p><p><b>[Press the space bar to continue]</b></p><div>","32","","","","","","","","","","","","","","","","","","",""
"","html-keyboard-response","6","72351","0.0-6.0","14115.300000000047","<div class='center'><p>Even the most skilled pirate can not rob EVERY ship.</p><p> Some ships will have very strong defenses against pirate attacks.</p><p> For example, blue beard, here, is very, very good at robbing ships.</p><p> You can press the <b>‘1’</b> button on the keyboard to choose him.</p><p> Try choosing him 10 times to see how often he can rob a ship. </p><p><img src='run_exp/static/images/tutorial/blue.png' height='500'></p></div>","49","","","","","","","","","","","","","","","","","","",""
"","html-keyboard-response","7","73858","0.0-7.0","null","<div class='center'><p><img src='run_exp/static/images/tutorial/blue_win.png' height='500'></p></div>","null","","","","","","","","","","","","","","","","","","",""
"","html-keyboard-response","8","75320","0.0-8.0","1460.6999999999534","<div class='center'><img src='run_exp/static/images/tutorial/blue.png' height='500'></p></div>","49","","","","","","","","","","","","","","","","","","",""
"","html-keyboard-response","9","76826","0.0-9.0","null","<div class='center'><p><img src='run_exp/static/images/tutorial/blue_win.png' height='500'></p></div>","null","","","","","","","","","","","","","","","","","","",""
"","html-keyboard-response","10","76933","0.0-10.0","106.19999999995343","<div class='center'><img src='run_exp/static/images/tutorial/blue.png' height='500'></p></div>","49","","","","","","","","","","","","","","","","","","",""
"","html-keyboard-response","11","78439","0.0-11.0","null","<div class='center'><p><img src='run_exp/static/images/tutorial/blue_win.png' height='500'></p></div>","null","","","","","","","","","","","","","","","","","","",""
"","html-keyboard-response","12","78528","0.0-12.0","87","<div class='center'><img src='run_exp/static/images/tutorial/blue.png' height='500'></p></div>","49","","","","","","","","","","","","","","","","","","",""
"","html-keyboard-response","13","80029","0.0-13.0","null","<div class='center'><p><img src='run_exp/static/images/tutorial/blue_no_win.png' height='500'></p></div>","null","","","","","","","","","","","","","","","","","","",""
"","html-keyboard-response","14","81016","0.0-14.0","986.4000000000233","<div class='center'><img src='run_exp/static/images/tutorial/blue.png' height='500'></p></div>","49","","","","","","","","","","","","","","","","","","",""
"","html-keyboard-response","15","82518","0.0-15.0","null","<div class='center'><p><img src='run_exp/static/images/tutorial/blue_win.png' height='500'></p></div>","null","","","","","","","","","","","","","","","","","","",""
"","html-keyboard-response","16","82942","0.0-16.0","423","<div class='center'><img src='run_exp/static/images/tutorial/blue.png' height='500'></p></div>","49","","","","","","","","","","","","","","","","","","",""
"","html-keyboard-response","17","84446","0.0-17.0","null","<div class='center'><p><img src='run_exp/static/images/tutorial/blue_win.png' height='500'></p></div>","null","","","","","","","","","","","","","","","","","","",""
"","html-keyboard-response","18","84913","0.0-18.0","466","<div class='center'><img src='run_exp/static/images/tutorial/blue.png' height='500'></p></div>","49","","","","","","","","","","","","","","","","","","",""
"","html-keyboard-response","19","86420","0.0-19.0","null","<div class='center'><p><img src='run_exp/static/images/tutorial/blue_win.png' height='500'></p></div>","null","","","","","","","","","","","","","","","","","","",""
"","html-keyboard-response","20","86837","0.0-20.0","416.5","<div class='center'><img src='run_exp/static/images/tutorial/blue.png' height='500'></p></div>","49","","","","","","","","","","","","","","","","","","",""
"","html-keyboard-response","21","88339","0.0-21.0","null","<div class='center'><p><img src='run_exp/static/images/tutorial/blue_no_win.png' height='500'></p></div>","null","","","","","","","","","","","","","","","","","","",""
"","html-keyboard-response","22","88940","0.0-22.0","600.2000000000698","<div class='center'><img src='run_exp/static/images/tutorial/blue.png' height='500'></p></div>","49","","","","","","","","","","","","","","","","","","",""
"","html-keyboard-response","23","90446","0.0-23.0","null","<div class='center'><p><img src='run_exp/static/images/tutorial/blue_win.png' height='500'></p></div>","null","","","","","","","","","","","","","","","","","","",""
"","html-keyboard-response","24","90807","0.0-24.0","359.9000000000233","<div class='center'><img src='run_exp/static/images/tutorial/blue.png' height='500'></p></div>","49","","","","","","","","","","","","","","","","","","",""
"","html-keyboard-response","25","92313","0.0-25.0","null","<div class='center'><p><img src='run_exp/static/images/tutorial/blue_win.png' height='500'></p></div>","null","","","","","","","","","","","","","","","","","","",""
"","html-keyboard-response","26","95224","0.0-26.0","2910.8000000000466","<div class='center'><p> See, he could rob the ships most of the time but not every time. </p><p><b>[Press the space bar to continue]</b></p></div>","32","","","","","","","","","","","","","","","","","","",""
"","html-keyboard-response","27","102570","0.0-27.0","7335.199999999953","<div class='center'><p>You will get to choose which of three pirates you want to rob the next ship. <p>Press the <b>‘1’</b> button on your keyboard to pick the pirate with the red beard.</p><p> Press <b>‘2’</b> to pick the pirate with the white beard.</p><p> Press <b>‘3’</b> to pick the pirate with the black beard.</p><p>Try picking a pirate now!</p><p><img src='run_exp/static/images/tutorial/all_pirates.png' height='500'></p></div>","51","","","","","","","","","","","","","","","","","","",""
"","html-keyboard-response","28","104311","0.0-28.0-0.0","1731.3000000000466","<div class='center'><p>This pirate could rob the ship!</p><p><img src='run_exp/static/images/tutorial/black_win.png' height='500'></p><p><b>[Press the space bar to continue]</b></p></div>","32","","","","","","","","","","","","","","","","","","",""
"","html-keyboard-response","29","105954","0.0-28.0-1.0","1641.1999999999534","<div class='center'><p>Now try choosing another</p><p><img src='run_exp/static/images/tutorial/all_pirates.png' height='500'></p></div>","50","","","","","","","","","","","","","","","","","","",""
"","html-keyboard-response","30","106799","0.0-29.0-0.0","844.4000000000233","<div class='center'><p>This pirate could not rob the ship!</p><p><img src='run_exp/static/images/tutorial/white_no_win.png' height='500'></p><p><b>[Press the space bar to continue]</b></p></div>","32","","","","","","","","","","","","","","","","","","",""
"","html-keyboard-response","31","114027","0.0-30.0-0.0","7226.800000000047","<div class='center'><p>If you don’t make your choice fast enough, you’ll have to wait a few seconds before you can make another one. </p><p>You can’t collect more gold coins. You just have to sit and wait.</p><p><img src='run_exp/static/images/miscellaneous/hurry_up.png' height='500'></p><p><b>[Press the space bar to continue]</b></p></div>","32","","","","","","","","","","","","","","","","","","",""
"","html-keyboard-response","32","137612","0.0-30.0-1.0","23583.599999999977","<div class='center'><p>Once you choose a pirate, you’ll be shown the ship they are robbing.</p><p>You will never rob the same ship twice.</p><p>Ships can be told apart from one another by the image on them.</p><p> Every time you see a ship, you will have to remember on which island you saw it.</p><p> Remembering correctly will help you win more bonus money!</p><p>A helpful strategy is to try to come up with a story of the object on the ship interacting with the current island scene.</p><p> For example, here, you could imagine a mug full of water in the desert. </p><p>For a ship with an apple on it on the forest island, you could imagine an apple falling from a tree in the forest.</p><p><img src='run_exp/static/images/tutorial/example_probe.png' height='500'></p><p><b>[Press the space bar to continue]</b></p></div>","32","","","","","","","","","","","","","","","","","","",""
"","html-keyboard-response","33","148113","0.0-30.0-2.0","10500.699999999953","<div class='center'><p>How good a pirate is at robbing ships will depend on the current island.</p><p> A pirate may have visited the island many times before and gained a lot of practice robbing ships there.</p><p>So, they're more likely to bring back gold coins than a pirate who has never visited this island before. </p><p><b>[Press the space bar to continue]</b></p></div>","32","","","","","","","","","","","","","","","","","","",""
"","html-keyboard-response","34","164588","0.0-30.0-3.0","16474.099999999977","<div class='center'><p>How good a pirate is at robbing ships can also change over the time spent on the island<p> Ships may hear from islanders about the pirates coming and will improve their protection against the attack. This may make it harder to rob them.</p><p> Ships may also become lazy and lower their protection. This may make it easier to rob them.</p><br><p>Things are always changing on the high seas! So, try your best to pay attention!</p><p><img src='run_exp/static/images/tutorial/contingency.png' height='500'></p><p><b>[Press the space bar to continue]</b></p></div>","32","","","","","","","","","","","","","","","","","","",""
"","html-keyboard-response","35","210986","0.0-30.0-4.0","46397.39999999991","<div class='center'><p>Let's go over the instructions quickly again.You have two important things to do: </p><b><p> 1. Pick the pirate who is the best at robbing ships on the current island.</p></b><b><p> 2. Remember on which island a ship was robbed.</p> </b><p>How much bonus money you make is based on both. </p><br><p>Let’s try a practice game. The game will start by showing you the pirates. First pick a pirate using the <b> 1, 2, 3 </b> buttons on your keyboard. When you are shown a ship, try to remember the island you’re on by making up a story.</p><p> You only have 3 seconds to pick a pirate, so please make a choice quickly! If you are too slow, you’ll have to wait a bit during the time out.</p><p> Don’t feel rushed, but please do try to make a choice every time.</p><p>This is just a practice game, so you’re not playing for money. </p><p> Good luck, remember press <b>'1'</b> to choose red beard, <b>'2'</b> to choose white beard, and <b>'3'</b> to choose black beard</p><p><b>[Press the space bar to begin the practice game]</b></p></div>","32","","","","","","","","","","","","","","","","","","",""
"","do_welcome","36","212507","0.0-30.0-5.0","null","","","","null","","","","","","","","","","","","","","","","",""
"","do_trial","37","217864","0.0-30.0-6.0","833.1999999999534","","","","49","1,0,0","","","","","","","","","","","","","","","",""
"","html-keyboard-response","38","218869","0.0-31.0-0.0","null","<p></p>","null","","","","","","","","","","","","","","","","","","",""
"","do_trial","39","224253","0.0-31.0-1.0","871.3000000000466","","","","50","1,1,0","","","","","","","","","","","","","","","",""
"","html-keyboard-response","40","225259","0.0-32.0-0.0","null","<p></p>","null","","","","","","","","","","","","","","","","","","",""
"","do_trial","41","230418","0.0-32.0-1.0","645.9000000000233","","","","50","1,0,1","","","","","","","","","","","","","","","",""
"","html-keyboard-response","42","231422","0.0-33.0-0.0","null","<p></p>","null","","","","","","","","","","","","","","","","","","",""
"","do_trial","43","236241","0.0-33.0-1.0","306.30000000004657","","","","51","0,1,0","","","","","","","","","","","","","","","",""
"","html-keyboard-response","44","237246","0.0-34.0-0.0","null","<p></p>","null","","","","","","","","","","","","","","","","","","",""
"","do_trial","45","242620","0.0-34.0-1.0","861.3999999999069","","","","49","1,0,0","","","","","","","","","","","","","","","",""
"","do_bye","46","244126","0.0-35.0-0.0","null","","","","null","","","","","","","","","","","","","","","","",""
"","do_travel","47","250134","0.0-35.0-1.0","null","","","","null","","","","","","","","","","","","","","","","",""
"","do_welcome","48","251644","0.0-35.0-2.0","null","","","","null","","","","","","","","","","","","","","","","",""
"","do_trial","49","256784","0.0-35.0-3.0","630.2999999999302","","","","49","1,0,0","","","","","","","","","","","","","","","",""
"","html-keyboard-response","50","257790","0.0-36.0-0.0","null","<p></p>","null","","","","","","","","","","","","","","","","","","",""
"","do_trial","51","262741","0.0-36.0-1.0","440.4000000000233","","","","50","1,0,1","","","","","","","","","","","","","","","",""
"","html-keyboard-response","52","263745","0.0-37.0-0.0","null","<p></p>","null","","","","","","","","","","","","","","","","","","",""
"","do_trial","53","268564","0.0-37.0-1.0","306.5","","","","49","1,1,0","","","","","","","","","","","","","","","",""
"","html-keyboard-response","54","269569","0.0-38.0-0.0","null","<p></p>","null","","","","","","","","","","","","","","","","","","",""
"","do_trial","55","274466","0.0-38.0-1.0","385","","","","51","0,0,1","","","","","","","","","","","","","","","",""
"","html-keyboard-response","56","275469","0.0-39.0-0.0","null","<p></p>","null","","","","","","","","","","","","","","","","","","",""
"","do_trial","57","280327","0.0-39.0-1.0","345.29999999993015","","","","51","1,0,1","","","","","","","","","","","","","","","",""
"","html-keyboard-response","58","283033","0.0-40.0-0.0","2695.79999999993","<div class='center'><p><img src='run_exp/static/images/tutorial/prac_best_pirate.png'  height='500'></p></div>","51","","","","","","","","","","","","","","","","","","",""
"","html-keyboard-response","59","285250","0.0-41.0-0.0","2216.1999999999534","<div class='center'><p>That's incorrect! Red beard was the best.</p><p><b>[Press the space bar to continue]</b></p></div>","32","","","","","","","","","","","","","","","","","","",""
"","html-keyboard-response","60","288720","0.0-41.0-1.0","3468.9000000000233","<div class='center'><p><img src='run_exp/static/images/tutorial/prac_source.png'  height='500'></p></div>","50","","","","","","","","","","","","","","","","","","",""
"","html-keyboard-response","61","291006","0.0-42.0-0.0","2285.5999999999767","<div class='center'><p>That's correct! You saw this ship on the cavern island.</p><p><b>[Press the space bar to continue]</b></p></div>","32","","","","","","","","","","","","","","","","","","",""
"","html-keyboard-response","62","299062","0.0-42.0-1.0","8054.800000000047","<div class='center'><p>Good job on the practice game! Now, you will be asked you some true or false questions to make sure you really understand the rules of the game.</p><p> Press <b>'1'</b> on the keyboard for true and press <b>'2'</b> for false.</p><p><b>[Press the space bar to begin the quiz]</b></p></div>","32","","","","","","","","","","","","","","","","","","",""
"","html-keyboard-response","63","302064","0.0-42.0-2.0","2993.4000000000233","<div class='center'><p>You win bonus money by making choices as fast as possible.</p><p>Press 1 for true and press  2 for false.</p></div>","49","","","","","","","","","","","","","","","","","","",""
"","html-keyboard-response","64","304530","0.0-43.0-0.0","2464.8000000000466","<<div class='center'><p>That’s incorrect! You win bonus money by collecting as many gold coins as possible!</p><p><b>[press the space bar to continue with the quiz]</b></p></div>","32","","","","","","","","","","","","","","","","","","",""
"","html-keyboard-response","65","309268","0.0-43.0-1.0","4737","<div class='center'><p>You press the <b>‘3’</b> button on the keyboard to choose the red bearded pirate. </p><p>Press 1 for true and press  2 for false.</p></div>","50","","","","","","","","","","","","","","","","","","",""
"","html-keyboard-response","66","310290","0.0-44.0-0.0","1020.5999999999767","<div class='center'><p>That's correct!</p> <p><b>[press the space bar to continue with the quiz]</b></p></div>","32","","","","","","","","","","","","","","","","","","",""
"","html-keyboard-response","67","313878","0.0-44.0-1.0","3587.6999999999534","<div class='center'><p>The pirate who is the best at robbing ships on the first island will be the best on every other island.</p><p>Press 1 for true and press  2 for false.</p></div>","50","","","","","","","","","","","","","","","","","","",""
"","html-keyboard-response","68","314449","0.0-45.0-0.0","569.6000000000931","<div class='center'><p>That's correct!</p> <p><b>[press the space bar to continue with the quiz]</b></p></div>","32","","","","","","","","","","","","","","","","","","",""
"","html-keyboard-response","69","317493","0.0-45.0-1.0","3043.1999999999534","<div class='center'><p>You should remember the island where a pirate robbed a ship.</p><p>Press 1 for true and press  2 for false.</p></div>","49","","","","","","","","","","","","","","","","","","",""
"","html-keyboard-response","70","318073","0.0-46.0-0.0","577.0999999999767","<div class='center'><p>That's correct!</p> <p><b>[press the space bar to continue with the quiz]</b></p></div>","32","","","","","","","","","","","","","","","","","","",""
"","html-keyboard-response","71","323911","0.0-47.0-0.0","5837.699999999953","<div class='center'><p>Oops, you missed some questions. Now that you’ve heard the correct answers. Try the quiz again! If you fail the quiz too many times, you won’t be able to do the experiment. </p> <p><br>[press the space bar to repeat the quiz]</br></p></div>","32","","","","","","","","","","","","","","","","","","",""
"","html-keyboard-response","72","325576","0.0-47.0-1.0","1664.5999999999767","<div class='center'><p>You win bonus money by making choices as fast as possible.</p><p>Press 1 for true and press  2 for false.</p></div>","50","","","","","","","","","","","","","","","","","","",""
"","html-keyboard-response","73","326921","0.0-48.0-0.0","1343.4000000000233","<div class='center'><p>That's correct!</p> <p><b>[press the space bar to continue with the quiz]</b></p></div>","32","","","","","","","","","","","","","","","","","","",""
"","html-keyboard-response","74","329282","0.0-48.0-1.0","2360.8000000000466","<div class='center'><p>You press the <b>‘3’</b> button on the keyboard to choose the red bearded pirate. </p><p>Press 1 for true and press  2 for false.</p></div>","50","","","","","","","","","","","","","","","","","","",""
"","html-keyboard-response","75","330268","0.0-49.0-0.0","985","<div class='center'><p>That's correct!</p> <p><b>[press the space bar to continue with the quiz]</b></p></div>","32","","","","","","","","","","","","","","","","","","",""
"","html-keyboard-response","76","333286","0.0-49.0-1.0","3017.5999999999767","<div class='center'><p>The pirate who is the best at robbing ships on the first island will be the best on every other island.</p><p>Press 1 for true and press  2 for false.</p></div>","50","","","","","","","","","","","","","","","","","","",""
"","html-keyboard-response","77","334339","0.0-50.0-0.0","1051.7000000000698","<div class='center'><p>That's correct!</p> <p><b>[press the space bar to continue with the quiz]</b></p></div>","32","","","","","","","","","","","","","","","","","","",""
"","html-keyboard-response","78","336578","0.0-50.0-1.0","2238.4000000000233","<div class='center'><p>You should remember the island where a pirate robbed a ship.</p><p>Press 1 for true and press  2 for false.</p></div>","49","","","","","","","","","","","","","","","","","","",""
"","html-keyboard-response","79","337720","0.0-51.0-0.0","1134","<div class='center'><p>That's correct!</p> <p><b>[press the space bar to continue with the quiz]</b></p></div>","32","","","","","","","","","","","","","","","","","","",""
"","html-keyboard-response","80","374152","0.0-52.0-0.0","36431","<div class='center'><p>Good job! You’re now ready to move on to the real game!</p> <p><br>[press the space bar to begin!]</br></p></div>","32","","","","","","","","","","","","","","","","","","",""
"","do_welcome","81","375662","0.0-53.0-0.0","null","","","","null","","","","","","","","","","","","","","","","",""
"","do_trial","82","380921","0.0-54.0-0.0","706.0999999999767","","","","49","0,0,0","0","coast","0","probe-01","0.6","0.3","0.1","0","","","","","","","",""
"","html-keyboard-response","83","381927","0.0-54.0-1.0","null","<p></p>","null","","","","","","","","","","","","","","","","","","",""
"","do_trial","84","386838","0.0-55.0-0.0","357.9000000000233","","","","50","1,0,1","0","coast","1","probe-51","0.5651080701711204","0.1424095866787399","0.1289690677135769","0","","","","","","","",""
"","html-keyboard-response","85","387844","0.0-55.0-1.0","null","<p></p>","null","","","","","","","","","","","","","","","","","","",""
"","do_trial","86","392850","0.0-56.0-0.0","454.5","","","","51","1,0,0","0","coast","2","probe-226","0.5207986528410898","0.2895526968396028","0.15192029348729413","0","","","","","","","",""
"","html-keyboard-response","87","393854","0.0-56.0-1.0","null","<p></p>","null","","","","","","","","","","","","","","","","","","",""
"","do_trial","88","398946","0.0-57.0-0.0","540.4000000000233","","","","49","1,0,0","0","coast","3","probe-192","0.5028634511566007","0.2429530198882379","0.1622624395146469","1","","","","","","","",""
"","html-keyboard-response","89","399951","0.0-57.0-1.0","null","<p></p>","null","","","","","","","","","","","","","","","","","","",""
"","do_trial","90","405261","0.0-58.0-0.0","757.7000000000698","","","","49","1,0,0","0","coast","4","probe-216","0.4828817893988768","0.2565262474251197","0.07278544707288372","1","","","","","","","",""
"","html-keyboard-response","91","406266","0.0-58.0-1.0","null","<p></p>","null","","","","","","","","","","","","","","","","","","",""
"","do_trial","92","411475","0.0-59.0-0.0","658","","","","49","1,1,0","0","coast","5","probe-106","0.5397698719211677","0.2761476563809007","0.08044437432671106","1","","","","","","","",""
"","html-keyboard-response","93","412480","0.0-59.0-1.0","null","<p></p>","null","","","","","","","","","","","","","","","","","","",""
"","do_trial","94","417657","0.0-60.0-0.0","628.5999999999767","","","","49","0,0,0","0","coast","6","probe-210","0.46300420180532714","0.28606885486134154","0.17562583157153575","0","","","","","","","",""
"","html-keyboard-response","95","418660","0.0-60.0-1.0","null","<p></p>","null","","","","","","","","","","","","","","","","","","",""
"","do_trial","96","423593","0.0-61.0-0.0","383.9000000000233","","","","51","0,0,0","0","coast","7","probe-43","0.38955629809778336","0.20349518970757252","0.2565281330371683","0","","","","","","","",""
"","html-keyboard-response","97","424597","0.0-61.0-1.0","null","<p></p>","null","","","","","","","","","","","","","","","","","","",""
"","do_trial","98","429514","0.0-62.0-0.0","371.0999999999767","","","","49","0,0,1","0","coast","8","probe-165","0.4004572099789921","0.21974718569092339","0.3020013955665349","0","","","","","","","",""
"","html-keyboard-response","99","430518","0.0-62.0-1.0","null","<p></p>","null","","","","","","","","","","","","","","","","","","",""
"","do_trial","100","435414","0.0-63.0-0.0","344.30000000004657","","","","50","0,1,0","0","coast","9","probe-42","0.49574924068997706","0.21267851078369945","0.2427462371244248","1","","","","","","","",""
"","html-keyboard-response","101","436418","0.0-63.0-1.0","null","<p></p>","null","","","","","","","","","","","","","","","","","","",""
"","do_trial","102","441497","0.0-64.0-0.0","526.3000000000466","","","","50","0,0,0","0","coast","10","probe-74","0.5159091232980054","0.327231302295903","0.11013762243864929","0","","","","","","","",""
"","html-keyboard-response","103","442501","0.0-64.0-1.0","null","<p></p>","null","","","","","","","","","","","","","","","","","","",""
"","do_trial","104","447333","0.0-65.0-0.0","281.30000000004657","","","","49","0,0,0","0","coast","11","probe-145","0.5393118830827723","0.20270997346417727","0.17032842828026895","0","","","","","","","",""
"","html-keyboard-response","105","448339","0.0-65.0-1.0","null","<p></p>","null","","","","","","","","","","","","","","","","","","",""
"","do_trial","106","453276","0.0-66.0-0.0","385.89999999990687","","","","51","0,0,1","0","coast","12","probe-197","0.45963704244677717","0.1857270471810722","0.2350821257189147","1","","","","","","","",""
"","html-keyboard-response","107","454280","0.0-66.0-1.0","null","<p></p>","null","","","","","","","","","","","","","","","","","","",""
"","do_trial","108","459770","0.0-67.0-0.0","938.7999999999302","","","","49","0,0,0","0","coast","13","probe-206","0.40856367975194846","0.13026508458043823","0.21513046085941745","0","","","","","","","",""
"","html-keyboard-response","109","460774","0.0-67.0-1.0","null","<p></p>","null","","","","","","","","","","","","","","","","","","",""
"","do_trial","110","465597","0.0-68.0-0.0","270.5999999999767","","","","50","1,0,0","0","coast","14","probe-219","0.5401060121348168","0.071855869180387","0.17397523213608876","0","","","","","","","",""
"","html-keyboard-response","111","466601","0.0-68.0-1.0","null","<p></p>","null","","","","","","","","","","","","","","","","","","",""
"","do_trial","112","471562","0.0-69.0-0.0","408.4000000000233","","","","49","0,0,1","0","coast","15","probe-30","0.5020022845898553","0.052928980913536726","0.21257244696123623","0","","","","","","","",""
"","html-keyboard-response","113","472568","0.0-69.0-1.0","null","<p></p>","null","","","","","","","","","","","","","","","","","","",""
"","do_trial","114","477413","0.0-70.0-0.0","293.0999999999767","","","","51","0,0,0","0","coast","16","probe-195","0.5939951968328433","0.2230317935166691","0.06884656594483887","0","","","","","","","",""
"","html-keyboard-response","115","478419","0.0-70.0-1.0","null","<p></p>","null","","","","","","","","","","","","","","","","","","",""
"","do_trial","116","483245","0.0-71.0-0.0","275.19999999995343","","","","49","1,1,0","0","coast","17","probe-199","0.49744754595365015","0.28015499086920165","0.05128182862290845","1","","","","","","","",""
"","html-keyboard-response","117","484250","0.0-71.0-1.0","null","<p></p>","null","","","","","","","","","","","","","","","","","","",""
"","do_trial","118","489140","0.0-72.0-0.0","340.30000000004657","","","","51","0,0,0","0","coast","18","probe-227","0.5741600589699254","0.2854088947831594","0.07058647890349884","0","","","","","","","",""
"","html-keyboard-response","119","490146","0.0-72.0-1.0","null","<p></p>","null","","","","","","","","","","","","","","","","","","",""
"","do_trial","120","495148","0.0-73.0-0.0","450","","","","49","0,1,0","0","coast","19","probe-167","0.6651692704459553","0.31898470228941744","0.19471930977123758","0","","","","","","","",""
"","html-keyboard-response","121","496153","0.0-73.0-1.0","null","<p></p>","null","","","","","","","","","","","","","","","","","","",""
"","do_trial","122","501154","0.0-74.0-0.0","449.5","","","","49","0,0,0","0","coast","20","probe-23","0.675399494716406","0.24891664426057813","0.07266695504250903","0","","","","","","","",""
"","html-keyboard-response","123","502158","0.0-74.0-1.0","null","<p></p>","null","","","","","","","","","","","","","","","","","","",""
"","do_trial","124","507299","0.0-75.0-0.0","589.5","","","","50","1,0,0","0","coast","21","probe-80","0.5259218369011751","0.27656334679082445","0.12683758918809993","0","","","","","","","",""
"","html-keyboard-response","125","508304","0.0-75.0-1.0","null","<p></p>","null","","","","","","","","","","","","","","","","","","",""
"","do_trial","126","513244","0.0-76.0-0.0","389.4000000000233","","","","51","0,1,0","0","coast","22","probe-177","0.5043896404544337","0.2084257780979196","0.09562081377976193","0","","","","","","","",""
"","html-keyboard-response","127","514249","0.0-76.0-1.0","null","<p></p>","null","","","","","","","","","","","","","","","","","","",""
"","do_trial","128","519144","0.0-77.0-0.0","342.0999999999767","","","","49","1,0,0","0","coast","23","probe-181","0.6384804907112102","0.1561816527864037","0.07071453530593053","1","","","","","","","",""
"","html-keyboard-response","129","520148","0.0-77.0-1.0","null","<p></p>","null","","","","","","","","","","","","","","","","","","",""
"","do_trial","130","525203","0.0-78.0-0.0","508","","","","49","0,0,0","0","coast","24","probe-178","0.6475622724097001","0.12210564078504536","0.059486882691562326","0","","","","","","","",""
"","html-keyboard-response","131","526208","0.0-78.0-1.0","null","<p></p>","null","","","","","","","","","","","","","","","","","","",""
"","do_trial","132","531275","0.0-79.0-0.0","516","","","","49","1,0,0","0","coast","25","probe-128","0.47275935836784605","0.18333122197864365","0.057329902432220976","1","","","","","","","",""
"","html-keyboard-response","133","532279","0.0-79.0-1.0","null","<p></p>","null","","","","","","","","","","","","","","","","","","",""
"","do_trial","134","537130","0.0-80.0-0.0","299.60000000009313","","","","51","1,0,0","0","coast","26","probe-71","0.5936287089530442","0.16935465471948283","0.09292122803612216","0","","","","","","","",""
"","html-keyboard-response","135","538134","0.0-80.0-1.0","null","<p></p>","null","","","","","","","","","","","","","","","","","","",""
"","do_trial","136","543022","0.0-81.0-0.0","336.5","","","","49","0,0,0","0","coast","27","probe-57","0.6417304869699434","0.1955547771741302","0.05564501896416278","0","","","","","","","",""
"","html-keyboard-response","137","544027","0.0-81.0-1.0","null","<p></p>","null","","","","","","","","","","","","","","","","","","",""
"","do_trial","138","548963","0.0-82.0-0.0","384.30000000004657","","","","50","1,0,0","0","coast","28","probe-84","0.6132156203420632","0.3109302100304455","0.09709257635729664","0","","","","","","","",""
"","html-keyboard-response","139","549968","0.0-82.0-1.0","null","<p></p>","null","","","","","","","","","","","","","","","","","","",""
"","do_trial","140","554784","0.0-83.0-0.0","269.0999999999767","","","","49","1,1,0","0","coast","29","probe-174","0.6677617754274097","0.4085509454359568","0.09146962584955284","1","","","","","","","",""
"","html-keyboard-response","141","555790","0.0-83.0-1.0","null","<p></p>","null","","","","","","","","","","","","","","","","","","",""
"","do_bye","142","557297","0.0-84.0-0.0","null","","","","null","","","","","","","","","","","","","","","","",""
"","do_travel","143","563303","0.0-85.0-0.0","null","","","","null","","","","","","","","","","","","","","","","",""
"","do_welcome","144","564811","0.0-85.0-1.0","null","","","","null","","","","","","","","","","","","","","","","",""
"","do_trial","145","570018","0.0-86.0-0.0","655.4000000001397","","","","49","1,0,0","1","forest","30","probe-135","1","0.438842856053137","0.056879069685172264","1","","","","","","","",""
"","html-keyboard-response","146","571022","0.0-86.0-1.0","null","<p></p>","null","","","","","","","","","","","","","","","","","","",""
"","do_trial","147","576004","0.0-87.0-0.0","429.60000000009313","","","","50","1,1,0","1","forest","31","probe-101","1","0.2967972760245569","0.0853611710764611","1","","","","","","","",""
"","html-keyboard-response","148","577009","0.0-87.0-1.0","null","<p></p>","null","","","","","","","","","","","","","","","","","","",""
"","do_trial","149","581951","0.0-88.0-0.0","390.39999999990687","","","","51","1,0,0","1","forest","32","probe-98","1","0.29090908002186305","0.11263388129049863","0","","","","","","","",""
"","html-keyboard-response","150","582956","0.0-88.0-1.0","null","<p></p>","null","","","","","","","","","","","","","","","","","","",""
"","do_trial","151","587798","0.0-89.0-0.0","289.10000000009313","","","","49","1,0,0","1","forest","33","probe-44","0.9491265915858516","0.4454980470253477","0.11040137399717612","1","","","","","","","",""
"","html-keyboard-response","152","588803","0.0-89.0-1.0","null","<p></p>","null","","","","","","","","","","","","","","","","","","",""
"","do_trial","153","593630","0.0-90.0-0.0","273.60000000009313","","","","50","1,0,0","1","forest","34","probe-187","0.8660140128402813","0.3242623042553519","0.10484911690571767","0","","","","","","","",""
"","html-keyboard-response","154","594634","0.0-90.0-1.0","null","<p></p>","null","","","","","","","","","","","","","","","","","","",""
"","do_trial","155","599461","0.0-91.0-0.0","276.19999999995343","","","","49","1,0,0","1","forest","35","probe-201","0.6917658608680392","0.3197570580022398","0.15024092485629179","1","","","","","","","",""
"","html-keyboard-response","156","600465","0.0-91.0-1.0","null","<p></p>","null","","","","","","","","","","","","","","","","","","",""
"","do_trial","157","605408","0.0-92.0-0.0","390.5999999998603","","","","49","1,0,0","1","forest","36","probe-166","0.6697859341057213","0.39573606891724084","0.1848504827617454","1","","","","","","","",""
"","html-keyboard-response","158","606413","0.0-92.0-1.0","null","<p></p>","null","","","","","","","","","","","","","","","","","","",""
"","do_trial","159","611454","0.0-93.0-0.0","489.39999999990687","","","","49","1,1,0","1","forest","37","probe-140","0.6619910513744407","0.3463048654308173","0.07371389429746725","1","","","","","","","",""
"","html-keyboard-response","160","612458","0.0-93.0-1.0","null","<p></p>","null","","","","","","","","","","","","","","","","","","",""
"","do_trial","161","617368","0.0-94.0-0.0","358.19999999995343","","","","49","1,0,0","1","forest","38","probe-29","0.5503130183705637","0.24793387217442303","0.1151680940350689","1","","","","","","","",""
"","html-keyboard-response","162","618373","0.0-94.0-1.0","null","<p></p>","null","","","","","","","","","","","","","","","","","","",""
"","do_trial","163","623248","0.0-95.0-0.0","324.30000000004657","","","","51","1,1,0","1","forest","39","probe-105","0.542891022422499","0.3140213235709716","0.09989130827454512","0","","","","","","","",""
"","html-keyboard-response","164","624253","0.0-95.0-1.0","null","<p></p>","null","","","","","","","","","","","","","","","","","","",""
"","do_trial","165","629111","0.0-96.0-0.0","305.80000000004657","","","","49","1,1,0","1","forest","40","probe-202","0.5323404690414788","0.33287948081621466","0.06274469475030381","1","","","","","","","",""
"","html-keyboard-response","166","630115","0.0-96.0-1.0","null","<p></p>","null","","","","","","","","","","","","","","","","","","",""
"","do_trial","167","635023","0.0-97.0-0.0","352.5","","","","49","0,0,0","1","forest","41","probe-225","0.544201128473521","0.2814974463997722","0.18545193768390097","0","","","","","","","",""
"","html-keyboard-response","168","636027","0.0-97.0-1.0","null","<p></p>","null","","","","","","","","","","","","","","","","","","",""
"","do_trial","169","641064","0.0-98.0-0.0","484.79999999981374","","","","50","0,0,1","1","forest","42","probe-07","0.3281180701485962","0.2772336612601638","0.2928619112039019","0","","","","","","","",""
"","html-keyboard-response","170","642068","0.0-98.0-1.0","null","<p></p>","null","","","","","","","","","","","","","","","","","","",""
"","do_trial","171","647084","0.0-99.0-0.0","464.80000000004657","","","","49","0,1,0","1","forest","43","probe-117","0.2702167178512483","0.39882608871688213","0.17614502613749758","0","","","","","","","",""
"","html-keyboard-response","172","648089","0.0-99.0-1.0","null","<p></p>","null","","","","","","","","","","","","","","","","","","",""
"","do_trial","173","652926","0.0-100.0-0.0","285.5","","","","51","0,1,1","1","forest","44","probe-186","0.09758786327391399","0.44838604817581434","0.3007090983815708","1","","","","","","","",""
"","html-keyboard-response","174","653931","0.0-100.0-1.0","null","<p></p>","null","","","","","","","","","","","","","","","","","","",""
"","do_trial","175","658779","0.0-101.0-0.0","297.5999999998603","","","","51","0,1,1","1","forest","45","probe-149","0.13081951737798997","0.5322343430334768","0.3669582410831782","1","","","","","","","",""
"","html-keyboard-response","176","659784","0.0-101.0-1.0","null","<p></p>","null","","","","","","","","","","","","","","","","","","",""
"","do_trial","177","664620","0.0-102.0-0.0","285.10000000009313","","","","49","0,0,1","1","forest","46","probe-115","0.19975252544550853","0.476593592879109","0.325504849870397","0","","","","","","","",""
"","html-keyboard-response","178","665624","0.0-102.0-1.0","null","<p></p>","null","","","","","","","","","","","","","","","","","","",""
"","do_trial","179","670704","0.0-103.0-0.0","528.6000000000931","","","","51","1,1,1","1","forest","47","probe-120","0.10335501738414603","0.41635916225924036","0.2917388258207986","1","","","","","","","",""
"","html-keyboard-response","180","671709","0.0-103.0-1.0","null","<p></p>","null","","","","","","","","","","","","","","","","","","",""
"","do_trial","181","676824","0.0-104.0-0.0","564.3000000000466","","","","51","0,1,0","1","forest","48","probe-10","0.08066923742294144","0.5815905531978962","0.31732155175059307","0","","","","","","","",""
"","html-keyboard-response","182","677830","0.0-104.0-1.0","null","<p></p>","null","","","","","","","","","","","","","","","","","","",""
"","do_trial","183","682700","0.0-105.0-0.0","318.80000000004657","","","","49","1,1,0","1","forest","49","probe-15","0.15611318204047595","0.6572003915515591","0.3528382772233134","1","","","","","","","",""
"","html-keyboard-response","184","683705","0.0-105.0-1.0","null","<p></p>","null","","","","","","","","","","","","","","","","","","",""
"","do_trial","185","688657","0.0-106.0-0.0","405.69999999995343","","","","49","1,0,0","1","forest","50","probe-153","0.16452038871089983","0.6932749400359811","0.22861062001381002","1","","","","","","","",""
"","html-keyboard-response","186","689661","0.0-106.0-1.0","null","<p></p>","null","","","","","","","","","","","","","","","","","","",""
"","do_trial","187","694709","0.0-107.0-0.0","496.19999999995343","","","","49","0,0,0","1","forest","51","probe-60","0.0684359050988385","0.560979431030451","0.3519572226798501","0","","","","","","","",""
"","html-keyboard-response","188","695713","0.0-107.0-1.0","null","<p></p>","null","","","","","","","","","","","","","","","","","","",""
"","do_trial","189","700553","0.0-108.0-0.0","287.89999999990687","","","","51","0,0,0","1","forest","52","probe-46","0.2114548582206659","0.6500622318411499","0.28247965502264694","0","","","","","","","",""
"","html-keyboard-response","190","701555","0.0-108.0-1.0","null","<p></p>","null","","","","","","","","","","","","","","","","","","",""
"","do_trial","191","706841","0.0-109.0-0.0","735.5","","","","49","1,1,0","1","forest","53","probe-150","0.15385828529598342","0.7089852384421138","0.3369417547203733","1","","","","","","","",""
"","html-keyboard-response","192","707846","0.0-109.0-1.0","null","<p></p>","null","","","","","","","","","","","","","","","","","","",""
"","do_trial","193","712725","0.0-110.0-0.0","328.60000000009313","","","","49","0,1,0","1","forest","54","probe-54","0.1514744949106195","0.7329349328867695","0.24981216893636785","0","","","","","","","",""
"","html-keyboard-response","194","713730","0.0-110.0-1.0","null","<p></p>","null","","","","","","","","","","","","","","","","","","",""
"","do_trial","195","718891","0.0-111.0-0.0","609.5","","","","51","0,0,0","1","forest","55","probe-85","0.12963882953447442","0.7354636161142919","0.14536107150421082","0","","","","","","","",""
"","html-keyboard-response","196","719895","0.0-111.0-1.0","null","<p></p>","null","","","","","","","","","","","","","","","","","","",""
"","do_trial","197","724916","0.0-112.0-0.0","474.60000000009313","","","","49","0,1,0","1","forest","56","probe-193","0.1260777065786526","0.6385638830826154","0.08526651836867377","0","","","","","","","",""
"","html-keyboard-response","198","725920","0.0-112.0-1.0","null","<p></p>","null","","","","","","","","","","","","","","","","","","",""
"","do_trial","199","731200","0.0-113.0-0.0","728","","","","49","0,0,0","1","forest","57","probe-139","0.13918588640960453","0.5942119582591506","0.17794316320800174","0","","","","","","","",""
"","html-keyboard-response","200","732204","0.0-113.0-1.0","null","<p></p>","null","","","","","","","","","","","","","","","","","","",""
"","do_trial","201","737132","0.0-114.0-0.0","376.69999999995343","","","","51","0,1,0","1","forest","58","probe-41","0.08088110823447568","0.43889732068382487","0.20577767107432154","0","","","","","","","",""
"","html-keyboard-response","202","738138","0.0-114.0-1.0","null","<p></p>","null","","","","","","","","","","","","","","","","","","",""
"","do_trial","203","743163","0.0-115.0-0.0","473.19999999995343","","","","51","0,1,0","1","forest","59","probe-37","0.08680780708822163","0.4721598332244306","0.37544893738440394","0","","","","","","","",""
"","html-keyboard-response","204","744168","0.0-115.0-1.0","null","<p></p>","null","","","","","","","","","","","","","","","","","","",""
"","do_trial","205","749031","0.0-116.0-0.0","312.69999999995343","","","","49","0,0,1","1","forest","60","probe-25","0.2288370778059674","0.6047009752611492","0.2728238054878291","0","","","","","","","",""
"","html-keyboard-response","206","750036","0.0-116.0-1.0","null","<p></p>","null","","","","","","","","","","","","","","","","","","",""
"","do_trial","207","755118","0.0-117.0-0.0","533.0999999998603","","","","49","0,0,0","1","forest","61","probe-110","0.13853843157188425","0.56044117389031","0.40331281836063787","0","","","","","","","",""
"","html-keyboard-response","208","756123","0.0-117.0-1.0","null","<p></p>","null","","","","","","","","","","","","","","","","","","",""
"","do_trial","209","761000","0.0-118.0-0.0","326.5999999998603","","","","50","0,1,0","1","forest","62","probe-65","0.1773821116271226","0.635008142445961","0.41496640314900907","1","","","","","","","",""
"","html-keyboard-response","210","762005","0.0-118.0-1.0","null","<p></p>","null","","","","","","","","","","","","","","","","","","",""
"","do_trial","211","767007","0.0-119.0-0.0","449.89999999990687","","","","50","0,1,0","1","forest","63","probe-90","0.056446436608298234","0.6133323777244948","0.35955782399730674","1","","","","","","","",""
"","html-keyboard-response","212","768012","0.0-119.0-1.0","null","<p></p>","null","","","","","","","","","","","","","","","","","","",""
"","do_trial","213","772972","0.0-120.0-0.0","402.10000000009313","","","","50","0,1,0","1","forest","64","probe-79","0.07664366052848234","0.6317816341106537","0.3499279588326163","1","","","","","","","",""
"","html-keyboard-response","214","773978","0.0-120.0-1.0","null","<p></p>","null","","","","","","","","","","","","","","","","","","",""
"","do_trial","215","778871","0.0-121.0-0.0","342","","","","50","0,1,1","1","forest","65","probe-203","0.08229377205247934","0.6551219383583466","0.295437004657049","1","","","","","","","",""
"","html-keyboard-response","216","779876","0.0-121.0-1.0","null","<p></p>","null","","","","","","","","","","","","","","","","","","",""
"","do_trial","217","785275","0.0-122.0-0.0","848.6000000000931","","","","50","0,1,0","1","forest","66","probe-03","0.09975317664346277","0.5623358042737332","0.2685584021938993","1","","","","","","","",""
"","html-keyboard-response","218","786280","0.0-122.0-1.0","null","<p></p>","null","","","","","","","","","","","","","","","","","","",""
"","do_trial","219","791446","0.0-123.0-0.0","614.1999999999534","","","","50","0,1,0","1","forest","67","probe-88","0.05576927432213724","0.6353456371055931","0.29101245902921175","1","","","","","","","",""
"","html-keyboard-response","220","792450","0.0-123.0-1.0","null","<p></p>","null","","","","","","","","","","","","","","","","","","",""
"","do_trial","221","797994","0.0-124.0-0.0","991.5","","","","50","1,0,1","1","forest","68","probe-87","0.10069235914302645","0.6087279048217916","0.24353159866711507","0","","","","","","","",""
"","html-keyboard-response","222","798999","0.0-124.0-1.0","null","<p></p>","null","","","","","","","","","","","","","","","","","","",""
"","do_trial","223","803923","0.0-125.0-0.0","375.5","","","","49","0,0,1","1","forest","69","probe-157","0.24174490273163338","0.6167033818462057","0.283083802911278","0","","","","","","","",""
"","html-keyboard-response","224","804927","0.0-125.0-1.0","null","<p></p>","null","","","","","","","","","","","","","","","","","","",""
"","do_bye","225","806437","0.0-126.0-0.0","null","","","","null","","","","","","","","","","","","","","","","",""
"","do_travel","226","812445","0.0-127.0-0.0","null","","","","null","","","","","","","","","","","","","","","","",""
"","do_welcome","227","813953","0.0-127.0-1.0","null","","","","null","","","","","","","","","","","","","","","","",""
"","do_trial","228","819183","0.0-128.0-0.0","673.7999999998137","","","","49","1,1,1","2","countryside","70","probe-155","0.24382776241674645","1","0.2881335769786943","1","","","","","","","",""
"","html-keyboard-response","229","820188","0.0-128.0-1.0","null","<p></p>","null","","","","","","","","","","","","","","","","","","",""
"","do_trial","230","825214","0.0-129.0-0.0","474.60000000009313","","","","50","0,1,0","2","countryside","71","probe-32","0.21773842141831143","1","0.38158411240650497","1","","","","","","","",""
"","html-keyboard-response","231","826219","0.0-129.0-1.0","null","<p></p>","null","","","","","","","","","","","","","","","","","","",""
"","do_trial","232","831319","0.0-130.0-0.0","550.5","","","","51","1,1,1","2","countryside","72","probe-09","0.27802910057735875","0.9469219520574474","0.16856690869629237","1","","","","","","","",""
"","html-keyboard-response","233","832324","0.0-130.0-1.0","null","<p></p>","null","","","","","","","","","","","","","","","","","","",""
"","do_trial","234","837188","0.0-131.0-0.0","317.5","","","","50","0,1,1","2","countryside","73","probe-14","0.3329523914386431","0.8485903328397549","0.15923164526004183","1","","","","","","","",""
"","html-keyboard-response","235","838193","0.0-131.0-1.0","null","<p></p>","null","","","","","","","","","","","","","","","","","","",""
"","do_trial","236","843849","0.0-132.0-0.0","1105.3999999999069","","","","49","1,1,1","2","countryside","74","probe-200","0.37158223690367675","0.7696464316318885","0.1748289087618589","1","","","","","","","",""
"","html-keyboard-response","237","844852","0.0-132.0-1.0","null","<p></p>","null","","","","","","","","","","","","","","","","","","",""
"","do_trial","238","849793","0.0-133.0-0.0","390","","","","51","0,0,0","2","countryside","75","probe-116","0.24375680585480594","0.5666137475558254","0.26180114106168445","0","","","","","","","",""
"","html-keyboard-response","239","850798","0.0-133.0-1.0","null","<p></p>","null","","","","","","","","","","","","","","","","","","",""
"","do_trial","240","855721","0.0-134.0-0.0","374.5","","","","49","0,0,1","2","countryside","76","probe-204","0.2528522256891984","0.6380266945006653","0.14741296558876762","0","","","","","","","",""
"","html-keyboard-response","241","856725","0.0-134.0-1.0","null","<p></p>","null","","","","","","","","","","","","","","","","","","",""
"","do_trial","242","861622","0.0-135.0-0.0","342","","","","50","0,0,0","2","countryside","77","probe-45","0.059141856012981116","0.6853413530170643","0.19856270770347745","0","","","","","","","",""
"","html-keyboard-response","243","862626","0.0-135.0-1.0","null","<p></p>","null","","","","","","","","","","","","","","","","","","",""
"","do_trial","244","867653","0.0-136.0-0.0","474.9000000001397","","","","49","0,1,0","2","countryside","78","probe-191","0.0649038227701617","0.6465609949866353","0.2342710909558627","0","","","","","","","",""
"","html-keyboard-response","245","868657","0.0-136.0-1.0","null","<p></p>","null","","","","","","","","","","","","","","","","","","",""
"","do_trial","246","873682","0.0-137.0-0.0","473","","","","51","0,1,1","2","countryside","79","probe-86","0.12250514905219728","0.6320461441925653","0.29682163448229865","1","","","","","","","",""
"","html-keyboard-response","247","874686","0.0-137.0-1.0","null","<p></p>","null","","","","","","","","","","","","","","","","","","",""
"","do_trial","248","879927","0.0-138.0-0.0","693.5","","","","51","0,0,0","2","countryside","80","probe-28","0.09653986271266878","0.7310031742367236","0.4737808391427673","0","","","","","","","",""
"","html-keyboard-response","249","880934","0.0-138.0-1.0","null","<p></p>","null","","","","","","","","","","","","","","","","","","",""
"","do_trial","250","885801","0.0-139.0-0.0","316","","","","49","1,1,1","2","countryside","81","probe-151","0.16189425281873732","0.6238046092033036","0.47955708767169797","1","","","","","","","",""
"","html-keyboard-response","251","886805","0.0-139.0-1.0","null","<p></p>","null","","","","","","","","","","","","","","","","","","",""
"","do_trial","252","891868","0.0-140.0-0.0","513.1999999999534","","","","49","0,1,0","2","countryside","82","probe-13","0.28566478253925953","0.5303449255622232","0.3700021850530061","0","","","","","","","",""
"","html-keyboard-response","253","892871","0.0-140.0-1.0","null","<p></p>","null","","","","","","","","","","","","","","","","","","",""
"","do_trial","254","897848","0.0-141.0-0.0","427.80000000004657","","","","50","1,0,0","2","countryside","83","probe-176","0.39648554459574614","0.41449117422187143","0.25409560108538204","0","","","","","","","",""
"","html-keyboard-response","255","898854","0.0-141.0-1.0","null","<p></p>","null","","","","","","","","","","","","","","","","","","",""
"","do_trial","256","903767","0.0-142.0-0.0","361.4000000001397","","","","50","1,1,0","2","countryside","84","probe-06","0.39512467192862843","0.18410737343051042","0.24890494624572096","1","","","","","","","",""
"","html-keyboard-response","257","904771","0.0-142.0-1.0","null","<p></p>","null","","","","","","","","","","","","","","","","","","",""
"","do_trial","258","910012","0.0-143.0-0.0","690.1000000000931","","","","50","1,0,0","2","countryside","85","probe-93","0.5970219815115039","0.15960980442382883","0.23464562264491648","0","","","","","","","",""
"","html-keyboard-response","259","911017","0.0-143.0-1.0","null","<p></p>","null","","","","","","","","","","","","","","","","","","",""
"","do_trial","260","915912","0.0-144.0-0.0","346.10000000009313","","","","49","1,0,0","2","countryside","86","probe-152","0.6454070393933321","0.15033146262447278","0.24580093341354395","1","","","","","","","",""
"","html-keyboard-response","261","916917","0.0-144.0-1.0","null","<p></p>","null","","","","","","","","","","","","","","","","","","",""
"","do_trial","262","921942","0.0-145.0-0.0","474.69999999995343","","","","49","1,0,0","2","countryside","87","probe-109","0.5679118105593947","0.25349885047781623","0.2576560148707499","1","","","","","","","",""
"","html-keyboard-response","263","922947","0.0-145.0-1.0","null","<p></p>","null","","","","","","","","","","","","","","","","","","",""
"","do_trial","264","928490","0.0-146.0-0.0","992.3999999999069","","","","49","1,0,0","2","countryside","88","probe-02","0.7110265213773868","0.32439820276266107","0.13997008256038354","1","","","","","","","",""
"","html-keyboard-response","265","929494","0.0-146.0-1.0","null","<p></p>","null","","","","","","","","","","","","","","","","","","",""
"","do_trial","266","934459","0.0-147.0-0.0","413.89999999990687","","","","49","1,0,0","2","countryside","89","probe-223","0.7056792492050634","0.27543017023256905","0.24803225669781462","1","","","","","","","",""
"","html-keyboard-response","267","935463","0.0-147.0-1.0","null","<p></p>","null","","","","","","","","","","","","","","","","","","",""
"","do_trial","268","940652","0.0-148.0-0.0","637","","","","49","0,0,0","2","countryside","90","probe-142","0.5375389207152889","0.2505169194740448","0.09561082856598666","0","","","","","","","",""
"","html-keyboard-response","269","941656","0.0-148.0-1.0","null","<p></p>","null","","","","","","","","","","","","","","","","","","",""
"","do_trial","270","948046","0.0-149.0-0.0","1842.0999999998603","","","","49","0,1,0","2","countryside","91","probe-73","0.6000524295979087","0.3413894428797225","0.13814375700034018","0","","","","","","","",""
"","html-keyboard-response","271","949050","0.0-149.0-1.0","null","<p></p>","null","","","","","","","","","","","","","","","","","","",""
"","do_trial","272","953868","0.0-150.0-0.0","268.4000000001397","","","","50","0,0,0","2","countryside","92","probe-27","0.4813215105232625","0.3184775690403605","0.14493935124278196","0","","","","","","","",""
"","html-keyboard-response","273","954871","0.0-150.0-1.0","null","<p></p>","null","","","","","","","","","","","","","","","","","","",""
"","do_trial","274","959841","0.0-151.0-0.0","416.9000000001397","","","","51","1,0,0","2","countryside","93","probe-04","0.6064681011763964","0.3477101487632474","0.11354766624754677","0","","","","","","","",""
"","html-keyboard-response","275","960845","0.0-151.0-1.0","null","<p></p>","null","","","","","","","","","","","","","","","","","","",""
"","do_trial","276","965692","0.0-152.0-0.0","287.19999999995343","","","","50","0,1,0","2","countryside","94","probe-21","0.7059639052298857","0.39353335494027525","0.24675259915142597","1","","","","","","","",""
"","html-keyboard-response","277","966697","0.0-152.0-1.0","null","<p></p>","null","","","","","","","","","","","","","","","","","","",""
"","do_trial","278","971645","0.0-153.0-0.0","396.69999999995343","","","","50","0,0,0","2","countryside","95","probe-143","0.7181050912319964","0.4585024619335276","0.08510817232416619","0","","","","","","","",""
"","html-keyboard-response","279","972649","0.0-153.0-1.0","null","<p></p>","null","","","","","","","","","","","","","","","","","","",""
"","do_trial","280","977524","0.0-154.0-0.0","323.9000000001397","","","","51","0,1,0","2","countryside","96","probe-69","0.6370279336727144","0.44316382668297705","0.05671579445115123","0","","","","","","","",""
"","html-keyboard-response","281","978529","0.0-154.0-1.0","null","<p></p>","null","","","","","","","","","","","","","","","","","","",""
"","do_trial","282","983502","0.0-155.0-0.0","423","","","","49","0,0,0","2","countryside","97","probe-103","0.5451696713288725","0.5361807155915812","0.07006435630118983","0","","","","","","","",""
"","html-keyboard-response","283","984507","0.0-155.0-1.0","null","<p></p>","null","","","","","","","","","","","","","","","","","","",""
"","do_trial","284","989740","0.0-156.0-0.0","682.1000000000931","","","","49","0,1,0","2","countryside","98","probe-215","0.49508761946438185","0.53641233971031","0.05009597312346127","0","","","","","","","",""
"","html-keyboard-response","285","990745","0.0-156.0-1.0","null","<p></p>","null","","","","","","","","","","","","","","","","","","",""
"","do_trial","286","996006","0.0-157.0-0.0","710.1999999999534","","","","51","1,0,0","2","countryside","99","probe-213","0.4463547283100799","0.424879492485104","0.058786161139949444","0","","","","","","","",""
"","html-keyboard-response","287","997011","0.0-157.0-1.0","null","<p></p>","null","","","","","","","","","","","","","","","","","","",""
"","do_trial","288","1001829","0.0-158.0-0.0","274","","","","49","0,0,0","2","countryside","100","probe-104","0.4770669881222774","0.3760487204965675","0.07859657901979676","0","","","","","","","",""
"","html-keyboard-response","289","1002833","0.0-158.0-1.0","null","<p></p>","null","","","","","","","","","","","","","","","","","","",""
"","do_trial","290","1007739","0.0-159.0-0.0","355.19999999995343","","","","50","1,1,0","2","countryside","101","probe-52","0.5184097169231996","0.3855598094712336","0.07387188939037134","1","","","","","","","",""
"","html-keyboard-response","291","1008744","0.0-159.0-1.0","null","<p></p>","null","","","","","","","","","","","","","","","","","","",""
"","do_trial","292","1013609","0.0-160.0-0.0","319.0999999998603","","","","50","1,1,1","2","countryside","102","probe-05","0.5675146480511983","0.3986981123340118","0.18938612092669155","1","","","","","","","",""
"","html-keyboard-response","293","1014615","0.0-160.0-1.0","null","<p></p>","null","","","","","","","","","","","","","","","","","","",""
"","do_trial","294","1019512","0.0-161.0-0.0","346.4000000001397","","","","50","1,0,0","2","countryside","103","probe-108","0.6532485875843556","0.3424091822279327","0.1333626400133087","0","","","","","","","",""
"","html-keyboard-response","295","1020517","0.0-161.0-1.0","null","<p></p>","null","","","","","","","","","","","","","","","","","","",""
"","do_trial","296","1025446","0.0-162.0-0.0","378.79999999981374","","","","51","1,0,0","2","countryside","104","probe-102","0.5892112674281298","0.29785967608519814","0.06348679607225596","0","","","","","","","",""
"","html-keyboard-response","297","1026451","0.0-162.0-1.0","null","<p></p>","null","","","","","","","","","","","","","","","","","","",""
"","do_trial","298","1031349","0.0-163.0-0.0","351.5","","","","49","1,1,0","2","countryside","105","probe-22","0.4964894592120814","0.2848254496245332","0.15713571291521292","1","","","","","","","",""
"","html-keyboard-response","299","1032354","0.0-163.0-1.0","null","<p></p>","null","","","","","","","","","","","","","","","","","","",""
"","do_trial","300","1037219","0.0-164.0-0.0","313.69999999995343","","","","49","0,0,0","2","countryside","106","probe-97","0.4822481683737915","0.2908730256886562","0.10774633139235995","0","","","","","","","",""
"","html-keyboard-response","301","1038223","0.0-164.0-1.0","null","<p></p>","null","","","","","","","","","","","","","","","","","","",""
"","do_trial","302","1043702","0.0-165.0-0.0","931.4000000001397","","","","50","1,0,1","2","countryside","107","probe-170","0.4756254489965722","0.2817200865690271","0.13668401576642525","0","","","","","","","",""
"","html-keyboard-response","303","1044706","0.0-165.0-1.0","null","<p></p>","null","","","","","","","","","","","","","","","","","","",""
"","do_trial","304","1050040","0.0-166.0-0.0","782.5","","","","49","0,0,0","2","countryside","108","probe-58","0.41701212739798543","0.3270095339921682","0.26852393884337417","0","","","","","","","",""
"","html-keyboard-response","305","1051044","0.0-166.0-1.0","null","<p></p>","null","","","","","","","","","","","","","","","","","","",""
"","do_trial","306","1055856","0.0-167.0-0.0","260.90000000037253","","","","51","0,0,0","2","countryside","109","probe-61","0.4590530655048688","0.37373339235017144","0.15039619257235726","0","","","","","","","",""
"","html-keyboard-response","307","1056858","0.0-167.0-1.0","null","<p></p>","null","","","","","","","","","","","","","","","","","","",""
"","do_bye","308","1058366","0.0-168.0-0.0","null","","","","null","","","","","","","","","","","","","","","","",""
"","do_travel","309","1064374","0.0-169.0-0.0","null","","","","null","","","","","","","","","","","","","","","","",""
"","do_welcome","310","1065884","0.0-169.0-1.0","null","","","","null","","","","","","","","","","","","","","","","",""
"","do_trial","311","1071029","0.0-170.0-0.0","593.5","","","","49","1,1,0","3","highway","110","probe-158","1","0.3426770123695704","0.05396480109897422","1","","","","","","","",""
"","html-keyboard-response","312","1072033","0.0-170.0-1.0","null","<p></p>","null","","","","","","","","","","","","","","","","","","",""
"","do_trial","313","1077098","0.0-171.0-0.0","514.6000000000931","","","","50","1,1,1","3","highway","111","probe-154","1","0.3237339290895905","0.0896835892541995","1","","","","","","","",""
"","html-keyboard-response","314","1078103","0.0-171.0-1.0","null","<p></p>","null","","","","","","","","","","","","","","","","","","",""
"","do_trial","315","1082967","0.0-172.0-0.0","313.40000000037253","","","","51","1,0,0","3","highway","112","probe-147","0.8206886102009068","0.12482359387079299","0.1036567975242728","0","","","","","","","",""
"","html-keyboard-response","316","1083972","0.0-172.0-1.0","null","<p></p>","null","","","","","","","","","","","","","","","","","","",""
"","do_trial","317","1088929","0.0-173.0-0.0","406.70000000018626","","","","49","1,1,0","3","highway","113","probe-62","0.6842990838696426","0.1014843648945477","0.20783188061847546","1","","","","","","","",""
"","html-keyboard-response","318","1089934","0.0-173.0-1.0","null","<p></p>","null","","","","","","","","","","","","","","","","","","",""
"","do_trial","319","1094921","0.0-174.0-0.0","435.59999999962747","","","","50","0,0,0","3","highway","114","probe-24","0.5600198896486617","0.09013052287813815","0.22220017672773026","0","","","","","","","",""
"","html-keyboard-response","320","1095925","0.0-174.0-1.0","null","<p></p>","null","","","","","","","","","","","","","","","","","","",""
"","do_trial","321","1100920","0.0-175.0-0.0","444.8000000002794","","","","49","0,0,1","3","highway","115","probe-67","0.5079981690052242","0.16783859658962358","0.2843899824236721","0","","","","","","","",""
"","html-keyboard-response","322","1101923","0.0-175.0-1.0","null","<p></p>","null","","","","","","","","","","","","","","","","","","",""
"","do_trial","323","1106817","0.0-176.0-0.0","342.8000000002794","","","","51","0,0,0","3","highway","116","probe-127","0.5465798988621867","0.27389365563303925","0.15766857994204433","0","","","","","","","",""
"","html-keyboard-response","324","1107821","0.0-176.0-1.0","null","<p></p>","null","","","","","","","","","","","","","","","","","","",""
"","do_trial","325","1112749","0.0-177.0-0.0","376.60000000009313","","","","49","1,0,0","3","highway","117","probe-100","0.4736299687902513","0.18916959689868626","0.0633252215022997","1","","","","","","","",""
"","html-keyboard-response","326","1113754","0.0-177.0-1.0","null","<p></p>","null","","","","","","","","","","","","","","","","","","",""
"","do_trial","327","1118800","0.0-178.0-0.0","491.5","","","","49","1,0,0","3","highway","118","probe-26","0.5440092935186686","0.23069868939372126","0.1587344014195028","1","","","","","","","",""
"","html-keyboard-response","328","1119804","0.0-178.0-1.0","null","<p></p>","null","","","","","","","","","","","","","","","","","","",""
"","do_trial","329","1124656","0.0-179.0-0.0","299.89999999990687","","","","49","1,0,0","3","highway","119","probe-180","0.5094839925140344","0.257113208153014","0.08487029266693774","1","","","","","","","",""
"","html-keyboard-response","330","1125657","0.0-179.0-1.0","null","<p></p>","null","","","","","","","","","","","","","","","","","","",""
"","do_trial","331","1130538","0.0-180.0-0.0","329.60000000009313","","","","49","1,0,1","3","highway","120","probe-169","0.49264978086496825","0.20097121903294674","0.1861393674306158","1","","","","","","","",""
"","html-keyboard-response","332","1131542","0.0-180.0-1.0","null","<p></p>","null","","","","","","","","","","","","","","","","","","",""
"","do_trial","333","1136439","0.0-181.0-0.0","347.1999999997206","","","","49","1,0,1","3","highway","121","probe-220","0.3740883619641812","0.10617218153298488","0.3375936360796902","1","","","","","","","",""
"","html-keyboard-response","334","1137444","0.0-181.0-1.0","null","<p></p>","null","","","","","","","","","","","","","","","","","","",""
"","do_trial","335","1142383","0.0-182.0-0.0","390.6999999997206","","","","49","0,0,0","3","highway","122","probe-138","0.3719491987912554","0.21205346928843846","0.5156029352906358","0","","","","","","","",""
"","html-keyboard-response","336","1143387","0.0-182.0-1.0","null","<p></p>","null","","","","","","","","","","","","","","","","","","",""
"","do_trial","337","1148200","0.0-183.0-0.0","264.89999999990687","","","","50","0,0,1","3","highway","123","probe-72","0.2528508498365356","0.256172579429235","0.5370225102195713","0","","","","","","","",""
"","html-keyboard-response","338","1149204","0.0-183.0-1.0","null","<p></p>","null","","","","","","","","","","","","","","","","","","",""
"","do_trial","339","1154133","0.0-184.0-0.0","379.89999999990687","","","","49","0,0,1","3","highway","124","probe-40","0.11027508438299524","0.22097486614828518","0.5068771530088142","0","","","","","","","",""
"","html-keyboard-response","340","1155138","0.0-184.0-1.0","null","<p></p>","null","","","","","","","","","","","","","","","","","","",""
"","do_trial","341","1159885","0.0-185.0-0.0","195.10000000009313","","","","51","0,0,1","3","highway","125","probe-18","0.20241005416406221","0.09348708673421068","0.6991724644634958","1","","","","","","","",""
"","html-keyboard-response","342","1160889","0.0-185.0-1.0","null","<p></p>","null","","","","","","","","","","","","","","","","","","",""
"","do_trial","343","1165814","0.0-186.0-0.0","372.89999999990687","","","","51","0,0,0","3","highway","126","probe-113","0.13642022630007114","0.2174574778253551","0.6064300687476416","0","","","","","","","",""
"","html-keyboard-response","344","1166818","0.0-186.0-1.0","null","<p></p>","null","","","","","","","","","","","","","","","","","","",""
"","do_trial","345","1171730","0.0-187.0-0.0","361.09999999962747","","","","49","0,1,1","3","highway","127","probe-172","0.23839516822399817","0.2683114650373726","0.5390659503321016","0","","","","","","","",""
"","html-keyboard-response","346","1172734","0.0-187.0-1.0","null","<p></p>","null","","","","","","","","","","","","","","","","","","",""
"","do_trial","347","1178011","0.0-188.0-0.0","725.5","","","","49","1,0,1","3","highway","128","probe-132","0.21682762745989234","0.330861587017753","0.5700559412150075","1","","","","","","","",""
"","html-keyboard-response","348","1179016","0.0-188.0-1.0","null","<p></p>","null","","","","","","","","","","","","","","","","","","",""
"","do_trial","349","1184153","0.0-189.0-0.0","585.3000000002794","","","","49","0,0,1","3","highway","129","probe-160","0.13200400747064286","0.38435515529737074","0.7093764590072894","0","","","","","","","",""
"","html-keyboard-response","350","1185156","0.0-189.0-1.0","null","<p></p>","null","","","","","","","","","","","","","","","","","","",""
"","do_trial","351","1190099","0.0-190.0-0.0","391.5","","","","51","0,0,0","3","highway","130","probe-75","0.13551992152655698","0.4243452678730363","0.5830351881131244","0","","","","","","","",""
"","html-keyboard-response","352","1191103","0.0-190.0-1.0","null","<p></p>","null","","","","","","","","","","","","","","","","","","",""
"","do_trial","353","1196813","0.0-191.0-0.0","1159.5","","","","49","0,1,1","3","highway","131","probe-48","0.10247482657186108","0.3888627038656862","0.7151319712500096","0","","","","","","","",""
"","html-keyboard-response","354","1197818","0.0-191.0-1.0","null","<p></p>","null","","","","","","","","","","","","","","","","","","",""
"","do_trial","355","1202695","0.0-192.0-0.0","327.39999999990687","","","","51","0,0,1","3","highway","132","probe-64","0.07610864595257213","0.33571922213461164","0.7140472832421275","1","","","","","","","",""
"","html-keyboard-response","356","1203699","0.0-192.0-1.0","null","<p></p>","null","","","","","","","","","","","","","","","","","","",""
"","do_trial","357","1208598","0.0-193.0-0.0","347.79999999981374","","","","51","1,1,1","3","highway","133","probe-66","0.14274550866667463","0.32522467004969136","0.7051300198442033","1","","","","","","","",""
"","html-keyboard-response","358","1209603","0.0-193.0-1.0","null","<p></p>","null","","","","","","","","","","","","","","","","","","",""
"","do_trial","359","1214710","0.0-194.0-0.0","555.4000000003725","","","","51","0,0,1","3","highway","134","probe-119","0.16667588693737734","0.3740330308727052","0.7062488052971376","1","","","","","","","",""
"","html-keyboard-response","360","1215714","0.0-194.0-1.0","null","<p></p>","null","","","","","","","","","","","","","","","","","","",""
"","do_trial","361","1220608","0.0-195.0-0.0","345.10000000009313","","","","51","0,0,1","3","highway","135","probe-182","0.1687794788909443","0.2436226685756683","0.6649383260124542","1","","","","","","","",""
"","html-keyboard-response","362","1221614","0.0-195.0-1.0","null","<p></p>","null","","","","","","","","","","","","","","","","","","",""
"","do_trial","363","1226600","0.0-196.0-0.0","434.79999999981374","","","","51","0,0,1","3","highway","136","probe-162","0.09581975199606432","0.42587450397100457","0.6028772373958499","1","","","","","","","",""
"","html-keyboard-response","364","1227605","0.0-196.0-1.0","null","<p></p>","null","","","","","","","","","","","","","","","","","","",""
"","do_trial","365","1232587","0.0-197.0-0.0","430.60000000009313","","","","51","0,1,1","3","highway","137","probe-198","0.059060768018558245","0.4011330979274986","0.5445980011787612","1","","","","","","","",""
"","html-keyboard-response","366","1233593","0.0-197.0-1.0","null","<p></p>","null","","","","","","","","","","","","","","","","","","",""
"","do_trial","367","1238532","0.0-198.0-0.0","388","","","","51","0,0,0","3","highway","138","probe-124","0.18506581841688116","0.4290441050827724","0.6724107547375197","0","","","","","","","",""
"","html-keyboard-response","368","1239537","0.0-198.0-1.0","null","<p></p>","null","","","","","","","","","","","","","","","","","","",""
"","do_trial","369","1244397","0.0-199.0-0.0","310.89999999990687","","","","51","0,0,0","3","highway","139","probe-189","0.11885378397924243","0.3814521196216822","0.5349834772690716","0","","","","","","","",""
"","html-keyboard-response","370","1245401","0.0-199.0-1.0","null","<p></p>","null","","","","","","","","","","","","","","","","","","",""
"","do_trial","371","1250266","0.0-200.0-0.0","317.1999999997206","","","","49","0,0,0","3","highway","140","probe-126","0.08451167135064822","0.2958435812367279","0.514621491183293","0","","","","","","","",""
"","html-keyboard-response","372","1251270","0.0-200.0-1.0","null","<p></p>","null","","","","","","","","","","","","","","","","","","",""
"","do_trial","373","1256096","0.0-201.0-0.0","275.10000000009313","","","","51","0,1,1","3","highway","141","probe-08","0.06191424902337239","0.3359485724766396","0.4973460313295629","1","","","","","","","",""
"","html-keyboard-response","374","1257101","0.0-201.0-1.0","null","<p></p>","null","","","","","","","","","","","","","","","","","","",""
"","do_trial","375","1261961","0.0-202.0-0.0","311.3000000002794","","","","51","0,0,1","3","highway","142","probe-217","0.14249737994095985","0.3422820390891321","0.6223539226517031","1","","","","","","","",""
"","html-keyboard-response","376","1262965","0.0-202.0-1.0","null","<p></p>","null","","","","","","","","","","","","","","","","","","",""
"","do_trial","377","1267890","0.0-203.0-0.0","374.29999999981374","","","","49","0,0,1","3","highway","143","probe-131","0.16287756413348553","0.27167607121260434","0.6691135074381633","0","","","","","","","",""
"","html-keyboard-response","378","1268895","0.0-203.0-1.0","null","<p></p>","null","","","","","","","","","","","","","","","","","","",""
"","do_trial","379","1273742","0.0-204.0-0.0","297.39999999990687","","","","51","0,0,1","3","highway","144","probe-196","0.1495251037001097","0.37606458753973726","0.7199257195683858","1","","","","","","","",""
"","html-keyboard-response","380","1274746","0.0-204.0-1.0","null","<p></p>","null","","","","","","","","","","","","","","","","","","",""
"","do_trial","381","1280504","0.0-205.0-0.0","1211.0999999996275","","","","51","0,1,1","3","highway","145","probe-11","0.16114176121357035","0.40021459462848946","0.6984163324169569","1","","","","","","","",""
"","html-keyboard-response","382","1281508","0.0-205.0-1.0","null","<p></p>","null","","","","","","","","","","","","","","","","","","",""
"","do_trial","383","1286474","0.0-206.0-0.0","413.20000000018626","","","","51","0,0,0","3","highway","146","probe-129","0.10784910611463708","0.2854069363796301","0.821736162835335","0","","","","","","","",""
"","html-keyboard-response","384","1287478","0.0-206.0-1.0","null","<p></p>","null","","","","","","","","","","","","","","","","","","",""
"","do_trial","385","1292334","0.0-207.0-0.0","304.60000000009313","","","","49","0,1,0","3","highway","147","probe-107","0.07575984776703062","0.36427892713695514","0.704229025028","0","","","","","","","",""
"","html-keyboard-response","386","1293340","0.0-207.0-1.0","null","<p></p>","null","","","","","","","","","","","","","","","","","","",""
"","do_trial","387","1298271","0.0-208.0-0.0","379.10000000009313","","","","51","0,0,0","3","highway","148","probe-112","0.1672853387439293","0.20582295806244466","0.6625952046498348","0","","","","","","","",""
"","html-keyboard-response","388","1299276","0.0-208.0-1.0","null","<p></p>","null","","","","","","","","","","","","","","","","","","",""
"","do_trial","389","1304154","0.0-209.0-0.0","327.60000000009313","","","","50","0,1,1","3","highway","149","probe-34","0.15010859619433162","0.21728468282625774","0.7339709558322874","1","","","","","","","",""
"","html-keyboard-response","390","1305159","0.0-209.0-1.0","null","<p></p>","null","","","","","","","","","","","","","","","","","","",""
"","do_bye","391","1306668","0.0-210.0-0.0","null","","","","null","","","","","","","","","","","","","","","","",""
"","do_travel","392","1312673","0.0-211.0-0.0","null","","","","null","","","","","","","","","","","","","","","","",""
"","do_welcome","393","1314183","0.0-211.0-1.0","null","","","","null","","","","","","","","","","","","","","","","",""
"","do_trial","394","1319143","0.0-212.0-0.0","408.6999999997206","","","","49","0,0,1","4","city","150","probe-70","0.21561835592902132","0.14510753331662465","1","0","","","","","","","",""
"","html-keyboard-response","395","1320148","0.0-212.0-1.0","null","<p></p>","null","","","","","","","","","","","","","","","","","","",""
"","do_trial","396","1325027","0.0-213.0-0.0","328.90000000037253","","","","50","1,0,1","4","city","151","probe-156","0.21888697749119615","0.18578059717222684","1","0","","","","","","","",""
"","html-keyboard-response","397","1326032","0.0-213.0-1.0","null","<p></p>","null","","","","","","","","","","","","","","","","","","",""
"","do_trial","398","1330998","0.0-214.0-0.0","417.10000000009313","","","","51","0,1,1","4","city","152","probe-190","0.13646106663225407","0.228888087963423","0.8206993288759702","1","","","","","","","",""
"","html-keyboard-response","399","1332003","0.0-214.0-1.0","null","<p></p>","null","","","","","","","","","","","","","","","","","","",""
"","do_trial","400","1336887","0.0-215.0-0.0","338.39999999990687","","","","51","0,1,1","4","city","153","probe-208","0.07245231206313082","0.19352273901918182","0.7211997275944227","1","","","","","","","",""
"","html-keyboard-response","401","1337893","0.0-215.0-1.0","null","<p></p>","null","","","","","","","","","","","","","","","","","","",""
"","do_trial","402","1342911","0.0-216.0-0.0","466.79999999981374","","","","51","0,0,0","4","city","154","probe-50","0.1917697360265779","0.13166072397191556","0.6844190481938496","0","","","","","","","",""
"","html-keyboard-response","403","1343915","0.0-216.0-1.0","null","<p></p>","null","","","","","","","","","","","","","","","","","","",""
"","do_trial","404","1348856","0.0-217.0-0.0","390.20000000018626","","","","49","1,1,1","4","city","155","probe-96","0.24314823814682066","0.12802813400013652","0.6035788006976976","1","","","","","","","",""
"","html-keyboard-response","405","1349863","0.0-217.0-1.0","null","<p></p>","null","","","","","","","","","","","","","","","","","","",""
"","do_trial","406","1354778","0.0-218.0-0.0","364.1999999997206","","","","49","0,1,1","4","city","156","probe-81","0.2613888203960804","0.2970729906508114","0.6025686750037168","0","","","","","","","",""
"","html-keyboard-response","407","1355783","0.0-218.0-1.0","null","<p></p>","null","","","","","","","","","","","","","","","","","","",""
"","do_trial","408","1360575","0.0-219.0-0.0","240.70000000018626","","","","50","0,0,0","4","city","157","probe-89","0.2533923582542858","0.3601177552582868","0.4951859313570685","0","","","","","","","",""
"","html-keyboard-response","409","1361579","0.0-219.0-1.0","null","<p></p>","null","","","","","","","","","","","","","","","","","","",""
"","do_trial","410","1366669","0.0-220.0-0.0","537.8999999999069","","","","51","0,0,1","4","city","158","probe-183","0.1482035383139943","0.2798518015257189","0.5123160394861785","1","","","","","","","",""
"","html-keyboard-response","411","1367673","0.0-220.0-1.0","null","<p></p>","null","","","","","","","","","","","","","","","","","","",""
"","do_trial","412","1372866","0.0-221.0-0.0","642.3999999999069","","","","51","0,0,1","4","city","159","probe-229","0.05642920562801563","0.4292029091048166","0.6204066101204374","1","","","","","","","",""
"","html-keyboard-response","413","1373871","0.0-221.0-1.0","null","<p></p>","null","","","","","","","","","","","","","","","","","","",""
"","do_trial","414","1378735","0.0-222.0-0.0","313","","","","51","1,0,1","4","city","160","probe-19","0.052170315543824584","0.3541525171155021","0.7265264768941891","1","","","","","","","",""
"","html-keyboard-response","415","1379738","0.0-222.0-1.0","null","<p></p>","null","","","","","","","","","","","","","","","","","","",""
"","do_trial","416","1384708","0.0-223.0-0.0","418.20000000018626","","","","49","0,0,1","4","city","161","probe-125","0.0853481310105964","0.2719245818214589","0.806429729572415","0","","","","","","","",""
"","html-keyboard-response","417","1385713","0.0-223.0-1.0","null","<p></p>","null","","","","","","","","","","","","","","","","","","",""
"","do_trial","418","1392420","0.0-224.0-0.0","2156.6999999997206","","","","51","0,0,0","4","city","162","probe-228","0.22917552895710067","0.3399118561830538","0.38592418845467247","0","","","","","","","",""
"","html-keyboard-response","419","1393424","0.0-224.0-1.0","null","<p></p>","null","","","","","","","","","","","","","","","","","","",""
"","do_trial","420","1398277","0.0-225.0-0.0","301.79999999981374","","","","50","0,0,0","4","city","163","probe-159","0.19965695055631905","0.4380057859453511","0.18226439262608257","0","","","","","","","",""
"","html-keyboard-response","421","1399281","0.0-225.0-1.0","null","<p></p>","null","","","","","","","","","","","","","","","","","","",""
"","do_trial","422","1404637","0.0-226.0-0.0","807.5","","","","49","0,0,0","4","city","164","probe-76","0.2763017147690703","0.328213875388535","0.10963975842145832","0","","","","","","","",""
"","html-keyboard-response","423","1405639","0.0-226.0-1.0","null","<p></p>","null","","","","","","","","","","","","","","","","","","",""
"","do_trial","424","1410546","0.0-227.0-0.0","359.39999999990687","","","","51","0,1,0","4","city","165","probe-184","0.3797598188181278","0.39778576070355687","0.08493874075356579","0","","","","","","","",""
"","html-keyboard-response","425","1411551","0.0-227.0-1.0","null","<p></p>","null","","","","","","","","","","","","","","","","","","",""
"","do_trial","426","1416250","0.0-228.0-0.0","147.89999999990687","","","","50","1,0,0","4","city","166","probe-185","0.29641732398362525","0.3586459920827668","0.14150619475339954","0","","","","","","","",""
"","html-keyboard-response","427","1417254","0.0-228.0-1.0","null","<p></p>","null","","","","","","","","","","","","","","","","","","",""
"","do_trial","428","1422130","0.0-229.0-0.0","324.89999999990687","","","","49","0,0,0","4","city","167","probe-164","0.3272634983222721","0.2869371951865728","0.157302626562805","0","","","","","","","",""
"","html-keyboard-response","429","1423134","0.0-229.0-1.0","null","<p></p>","null","","","","","","","","","","","","","","","","","","",""
"","do_trial","430","1428004","0.0-230.0-0.0","318.39999999990687","","","","50","0,0,0","4","city","168","probe-77","0.37614413881812414","0.2959478591176862","0.14976770622164343","0","","","","","","","",""
"","html-keyboard-response","431","1429008","0.0-230.0-1.0","null","<p></p>","null","","","","","","","","","","","","","","","","","","",""
"","do_trial","432","1433903","0.0-231.0-0.0","348.20000000018626","","","","51","1,0,0","4","city","169","probe-92","0.3802222560230435","0.38790658697688707","0.22764301565270942","0","","","","","","","",""
"","html-keyboard-response","433","1434907","0.0-231.0-1.0","null","<p></p>","null","","","","","","","","","","","","","","","","","","",""
"","do_trial","434","1439978","0.0-232.0-0.0","519.5999999996275","","","","50","1,0,0","4","city","170","probe-211","0.28057659308026345","0.32815726828906805","0.20811527755457968","0","","","","","","","",""
"","html-keyboard-response","435","1440983","0.0-232.0-1.0","null","<p></p>","null","","","","","","","","","","","","","","","","","","",""
"","do_trial","436","1446097","0.0-233.0-0.0","568.1000000000931","","","","49","1,1,1","4","city","171","probe-16","0.2714425359907362","0.3476589867444549","0.12741552778142545","1","","","","","","","",""
"","html-keyboard-response","437","1447101","0.0-233.0-1.0","null","<p></p>","null","","","","","","","","","","","","","","","","","","",""
"","do_trial","438","1452501","0.0-234.0-0.0","853.1999999997206","","","","49","1,0,0","4","city","172","probe-163","0.4817800340274245","0.39157481261221166","0.18534014147069047","1","","","","","","","",""
"","html-keyboard-response","439","1453506","0.0-234.0-1.0","null","<p></p>","null","","","","","","","","","","","","","","","","","","",""
"","do_trial","440","1459176","0.0-235.0-0.0","1116.5","","","","49","0,0,1","4","city","173","probe-59","0.32991811264183424","0.5126949516608292","0.24799347705317865","0","","","","","","","",""
"","html-keyboard-response","441","1460181","0.0-235.0-1.0","null","<p></p>","null","","","","","","","","","","","","","","","","","","",""
"","do_trial","442","1465305","0.0-236.0-0.0","573.9000000003725","","","","51","1,0,0","4","city","174","probe-188","0.3616313533475622","0.5540185631921548","0.18042589022749966","0","","","","","","","",""
"","html-keyboard-response","443","1466310","0.0-236.0-1.0","null","<p></p>","null","","","","","","","","","","","","","","","","","","",""
"","do_trial","444","1471211","0.0-237.0-0.0","350.8000000002794","","","","49","0,1,0","4","city","175","probe-33","0.4424386452947449","0.6128062782635358","0.21115519834013324","0","","","","","","","",""
"","html-keyboard-response","445","1472216","0.0-237.0-1.0","null","<p></p>","null","","","","","","","","","","","","","","","","","","",""
"","do_trial","446","1477889","0.0-238.0-0.0","1121.3999999999069","","","","49","1,1,0","4","city","176","probe-141","0.4727237660680287","0.5183453665992219","0.26529510995524147","1","","","","","","","",""
"","html-keyboard-response","447","1478893","0.0-238.0-1.0","null","<p></p>","null","","","","","","","","","","","","","","","","","","",""
"","do_trial","448","1484042","0.0-239.0-0.0","593.8999999999069","","","","49","1,0,0","4","city","177","probe-122","0.43589659734132297","0.538978642395517","0.2834081801004036","1","","","","","","","",""
"","html-keyboard-response","449","1485046","0.0-239.0-1.0","null","<p></p>","null","","","","","","","","","","","","","","","","","","",""
"","do_trial","450","1490301","0.0-240.0-0.0","706.3999999999069","","","","49","0,0,0","4","city","178","probe-63","0.4304900669059682","0.5329090868609597","0.3237900995719372","0","","","","","","","",""
"","html-keyboard-response","451","1491306","0.0-240.0-1.0","null","<p></p>","null","","","","","","","","","","","","","","","","","","",""
"","do_trial","452","1496449","0.0-241.0-0.0","592.3999999999069","","","","51","1,0,0","4","city","179","probe-49","0.42187967869590987","0.5621141791827843","0.22002763705362216","0","","","","","","","",""
"","html-keyboard-response","453","1497454","0.0-241.0-1.0","null","<p></p>","null","","","","","","","","","","","","","","","","","","",""
"","do_trial","454","1502348","0.0-242.0-0.0","342.39999999990687","","","","49","1,0,0","4","city","180","probe-99","0.4525848873488231","0.43266968899250885","0.3038858120272675","1","","","","","","","",""
"","html-keyboard-response","455","1503352","0.0-242.0-1.0","null","<p></p>","null","","","","","","","","","","","","","","","","","","",""
"","do_trial","456","1508179","0.0-243.0-0.0","273.6999999997206","","","","49","1,0,0","4","city","181","probe-17","0.395427203232267","0.5089344815488361","0.10802815483527806","1","","","","","","","",""
"","html-keyboard-response","457","1509184","0.0-243.0-1.0","null","<p></p>","null","","","","","","","","","","","","","","","","","","",""
"","do_trial","458","1514244","0.0-244.0-0.0","508.1999999997206","","","","49","0,1,0","4","city","182","probe-20","0.3304555279554792","0.5930373263380528","0.21999834516217415","0","","","","","","","",""
"","html-keyboard-response","459","1515248","0.0-244.0-1.0","null","<p></p>","null","","","","","","","","","","","","","","","","","","",""
"","do_trial","460","1520651","0.0-245.0-0.0","851","","","","50","0,0,0","4","city","183","probe-194","0.43701506362611786","0.5232515553121966","0.1648400176521527","0","","","","","","","",""
"","html-keyboard-response","461","1521655","0.0-245.0-1.0","null","<p></p>","null","","","","","","","","","","","","","","","","","","",""
"","do_trial","462","1527172","0.0-246.0-0.0","965.1999999997206","","","","50","0,1,0","4","city","184","probe-168","0.3662940435747298","0.46406353716455884","0.1498593770151741","1","","","","","","","",""
"","html-keyboard-response","463","1528176","0.0-246.0-1.0","null","<p></p>","null","","","","","","","","","","","","","","","","","","",""
"","do_trial","464","1533116","0.0-247.0-0.0","387.70000000018626","","","","50","0,0,0","4","city","185","probe-68","0.4049401396017334","0.388155229002001","0.13336266666618066","0","","","","","","","",""
"","html-keyboard-response","465","1534120","0.0-247.0-1.0","null","<p></p>","null","","","","","","","","","","","","","","","","","","",""
"","do_trial","466","1539100","0.0-248.0-0.0","433.6999999997206","","","","49","1,1,0","4","city","186","probe-94","0.33213128051000157","0.5056622917801288","0.16000855833543182","1","","","","","","","",""
"","html-keyboard-response","467","1540105","0.0-248.0-1.0","null","<p></p>","null","","","","","","","","","","","","","","","","","","",""
"","do_trial","468","1544986","0.0-249.0-0.0","328.59999999962747","","","","49","0,1,0","4","city","187","probe-111","0.32152048895405955","0.624375678359521","0.05981637584844058","0","","","","","","","",""
"","html-keyboard-response","469","1545990","0.0-249.0-1.0","null","<p></p>","null","","","","","","","","","","","","","","","","","","",""
"","do_trial","470","1550906","0.0-250.0-0.0","366.39999999990687","","","","51","0,0,0","4","city","188","probe-136","0.3210490076421956","0.6170570036278785","0.06893871346536973","0","","","","","","","",""
"","html-keyboard-response","471","1551911","0.0-250.0-1.0","null","<p></p>","null","","","","","","","","","","","","","","","","","","",""
"","do_trial","472","1556768","0.0-251.0-0.0","305.5","","","","49","1,1,0","4","city","189","probe-214","0.19000659896151675","0.6928466002121264","0.08786407235820423","1","","","","","","","",""
"","html-keyboard-response","473","1557772","0.0-251.0-1.0","null","<p></p>","null","","","","","","","","","","","","","","","","","","",""
"","do_bye","474","1559280","0.0-252.0-0.0","null","","","","null","","","","","","","","","","","","","","","","",""
"","do_travel","475","1565284","0.0-253.0-0.0","null","","","","null","","","","","","","","","","","","","","","","",""
"","do_welcome","476","1566794","0.0-253.0-1.0","null","","","","null","","","","","","","","","","","","","","","","",""
"","do_trial","477","1571943","0.0-254.0-0.0","600.5","","","","49","0,1,0","5","mountain","190","probe-56","0.30998957632404356","1","0.05103591197430652","0","","","","","","","",""
"","html-keyboard-response","478","1572949","0.0-254.0-1.0","null","<p></p>","null","","","","","","","","","","","","","","","","","","",""
"","do_trial","479","1577938","0.0-255.0-0.0","432.89999999990687","","","","50","1,1,0","5","mountain","191","probe-35","0.3399566693109647","1","0.12937872583217008","1","","","","","","","",""
"","html-keyboard-response","480","1578942","0.0-255.0-1.0","null","<p></p>","null","","","","","","","","","","","","","","","","","","",""
"","do_trial","481","1583801","0.0-256.0-0.0","308.39999999990687","","","","51","1,1,0","5","mountain","192","probe-31","0.21014098119518085","0.7191385236205682","0.09827994599719762","0","","","","","","","",""
"","html-keyboard-response","482","1584805","0.0-256.0-1.0","null","<p></p>","null","","","","","","","","","","","","","","","","","","",""
"","do_trial","483","1589675","0.0-257.0-0.0","318.60000000009313","","","","50","0,0,0","5","mountain","193","probe-39","0.19805164170388853","0.6039553890035323","0.24095142743711023","0","","","","","","","",""
"","html-keyboard-response","484","1590679","0.0-257.0-1.0","null","<p></p>","null","","","","","","","","","","","","","","","","","","",""
"","do_trial","485","1595574","0.0-258.0-0.0","342.1999999997206","","","","49","0,0,0","5","mountain","194","probe-53","0.32894972896483665","0.6594777552285274","0.11169762689335526","0","","","","","","","",""
"","html-keyboard-response","486","1596578","0.0-258.0-1.0","null","<p></p>","null","","","","","","","","","","","","","","","","","","",""
"","do_trial","487","1601477","0.0-259.0-0.0","347.6999999997206","","","","50","0,1,0","5","mountain","195","probe-114","0.3276310770706648","0.6287998144764303","0.15804997241755275","1","","","","","","","",""
"","html-keyboard-response","488","1602481","0.0-259.0-1.0","null","<p></p>","null","","","","","","","","","","","","","","","","","","",""
"","do_trial","489","1607614","0.0-260.0-0.0","579.2999999998137","","","","50","0,0,0","5","mountain","196","probe-173","0.23370895056122312","0.5684943928088931","0.07520815137712016","0","","","","","","","",""
"","html-keyboard-response","490","1608618","0.0-260.0-1.0","null","<p></p>","null","","","","","","","","","","","","","","","","","","",""
"","do_trial","491","1613424","0.0-261.0-0.0","255.10000000009313","","","","51","0,1,0","5","mountain","197","probe-175","0.05550077076720118","0.66878020303779","0.05406880971068573","0","","","","","","","",""
"","html-keyboard-response","492","1614430","0.0-261.0-1.0","null","<p></p>","null","","","","","","","","","","","","","","","","","","",""
"","do_trial","493","1619431","0.0-262.0-0.0","449.10000000009313","","","","50","0,1,0","5","mountain","198","probe-171","0.17269649789765873","0.686514061928734","0.12004552070578697","1","","","","","","","",""
"","html-keyboard-response","494","1620435","0.0-262.0-1.0","null","<p></p>","null","","","","","","","","","","","","","","","","","","",""
"","do_trial","495","1625352","0.0-263.0-0.0","368.59999999962747","","","","50","0,1,0","5","mountain","199","probe-118","0.17505876549334315","0.6969988541705068","0.2217071942564288","1","","","","","","","",""
"","html-keyboard-response","496","1626356","0.0-263.0-1.0","null","<p></p>","null","","","","","","","","","","","","","","","","","","",""
"","do_trial","497","1631479","0.0-264.0-0.0","576.2000000001863","","","","50","0,1,0","5","mountain","200","probe-91","0.32872863131375374","0.5948554845192837","0.23464312147914165","1","","","","","","","",""
"","html-keyboard-response","498","1632484","0.0-264.0-1.0","null","<p></p>","null","","","","","","","","","","","","","","","","","","",""
"","do_trial","499","1637465","0.0-265.0-0.0","431.39999999990687","","","","49","1,1,1","5","mountain","201","probe-47","0.3978294453893152","0.5737784609694709","0.17584923536493682","1","","","","","","","",""
"","html-keyboard-response","500","1638470","0.0-265.0-1.0","null","<p></p>","null","","","","","","","","","","","","","","","","","","",""
"","do_trial","501","1643482","0.0-266.0-0.0","460.6999999997206","","","","49","1,0,0","5","mountain","202","probe-130","0.25523141910376224","0.24437531358981113","0.3616883144332311","1","","","","","","","",""
"","html-keyboard-response","502","1644487","0.0-266.0-1.0","null","<p></p>","null","","","","","","","","","","","","","","","","","","",""
"","do_trial","503","1649502","0.0-267.0-0.0","464.29999999981374","","","","49","0,0,1","5","mountain","203","probe-146","0.40520497041568215","0.1790200136413889","0.49316896758463685","0","","","","","","","",""
"","html-keyboard-response","504","1650506","0.0-267.0-1.0","null","<p></p>","null","","","","","","","","","","","","","","","","","","",""
"","do_trial","505","1655461","0.0-268.0-0.0","403.79999999981374","","","","50","1,0,1","5","mountain","204","probe-179","0.3074354530567283","0.13628554910067325","0.5819905953608844","0","","","","","","","",""
"","html-keyboard-response","506","1656466","0.0-268.0-1.0","null","<p></p>","null","","","","","","","","","","","","","","","","","","",""
"","do_trial","507","1662007","0.0-269.0-0.0","989.6000000000931","","","","49","0,0,1","5","mountain","205","probe-148","0.31979114754348187","0.09732152180801824","0.686890291905613","0","","","","","","","",""
"","html-keyboard-response","508","1663011","0.0-269.0-1.0","null","<p></p>","null","","","","","","","","","","","","","","","","","","",""
"","do_trial","509","1667873","0.0-270.0-0.0","308.40000000037253","","","","50","0,0,0","5","mountain","206","probe-212","0.4213654712021301","0.0965395722543675","0.8406538343217641","0","","","","","","","",""
"","html-keyboard-response","510","1668877","0.0-270.0-1.0","null","<p></p>","null","","","","","","","","","","","","","","","","","","",""
"","do_trial","511","1673785","0.0-271.0-0.0","360.10000000009313","","","","49","0,0,1","5","mountain","207","probe-224","0.25615600194492627","0.0671493615668666","0.8537079643653767","0","","","","","","","",""
"","html-keyboard-response","512","1674791","0.0-271.0-1.0","null","<p></p>","null","","","","","","","","","","","","","","","","","","",""
"","do_trial","513","1679594","0.0-272.0-0.0","251.10000000009313","","","","50","0,0,1","5","mountain","208","probe-209","0.3631534916600774","0.16207138625076728","0.71593396688199","0","","","","","","","",""
"","html-keyboard-response","514","1680595","0.0-272.0-1.0","null","<p></p>","null","","","","","","","","","","","","","","","","","","",""
"","do_trial","515","1685429","0.0-273.0-0.0","286","","","","51","0,0,0","5","mountain","209","probe-134","0.2785829393958515","0.07998511754781026","0.7136886135610601","0","","","","","","","",""
"","html-keyboard-response","516","1686433","0.0-273.0-1.0","null","<p></p>","null","","","","","","","","","","","","","","","","","","",""
"","do_trial","517","1691368","0.0-274.0-0.0","382.70000000018626","","","","51","0,0,0","5","mountain","210","probe-55","0.19173393383123152","0.05094711527915644","0.7756673783554016","0","","","","","","","",""
"","html-keyboard-response","518","1692371","0.0-274.0-1.0","null","<p></p>","null","","","","","","","","","","","","","","","","","","",""
"","do_trial","519","1697267","0.0-275.0-0.0","344.5","","","","49","0,0,0","5","mountain","211","probe-230","0.2781045734353008","0.06131019171250763","0.6171280456269207","0","","","","","","","",""
"","html-keyboard-response","520","1698273","0.0-275.0-1.0","null","<p></p>","null","","","","","","","","","","","","","","","","","","",""
"","do_trial","521","1703114","0.0-276.0-0.0","293.6999999997206","","","","50","1,0,1","5","mountain","212","probe-221","0.3148579259676454","0.13929033045579578","0.6135810988454466","0","","","","","","","",""
"","html-keyboard-response","522","1704118","0.0-276.0-1.0","null","<p></p>","null","","","","","","","","","","","","","","","","","","",""
"","do_trial","523","1709353","0.0-277.0-0.0","683.8999999999069","","","","50","1,0,1","5","mountain","213","probe-222","0.42203984541523165","0.1936960874129904","0.6318320178464546","0","","","","","","","",""
"","html-keyboard-response","524","1710358","0.0-277.0-1.0","null","<p></p>","null","","","","","","","","","","","","","","","","","","",""
