"success","trial_type","trial_index","time_elapsed","internal_node_id","interactions","blur_events","focus_events","fullscreenenter_events","fullscreenexit_events","rt","stimulus","key_press","subject_id","participant_id","age","gender","prompt","response","choice_outcomes","context_n","context_img_id","trial_n","probe_img_id","pR_red","pR_white","pR_black","outcome","contextArray_ind","validImageProbes","invalidImageProbes","pRew_Red","pRew_White","pRew_Black","availableForMemProbe","choice_blocks"
"true","fullscreen","0","3323","0.0-0.0","""event"",""trial"",""time""
""fullscreenenter"",""0"",""2333""
","
","
","""event"",""trial"",""time""
""fullscreenenter"",""0"",""2333""
","
","","","","","","","","","","","","","","","","","","","","","","","","","",""
"","pavlovia","1","3326","0.0-1.0","""event"",""trial"",""time""
""fullscreenenter"",""0"",""2333""
","
","
","""event"",""trial"",""time""
""fullscreenenter"",""0"",""2333""
","
","","","","","","","","","","","","","","","","","","","","","","","","","",""
"","instruc1","2","48415","0.0-2.0","""event"",""trial"",""time""
""fullscreenenter"",""0"",""2333""
","
","
","""event"",""trial"",""time""
""fullscreenenter"",""0"",""2333""
","
","null","run_exp/static/audio/clip_1_welcome.m4a","null","356","395","22","Female","<div class='center'><p>Welcome! This is the first part of the study. It will last ~30 minutes. In part 1 and part 2 of the study, you are the head captain of a pirate ship traveling around the world to different islands. You will play a few different games throughout these two parts. Here is an overview of them:</p><br><p>Part 1 (today)</p><p>1. Instructions, practice game, and quiz</p><p>2. Pick a pirate game on 6 different islands</p><br><p>Part 2 (tomorrow)</p><p>3. Pick a pirate game and memory game</p><p>4. Where did you see this ship? </p></div>","","","","","","","","","","","","","","","","","",""
"","html-keyboard-response","3","50113","0.0-3.0","""event"",""trial"",""time""
""fullscreenenter"",""0"",""2333""
","
","
","""event"",""trial"",""time""
""fullscreenenter"",""0"",""2333""
","
","1697.3999999761581","<div class='center'><p>Welcome! This is the first part of the study. It will last ~30 minutes. In part 1 and part 2 of the study, you are the head captain of a pirate ship traveling around the world to different islands. You will play a few different games throughout these two parts. Here is an overview of them:</p><br><p>Part 1 (today)</p><p>1. Instructions, practice game, and quiz</p><p>2. Pick a pirate game on 6 different islands</p><br><p>Part 2 (tomorrow)</p><p>3. Pick a pirate game and memory game</p><p>4. Where did you see this ship? </p><p><b>[Press the space bar to continue]</b></p></div>","32","","","","","","","","","","","","","","","","","","","","","","",""
"","instruc2","4","55413","0.0-4.0","""event"",""trial"",""time""
""fullscreenenter"",""0"",""2333""
","
","
","""event"",""trial"",""time""
""fullscreenenter"",""0"",""2333""
","
","null","run_exp/static/audio/clip_2_different_places.m4a","null","","","","","<div class='center'><p>Today, you’ll visit these 6 islands on your journey. You'll be able to see these islands from your ship.</p><p><img src='run_exp/static/images/contexts/all_contexts.png' height='500'></p></div>","","","","","","","","","","","","","","","","","",""
"","html-keyboard-response","5","58273","0.0-5.0","""event"",""trial"",""time""
""fullscreenenter"",""0"",""2333""
","
","
","""event"",""trial"",""time""
""fullscreenenter"",""0"",""2333""
","
","2859","<div class='center'><p>Today, you’ll visit these 6 islands on your journey. You'll be able to see these islands from your ship.</p><p><img src='run_exp/static/images/contexts/all_contexts.png' height='500'></p><p><b>[Press the space bar to continue]</b></p></div>","32","","","","","","","","","","","","","","","","","","","","","","",""
"","instruc3","6","67954","0.0-6.0","""event"",""trial"",""time""
""fullscreenenter"",""0"",""2333""
","
","
","""event"",""trial"",""time""
""fullscreenenter"",""0"",""2333""
","
","null","run_exp/static/audio/clip_3_goal_of_game_1.m4a","null","","","","","<div class='center'><p> The pirates on your ship will rob other ships as they leave the island.</p> These ships have just sold their goods to the islanders, so they will be filled with lots and lots of gold.</p><p><img src='run_exp/static/images/tutorial/ship_center.png' height='400'></p></div>","","","","","","","","","","","","","","","","","",""
"","html-keyboard-response","7","70185","0.0-7.0","""event"",""trial"",""time""
""fullscreenenter"",""0"",""2333""
","
","
","""event"",""trial"",""time""
""fullscreenenter"",""0"",""2333""
","
","2230.600000023842","<div class='center'><p> The pirates on your ship will rob other ships as they leave the island.</p> These ships have just sold their goods to the islanders, so they will be filled with lots and lots of gold.</p><p><img src='run_exp/static/images/tutorial/ship_center.png' height='400'></p><p><b>[Press the space bar to continue]</b></p></div>","32","","","","","","","","","","","","","","","","","","","","","","",""
"","instruc4","8","98174","0.0-8.0","""event"",""trial"",""time""
""fullscreenenter"",""0"",""2333""
","
","
","""event"",""trial"",""time""
""fullscreenenter"",""0"",""2333""
","
","null","run_exp/static/audio/clip_4_goal_of_game_2.m4a","null","","","","","<div class='center'><p>As the head captain, you do not have to rob any ships yourself. Another pirate will be doing the robbing for you. First, you will choose a pirate to rob the next ship.</p><p><img src='run_exp/static/images/tutorial/pirates_all_crop.png' height='200'></p><p>Then, you'll see if the pirate successfully robbed the ship of their gold. If they were successful, then you'll get a stack of gold coins like this:</p><p><img src='run_exp/static/images/tutorial/reward.png' height='150'></p><p> If they were <b>not</b> successful, then you'll get no gold coins, and you'll see a big red x like this: </p><p><img src='run_exp/static/images/tutorial/reward_no.png' height='150'></p><p> How much bonus money you make is based on how many gold coins you collect.</p><div>","","","","","","","","","","","","","","","","","",""
"","html-keyboard-response","9","99849","0.0-9.0","""event"",""trial"",""time""
""fullscreenenter"",""0"",""2333""
","
","
","""event"",""trial"",""time""
""fullscreenenter"",""0"",""2333""
","
","1673.699999988079","<div class='center'><p>As the head captain, you do not have to rob any ships yourself. Another pirate will be doing the robbing for you. First, you will choose a pirate to rob the next ship.</p><p><img src='run_exp/static/images/tutorial/pirates_all_crop.png' height='200'></p><p>Then, you'll see if the pirate successfully robbed the ship of their gold. If they were successful, then you'll get a stack of gold coins like this:</p><p><img src='run_exp/static/images/tutorial/reward.png' height='150'></p><p> If they were <b>not</b> successful, then you'll get no gold coins, and you'll see a big red x like this: </p><p><img src='run_exp/static/images/tutorial/reward_no.png' height='150'></p><p> How much bonus money you make is based on how many gold coins you collect.</p<p><b>[Press the space bar to continue]</b></p></div>","32","","","","","","","","","","","","","","","","","","","","","","",""
"","instruc5","10","109345","0.0-10.0","""event"",""trial"",""time""
""fullscreenenter"",""0"",""2333""
","
","
","""event"",""trial"",""time""
""fullscreenenter"",""0"",""2333""
","
","9494.800000011921","run_exp/static/audio/clip_5_probabilistic.m4a","49","","","","","<div class='center'><p>Even the most skilled pirate can not rob EVERY ship.</p><p> Some ships will have very strong protections against pirate attacks.</p><p> Blue beard, here, is very, very good at robbing ships, but he won't be successful every time he tries to rob one.</p><p> You can press the <b>‘1’</b> key on the keyboard to choose him.</p><p> Try choosing him 10 times to see how often he succeeds at robbing a ship. </p><p><img src='run_exp/static/images/tutorial/blue.png' height='500'></p></div>","","","","","","","","","","","","","","","","","",""
"","html-keyboard-response","11","110847","0.0-11.0","""event"",""trial"",""time""
""fullscreenenter"",""0"",""2333""
","
","
","""event"",""trial"",""time""
""fullscreenenter"",""0"",""2333""
","
","null","<div class='center'><p><img src='run_exp/static/images/tutorial/blue_win.png' height='500'></p></div>","null","","","","","","","","","","","","","","","","","","","","","","",""
"","html-keyboard-response","12","111489","0.0-12.0","""event"",""trial"",""time""
""fullscreenenter"",""0"",""2333""
","
","
","""event"",""trial"",""time""
""fullscreenenter"",""0"",""2333""
","
","641.6999999880791","<div class='center'><img src='run_exp/static/images/tutorial/blue.png' height='500'></p></div>","49","","","","","","","","","","","","","","","","","","","","","","",""
"","html-keyboard-response","13","112991","0.0-13.0","""event"",""trial"",""time""
""fullscreenenter"",""0"",""2333""
","
","
","""event"",""trial"",""time""
""fullscreenenter"",""0"",""2333""
","
","null","<div class='center'><p><img src='run_exp/static/images/tutorial/blue_win.png' height='500'></p></div>","null","","","","","","","","","","","","","","","","","","","","","","",""
"","html-keyboard-response","14","113249","0.0-14.0","""event"",""trial"",""time""
""fullscreenenter"",""0"",""2333""
","
","
","""event"",""trial"",""time""
""fullscreenenter"",""0"",""2333""
","
","257.0999999642372","<div class='center'><img src='run_exp/static/images/tutorial/blue.png' height='500'></p></div>","49","","","","","","","","","","","","","","","","","","","","","","",""
"","html-keyboard-response","15","114751","0.0-15.0","""event"",""trial"",""time""
""fullscreenenter"",""0"",""2333""
","
","
","""event"",""trial"",""time""
""fullscreenenter"",""0"",""2333""
","
","null","<div class='center'><p><img src='run_exp/static/images/tutorial/blue_win.png' height='500'></p></div>","null","","","","","","","","","","","","","","","","","","","","","","",""
"","html-keyboard-response","16","115105","0.0-16.0","""event"",""trial"",""time""
""fullscreenenter"",""0"",""2333""
","
","
","""event"",""trial"",""time""
""fullscreenenter"",""0"",""2333""
","
","354.19999998807907","<div class='center'><img src='run_exp/static/images/tutorial/blue.png' height='500'></p></div>","49","","","","","","","","","","","","","","","","","","","","","","",""
"","html-keyboard-response","17","116607","0.0-17.0","""event"",""trial"",""time""
""fullscreenenter"",""0"",""2333""
","
","
","""event"",""trial"",""time""
""fullscreenenter"",""0"",""2333""
","
","null","<div class='center'><p><img src='run_exp/static/images/tutorial/blue_no_win.png' height='500'></p></div>","null","","","","","","","","","","","","","","","","","","","","","","",""
"","html-keyboard-response","18","116969","0.0-18.0","""event"",""trial"",""time""
""fullscreenenter"",""0"",""2333""
","
","
","""event"",""trial"",""time""
""fullscreenenter"",""0"",""2333""
","
","361.69999998807907","<div class='center'><img src='run_exp/static/images/tutorial/blue.png' height='500'></p></div>","49","","","","","","","","","","","","","","","","","","","","","","",""
"","html-keyboard-response","19","118470","0.0-19.0","""event"",""trial"",""time""
""fullscreenenter"",""0"",""2333""
","
","
","""event"",""trial"",""time""
""fullscreenenter"",""0"",""2333""
","
","null","<div class='center'><p><img src='run_exp/static/images/tutorial/blue_win.png' height='500'></p></div>","null","","","","","","","","","","","","","","","","","","","","","","",""
"","html-keyboard-response","20","118721","0.0-20.0","""event"",""trial"",""time""
""fullscreenenter"",""0"",""2333""
","
","
","""event"",""trial"",""time""
""fullscreenenter"",""0"",""2333""
","
","250.89999997615814","<div class='center'><img src='run_exp/static/images/tutorial/blue.png' height='500'></p></div>","49","","","","","","","","","","","","","","","","","","","","","","",""
"","html-keyboard-response","21","120224","0.0-21.0","""event"",""trial"",""time""
""fullscreenenter"",""0"",""2333""
","
","
","""event"",""trial"",""time""
""fullscreenenter"",""0"",""2333""
","
","null","<div class='center'><p><img src='run_exp/static/images/tutorial/blue_win.png' height='500'></p></div>","null","","","","","","","","","","","","","","","","","","","","","","",""
"","html-keyboard-response","22","120425","0.0-22.0","""event"",""trial"",""time""
""fullscreenenter"",""0"",""2333""
","
","
","""event"",""trial"",""time""
""fullscreenenter"",""0"",""2333""
","
","200.89999997615814","<div class='center'><img src='run_exp/static/images/tutorial/blue.png' height='500'></p></div>","49","","","","","","","","","","","","","","","","","","","","","","",""
"","html-keyboard-response","23","121927","0.0-23.0","""event"",""trial"",""time""
""fullscreenenter"",""0"",""2333""
","
","
","""event"",""trial"",""time""
""fullscreenenter"",""0"",""2333""
","
","null","<div class='center'><p><img src='run_exp/static/images/tutorial/blue_win.png' height='500'></p></div>","null","","","","","","","","","","","","","","","","","","","","","","",""
"","html-keyboard-response","24","122465","0.0-24.0","""event"",""trial"",""time""
""fullscreenenter"",""0"",""2333""
","
","
","""event"",""trial"",""time""
""fullscreenenter"",""0"",""2333""
","
","538","<div class='center'><img src='run_exp/static/images/tutorial/blue.png' height='500'></p></div>","49","","","","","","","","","","","","","","","","","","","","","","",""
"","html-keyboard-response","25","123967","0.0-25.0","""event"",""trial"",""time""
""fullscreenenter"",""0"",""2333""
","
","
","""event"",""trial"",""time""
""fullscreenenter"",""0"",""2333""
","
","null","<div class='center'><p><img src='run_exp/static/images/tutorial/blue_no_win.png' height='500'></p></div>","null","","","","","","","","","","","","","","","","","","","","","","",""
"","html-keyboard-response","26","124305","0.0-26.0","""event"",""trial"",""time""
""fullscreenenter"",""0"",""2333""
","
","
","""event"",""trial"",""time""
""fullscreenenter"",""0"",""2333""
","
","336.89999997615814","<div class='center'><img src='run_exp/static/images/tutorial/blue.png' height='500'></p></div>","49","","","","","","","","","","","","","","","","","","","","","","",""
"","html-keyboard-response","27","125807","0.0-27.0","""event"",""trial"",""time""
""fullscreenenter"",""0"",""2333""
","
","
","""event"",""trial"",""time""
""fullscreenenter"",""0"",""2333""
","
","null","<div class='center'><p><img src='run_exp/static/images/tutorial/blue_win.png' height='500'></p></div>","null","","","","","","","","","","","","","","","","","","","","","","",""
"","html-keyboard-response","28","126097","0.0-28.0","""event"",""trial"",""time""
""fullscreenenter"",""0"",""2333""
","
","
","""event"",""trial"",""time""
""fullscreenenter"",""0"",""2333""
","
","289.60000002384186","<div class='center'><img src='run_exp/static/images/tutorial/blue.png' height='500'></p></div>","49","","","","","","","","","","","","","","","","","","","","","","",""
"","html-keyboard-response","29","127599","0.0-29.0","""event"",""trial"",""time""
""fullscreenenter"",""0"",""2333""
","
","
","""event"",""trial"",""time""
""fullscreenenter"",""0"",""2333""
","
","null","<div class='center'><p><img src='run_exp/static/images/tutorial/blue_win.png' height='500'></p></div>","null","","","","","","","","","","","","","","","","","","","","","","",""
"","instruc6","30","133001","0.0-30.0","""event"",""trial"",""time""
""fullscreenenter"",""0"",""2333""
","
","
","""event"",""trial"",""time""
""fullscreenenter"",""0"",""2333""
","
","null","run_exp/static/audio/clip_6_blue_beard_outcome.m4a","null","","","","","<div class='center'><p> See, he succeeded in robbing the ships most of the time but not every time. </p></div>","","","","","","","","","","","","","","","","","",""
"","html-keyboard-response","31","133850","0.0-31.0","""event"",""trial"",""time""
""fullscreenenter"",""0"",""2333""
","
","
","""event"",""trial"",""time""
""fullscreenenter"",""0"",""2333""
","
","847.5","<div class='center'><p> See, he succeeded in robbing the ships most of the time but not every time. </p><p><b>[Press the space bar to continue]</b></p></div>","32","","","","","","","","","","","","","","","","","","","","","","",""
"","audio-keyboard-response","32","138729","0.0-32.0","""event"",""trial"",""time""
""fullscreenenter"",""0"",""2333""
","
","
","""event"",""trial"",""time""
""fullscreenenter"",""0"",""2333""
","
","4878.399999976158","run_exp/static/audio/clip_7_pick_pirate.m4a","50","","","","","","","","","","","","","","","","","","","","","","",""
"","audio-keyboard-response","33","140634","0.0-33.0-0.0","""event"",""trial"",""time""
""fullscreenenter"",""0"",""2333""
","
","
","""event"",""trial"",""time""
""fullscreenenter"",""0"",""2333""
","
","1903.1000000238419","run_exp/static/audio/clip_8_chosen_pirate_win.m4a","32","","","","","","","","","","","","","","","","","","","","","","",""
"","audio-keyboard-response","34","141177","0.0-33.0-1.0","""event"",""trial"",""time""
""fullscreenenter"",""0"",""2333""
","
","
","""event"",""trial"",""time""
""fullscreenenter"",""0"",""2333""
","
","542","run_exp/static/audio/clip_9_pick_a_pirate_again.m4a","49","","","","","","","","","","","","","","","","","","","","","","",""
"","audio-keyboard-response","35","141617","0.0-34.0-0.0","""event"",""trial"",""time""
""fullscreenenter"",""0"",""2333""
","
","
","""event"",""trial"",""time""
""fullscreenenter"",""0"",""2333""
","
","438.5","run_exp/static/audio/clip_10_chosen_pirate_loss.m4a","32","","","","","","","","","","","","","","","","","","","","","","",""
"","instruc9","36","147102","0.0-35.0-0.0","""event"",""trial"",""time""
""fullscreenenter"",""0"",""2333""
","
","
","""event"",""trial"",""time""
""fullscreenenter"",""0"",""2333""
","
","null","run_exp/static/audio/clip_11_time_out.m4a","null","","","","","<div class='center'><p>If you don’t make your choice fast enough, you’ll have to wait a few seconds before you can make another one. </p><p><img src='run_exp/static/images/miscellaneous/hurry_up.png' height='500'></p></div>","","","","","","","","","","","","","","","","","",""
"","html-keyboard-response","37","148362","0.0-35.0-1.0","""event"",""trial"",""time""
""fullscreenenter"",""0"",""2333""
","
","
","""event"",""trial"",""time""
""fullscreenenter"",""0"",""2333""
","
","1259.1000000238419","<div class='center'><p>If you don’t make your choice fast enough, you’ll have to wait a few seconds before you can make another one. </p><p><img src='run_exp/static/images/miscellaneous/hurry_up.png' height='500'></p><p><b>[Press the space bar to continue]</b></p></div>","32","","","","","","","","","","","","","","","","","","","","","","",""
"","instruc10","38","187442","0.0-35.0-2.0","""event"",""trial"",""time""
""fullscreenenter"",""0"",""2333""
","
","
","""event"",""trial"",""time""
""fullscreenenter"",""0"",""2333""
","
","null","run_exp/static/audio/clip_12_probe.m4a","null","","","","","<div class='center'><p>Once you've chosen a pirate, you’ll be shown the ship they are robbing. You will never rob the same ship twice. Ships can be told apart from one another by the image on them. These are the goods that they sell. See, this ship has a travel mug on it. </p><p> You’ll have to remember which island you saw each ship on. You will win more gold coins and hence more bonus money if you remember correctly! To help you remember, you can imagine a story. For example, here, you could imagine a mug full of water in the desert. Or, as another example, if on the forest island, your pirate robbed a ship with an apple on it, you could imagine an apple falling from a tree in the forest. </p><p><img src='run_exp/static/images/tutorial/example_probe.png' height='500'></p></div>","","","","","","","","","","","","","","","","","",""
"","html-keyboard-response","39","187970","0.0-35.0-3.0","""event"",""trial"",""time""
""fullscreenenter"",""0"",""2333""
","
","
","""event"",""trial"",""time""
""fullscreenenter"",""0"",""2333""
","
","526","<div class='center'><p>Once you've chosen a pirate, you’ll be shown the ship they are robbing. You will never rob the same ship twice. Ships can be told apart from one another by the image on them. These are the goods that they sell. See, this ship has a travel mug on it. </p><p> You’ll have to remember which island you saw each ship on. You will win more gold coins and hence more bonus money if you remember correctly! To help you remember, you can imagine a story. For example, here, you could imagine a mug full of water in the desert. Or, as another example, if on the forest island, your pirate robbed a ship with an apple on it, you could imagine an apple falling from a tree in the forest. </p><p><img src='run_exp/static/images/tutorial/example_probe.png' height='500'></p><p><b>[Press the space bar to continue]</b></p></div>","32","","","","","","","","","","","","","","","","","","","","","","",""
"","instruc11","40","204383","0.0-35.0-4.0","""event"",""trial"",""time""
""fullscreenenter"",""0"",""2333""
","
","
","""event"",""trial"",""time""
""fullscreenenter"",""0"",""2333""
","
","null","run_exp/static/audio/clip_13_changepoint.m4a","null","","","","","<div class='center'><p>How successful a pirate is at robbing ships will depend on the island you’re on.</p><p> A pirate may have visited this island many times before and gained a lot of practice robbing ships there.</p><p>So, they’re more likely to be successful than a pirate who has never visited the island before.</p></div>","","","","","","","","","","","","","","","","","",""
"","html-keyboard-response","41","204938","0.0-35.0-5.0","""event"",""trial"",""time""
""fullscreenenter"",""0"",""2333""
","
","
","""event"",""trial"",""time""
""fullscreenenter"",""0"",""2333""
","
","554.1000000238419","<div class='center'><p>How successful a pirate is at robbing ships will depend on the island you’re on.</p><p> A pirate may have visited this island many times before and gained a lot of practice robbing ships there.</p><p>So, they’re more likely to be successful than a pirate who has never visited the island before.</p><p><b>[Press the space bar to continue]</b></p></div>","32","","","","","","","","","","","","","","","","","","","","","","",""
"","instruc12","42","246024","0.0-35.0-6.0","""event"",""trial"",""time""
""fullscreenenter"",""0"",""2333""
","
","
","""event"",""trial"",""time""
""fullscreenenter"",""0"",""2333""
","
","null","run_exp/static/audio/clip_14_drift.m4a","null","","","","","<div class='center'><p>How successful a pirate is at robbing ships can also change over the time spent on the island. </p><p> Ships may hear from islanders about the pirates coming and will improve their protections against the attack. This may make it harder to rob them.</p><p> Ships may also become lazy and weaken the strength of their protections. This may make it easier to rob them.</p><br><p>Things are always changing on the high seas! So, try your best to pay attention!</p><p><img src='run_exp/static/images/tutorial/contingency.png' height='500'></p></div>","","","","","","","","","","","","","","","","","",""
"","html-keyboard-response","43","246618","0.0-35.0-7.0","""event"",""trial"",""time""
""fullscreenenter"",""0"",""2333""
","
","
","""event"",""trial"",""time""
""fullscreenenter"",""0"",""2333""
","
","593.1000000238419","<div class='center'><p>How successful a pirate is at robbing ships can also change over the time spent on the island. </p><p> Ships may hear from islanders about the pirates coming and will improve their protections against the attack. This may make it harder to rob them.</p><p> Ships may also become lazy and weaken the strength of their protections. This may make it easier to rob them.</p><br><p>Things are always changing on the high seas! So, try your best to pay attention!</p><p><img src='run_exp/static/images/tutorial/contingency.png' height='500'></p><p><b>[Press the space bar to continue]</b></p></div>","32","","","","","","","","","","","","","","","","","","","","","","",""
"","instruc13","44","281805","0.0-35.0-8.0","""event"",""trial"",""time""
""fullscreenenter"",""0"",""2333""
","
","
","""event"",""trial"",""time""
""fullscreenenter"",""0"",""2333""
","
","null","run_exp/static/audio/clip_15_summary.m4a","null","","","","","<div class='center'><p>Let's go over the instructions quickly again. You have two important things to do: </p><b><p> 1. Pick the pirate who is the best at robbing ships on the current island. </p></b><b><p> 2. Remember on which island a ship was robbed.</p> </b><p>The amount of bonus money you can win depends on both.</p><p><br><p>Let’s try a practice game. The game will start by showing you the pirates. First, pick a pirate using the <b> 1, 2, 3 </b> keys on your keyboard. When you are shown a ship, try to remember which island you’re on by making up a story.</p><p>This is just a practice game, so you’re not playing for money. </p><p> Good luck! This game will be very difficult but try your best!</p></div>","","","","","","","","","","","","","","","","","",""
"","html-keyboard-response","45","282619","0.0-35.0-9.0","""event"",""trial"",""time""
""fullscreenenter"",""0"",""2333""
","
","
","""event"",""trial"",""time""
""fullscreenenter"",""0"",""2333""
","
","813.1999999880791","<div class='center'><p>Let's go over the instructions quickly again. You have two important things to do: </p><b><p> 1. Pick the pirate who is the best at robbing ships on the current island. </p></b><b><p> 2. Remember on which island a ship was robbed.</p> </b><p>The amount of bonus money you can win depends on both.</p><p><br><p>Let’s try a practice game. The game will start by showing you the pirates. First, pick a pirate using the <b> 1, 2, 3 </b> keys on your keyboard. When you are shown a ship, try to remember which island you’re on by making up a story.</p><p>This is just a practice game, so you’re not playing for money. </p><p> Good luck! This game will be very difficult but try your best!</p><p><b>[Press the space bar to continue]</b></p></div>","32","","","","","","","","","","","","","","","","","","","","","","",""
"","do_welcome","46","286624","0.0-35.0-10.0","""event"",""trial"",""time""
""fullscreenenter"",""0"",""2333""
","
","
","""event"",""trial"",""time""
""fullscreenenter"",""0"",""2333""
","
","null","","","","","","","","null","","","","","","","","","","","","","","","","",""
"","do_trial","47","291863","0.0-35.0-11.0","""event"",""trial"",""time""
""fullscreenenter"",""0"",""2333""
","
","
","""event"",""trial"",""time""
""fullscreenenter"",""0"",""2333""
","
","734.5999999642372","","","","","","","","50","1,0,0","","","","","","","","","","","","","","","",""
"","html-keyboard-response","48","292865","0.0-36.0-0.0","""event"",""trial"",""time""
""fullscreenenter"",""0"",""2333""
","
","
","""event"",""trial"",""time""
""fullscreenenter"",""0"",""2333""
","
","null","<p></p>","null","","","","","","","","","","","","","","","","","","","","","","",""
"","do_trial","49","297760","0.0-36.0-1.0","""event"",""trial"",""time""
""fullscreenenter"",""0"",""2333""
","
","
","""event"",""trial"",""time""
""fullscreenenter"",""0"",""2333""
","
","391.10000002384186","","","","","","","","49","1,1,0","","","","","","","","","","","","","","","",""
"","html-keyboard-response","50","298762","0.0-37.0-0.0","""event"",""trial"",""time""
""fullscreenenter"",""0"",""2333""
","
","
","""event"",""trial"",""time""
""fullscreenenter"",""0"",""2333""
","
","null","<p></p>","null","","","","","","","","","","","","","","","","","","","","","","",""
"","do_trial","51","303631","0.0-37.0-1.0","""event"",""trial"",""time""
""fullscreenenter"",""0"",""2333""
","
","
","""event"",""trial"",""time""
""fullscreenenter"",""0"",""2333""
","
","365","","","","","","","","51","1,0,1","","","","","","","","","","","","","","","",""
"","html-keyboard-response","52","304632","0.0-38.0-0.0","""event"",""trial"",""time""
""fullscreenenter"",""0"",""2333""
","
","
","""event"",""trial"",""time""
""fullscreenenter"",""0"",""2333""
","
","null","<p></p>","null","","","","","","","","","","","","","","","","","","","","","","",""
"","do_trial","53","309377","0.0-38.0-1.0","""event"",""trial"",""time""
""fullscreenenter"",""0"",""2333""
","
","
","""event"",""trial"",""time""
""fullscreenenter"",""0"",""2333""
","
","240.10000002384186","","","","","","","","49","0,1,0","","","","","","","","","","","","","","","",""
"","html-keyboard-response","54","310379","0.0-39.0-0.0","""event"",""trial"",""time""
""fullscreenenter"",""0"",""2333""
","
","
","""event"",""trial"",""time""
""fullscreenenter"",""0"",""2333""
","
","null","<p></p>","null","","","","","","","","","","","","","","","","","","","","","","",""
"","do_trial","55","315184","0.0-39.0-1.0","""event"",""trial"",""time""
""fullscreenenter"",""0"",""2333""
","
","
","""event"",""trial"",""time""
""fullscreenenter"",""0"",""2333""
","
","299.9000000357628","","","","","","","","51","1,0,0","","","","","","","","","","","","","","","",""
"","do_bye","56","316688","0.0-40.0-0.0","""event"",""trial"",""time""
""fullscreenenter"",""0"",""2333""
","
","
","""event"",""trial"",""time""
""fullscreenenter"",""0"",""2333""
","
","null","","","","","","","","null","","","","","","","","","","","","","","","","",""
"","do_travel","57","325691","0.0-40.0-1.0","""event"",""trial"",""time""
""fullscreenenter"",""0"",""2333""
","
","
","""event"",""trial"",""time""
""fullscreenenter"",""0"",""2333""
","
","null","","","","","","","","null","","","","","","","","","","","","","","","","",""
"","do_welcome","58","329695","0.0-40.0-2.0","""event"",""trial"",""time""
""fullscreenenter"",""0"",""2333""
","
","
","""event"",""trial"",""time""
""fullscreenenter"",""0"",""2333""
","
","null","","","","","","","","null","","","","","","","","","","","","","","","","",""
"","do_trial","59","334792","0.0-40.0-3.0","""event"",""trial"",""time""
""fullscreenenter"",""0"",""2333""
","
","
","""event"",""trial"",""time""
""fullscreenenter"",""0"",""2333""
","
","592.8000000119209","","","","","","","","50","1,0,0","","","","","","","","","","","","","","","",""
"","html-keyboard-response","60","335794","0.0-41.0-0.0","""event"",""trial"",""time""
""fullscreenenter"",""0"",""2333""
","
","
","""event"",""trial"",""time""
""fullscreenenter"",""0"",""2333""
","
","null","<p></p>","null","","","","","","","","","","","","","","","","","","","","","","",""
"","do_trial","61","340711","0.0-41.0-1.0","""event"",""trial"",""time""
""fullscreenenter"",""0"",""2333""
","
","
","""event"",""trial"",""time""
""fullscreenenter"",""0"",""2333""
","
","413.4000000357628","","","","","","","","50","1,0,1","","","","","","","","","","","","","","","",""
"","html-keyboard-response","62","341712","0.0-42.0-0.0","""event"",""trial"",""time""
""fullscreenenter"",""0"",""2333""
","
","
","""event"",""trial"",""time""
""fullscreenenter"",""0"",""2333""
","
","null","<p></p>","null","","","","","","","","","","","","","","","","","","","","","","",""
"","do_trial","63","346511","0.0-42.0-1.0","""event"",""trial"",""time""
""fullscreenenter"",""0"",""2333""
","
","
","""event"",""trial"",""time""
""fullscreenenter"",""0"",""2333""
","
","295.5","","","","","","","","49","1,1,0","","","","","","","","","","","","","","","",""
"","html-keyboard-response","64","347513","0.0-43.0-0.0","""event"",""trial"",""time""
""fullscreenenter"",""0"",""2333""
","
","
","""event"",""trial"",""time""
""fullscreenenter"",""0"",""2333""
","
","null","<p></p>","null","","","","","","","","","","","","","","","","","","","","","","",""
"","do_trial","65","352392","0.0-43.0-1.0","""event"",""trial"",""time""
""fullscreenenter"",""0"",""2333""
","
","
","""event"",""trial"",""time""
""fullscreenenter"",""0"",""2333""
","
","374.89999997615814","","","","","","","","49","0,0,1","","","","","","","","","","","","","","","",""
"","html-keyboard-response","66","353393","0.0-44.0-0.0","""event"",""trial"",""time""
""fullscreenenter"",""0"",""2333""
","
","
","""event"",""trial"",""time""
""fullscreenenter"",""0"",""2333""
","
","null","<p></p>","null","","","","","","","","","","","","","","","","","","","","","","",""
"","do_trial","67","358240","0.0-44.0-1.0","""event"",""trial"",""time""
""fullscreenenter"",""0"",""2333""
","
","
","""event"",""trial"",""time""
""fullscreenenter"",""0"",""2333""
","
","342.19999998807907","","","","","","","","49","1,0,1","","","","","","","","","","","","","","","",""
"","html-keyboard-response","68","360578","0.0-45.0-0.0","""event"",""trial"",""time""
""fullscreenenter"",""0"",""2333""
","
","
","""event"",""trial"",""time""
""fullscreenenter"",""0"",""2333""
","
","2337.100000023842","<div class='center'><p><img src='run_exp/static/images/tutorial/prac_best_pirate.png'  height='500'></p></div>","49","","","","","","","","","","","","","","","","","","","","","","",""
"","html-keyboard-response","69","362019","0.0-46.0-0.0","""event"",""trial"",""time""
""fullscreenenter"",""0"",""2333""
","
","
","""event"",""trial"",""time""
""fullscreenenter"",""0"",""2333""
","
","1439.699999988079","<div class='center'><p>That's correct! Red beard was the best.</p><p><b>[Press the space bar to continue]</b></p></div>","32","","","","","","","","","","","","","","","","","","","","","","",""
"","html-keyboard-response","70","364379","0.0-46.0-1.0","""event"",""trial"",""time""
""fullscreenenter"",""0"",""2333""
","
","
","""event"",""trial"",""time""
""fullscreenenter"",""0"",""2333""
","
","2359.600000023842","<div class='center'><p><img src='run_exp/static/images/tutorial/prac_source.png'  height='500'></p></div>","50","","","","","","","","","","","","","","","","","","","","","","",""
"","html-keyboard-response","71","365419","0.0-47.0-0.0","""event"",""trial"",""time""
""fullscreenenter"",""0"",""2333""
","
","
","""event"",""trial"",""time""
""fullscreenenter"",""0"",""2333""
","
","1039.4000000357628","<div class='center'><p>That's correct! You saw this ship on the cavern island.</p><p><b>[Press the space bar to continue]</b></p></div>","32","","","","","","","","","","","","","","","","","","","","","","",""
"","quiz_beginning","72","376628","0.0-47.0-1.0","""event"",""trial"",""time""
""fullscreenenter"",""0"",""2333""
","
","
","""event"",""trial"",""time""
""fullscreenenter"",""0"",""2333""
","
","null","run_exp/static/audio/clip_16_quiz_intro.m4a","null","","","","","<div class='center'><p>Good job on the practice game! Now, you will be asked some true or false questions to make sure you really understand the rules of the game.</p><p> Press <b>'1'</b> on the keyboard for true and press <b>'2'</b> for false.</p></div>","","","","","","","","","","","","","","","","","",""
"","audio-keyboard-response","73","378683","0.0-47.0-2.0","""event"",""trial"",""time""
""fullscreenenter"",""0"",""2333""
","
","
","""event"",""trial"",""time""
""fullscreenenter"",""0"",""2333""
","
","2053.300000011921","run_exp/static/audio/clip_17_q1.m4a","49","","","","","","","","","","","","","","","","","","","","","","",""
"","correct","74","381088","0.0-48.0-0.0","""event"",""trial"",""time""
""fullscreenenter"",""0"",""2333""
","
","
","""event"",""trial"",""time""
""fullscreenenter"",""0"",""2333""
","
","null","run_exp/static/audio/clip_18_correct.m4a","null","","","","","<div class='center'><p>That's correct!</p></div>","","","","","","","","","","","","","","","","","",""
"","html-keyboard-response","75","382067","0.0-48.0-1.0","""event"",""trial"",""time""
""fullscreenenter"",""0"",""2333""
","
","
","""event"",""trial"",""time""
""fullscreenenter"",""0"",""2333""
","
","977.5","<div class='center'><p>That's correct!</p><p><b>[Press the space bar to continue]</b></p></div>","32","","","","","","","","","","","","","","","","","","","","","","",""
"","audio-keyboard-response","76","386003","0.0-48.0-2.0","""event"",""trial"",""time""
""fullscreenenter"",""0"",""2333""
","
","
","""event"",""trial"",""time""
""fullscreenenter"",""0"",""2333""
","
","3935.199999988079","run_exp/static/audio/clip_20_q2.m4a","50","","","","","","","","","","","","","","","","","","","","","","",""
"","correct","77","388389","0.0-49.0-0.0","""event"",""trial"",""time""
""fullscreenenter"",""0"",""2333""
","
","
","""event"",""trial"",""time""
""fullscreenenter"",""0"",""2333""
","
","null","run_exp/static/audio/clip_18_correct.m4a","null","","","","","<div class='center'><p>That's correct!</p></div>","","","","","","","","","","","","","","","","","",""
"","html-keyboard-response","78","389107","0.0-49.0-1.0","""event"",""trial"",""time""
""fullscreenenter"",""0"",""2333""
","
","
","""event"",""trial"",""time""
""fullscreenenter"",""0"",""2333""
","
","717.5","<div class='center'><p>That's correct!</p><p><b>[Press the space bar to continue]</b></p></div>","32","","","","","","","","","","","","","","","","","","","","","","",""
"","audio-keyboard-response","79","392018","0.0-49.0-2.0","""event"",""trial"",""time""
""fullscreenenter"",""0"",""2333""
","
","
","""event"",""trial"",""time""
""fullscreenenter"",""0"",""2333""
","
","2910.800000011921","run_exp/static/audio/clip_22_q3.m4a","50","","","","","","","","","","","","","","","","","","","","","","",""
"","correct","80","394409","0.0-50.0-0.0","""event"",""trial"",""time""
""fullscreenenter"",""0"",""2333""
","
","
","""event"",""trial"",""time""
""fullscreenenter"",""0"",""2333""
","
","null","run_exp/static/audio/clip_18_correct.m4a","null","","","","","<div class='center'><p>That's correct!</p></div>","","","","","","","","","","","","","","","","","",""
"","html-keyboard-response","81","394667","0.0-50.0-1.0","""event"",""trial"",""time""
""fullscreenenter"",""0"",""2333""
","
","
","""event"",""trial"",""time""
""fullscreenenter"",""0"",""2333""
","
","257.30000001192093","<div class='center'><p>That's correct!</p><p><b>[Press the space bar to continue]</b></p></div>","32","","","","","","","","","","","","","","","","","","","","","","",""
"","audio-keyboard-response","82","396323","0.0-50.0-2.0","""event"",""trial"",""time""
""fullscreenenter"",""0"",""2333""
","
","
","""event"",""trial"",""time""
""fullscreenenter"",""0"",""2333""
","
","1655.6000000238419","run_exp/static/audio/clip_24_q4.m4a","49","","","","","","","","","","","","","","","","","","","","","","",""
"","correct","83","398749","0.0-51.0-0.0","""event"",""trial"",""time""
""fullscreenenter"",""0"",""2333""
","
","
","""event"",""trial"",""time""
""fullscreenenter"",""0"",""2333""
","
","null","run_exp/static/audio/clip_18_correct.m4a","null","","","","","<div class='center'><p>That's correct!</p></div>","","","","","","","","","","","","","","","","","",""
"","html-keyboard-response","84","399691","0.0-51.0-1.0","""event"",""trial"",""time""
""fullscreenenter"",""0"",""2333""
","
","
","""event"",""trial"",""time""
""fullscreenenter"",""0"",""2333""
","
","941.1000000238419","<div class='center'><p>That's correct!</p><p><b>[Press the space bar to continue]</b></p></div>","32","","","","","","","","","","","","","","","","","","","","","","",""
"","q_all_corr","85","408169","0.0-52.0-0.0","""event"",""trial"",""time""
""fullscreenenter"",""0"",""2333""
","
","
","""event"",""trial"",""time""
""fullscreenenter"",""0"",""2333""
","
","null","run_exp/static/audio/clip_27_quiz_all_correct.m4a","null","","","","","<div class='center'><p>Good job! You’re now ready to move on to the real game! Remember this game will be difficult but don't get discouraged and try your best!</p></div>","","","","","","","","","","","","","","","","","",""
"","html-keyboard-response","86","408762","0.0-52.0-1.0","""event"",""trial"",""time""
""fullscreenenter"",""0"",""2333""
","
","
","""event"",""trial"",""time""
""fullscreenenter"",""0"",""2333""
","
","592.3999999761581","<div class='center'><p>Good job! You’re now ready to move on to the real game! Remember this game will be difficult but don't get discouraged and try your best!</p><p><b>[Press the space bar to continue]</b></p></div>","32","","","","","","","","","","","","","","","","","","","","","","",""
"","do_welcome","87","412766","0.0-53.0-0.0","""event"",""trial"",""time""
""fullscreenenter"",""0"",""2333""
","
","
","""event"",""trial"",""time""
""fullscreenenter"",""0"",""2333""
","
","null","","","","","","","","null","","","","","","","","","","","","","","","","",""
"","do_trial","88","418031","0.0-54.0-0.0","""event"",""trial"",""time""
""fullscreenenter"",""0"",""2333""
","
","
","""event"",""trial"",""time""
""fullscreenenter"",""0"",""2333""
","
","733.7999999523163","","","","","","","","50","1,0,0","0","countryside","0","probe-208","0.6","0.3","0.1","0","","","","","","","",""
"","html-keyboard-response","89","419033","0.0-54.0-1.0","""event"",""trial"",""time""
""fullscreenenter"",""0"",""2333""
","
","
","""event"",""trial"",""time""
""fullscreenenter"",""0"",""2333""
","
","null","<p></p>","null","","","","","","","","","","","","","","","","","","","","","","",""
"","do_trial","90","423848","0.0-55.0-0.0","""event"",""trial"",""time""
""fullscreenenter"",""0"",""2333""
","
","
","""event"",""trial"",""time""
""fullscreenenter"",""0"",""2333""
","
","283.69999998807907","","","","","","","","51","0,0,0","0","countryside","1","probe-180","0.5331038713945158","0.23287090311258157","0.0647900438074395","0","","","","","","","",""
"","html-keyboard-response","91","424849","0.0-55.0-1.0","""event"",""trial"",""time""
""fullscreenenter"",""0"",""2333""
","
","
","""event"",""trial"",""time""
""fullscreenenter"",""0"",""2333""
","
","null","<p></p>","null","","","","","","","","","","","","","","","","","","","","","","",""
"","do_trial","92","429719","0.0-56.0-0.0","""event"",""trial"",""time""
""fullscreenenter"",""0"",""2333""
","
","
","""event"",""trial"",""time""
""fullscreenenter"",""0"",""2333""
","
","338.39999997615814","","","","","","","","49","1,0,0","0","countryside","2","probe-04","0.5851584405143876","0.23793565622603255","0.13858219952732945","1","","","","","","","",""
"","html-keyboard-response","93","430721","0.0-56.0-1.0","""event"",""trial"",""time""
""fullscreenenter"",""0"",""2333""
","
","
","""event"",""trial"",""time""
""fullscreenenter"",""0"",""2333""
","
","null","<p></p>","null","","","","","","","","","","","","","","","","","","","","","","",""
"","do_trial","94","435559","0.0-57.0-0.0","""event"",""trial"",""time""
""fullscreenenter"",""0"",""2333""
","
","
","""event"",""trial"",""time""
""fullscreenenter"",""0"",""2333""
","
","307.10000002384186","","","","","","","","49","1,0,0","0","countryside","3","probe-79","0.7290159648294794","0.22235657500256506","0.06813911206662013","1","","","","","","","",""
"","html-keyboard-response","95","436561","0.0-57.0-1.0","""event"",""trial"",""time""
""fullscreenenter"",""0"",""2333""
","
","
","""event"",""trial"",""time""
""fullscreenenter"",""0"",""2333""
","
","null","<p></p>","null","","","","","","","","","","","","","","","","","","","","","","",""
"","do_trial","96","441528","0.0-58.0-0.0","""event"",""trial"",""time""
""fullscreenenter"",""0"",""2333""
","
","
","""event"",""trial"",""time""
""fullscreenenter"",""0"",""2333""
","
","435.7000000476837","","","","","","","","49","1,0,0","0","countryside","4","probe-184","0.5624672457514933","0.2442617581623792","0.06633033553069743","1","","","","","","","",""
"","html-keyboard-response","97","442529","0.0-58.0-1.0","""event"",""trial"",""time""
""fullscreenenter"",""0"",""2333""
","
","
","""event"",""trial"",""time""
""fullscreenenter"",""0"",""2333""
","
","null","<p></p>","null","","","","","","","","","","","","","","","","","","","","","","",""
"","do_trial","98","447344","0.0-59.0-0.0","""event"",""trial"",""time""
""fullscreenenter"",""0"",""2333""
","
","
","""event"",""trial"",""time""
""fullscreenenter"",""0"",""2333""
","
","283.80000001192093","","","","","","","","49","1,0,0","0","countryside","5","probe-197","0.5838783523209264","0.2520783366918509","0.06979876921078007","1","","","","","","","",""
"","html-keyboard-response","99","448346","0.0-59.0-1.0","""event"",""trial"",""time""
""fullscreenenter"",""0"",""2333""
","
","
","""event"",""trial"",""time""
""fullscreenenter"",""0"",""2333""
","
","null","<p></p>","null","","","","","","","","","","","","","","","","","","","","","","",""
"","do_trial","100","453136","0.0-60.0-0.0","""event"",""trial"",""time""
""fullscreenenter"",""0"",""2333""
","
","
","""event"",""trial"",""time""
""fullscreenenter"",""0"",""2333""
","
","258.30000001192093","","","","","","","","49","0,0,0","0","countryside","6","probe-83","0.574393092304285","0.3088749973161462","0.09102125027363563","0","","","","","","","",""
"","html-keyboard-response","101","454138","0.0-60.0-1.0","""event"",""trial"",""time""
""fullscreenenter"",""0"",""2333""
","
","
","""event"",""trial"",""time""
""fullscreenenter"",""0"",""2333""
","
","null","<p></p>","null","","","","","","","","","","","","","","","","","","","","","","",""
"","do_trial","102","458960","0.0-61.0-0.0","""event"",""trial"",""time""
""fullscreenenter"",""0"",""2333""
","
","
","""event"",""trial"",""time""
""fullscreenenter"",""0"",""2333""
","
","290.89999997615814","","","","","","","","51","0,1,0","0","countryside","7","probe-221","0.6352947958575641","0.34780228831775895","0.13786110675200536","0","","","","","","","",""
"","html-keyboard-response","103","459962","0.0-61.0-1.0","""event"",""trial"",""time""
""fullscreenenter"",""0"",""2333""
","
","
","""event"",""trial"",""time""
""fullscreenenter"",""0"",""2333""
","
","null","<p></p>","null","","","","","","","","","","","","","","","","","","","","","","",""
"","do_trial","104","464742","0.0-62.0-0.0","""event"",""trial"",""time""
""fullscreenenter"",""0"",""2333""
","
","
","""event"",""trial"",""time""
""fullscreenenter"",""0"",""2333""
","
","250.69999998807907","","","","","","","","50","0,1,0","0","countryside","8","probe-123","0.5721999832872794","0.3948016281880375","0.1288142220049271","1","","","","","","","",""
"","html-keyboard-response","105","465744","0.0-62.0-1.0","""event"",""trial"",""time""
""fullscreenenter"",""0"",""2333""
","
","
","""event"",""trial"",""time""
""fullscreenenter"",""0"",""2333""
","
","null","<p></p>","null","","","","","","","","","","","","","","","","","","","","","","",""
"","do_trial","106","470639","0.0-63.0-0.0","""event"",""trial"",""time""
""fullscreenenter"",""0"",""2333""
","
","
","""event"",""trial"",""time""
""fullscreenenter"",""0"",""2333""
","
","363.30000001192093","","","","","","","","50","0,0,0","0","countryside","9","probe-52","0.5879904052498713","0.36071978268205196","0.18210166219534493","0","","","","","","","",""
"","html-keyboard-response","107","471640","0.0-63.0-1.0","""event"",""trial"",""time""
""fullscreenenter"",""0"",""2333""
","
","
","""event"",""trial"",""time""
""fullscreenenter"",""0"",""2333""
","
","null","<p></p>","null","","","","","","","","","","","","","","","","","","","","","","",""
"","do_trial","108","476399","0.0-64.0-0.0","""event"",""trial"",""time""
""fullscreenenter"",""0"",""2333""
","
","
","""event"",""trial"",""time""
""fullscreenenter"",""0"",""2333""
","
","228","","","","","","","","49","1,0,0","0","countryside","10","probe-104","0.6504379566066978","0.43275490592950205","0.253294069137749","1","","","","","","","",""
"","html-keyboard-response","109","477401","0.0-64.0-1.0","""event"",""trial"",""time""
""fullscreenenter"",""0"",""2333""
","
","
","""event"",""trial"",""time""
""fullscreenenter"",""0"",""2333""
","
","null","<p></p>","null","","","","","","","","","","","","","","","","","","","","","","",""
"","do_trial","110","482207","0.0-65.0-0.0","""event"",""trial"",""time""
""fullscreenenter"",""0"",""2333""
","
","
","""event"",""trial"",""time""
""fullscreenenter"",""0"",""2333""
","
","274.9000000357628","","","","","","","","49","0,1,0","0","countryside","11","probe-91","0.6337125512673523","0.4782170745258869","0.22480108618870062","0","","","","","","","",""
"","html-keyboard-response","111","483208","0.0-65.0-1.0","""event"",""trial"",""time""
""fullscreenenter"",""0"",""2333""
","
","
","""event"",""trial"",""time""
""fullscreenenter"",""0"",""2333""
","
","null","<p></p>","null","","","","","","","","","","","","","","","","","","","","","","",""
"","do_trial","112","488031","0.0-66.0-0.0","""event"",""trial"",""time""
""fullscreenenter"",""0"",""2333""
","
","
","""event"",""trial"",""time""
""fullscreenenter"",""0"",""2333""
","
","292.10000002384186","","","","","","","","49","1,0,0","0","countryside","12","probe-154","0.6502369888528966","0.25786990393968334","0.29539509015464555","1","","","","","","","",""
"","html-keyboard-response","113","489033","0.0-66.0-1.0","""event"",""trial"",""time""
""fullscreenenter"",""0"",""2333""
","
","
","""event"",""trial"",""time""
""fullscreenenter"",""0"",""2333""
","
","null","<p></p>","null","","","","","","","","","","","","","","","","","","","","","","",""
"","do_trial","114","493864","0.0-67.0-0.0","""event"",""trial"",""time""
""fullscreenenter"",""0"",""2333""
","
","
","""event"",""trial"",""time""
""fullscreenenter"",""0"",""2333""
","
","299.2000000476837","","","","","","","","49","1,0,0","0","countryside","13","probe-143","0.5630049457973576","0.32526838472934516","0.17752730200156536","1","","","","","","","",""
"","html-keyboard-response","115","494865","0.0-67.0-1.0","""event"",""trial"",""time""
""fullscreenenter"",""0"",""2333""
","
","
","""event"",""trial"",""time""
""fullscreenenter"",""0"",""2333""
","
","null","<p></p>","null","","","","","","","","","","","","","","","","","","","","","","",""
"","do_trial","116","499895","0.0-68.0-0.0","""event"",""trial"",""time""
""fullscreenenter"",""0"",""2333""
","
","
","""event"",""trial"",""time""
""fullscreenenter"",""0"",""2333""
","
","499.5","","","","","","","","49","1,1,0","0","countryside","14","probe-45","0.5218072520078679","0.2611650512295975","0.0972630040665429","1","","","","","","","",""
"","html-keyboard-response","117","500897","0.0-68.0-1.0","""event"",""trial"",""time""
""fullscreenenter"",""0"",""2333""
","
","
","""event"",""trial"",""time""
""fullscreenenter"",""0"",""2333""
","
","null","<p></p>","null","","","","","","","","","","","","","","","","","","","","","","",""
"","do_trial","118","505719","0.0-69.0-0.0","""event"",""trial"",""time""
""fullscreenenter"",""0"",""2333""
","
","
","""event"",""trial"",""time""
""fullscreenenter"",""0"",""2333""
","
","290.19999998807907","","","","","","","","49","1,1,0","0","countryside","15","probe-126","0.5811261171498118","0.37829016026960505","0.12808193360699616","1","","","","","","","",""
"","html-keyboard-response","119","506720","0.0-69.0-1.0","""event"",""trial"",""time""
""fullscreenenter"",""0"",""2333""
","
","
","""event"",""trial"",""time""
""fullscreenenter"",""0"",""2333""
","
","null","<p></p>","null","","","","","","","","","","","","","","","","","","","","","","",""
"","do_trial","120","511775","0.0-70.0-0.0","""event"",""trial"",""time""
""fullscreenenter"",""0"",""2333""
","
","
","""event"",""trial"",""time""
""fullscreenenter"",""0"",""2333""
","
","523.3999999761581","","","","","","","","49","1,0,0","0","countryside","16","probe-03","0.5298368152470772","0.4847977897712145","0.08820994885872603","1","","","","","","","",""
"","html-keyboard-response","121","512777","0.0-70.0-1.0","""event"",""trial"",""time""
""fullscreenenter"",""0"",""2333""
","
","
","""event"",""trial"",""time""
""fullscreenenter"",""0"",""2333""
","
","null","<p></p>","null","","","","","","","","","","","","","","","","","","","","","","",""
"","do_trial","122","517591","0.0-71.0-0.0","""event"",""trial"",""time""
""fullscreenenter"",""0"",""2333""
","
","
","""event"",""trial"",""time""
""fullscreenenter"",""0"",""2333""
","
","282.80000001192093","","","","","","","","49","1,0,0","0","countryside","17","probe-175","0.551114116905769","0.38675614646768675","0.17834470166435465","1","","","","","","","",""
"","html-keyboard-response","123","518592","0.0-71.0-1.0","""event"",""trial"",""time""
""fullscreenenter"",""0"",""2333""
","
","
","""event"",""trial"",""time""
""fullscreenenter"",""0"",""2333""
","
","null","<p></p>","null","","","","","","","","","","","","","","","","","","","","","","",""
"","do_trial","124","523400","0.0-72.0-0.0","""event"",""trial"",""time""
""fullscreenenter"",""0"",""2333""
","
","
","""event"",""trial"",""time""
""fullscreenenter"",""0"",""2333""
","
","275.80000001192093","","","","","","","","49","1,1,0","0","countryside","18","probe-44","0.6276297395869326","0.32248851056504746","0.18557197819703286","1","","","","","","","",""
"","html-keyboard-response","125","524402","0.0-72.0-1.0","""event"",""trial"",""time""
""fullscreenenter"",""0"",""2333""
","
","
","""event"",""trial"",""time""
""fullscreenenter"",""0"",""2333""
","
","null","<p></p>","null","","","","","","","","","","","","","","","","","","","","","","",""
"","do_trial","126","529216","0.0-73.0-0.0","""event"",""trial"",""time""
""fullscreenenter"",""0"",""2333""
","
","
","""event"",""trial"",""time""
""fullscreenenter"",""0"",""2333""
","
","283","","","","","","","","49","1,0,0","0","countryside","19","probe-118","0.645864749701858","0.3577813306760529","0.15968938516587047","1","","","","","","","",""
"","html-keyboard-response","127","530218","0.0-73.0-1.0","""event"",""trial"",""time""
""fullscreenenter"",""0"",""2333""
","
","
","""event"",""trial"",""time""
""fullscreenenter"",""0"",""2333""
","
","null","<p></p>","null","","","","","","","","","","","","","","","","","","","","","","",""
"","do_trial","128","535032","0.0-74.0-0.0","""event"",""trial"",""time""
""fullscreenenter"",""0"",""2333""
","
","
","""event"",""trial"",""time""
""fullscreenenter"",""0"",""2333""
","
","283.5","","","","","","","","49","0,0,0","0","countryside","20","probe-62","0.7046337250883865","0.2822851346868517","0.19544753261784628","0","","","","","","","",""
"","html-keyboard-response","129","536034","0.0-74.0-1.0","""event"",""trial"",""time""
""fullscreenenter"",""0"",""2333""
","
","
","""event"",""trial"",""time""
""fullscreenenter"",""0"",""2333""
","
","null","<p></p>","null","","","","","","","","","","","","","","","","","","","","","","",""
"","do_trial","130","540863","0.0-75.0-0.0","""event"",""trial"",""time""
""fullscreenenter"",""0"",""2333""
","
","
","""event"",""trial"",""time""
""fullscreenenter"",""0"",""2333""
","
","298.60000002384186","","","","","","","","49","1,0,0","0","countryside","21","probe-59","0.701417262380276","0.26709404150016985","0.09074611369485983","1","","","","","","","",""
"","html-keyboard-response","131","541865","0.0-75.0-1.0","""event"",""trial"",""time""
""fullscreenenter"",""0"",""2333""
","
","
","""event"",""trial"",""time""
""fullscreenenter"",""0"",""2333""
","
","null","<p></p>","null","","","","","","","","","","","","","","","","","","","","","","",""
"","do_trial","132","546672","0.0-76.0-0.0","""event"",""trial"",""time""
""fullscreenenter"",""0"",""2333""
","
","
","""event"",""trial"",""time""
""fullscreenenter"",""0"",""2333""
","
","275.80000001192093","","","","","","","","49","1,0,0","0","countryside","22","probe-206","0.5570557241788275","0.26787467570191176","0.08090026847655843","1","","","","","","","",""
"","html-keyboard-response","133","547675","0.0-76.0-1.0","""event"",""trial"",""time""
""fullscreenenter"",""0"",""2333""
","
","
","""event"",""trial"",""time""
""fullscreenenter"",""0"",""2333""
","
","null","<p></p>","null","","","","","","","","","","","","","","","","","","","","","","",""
"","do_trial","134","552687","0.0-77.0-0.0","""event"",""trial"",""time""
""fullscreenenter"",""0"",""2333""
","
","
","""event"",""trial"",""time""
""fullscreenenter"",""0"",""2333""
","
","481.89999997615814","","","","","","","","49","1,0,0","0","countryside","23","probe-213","0.4757250464814976","0.24261328834048407","0.15868077620024987","1","","","","","","","",""
"","html-keyboard-response","135","553689","0.0-77.0-1.0","""event"",""trial"",""time""
""fullscreenenter"",""0"",""2333""
","
","
","""event"",""trial"",""time""
""fullscreenenter"",""0"",""2333""
","
","null","<p></p>","null","","","","","","","","","","","","","","","","","","","","","","",""
"","do_trial","136","558552","0.0-78.0-0.0","""event"",""trial"",""time""
""fullscreenenter"",""0"",""2333""
","
","
","""event"",""trial"",""time""
""fullscreenenter"",""0"",""2333""
","
","331.39999997615814","","","","","","","","49","1,1,0","0","countryside","24","probe-46","0.47279693116848487","0.2985375696307108","0.05031415596388735","1","","","","","","","",""
"","html-keyboard-response","137","559554","0.0-78.0-1.0","""event"",""trial"",""time""
""fullscreenenter"",""0"",""2333""
","
","
","""event"",""trial"",""time""
""fullscreenenter"",""0"",""2333""
","
","null","<p></p>","null","","","","","","","","","","","","","","","","","","","","","","",""
"","do_trial","138","564463","0.0-79.0-0.0","""event"",""trial"",""time""
""fullscreenenter"",""0"",""2333""
","
","
","""event"",""trial"",""time""
""fullscreenenter"",""0"",""2333""
","
","378.69999998807907","","","","","","","","49","1,0,1","0","countryside","25","probe-60","0.6883689861149571","0.29134958805732003","0.1382478362240991","1","","","","","","","",""
"","html-keyboard-response","139","565466","0.0-79.0-1.0","""event"",""trial"",""time""
""fullscreenenter"",""0"",""2333""
","
","
","""event"",""trial"",""time""
""fullscreenenter"",""0"",""2333""
","
","null","<p></p>","null","","","","","","","","","","","","","","","","","","","","","","",""
"","do_trial","140","570279","0.0-80.0-0.0","""event"",""trial"",""time""
""fullscreenenter"",""0"",""2333""
","
","
","""event"",""trial"",""time""
""fullscreenenter"",""0"",""2333""
","
","282.60000002384186","","","","","","","","49","0,0,0","0","countryside","26","probe-224","0.7748958871420113","0.21753780786955074","0.07201483231336704","0","","","","","","","",""
"","html-keyboard-response","141","571281","0.0-80.0-1.0","""event"",""trial"",""time""
""fullscreenenter"",""0"",""2333""
","
","
","""event"",""trial"",""time""
""fullscreenenter"",""0"",""2333""
","
","null","<p></p>","null","","","","","","","","","","","","","","","","","","","","","","",""
"","do_trial","142","576247","0.0-81.0-0.0","""event"",""trial"",""time""
""fullscreenenter"",""0"",""2333""
","
","
","""event"",""trial"",""time""
""fullscreenenter"",""0"",""2333""
","
","435.5","","","","","","","","49","1,0,0","0","countryside","27","probe-75","0.6447595831560927","0.28255080815846306","0.10512215933202193","1","","","","","","","",""
"","html-keyboard-response","143","577250","0.0-81.0-1.0","""event"",""trial"",""time""
""fullscreenenter"",""0"",""2333""
","
","
","""event"",""trial"",""time""
""fullscreenenter"",""0"",""2333""
","
","null","<p></p>","null","","","","","","","","","","","","","","","","","","","","","","",""
"","do_trial","144","582087","0.0-82.0-0.0","""event"",""trial"",""time""
""fullscreenenter"",""0"",""2333""
","
","
","""event"",""trial"",""time""
""fullscreenenter"",""0"",""2333""
","
","306.89999997615814","","","","","","","","49","0,0,0","0","countryside","28","probe-99","0.6469597323203116","0.2808075336099443","0.14104979693488137","0","","","","","","","",""
"","html-keyboard-response","145","583089","0.0-82.0-1.0","""event"",""trial"",""time""
""fullscreenenter"",""0"",""2333""
","
","
","""event"",""trial"",""time""
""fullscreenenter"",""0"",""2333""
","
","null","<p></p>","null","","","","","","","","","","","","","","","","","","","","","","",""
"","do_trial","146","588129","0.0-83.0-0.0","""event"",""trial"",""time""
""fullscreenenter"",""0"",""2333""
","
","
","""event"",""trial"",""time""
""fullscreenenter"",""0"",""2333""
","
","507.39999997615814","","","","","","","","49","1,0,1","0","countryside","29","probe-226","0.6574063952365041","0.2891208054314615","0.24737821190801323","1","","","","","","","",""
"","html-keyboard-response","147","589131","0.0-83.0-1.0","""event"",""trial"",""time""
""fullscreenenter"",""0"",""2333""
","
","
","""event"",""trial"",""time""
""fullscreenenter"",""0"",""2333""
","
","null","<p></p>","null","","","","","","","","","","","","","","","","","","","","","","",""
"","do_bye","148","590635","0.0-84.0-0.0","""event"",""trial"",""time""
""fullscreenenter"",""0"",""2333""
","
","
","""event"",""trial"",""time""
""fullscreenenter"",""0"",""2333""
","
","null","","","","","","","","null","","","","","","","","","","","","","","","","",""
"","break","149","592987","0.0-84.0-1.0","""event"",""trial"",""time""
""fullscreenenter"",""0"",""2333""
","
","
","""event"",""trial"",""time""
""fullscreenenter"",""0"",""2333""
","
","2351.7999999523163","<div class='center'><p>Time to take a quick break! You have 2 minutes to rest, but you can move on sooner if you'd like.</p><p> Press the <b>space bar</b> to continue.</p></div>","32","","","","","","","","","","","","","","","","","","","","","","",""
"","do_travel","150","601990","0.0-85.0-0.0","""event"",""trial"",""time""
""fullscreenenter"",""0"",""2333""
","
","
","""event"",""trial"",""time""
""fullscreenenter"",""0"",""2333""
","
","null","","","","","","","","null","","","","","","","","","","","","","","","","",""
"","do_welcome","151","605994","0.0-85.0-1.0","""event"",""trial"",""time""
""fullscreenenter"",""0"",""2333""
","
","
","""event"",""trial"",""time""
""fullscreenenter"",""0"",""2333""
","
","null","","","","","","","","null","","","","","","","","","","","","","","","","",""
"","do_trial","152","611224","0.0-86.0-0.0","""event"",""trial"",""time""
""fullscreenenter"",""0"",""2333""
","
","
","""event"",""trial"",""time""
""fullscreenenter"",""0"",""2333""
","
","698.6000000238419","","","","","","","","51","1,0,0","1","forest","30","probe-88","1","0.3836872706565875","0.2061926604738537","0","","","","","","","",""
"","html-keyboard-response","153","612226","0.0-86.0-1.0","""event"",""trial"",""time""
""fullscreenenter"",""0"",""2333""
","
","
","""event"",""trial"",""time""
""fullscreenenter"",""0"",""2333""
","
","null","<p></p>","null","","","","","","","","","","","","","","","","","","","","","","",""
"","do_trial","154","617159","0.0-87.0-0.0","""event"",""trial"",""time""
""fullscreenenter"",""0"",""2333""
","
","
","""event"",""trial"",""time""
""fullscreenenter"",""0"",""2333""
","
","402.69999998807907","","","","","","","","51","1,1,0","1","forest","31","probe-136","1","0.5254188301240648","0.14527464589587635","0","","","","","","","",""
"","html-keyboard-response","155","618161","0.0-87.0-1.0","""event"",""trial"",""time""
""fullscreenenter"",""0"",""2333""
","
","
","""event"",""trial"",""time""
""fullscreenenter"",""0"",""2333""
","
","null","<p></p>","null","","","","","","","","","","","","","","","","","","","","","","",""
"","do_trial","156","622944","0.0-88.0-0.0","""event"",""trial"",""time""
""fullscreenenter"",""0"",""2333""
","
","
","""event"",""trial"",""time""
""fullscreenenter"",""0"",""2333""
","
","252.30000001192093","","","","","","","","50","1,0,0","1","forest","32","probe-162","1","0.3566045229538322","0.1857152539994313","0","","","","","","","",""
"","html-keyboard-response","157","623946","0.0-88.0-1.0","""event"",""trial"",""time""
""fullscreenenter"",""0"",""2333""
","
","
","""event"",""trial"",""time""
""fullscreenenter"",""0"",""2333""
","
","null","<p></p>","null","","","","","","","","","","","","","","","","","","","","","","",""
"","do_trial","158","628745","0.0-89.0-0.0","""event"",""trial"",""time""
""fullscreenenter"",""0"",""2333""
","
","
","""event"",""trial"",""time""
""fullscreenenter"",""0"",""2333""
","
","266.39999997615814","","","","","","","","50","1,0,0","1","forest","33","probe-48","0.9367039651197936","0.28861603180934653","0.2279470925774088","0","","","","","","","",""
"","html-keyboard-response","159","629747","0.0-89.0-1.0","""event"",""trial"",""time""
""fullscreenenter"",""0"",""2333""
","
","
","""event"",""trial"",""time""
""fullscreenenter"",""0"",""2333""
","
","null","<p></p>","null","","","","","","","","","","","","","","","","","","","","","","",""
"","do_trial","160","634544","0.0-90.0-0.0","""event"",""trial"",""time""
""fullscreenenter"",""0"",""2333""
","
","
","""event"",""trial"",""time""
""fullscreenenter"",""0"",""2333""
","
","266","","","","","","","","51","1,0,0","1","forest","34","probe-229","0.7504208199446413","0.21131497641865565","0.23973686530500665","0","","","","","","","",""
"","html-keyboard-response","161","635545","0.0-90.0-1.0","""event"",""trial"",""time""
""fullscreenenter"",""0"",""2333""
","
","
","""event"",""trial"",""time""
""fullscreenenter"",""0"",""2333""
","
","null","<p></p>","null","","","","","","","","","","","","","","","","","","","","","","",""
"","do_trial","162","640375","0.0-91.0-0.0","""event"",""trial"",""time""
""fullscreenenter"",""0"",""2333""
","
","
","""event"",""trial"",""time""
""fullscreenenter"",""0"",""2333""
","
","299.89999997615814","","","","","","","","49","1,0,0","1","forest","35","probe-120","0.8119500112472833","0.2415205944780524","0.22987549005246014","1","","","","","","","",""
"","html-keyboard-response","163","641377","0.0-91.0-1.0","""event"",""trial"",""time""
""fullscreenenter"",""0"",""2333""
","
","
","""event"",""trial"",""time""
""fullscreenenter"",""0"",""2333""
","
","null","<p></p>","null","","","","","","","","","","","","","","","","","","","","","","",""
"","do_trial","164","646296","0.0-92.0-0.0","""event"",""trial"",""time""
""fullscreenenter"",""0"",""2333""
","
","
","""event"",""trial"",""time""
""fullscreenenter"",""0"",""2333""
","
","388","","","","","","","","49","1,0,0","1","forest","36","probe-207","0.7797894400207838","0.1648610003191711","0.16315363168246477","1","","","","","","","",""
"","html-keyboard-response","165","647297","0.0-92.0-1.0","""event"",""trial"",""time""
""fullscreenenter"",""0"",""2333""
","
","
","""event"",""trial"",""time""
""fullscreenenter"",""0"",""2333""
","
","null","<p></p>","null","","","","","","","","","","","","","","","","","","","","","","",""
"","do_trial","166","652200","0.0-93.0-0.0","""event"",""trial"",""time""
""fullscreenenter"",""0"",""2333""
","
","
","""event"",""trial"",""time""
""fullscreenenter"",""0"",""2333""
","
","371.39999997615814","","","","","","","","49","0,1,0","1","forest","37","probe-218","0.701439672061331","0.1825738818118606","0.07152080205613384","0","","","","","","","",""
"","html-keyboard-response","167","653201","0.0-93.0-1.0","""event"",""trial"",""time""
""fullscreenenter"",""0"",""2333""
","
","
","""event"",""trial"",""time""
""fullscreenenter"",""0"",""2333""
","
","null","<p></p>","null","","","","","","","","","","","","","","","","","","","","","","",""
"","do_trial","168","658041","0.0-94.0-0.0","""event"",""trial"",""time""
""fullscreenenter"",""0"",""2333""
","
","
","""event"",""trial"",""time""
""fullscreenenter"",""0"",""2333""
","
","308.39999997615814","","","","","","","","50","1,0,0","1","forest","38","probe-98","0.6957929678702245","0.2662775240765852","0.13672491552914007","0","","","","","","","",""
"","html-keyboard-response","169","659043","0.0-94.0-1.0","""event"",""trial"",""time""
""fullscreenenter"",""0"",""2333""
","
","
","""event"",""trial"",""time""
""fullscreenenter"",""0"",""2333""
","
","null","<p></p>","null","","","","","","","","","","","","","","","","","","","","","","",""
"","do_trial","170","663912","0.0-95.0-0.0","""event"",""trial"",""time""
""fullscreenenter"",""0"",""2333""
","
","
","""event"",""trial"",""time""
""fullscreenenter"",""0"",""2333""
","
","338.19999998807907","","","","","","","","49","1,0,0","1","forest","39","probe-222","0.7308855197181018","0.31743831964409963","0.0821819120183429","1","","","","","","","",""
"","html-keyboard-response","171","664913","0.0-95.0-1.0","""event"",""trial"",""time""
""fullscreenenter"",""0"",""2333""
","
","
","""event"",""trial"",""time""
""fullscreenenter"",""0"",""2333""
","
","null","<p></p>","null","","","","","","","","","","","","","","","","","","","","","","",""
"","do_trial","172","669904","0.0-96.0-0.0","""event"",""trial"",""time""
""fullscreenenter"",""0"",""2333""
","
","
","""event"",""trial"",""time""
""fullscreenenter"",""0"",""2333""
","
","460.0999999642372","","","","","","","","49","0,1,1","1","forest","40","probe-28","0.6588243468335121","0.4042696139467125","0.05851874313079577","0","","","","","","","",""
"","html-keyboard-response","173","670906","0.0-96.0-1.0","""event"",""trial"",""time""
""fullscreenenter"",""0"",""2333""
","
","
","""event"",""trial"",""time""
""fullscreenenter"",""0"",""2333""
","
","null","<p></p>","null","","","","","","","","","","","","","","","","","","","","","","",""
"","do_trial","174","675752","0.0-97.0-0.0","""event"",""trial"",""time""
""fullscreenenter"",""0"",""2333""
","
","
","""event"",""trial"",""time""
""fullscreenenter"",""0"",""2333""
","
","314.7999999523163","","","","","","","","49","0,0,0","1","forest","41","probe-169","0.46684442600256587","0.3443235515543058","0.19695201521874958","0","","","","","","","",""
"","html-keyboard-response","175","676754","0.0-97.0-1.0","""event"",""trial"",""time""
""fullscreenenter"",""0"",""2333""
","
","
","""event"",""trial"",""time""
""fullscreenenter"",""0"",""2333""
","
","null","<p></p>","null","","","","","","","","","","","","","","","","","","","","","","",""
"","do_trial","176","681544","0.0-98.0-0.0","""event"",""trial"",""time""
""fullscreenenter"",""0"",""2333""
","
","
","""event"",""trial"",""time""
""fullscreenenter"",""0"",""2333""
","
","259.2000000476837","","","","","","","","51","1,0,0","1","forest","42","probe-209","0.3682205228289566","0.3225182475010272","0.3316663683092783","0","","","","","","","",""
"","html-keyboard-response","177","682545","0.0-98.0-1.0","""event"",""trial"",""time""
""fullscreenenter"",""0"",""2333""
","
","
","""event"",""trial"",""time""
""fullscreenenter"",""0"",""2333""
","
","null","<p></p>","null","","","","","","","","","","","","","","","","","","","","","","",""
"","do_trial","178","687376","0.0-99.0-0.0","""event"",""trial"",""time""
""fullscreenenter"",""0"",""2333""
","
","
","""event"",""trial"",""time""
""fullscreenenter"",""0"",""2333""
","
","299.60000002384186","","","","","","","","50","0,0,0","1","forest","43","probe-131","0.1563343206766501","0.3697374755977488","0.5388812600804372","0","","","","","","","",""
"","html-keyboard-response","179","688377","0.0-99.0-1.0","""event"",""trial"",""time""
""fullscreenenter"",""0"",""2333""
","
","
","""event"",""trial"",""time""
""fullscreenenter"",""0"",""2333""
","
","null","<p></p>","null","","","","","","","","","","","","","","","","","","","","","","",""
"","do_trial","180","693232","0.0-100.0-0.0","""event"",""trial"",""time""
""fullscreenenter"",""0"",""2333""
","
","
","""event"",""trial"",""time""
""fullscreenenter"",""0"",""2333""
","
","324.30000001192093","","","","","","","","49","0,0,1","1","forest","44","probe-55","0.13047937123159298","0.47845305563556695","0.5701007453780443","0","","","","","","","",""
"","html-keyboard-response","181","694234","0.0-100.0-1.0","""event"",""trial"",""time""
""fullscreenenter"",""0"",""2333""
","
","
","""event"",""trial"",""time""
""fullscreenenter"",""0"",""2333""
","
","null","<p></p>","null","","","","","","","","","","","","","","","","","","","","","","",""
"","do_trial","182","699025","0.0-101.0-0.0","""event"",""trial"",""time""
""fullscreenenter"",""0"",""2333""
","
","
","""event"",""trial"",""time""
""fullscreenenter"",""0"",""2333""
","
","258.69999998807907","","","","","","","","49","0,0,1","1","forest","45","probe-103","0.06558221087846429","0.3458163089716572","0.7325477650180259","0","","","","","","","",""
"","html-keyboard-response","183","700026","0.0-101.0-1.0","""event"",""trial"",""time""
""fullscreenenter"",""0"",""2333""
","
","
","""event"",""trial"",""time""
""fullscreenenter"",""0"",""2333""
","
","null","<p></p>","null","","","","","","","","","","","","","","","","","","","","","","",""
"","do_trial","184","704848","0.0-102.0-0.0","""event"",""trial"",""time""
""fullscreenenter"",""0"",""2333""
","
","
","""event"",""trial"",""time""
""fullscreenenter"",""0"",""2333""
","
","291.5","","","","","","","","51","0,0,0","1","forest","46","probe-20","0.21678933486649443","0.41123700674381886","0.5886546263340027","0","","","","","","","",""
"","html-keyboard-response","185","705849","0.0-102.0-1.0","""event"",""trial"",""time""
""fullscreenenter"",""0"",""2333""
","
","
","""event"",""trial"",""time""
""fullscreenenter"",""0"",""2333""
","
","null","<p></p>","null","","","","","","","","","","","","","","","","","","","","","","",""
"","do_trial","186","710584","0.0-103.0-0.0","""event"",""trial"",""time""
""fullscreenenter"",""0"",""2333""
","
","
","""event"",""trial"",""time""
""fullscreenenter"",""0"",""2333""
","
","203","","","","","","","","49","0,0,0","1","forest","47","probe-145","0.19842302019455496","0.41271484441229933","0.597265102275347","0","","","","","","","",""
"","html-keyboard-response","187","711586","0.0-103.0-1.0","""event"",""trial"",""time""
""fullscreenenter"",""0"",""2333""
","
","
","""event"",""trial"",""time""
""fullscreenenter"",""0"",""2333""
","
","null","<p></p>","null","","","","","","","","","","","","","","","","","","","","","","",""
"","do_trial","188","716416","0.0-104.0-0.0","""event"",""trial"",""time""
""fullscreenenter"",""0"",""2333""
","
","
","""event"",""trial"",""time""
""fullscreenenter"",""0"",""2333""
","
","299.0999999642372","","","","","","","","49","1,0,0","1","forest","48","probe-151","0.25442288058339396","0.34640122349174113","0.6613221186855773","1","","","","","","","",""
"","html-keyboard-response","189","717416","0.0-104.0-1.0","""event"",""trial"",""time""
""fullscreenenter"",""0"",""2333""
","
","
","""event"",""trial"",""time""
""fullscreenenter"",""0"",""2333""
","
","null","<p></p>","null","","","","","","","","","","","","","","","","","","","","","","",""
"","do_trial","190","722344","0.0-105.0-0.0","""event"",""trial"",""time""
""fullscreenenter"",""0"",""2333""
","
","
","""event"",""trial"",""time""
""fullscreenenter"",""0"",""2333""
","
","395.80000001192093","","","","","","","","49","0,0,0","1","forest","49","probe-127","0.09440023204692788","0.31118560230881803","0.594685101414286","0","","","","","","","",""
"","html-keyboard-response","191","723345","0.0-105.0-1.0","""event"",""trial"",""time""
""fullscreenenter"",""0"",""2333""
","
","
","""event"",""trial"",""time""
""fullscreenenter"",""0"",""2333""
","
","null","<p></p>","null","","","","","","","","","","","","","","","","","","","","","","",""
"","do_trial","192","728113","0.0-106.0-0.0","""event"",""trial"",""time""
""fullscreenenter"",""0"",""2333""
","
","
","""event"",""trial"",""time""
""fullscreenenter"",""0"",""2333""
","
","236","","","","","","","","49","0,1,0","1","forest","50","probe-23","0.11502488926224","0.36685666478454254","0.612769446177287","0","","","","","","","",""
"","html-keyboard-response","193","729114","0.0-106.0-1.0","""event"",""trial"",""time""
""fullscreenenter"",""0"",""2333""
","
","
","""event"",""trial"",""time""
""fullscreenenter"",""0"",""2333""
","
","null","<p></p>","null","","","","","","","","","","","","","","","","","","","","","","",""
"","do_trial","194","733864","0.0-107.0-0.0","""event"",""trial"",""time""
""fullscreenenter"",""0"",""2333""
","
","
","""event"",""trial"",""time""
""fullscreenenter"",""0"",""2333""
","
","218.0999999642372","","","","","","","","49","0,1,1","1","forest","51","probe-78","0.05007413092300519","0.524303802549796","0.4988157594528543","0","","","","","","","",""
"","html-keyboard-response","195","734866","0.0-107.0-1.0","""event"",""trial"",""time""
""fullscreenenter"",""0"",""2333""
","
","
","""event"",""trial"",""time""
""fullscreenenter"",""0"",""2333""
","
","null","<p></p>","null","","","","","","","","","","","","","","","","","","","","","","",""
"","do_trial","196","739833","0.0-108.0-0.0","""event"",""trial"",""time""
""fullscreenenter"",""0"",""2333""
","
","
","""event"",""trial"",""time""
""fullscreenenter"",""0"",""2333""
","
","434.69999998807907","","","","","","","","49","0,0,1","1","forest","52","probe-73","0.09525648440474736","0.4127429777991117","0.4714815368680534","0","","","","","","","",""
"","html-keyboard-response","197","740835","0.0-108.0-1.0","""event"",""trial"",""time""
""fullscreenenter"",""0"",""2333""
","
","
","""event"",""trial"",""time""
""fullscreenenter"",""0"",""2333""
","
","null","<p></p>","null","","","","","","","","","","","","","","","","","","","","","","",""
"","do_trial","198","745624","0.0-109.0-0.0","""event"",""trial"",""time""
""fullscreenenter"",""0"",""2333""
","
","
","""event"",""trial"",""time""
""fullscreenenter"",""0"",""2333""
","
","258.60000002384186","","","","","","","","49","1,0,0","1","forest","53","probe-192","0.06435347214360379","0.40052518372069573","0.5517304773869371","1","","","","","","","",""
"","html-keyboard-response","199","746625","0.0-109.0-1.0","""event"",""trial"",""time""
""fullscreenenter"",""0"",""2333""
","
","
","""event"",""trial"",""time""
""fullscreenenter"",""0"",""2333""
","
","null","<p></p>","null","","","","","","","","","","","","","","","","","","","","","","",""
"","do_trial","200","751440","0.0-110.0-0.0","""event"",""trial"",""time""
""fullscreenenter"",""0"",""2333""
","
","
","""event"",""trial"",""time""
""fullscreenenter"",""0"",""2333""
","
","283.19999998807907","","","","","","","","49","1,0,0","1","forest","54","probe-116","0.10101124024629496","0.20363509918257688","0.4544913170777086","1","","","","","","","",""
"","html-keyboard-response","201","752441","0.0-110.0-1.0","""event"",""trial"",""time""
""fullscreenenter"",""0"",""2333""
","
","
","""event"",""trial"",""time""
""fullscreenenter"",""0"",""2333""
","
","null","<p></p>","null","","","","","","","","","","","","","","","","","","","","","","",""
"","do_trial","202","757407","0.0-111.0-0.0","""event"",""trial"",""time""
""fullscreenenter"",""0"",""2333""
","
","
","""event"",""trial"",""time""
""fullscreenenter"",""0"",""2333""
","
","436","","","","","","","","49","0,1,1","1","forest","55","probe-188","0.145241318811906","0.3129872066854508","0.4980190770132973","0","","","","","","","",""
"","html-keyboard-response","203","758409","0.0-111.0-1.0","""event"",""trial"",""time""
""fullscreenenter"",""0"",""2333""
","
","
","""event"",""trial"",""time""
""fullscreenenter"",""0"",""2333""
","
","null","<p></p>","null","","","","","","","","","","","","","","","","","","","","","","",""
"","do_trial","204","763295","0.0-112.0-0.0","""event"",""trial"",""time""
""fullscreenenter"",""0"",""2333""
","
","
","""event"",""trial"",""time""
""fullscreenenter"",""0"",""2333""
","
","355.30000001192093","","","","","","","","49","0,0,1","1","forest","56","probe-106","0.07863973502686772","0.2785245584310793","0.6254614697418274","0","","","","","","","",""
"","html-keyboard-response","205","764296","0.0-112.0-1.0","""event"",""trial"",""time""
""fullscreenenter"",""0"",""2333""
","
","
","""event"",""trial"",""time""
""fullscreenenter"",""0"",""2333""
","
","null","<p></p>","null","","","","","","","","","","","","","","","","","","","","","","",""
"","do_trial","206","769559","0.0-113.0-0.0","""event"",""trial"",""time""
""fullscreenenter"",""0"",""2333""
","
","
","""event"",""trial"",""time""
""fullscreenenter"",""0"",""2333""
","
","732.1000000238419","","","","","","","","49","0,0,0","1","forest","57","probe-38","0.09685996502600479","0.3604741968257024","0.5809832697435999","0","","","","","","","",""
"","html-keyboard-response","207","770561","0.0-113.0-1.0","""event"",""trial"",""time""
""fullscreenenter"",""0"",""2333""
","
","
","""event"",""trial"",""time""
""fullscreenenter"",""0"",""2333""
","
","null","<p></p>","null","","","","","","","","","","","","","","","","","","","","","","",""
"","do_trial","208","775359","0.0-114.0-0.0","""event"",""trial"",""time""
""fullscreenenter"",""0"",""2333""
","
","
","""event"",""trial"",""time""
""fullscreenenter"",""0"",""2333""
","
","266.5","","","","","","","","49","0,1,1","1","forest","58","probe-220","0.1775025617481436","0.3520717089918962","0.6953762077614738","0","","","","","","","",""
"","html-keyboard-response","209","776360","0.0-114.0-1.0","""event"",""trial"",""time""
""fullscreenenter"",""0"",""2333""
","
","
","""event"",""trial"",""time""
""fullscreenenter"",""0"",""2333""
","
","null","<p></p>","null","","","","","","","","","","","","","","","","","","","","","","",""
"","do_trial","210","780934","0.0-115.0-0.0","""event"",""trial"",""time""
""fullscreenenter"",""0"",""2333""
","
","
","""event"",""trial"",""time""
""fullscreenenter"",""0"",""2333""
","
","38.89999997615814","","","","","","","","49","0,0,1","1","forest","59","probe-26","0.0524268003608243","0.332299066832268","0.6993556193003069","0","","","","","","","",""
"","html-keyboard-response","211","781935","0.0-115.0-1.0","""event"",""trial"",""time""
""fullscreenenter"",""0"",""2333""
","
","
","""event"",""trial"",""time""
""fullscreenenter"",""0"",""2333""
","
","null","<p></p>","null","","","","","","","","","","","","","","","","","","","","","","",""
"","do_trial","212","786712","0.0-116.0-0.0","""event"",""trial"",""time""
""fullscreenenter"",""0"",""2333""
","
","
","""event"",""trial"",""time""
""fullscreenenter"",""0"",""2333""
","
","244.80000001192093","","","","","","","","49","0,0,1","1","forest","60","probe-153","0.10337655747856653","0.3519727966396748","0.5947694892032586","0","","","","","","","",""
"","html-keyboard-response","213","787715","0.0-116.0-1.0","""event"",""trial"",""time""
""fullscreenenter"",""0"",""2333""
","
","
","""event"",""trial"",""time""
""fullscreenenter"",""0"",""2333""
","
","null","<p></p>","null","","","","","","","","","","","","","","","","","","","","","","",""
"","do_trial","214","792640","0.0-117.0-0.0","""event"",""trial"",""time""
""fullscreenenter"",""0"",""2333""
","
","
","""event"",""trial"",""time""
""fullscreenenter"",""0"",""2333""
","
","393.9000000357628","","","","","","","","51","0,0,0","1","forest","61","probe-31","0.07754921364596176","0.3960345622434476","0.5826437191656111","0","","","","","","","",""
"","html-keyboard-response","215","793641","0.0-117.0-1.0","""event"",""trial"",""time""
""fullscreenenter"",""0"",""2333""
","
","
","""event"",""trial"",""time""
""fullscreenenter"",""0"",""2333""
","
","null","<p></p>","null","","","","","","","","","","","","","","","","","","","","","","",""
"","do_trial","216","798472","0.0-118.0-0.0","""event"",""trial"",""time""
""fullscreenenter"",""0"",""2333""
","
","
","""event"",""trial"",""time""
""fullscreenenter"",""0"",""2333""
","
","299.19999998807907","","","","","","","","51","0,1,0","1","forest","62","probe-137","0.1540141126097782","0.3462123187763353","0.6266604567636962","0","","","","","","","",""
"","html-keyboard-response","217","799474","0.0-118.0-1.0","""event"",""trial"",""time""
""fullscreenenter"",""0"",""2333""
","
","
","""event"",""trial"",""time""
""fullscreenenter"",""0"",""2333""
","
","null","<p></p>","null","","","","","","","","","","","","","","","","","","","","","","",""
"","do_trial","218","804256","0.0-119.0-0.0","""event"",""trial"",""time""
""fullscreenenter"",""0"",""2333""
","
","
","""event"",""trial"",""time""
""fullscreenenter"",""0"",""2333""
","
","246.19999998807907","","","","","","","","51","0,0,1","1","forest","63","probe-163","0.18403910338584864","0.32632739565323626","0.6636595226617208","1","","","","","","","",""
"","html-keyboard-response","219","805258","0.0-119.0-1.0","""event"",""trial"",""time""
""fullscreenenter"",""0"",""2333""
","
","
","""event"",""trial"",""time""
""fullscreenenter"",""0"",""2333""
","
","null","<p></p>","null","","","","","","","","","","","","","","","","","","","","","","",""
"","do_trial","220","810119","0.0-120.0-0.0","""event"",""trial"",""time""
""fullscreenenter"",""0"",""2333""
","
","
","""event"",""trial"",""time""
""fullscreenenter"",""0"",""2333""
","
","329.19999998807907","","","","","","","","51","0,0,1","1","forest","64","probe-183","0.08606032264032308","0.29979216905344974","0.6533134888446084","1","","","","","","","",""
"","html-keyboard-response","221","811121","0.0-120.0-1.0","""event"",""trial"",""time""
""fullscreenenter"",""0"",""2333""
","
","
","""event"",""trial"",""time""
""fullscreenenter"",""0"",""2333""
","
","null","<p></p>","null","","","","","","","","","","","","","","","","","","","","","","",""
"","do_trial","222","815960","0.0-121.0-0.0","""event"",""trial"",""time""
""fullscreenenter"",""0"",""2333""
","
","
","""event"",""trial"",""time""
""fullscreenenter"",""0"",""2333""
","
","307.7000000476837","","","","","","","","51","0,0,1","1","forest","65","probe-185","0.05169030746218878","0.3409158752199734","0.6305354883785763","1","","","","","","","",""
"","html-keyboard-response","223","816962","0.0-121.0-1.0","""event"",""trial"",""time""
""fullscreenenter"",""0"",""2333""
","
","
","""event"",""trial"",""time""
""fullscreenenter"",""0"",""2333""
","
","null","<p></p>","null","","","","","","","","","","","","","","","","","","","","","","",""
"","do_trial","224","821919","0.0-122.0-0.0","""event"",""trial"",""time""
""fullscreenenter"",""0"",""2333""
","
","
","""event"",""trial"",""time""
""fullscreenenter"",""0"",""2333""
","
","424.7000000476837","","","","","","","","51","0,0,0","1","forest","66","probe-92","0.05562569389680407","0.4747723351602199","0.6003113193529452","0","","","","","","","",""
"","html-keyboard-response","225","822921","0.0-122.0-1.0","""event"",""trial"",""time""
""fullscreenenter"",""0"",""2333""
","
","
","""event"",""trial"",""time""
""fullscreenenter"",""0"",""2333""
","
","null","<p></p>","null","","","","","","","","","","","","","","","","","","","","","","",""
"","do_trial","226","827751","0.0-123.0-0.0","""event"",""trial"",""time""
""fullscreenenter"",""0"",""2333""
","
","
","""event"",""trial"",""time""
""fullscreenenter"",""0"",""2333""
","
","299.60000002384186","","","","","","","","51","0,0,1","1","forest","67","probe-205","0.08187148613057749","0.3921878434939105","0.6371063257563199","1","","","","","","","",""
"","html-keyboard-response","227","828753","0.0-123.0-1.0","""event"",""trial"",""time""
""fullscreenenter"",""0"",""2333""
","
","
","""event"",""trial"",""time""
""fullscreenenter"",""0"",""2333""
","
","null","<p></p>","null","","","","","","","","","","","","","","","","","","","","","","",""
"","do_trial","228","833608","0.0-124.0-0.0","""event"",""trial"",""time""
""fullscreenenter"",""0"",""2333""
","
","
","""event"",""trial"",""time""
""fullscreenenter"",""0"",""2333""
","
","323.5","","","","","","","","51","0,1,0","1","forest","68","probe-122","0.05286339982839663","0.42547274819749303","0.5467901146730857","0","","","","","","","",""
"","html-keyboard-response","229","834609","0.0-124.0-1.0","""event"",""trial"",""time""
""fullscreenenter"",""0"",""2333""
","
","
","""event"",""trial"",""time""
""fullscreenenter"",""0"",""2333""
","
","null","<p></p>","null","","","","","","","","","","","","","","","","","","","","","","",""
"","do_trial","230","839400","0.0-125.0-0.0","""event"",""trial"",""time""
""fullscreenenter"",""0"",""2333""
","
","
","""event"",""trial"",""time""
""fullscreenenter"",""0"",""2333""
","
","260.10000002384186","","","","","","","","51","0,0,0","1","forest","69","probe-160","0.0580342862985878","0.3550438395591391","0.5627637653041204","0","","","","","","","",""
"","html-keyboard-response","231","840401","0.0-125.0-1.0","""event"",""trial"",""time""
""fullscreenenter"",""0"",""2333""
","
","
","""event"",""trial"",""time""
""fullscreenenter"",""0"",""2333""
","
","null","<p></p>","null","","","","","","","","","","","","","","","","","","","","","","",""
"","do_bye","232","841904","0.0-126.0-0.0","""event"",""trial"",""time""
""fullscreenenter"",""0"",""2333""
","
","
","""event"",""trial"",""time""
""fullscreenenter"",""0"",""2333""
","
","null","","","","","","","","null","","","","","","","","","","","","","","","","",""
"","break","233","845010","0.0-126.0-1.0","""event"",""trial"",""time""
""fullscreenenter"",""0"",""2333""
","
","
","""event"",""trial"",""time""
""fullscreenenter"",""0"",""2333""
","
","3105.099999964237","<div class='center'><p>Time to take a quick break! You have 2 minutes to rest, but you can move on sooner if you'd like.</p><p> Press the <b>space bar</b> to continue.</p></div>","32","","","","","","","","","","","","","","","","","","","","","","",""
"","do_travel","234","854012","0.0-127.0-0.0","""event"",""trial"",""time""
""fullscreenenter"",""0"",""2333""
","
","
","""event"",""trial"",""time""
""fullscreenenter"",""0"",""2333""
","
","null","","","","","","","","null","","","","","","","","","","","","","","","","",""
"","do_welcome","235","858016","0.0-127.0-1.0","""event"",""trial"",""time""
""fullscreenenter"",""0"",""2333""
","
","
","""event"",""trial"",""time""
""fullscreenenter"",""0"",""2333""
","
","null","","","","","","","","null","","","","","","","","","","","","","","","","",""
"","do_trial","236","862983","0.0-128.0-0.0","""event"",""trial"",""time""
""fullscreenenter"",""0"",""2333""
","
","
","""event"",""trial"",""time""
""fullscreenenter"",""0"",""2333""
","
","435.89999997615814","","","","","","","","50","0,0,1","2","mountain","70","probe-228","0.06372196633137045","0.486807622985839","1","0","","","","","","","",""
"","html-keyboard-response","237","863985","0.0-128.0-1.0","""event"",""trial"",""time""
""fullscreenenter"",""0"",""2333""
","
","
","""event"",""trial"",""time""
""fullscreenenter"",""0"",""2333""
","
","null","<p></p>","null","","","","","","","","","","","","","","","","","","","","","","",""
"","do_trial","238","868800","0.0-129.0-0.0","""event"",""trial"",""time""
""fullscreenenter"",""0"",""2333""
","
","
","""event"",""trial"",""time""
""fullscreenenter"",""0"",""2333""
","
","282.69999998807907","","","","","","","","50","0,1,1","2","mountain","71","probe-49","0.10719478524509683","0.25935964605811423","1","1","","","","","","","",""
"","html-keyboard-response","239","869802","0.0-129.0-1.0","""event"",""trial"",""time""
""fullscreenenter"",""0"",""2333""
","
","
","""event"",""trial"",""time""
""fullscreenenter"",""0"",""2333""
","
","null","<p></p>","null","","","","","","","","","","","","","","","","","","","","","","",""
"","do_trial","240","874671","0.0-130.0-0.0","""event"",""trial"",""time""
""fullscreenenter"",""0"",""2333""
","
","
","""event"",""trial"",""time""
""fullscreenenter"",""0"",""2333""
","
","338.89999997615814","","","","","","","","50","0,0,1","2","mountain","72","probe-43","0.233288612585461","0.14511815204174844","0.8484414872641374","0","","","","","","","",""
"","html-keyboard-response","241","875672","0.0-130.0-1.0","""event"",""trial"",""time""
""fullscreenenter"",""0"",""2333""
","
","
","""event"",""trial"",""time""
""fullscreenenter"",""0"",""2333""
","
","null","<p></p>","null","","","","","","","","","","","","","","","","","","","","","","",""
"","do_trial","242","880456","0.0-131.0-0.0","""event"",""trial"",""time""
""fullscreenenter"",""0"",""2333""
","
","
","""event"",""trial"",""time""
""fullscreenenter"",""0"",""2333""
","
","251.69999998807907","","","","","","","","50","1,1,1","2","mountain","73","probe-133","0.269907944491076","0.21601377906447902","0.6369728660318832","1","","","","","","","",""
"","html-keyboard-response","243","881458","0.0-131.0-1.0","""event"",""trial"",""time""
""fullscreenenter"",""0"",""2333""
","
","
","""event"",""trial"",""time""
""fullscreenenter"",""0"",""2333""
","
","null","<p></p>","null","","","","","","","","","","","","","","","","","","","","","","",""
"","do_trial","244","886296","0.0-132.0-0.0","""event"",""trial"",""time""
""fullscreenenter"",""0"",""2333""
","
","
","""event"",""trial"",""time""
""fullscreenenter"",""0"",""2333""
","
","306.9000000357628","","","","","","","","50","0,0,1","2","mountain","74","probe-12","0.20104847833327227","0.3211670255154867","0.7520578173953956","0","","","","","","","",""
"","html-keyboard-response","245","887298","0.0-132.0-1.0","""event"",""trial"",""time""
""fullscreenenter"",""0"",""2333""
","
","
","""event"",""trial"",""time""
""fullscreenenter"",""0"",""2333""
","
","null","<p></p>","null","","","","","","","","","","","","","","","","","","","","","","",""
"","do_trial","246","892119","0.0-133.0-0.0","""event"",""trial"",""time""
""fullscreenenter"",""0"",""2333""
","
","
","""event"",""trial"",""time""
""fullscreenenter"",""0"",""2333""
","
","291.30000001192093","","","","","","","","50","0,0,1","2","mountain","75","probe-95","0.17660472696457863","0.294272920463641","0.7616894360943287","0","","","","","","","",""
"","html-keyboard-response","247","893121","0.0-133.0-1.0","""event"",""trial"",""time""
""fullscreenenter"",""0"",""2333""
","
","
","""event"",""trial"",""time""
""fullscreenenter"",""0"",""2333""
","
","null","<p></p>","null","","","","","","","","","","","","","","","","","","","","","","",""
"","do_trial","248","897927","0.0-134.0-0.0","""event"",""trial"",""time""
""fullscreenenter"",""0"",""2333""
","
","
","""event"",""trial"",""time""
""fullscreenenter"",""0"",""2333""
","
","275.7999999523163","","","","","","","","50","0,0,1","2","mountain","76","probe-174","0.09614036214335628","0.12841719148580935","0.7061472995293384","0","","","","","","","",""
"","html-keyboard-response","249","898929","0.0-134.0-1.0","""event"",""trial"",""time""
""fullscreenenter"",""0"",""2333""
","
","
","""event"",""trial"",""time""
""fullscreenenter"",""0"",""2333""
","
","null","<p></p>","null","","","","","","","","","","","","","","","","","","","","","","",""
"","do_trial","250","903688","0.0-135.0-0.0","""event"",""trial"",""time""
""fullscreenenter"",""0"",""2333""
","
","
","""event"",""trial"",""time""
""fullscreenenter"",""0"",""2333""
","
","227.5","","","","","","","","50","1,0,1","2","mountain","77","probe-176","0.0987202072868951","0.11726359872695774","0.689661914217799","0","","","","","","","",""
"","html-keyboard-response","251","904690","0.0-135.0-1.0","""event"",""trial"",""time""
""fullscreenenter"",""0"",""2333""
","
","
","""event"",""trial"",""time""
""fullscreenenter"",""0"",""2333""
","
","null","<p></p>","null","","","","","","","","","","","","","","","","","","","","","","",""
"","do_trial","252","909544","0.0-136.0-0.0","""event"",""trial"",""time""
""fullscreenenter"",""0"",""2333""
","
","
","""event"",""trial"",""time""
""fullscreenenter"",""0"",""2333""
","
","323.19999998807907","","","","","","","","49","0,1,1","2","mountain","78","probe-14","0.09734027277884892","0.17309961448550928","0.7263939814013384","0","","","","","","","",""
"","html-keyboard-response","253","910546","0.0-136.0-1.0","""event"",""trial"",""time""
""fullscreenenter"",""0"",""2333""
","
","
","""event"",""trial"",""time""
""fullscreenenter"",""0"",""2333""
","
","null","<p></p>","null","","","","","","","","","","","","","","","","","","","","","","",""
"","do_trial","254","915328","0.0-137.0-0.0","""event"",""trial"",""time""
""fullscreenenter"",""0"",""2333""
","
","
","""event"",""trial"",""time""
""fullscreenenter"",""0"",""2333""
","
","250.4000000357628","","","","","","","","49","0,0,1","2","mountain","79","probe-223","0.05176189796476493","0.3288100470785315","0.6431420469264485","0","","","","","","","",""
"","html-keyboard-response","255","916330","0.0-137.0-1.0","""event"",""trial"",""time""
""fullscreenenter"",""0"",""2333""
","
","
","""event"",""trial"",""time""
""fullscreenenter"",""0"",""2333""
","
","null","<p></p>","null","","","","","","","","","","","","","","","","","","","","","","",""
"","do_trial","256","921112","0.0-138.0-0.0","""event"",""trial"",""time""
""fullscreenenter"",""0"",""2333""
","
","
","""event"",""trial"",""time""
""fullscreenenter"",""0"",""2333""
","
","249.79999995231628","","","","","","","","50","0,0,1","2","mountain","80","probe-80","0.18400528472260777","0.22382156586795873","0.6152897359894337","0","","","","","","","",""
"","html-keyboard-response","257","922114","0.0-138.0-1.0","""event"",""trial"",""time""
""fullscreenenter"",""0"",""2333""
","
","
","""event"",""trial"",""time""
""fullscreenenter"",""0"",""2333""
","
","null","<p></p>","null","","","","","","","","","","","","","","","","","","","","","","",""
"","do_trial","258","926911","0.0-139.0-0.0","""event"",""trial"",""time""
""fullscreenenter"",""0"",""2333""
","
","
","""event"",""trial"",""time""
""fullscreenenter"",""0"",""2333""
","
","265.89999997615814","","","","","","","","51","0,0,1","2","mountain","81","probe-24","0.13048683473730713","0.13348988094078248","0.5283179579268834","1","","","","","","","",""
"","html-keyboard-response","259","927912","0.0-139.0-1.0","""event"",""trial"",""time""
""fullscreenenter"",""0"",""2333""
","
","
","""event"",""trial"",""time""
""fullscreenenter"",""0"",""2333""
","
","null","<p></p>","null","","","","","","","","","","","","","","","","","","","","","","",""
"","do_trial","260","932713","0.0-140.0-0.0","""event"",""trial"",""time""
""fullscreenenter"",""0"",""2333""
","
","
","""event"",""trial"",""time""
""fullscreenenter"",""0"",""2333""
","
","268.89999997615814","","","","","","","","51","0,1,0","2","mountain","82","probe-102","0.16373280310868216","0.40717938943130877","0.3123011000121706","0","","","","","","","",""
