success,trial_type,trial_index,time_elapsed,internal_node_id,interactions,blur_events,focus_events,fullscreenenter_events,fullscreenexit_events,rt,stimulus,key_press,subject_id,participant_id,age,gender,prompt,response,choice_outcomes,context_n,context_img_id,trial_n,probe_img_id,pR_red,pR_white,pR_black,outcome,contextArray_ind,validImageProbes,invalidImageProbes,pRew_Red,pRew_White,pRew_Black,availableForMemProbe,choice_blocks
TRUE,fullscreen,0,3704,0.0-0.0,"""event"",""trial"",""time""
""fullscreenenter"",""0"",""2742""
","
","
","""event"",""trial"",""time""
""fullscreenenter"",""0"",""2742""
","
",,,,,,,,,,,,,,,,,,,,,,,,,,
,pavlovia,1,3711,0.0-1.0,"""event"",""trial"",""time""
""fullscreenenter"",""0"",""2742""
","
","
","""event"",""trial"",""time""
""fullscreenenter"",""0"",""2742""
","
",,,,,,,,,,,,,,,,,,,,,,,,,,
,instruc1,2,48863,0.0-2.0,"""event"",""trial"",""time""
""fullscreenenter"",""0"",""2742""
","
","
","""event"",""trial"",""time""
""fullscreenenter"",""0"",""2742""
","
",null,run_exp/static/audio/clip_1_welcome.m4a,null,380,877,25,Male,"<div class='center'><p>Welcome! This is the first part of the study. It will last ~30 minutes. In part 1 and part 2 of the study, you are the head captain of a pirate ship traveling around the world to different islands. You will play a few different games throughout these two parts. Here is an overview of them:</p><br><p>Part 1 (today)</p><p>1. Instructions, practice game, and quiz</p><p>2. Pick a pirate game on 6 different islands</p><br><p>Part 2 (tomorrow)</p><p>3. Pick a pirate game and memory game</p><p>4. Where did you see this ship? </p></div>",,,,,,,,,,,,,,,,,,
,html-keyboard-response,3,48886,0.0-3.0,"""event"",""trial"",""time""
""fullscreenenter"",""0"",""2742""
","
","
","""event"",""trial"",""time""
""fullscreenenter"",""0"",""2742""
","
",17.69999999,"<div class='center'><p>Welcome! This is the first part of the study. It will last ~30 minutes. In part 1 and part 2 of the study, you are the head captain of a pirate ship traveling around the world to different islands. You will play a few different games throughout these two parts. Here is an overview of them:</p><br><p>Part 1 (today)</p><p>1. Instructions, practice game, and quiz</p><p>2. Pick a pirate game on 6 different islands</p><br><p>Part 2 (tomorrow)</p><p>3. Pick a pirate game and memory game</p><p>4. Where did you see this ship? </p><p><b>[Press the space bar to continue]</b></p></div>",32,,,,,,,,,,,,,,,,,,,,,,,
,instruc2,4,54215,0.0-4.0,"""event"",""trial"",""time""
""fullscreenenter"",""0"",""2742""
","
","
","""event"",""trial"",""time""
""fullscreenenter"",""0"",""2742""
","
",null,run_exp/static/audio/clip_2_different_places.m4a,null,,,,,"<div class='center'><p>Today, you’ll visit these 6 islands on your journey. You'll be able to see these islands from your ship.</p><p><img src='run_exp/static/images/contexts/all_contexts.png' height='500'></p></div>",,,,,,,,,,,,,,,,,,
,html-keyboard-response,5,55568,0.0-5.0,"""event"",""trial"",""time""
""fullscreenenter"",""0"",""2742""
","
","
","""event"",""trial"",""time""
""fullscreenenter"",""0"",""2742""
","
",1350.7,"<div class='center'><p>Today, you’ll visit these 6 islands on your journey. You'll be able to see these islands from your ship.</p><p><img src='run_exp/static/images/contexts/all_contexts.png' height='500'></p><p><b>[Press the space bar to continue]</b></p></div>",32,,,,,,,,,,,,,,,,,,,,,,,
,instruc3,6,65287,0.0-6.0,"""event"",""trial"",""time""
""fullscreenenter"",""0"",""2742""
","
","
","""event"",""trial"",""time""
""fullscreenenter"",""0"",""2742""
","
",null,run_exp/static/audio/clip_3_goal_of_game_1.m4a,null,,,,,"<div class='center'><p> The pirates on your ship will rob other ships as they leave the island.</p> These ships have just sold their goods to the islanders, so they will be filled with lots and lots of gold.</p><p><img src='run_exp/static/images/tutorial/ship_center.png' height='400'></p></div>",,,,,,,,,,,,,,,,,,
,html-keyboard-response,7,70847,0.0-7.0,"""event"",""trial"",""time""
""fullscreenenter"",""0"",""2742""
","
","
","""event"",""trial"",""time""
""fullscreenenter"",""0"",""2742""
","
",5553.7,"<div class='center'><p> The pirates on your ship will rob other ships as they leave the island.</p> These ships have just sold their goods to the islanders, so they will be filled with lots and lots of gold.</p><p><img src='run_exp/static/images/tutorial/ship_center.png' height='400'></p><p><b>[Press the space bar to continue]</b></p></div>",32,,,,,,,,,,,,,,,,,,,,,,,
,instruc4,8,98865,0.0-8.0,"""event"",""trial"",""time""
""fullscreenenter"",""0"",""2742""
","
","
","""event"",""trial"",""time""
""fullscreenenter"",""0"",""2742""
","
",null,run_exp/static/audio/clip_4_goal_of_game_2.m4a,null,,,,,"<div class='center'><p>As the head captain, you do not have to rob any ships yourself. Another pirate will be doing the robbing for you. First, you will choose a pirate to rob the next ship.</p><p><img src='run_exp/static/images/tutorial/pirates_all_crop.png' height='200'></p><p>Then, you'll see if the pirate successfully robbed the ship of their gold. If they were successful, then you'll get a stack of gold coins like this:</p><p><img src='run_exp/static/images/tutorial/reward.png' height='150'></p><p> If they were <b>not</b> successful, then you'll get no gold coins, and you'll see a big red x like this: </p><p><img src='run_exp/static/images/tutorial/reward_no.png' height='150'></p><p> How much bonus money you make is based on how many gold coins you collect.</p><div>",,,,,,,,,,,,,,,,,,
,html-keyboard-response,9,99624,0.0-9.0,"""event"",""trial"",""time""
""fullscreenenter"",""0"",""2742""
","
","
","""event"",""trial"",""time""
""fullscreenenter"",""0"",""2742""
","
",755.9,"<div class='center'><p>As the head captain, you do not have to rob any ships yourself. Another pirate will be doing the robbing for you. First, you will choose a pirate to rob the next ship.</p><p><img src='run_exp/static/images/tutorial/pirates_all_crop.png' height='200'></p><p>Then, you'll see if the pirate successfully robbed the ship of their gold. If they were successful, then you'll get a stack of gold coins like this:</p><p><img src='run_exp/static/images/tutorial/reward.png' height='150'></p><p> If they were <b>not</b> successful, then you'll get no gold coins, and you'll see a big red x like this: </p><p><img src='run_exp/static/images/tutorial/reward_no.png' height='150'></p><p> How much bonus money you make is based on how many gold coins you collect.</p<p><b>[Press the space bar to continue]</b></p></div>",32,,,,,,,,,,,,,,,,,,,,,,,
,instruc5,10,120385,0.0-10.0,"""event"",""trial"",""time""
""fullscreenenter"",""0"",""2742""
","
","
","""event"",""trial"",""time""
""fullscreenenter"",""0"",""2742""
","
",20759.1,run_exp/static/audio/clip_5_probabilistic.m4a,49,,,,,"<div class='center'><p>Even the most skilled pirate can not rob EVERY ship.</p><p> Some ships will have very strong protections against pirate attacks.</p><p> Blue beard, here, is very, very good at robbing ships, but he won't be successful every time he tries to rob one.</p><p> You can press the <b>‘1’</b> key on the keyboard to choose him.</p><p> Try choosing him 10 times to see how often he succeeds at robbing a ship. </p><p><img src='run_exp/static/images/tutorial/blue.png' height='500'></p></div>",,,,,,,,,,,,,,,,,,
,html-keyboard-response,11,121889,0.0-11.0,"""event"",""trial"",""time""
""fullscreenenter"",""0"",""2742""
","
","
","""event"",""trial"",""time""
""fullscreenenter"",""0"",""2742""
","
",null,<div class='center'><p><img src='run_exp/static/images/tutorial/blue_win.png' height='500'></p></div>,null,,,,,,,,,,,,,,,,,,,,,,,
,html-keyboard-response,12,122551,0.0-12.0,"""event"",""trial"",""time""
""fullscreenenter"",""0"",""2742""
","
","
","""event"",""trial"",""time""
""fullscreenenter"",""0"",""2742""
","
",659.9,<div class='center'><img src='run_exp/static/images/tutorial/blue.png' height='500'></p></div>,49,,,,,,,,,,,,,,,,,,,,,,,
,html-keyboard-response,13,124055,0.0-13.0,"""event"",""trial"",""time""
""fullscreenenter"",""0"",""2742""
","
","
","""event"",""trial"",""time""
""fullscreenenter"",""0"",""2742""
","
",null,<div class='center'><p><img src='run_exp/static/images/tutorial/blue_win.png' height='500'></p></div>,null,,,,,,,,,,,,,,,,,,,,,,,
,html-keyboard-response,14,124308,0.0-14.0,"""event"",""trial"",""time""
""fullscreenenter"",""0"",""2742""
","
","
","""event"",""trial"",""time""
""fullscreenenter"",""0"",""2742""
","
",251,<div class='center'><img src='run_exp/static/images/tutorial/blue.png' height='500'></p></div>,49,,,,,,,,,,,,,,,,,,,,,,,
,html-keyboard-response,15,125810,0.0-15.0,"""event"",""trial"",""time""
""fullscreenenter"",""0"",""2742""
","
","
","""event"",""trial"",""time""
""fullscreenenter"",""0"",""2742""
","
",null,<div class='center'><p><img src='run_exp/static/images/tutorial/blue_win.png' height='500'></p></div>,null,,,,,,,,,,,,,,,,,,,,,,,
,html-keyboard-response,16,126077,0.0-16.0,"""event"",""trial"",""time""
""fullscreenenter"",""0"",""2742""
","
","
","""event"",""trial"",""time""
""fullscreenenter"",""0"",""2742""
","
",264.7,<div class='center'><img src='run_exp/static/images/tutorial/blue.png' height='500'></p></div>,49,,,,,,,,,,,,,,,,,,,,,,,
,html-keyboard-response,17,127581,0.0-17.0,"""event"",""trial"",""time""
""fullscreenenter"",""0"",""2742""
","
","
","""event"",""trial"",""time""
""fullscreenenter"",""0"",""2742""
","
",null,<div class='center'><p><img src='run_exp/static/images/tutorial/blue_no_win.png' height='500'></p></div>,null,,,,,,,,,,,,,,,,,,,,,,,
,html-keyboard-response,18,127771,0.0-18.0,"""event"",""trial"",""time""
""fullscreenenter"",""0"",""2742""
","
","
","""event"",""trial"",""time""
""fullscreenenter"",""0"",""2742""
","
",187.9,<div class='center'><img src='run_exp/static/images/tutorial/blue.png' height='500'></p></div>,49,,,,,,,,,,,,,,,,,,,,,,,
,html-keyboard-response,19,129273,0.0-19.0,"""event"",""trial"",""time""
""fullscreenenter"",""0"",""2742""
","
","
","""event"",""trial"",""time""
""fullscreenenter"",""0"",""2742""
","
",null,<div class='center'><p><img src='run_exp/static/images/tutorial/blue_win.png' height='500'></p></div>,null,,,,,,,,,,,,,,,,,,,,,,,
,html-keyboard-response,20,129297,0.0-20.0,"""event"",""trial"",""time""
""fullscreenenter"",""0"",""2742""
","
","
","""event"",""trial"",""time""
""fullscreenenter"",""0"",""2742""
","
",21.5,<div class='center'><img src='run_exp/static/images/tutorial/blue.png' height='500'></p></div>,49,,,,,,,,,,,,,,,,,,,,,,,
,html-keyboard-response,21,130799,0.0-21.0,"""event"",""trial"",""time""
""fullscreenenter"",""0"",""2742""
","
","
","""event"",""trial"",""time""
""fullscreenenter"",""0"",""2742""
","
",null,<div class='center'><p><img src='run_exp/static/images/tutorial/blue_win.png' height='500'></p></div>,null,,,,,,,,,,,,,,,,,,,,,,,
,html-keyboard-response,22,131058,0.0-22.0,"""event"",""trial"",""time""
""fullscreenenter"",""0"",""2742""
","
","
","""event"",""trial"",""time""
""fullscreenenter"",""0"",""2742""
","
",256.6,<div class='center'><img src='run_exp/static/images/tutorial/blue.png' height='500'></p></div>,49,,,,,,,,,,,,,,,,,,,,,,,
,html-keyboard-response,23,132559,0.0-23.0,"""event"",""trial"",""time""
""fullscreenenter"",""0"",""2742""
","
","
","""event"",""trial"",""time""
""fullscreenenter"",""0"",""2742""
","
",null,<div class='center'><p><img src='run_exp/static/images/tutorial/blue_win.png' height='500'></p></div>,null,,,,,,,,,,,,,,,,,,,,,,,
,html-keyboard-response,24,133821,0.0-24.0,"""event"",""trial"",""time""
""fullscreenenter"",""0"",""2742""
","
","
","""event"",""trial"",""time""
""fullscreenenter"",""0"",""2742""
","
",1260.2,<div class='center'><img src='run_exp/static/images/tutorial/blue.png' height='500'></p></div>,49,,,,,,,,,,,,,,,,,,,,,,,
,html-keyboard-response,25,135328,0.0-25.0,"""event"",""trial"",""time""
""fullscreenenter"",""0"",""2742""
","
","
","""event"",""trial"",""time""
""fullscreenenter"",""0"",""2742""
","
",null,<div class='center'><p><img src='run_exp/static/images/tutorial/blue_no_win.png' height='500'></p></div>,null,,,,,,,,,,,,,,,,,,,,,,,
,html-keyboard-response,26,135646,0.0-26.0,"""event"",""trial"",""time""
""fullscreenenter"",""0"",""2742""
","
","
","""event"",""trial"",""time""
""fullscreenenter"",""0"",""2742""
","
",316.8,<div class='center'><img src='run_exp/static/images/tutorial/blue.png' height='500'></p></div>,49,,,,,,,,,,,,,,,,,,,,,,,
,html-keyboard-response,27,137150,0.0-27.0,"""event"",""trial"",""time""
""fullscreenenter"",""0"",""2742""
","
","
","""event"",""trial"",""time""
""fullscreenenter"",""0"",""2742""
","
",null,<div class='center'><p><img src='run_exp/static/images/tutorial/blue_win.png' height='500'></p></div>,null,,,,,,,,,,,,,,,,,,,,,,,
,html-keyboard-response,28,137590,0.0-28.0,"""event"",""trial"",""time""
""fullscreenenter"",""0"",""2742""
","
","
","""event"",""trial"",""time""
""fullscreenenter"",""0"",""2742""
","
",438.2,<div class='center'><img src='run_exp/static/images/tutorial/blue.png' height='500'></p></div>,49,,,,,,,,,,,,,,,,,,,,,,,
,html-keyboard-response,29,139093,0.0-29.0,"""event"",""trial"",""time""
""fullscreenenter"",""0"",""2742""
","
","
","""event"",""trial"",""time""
""fullscreenenter"",""0"",""2742""
","
",null,<div class='center'><p><img src='run_exp/static/images/tutorial/blue_win.png' height='500'></p></div>,null,,,,,,,,,,,,,,,,,,,,,,,
,instruc6,30,144515,0.0-30.0,"""event"",""trial"",""time""
""fullscreenenter"",""0"",""2742""
","
","
","""event"",""trial"",""time""
""fullscreenenter"",""0"",""2742""
","
",null,run_exp/static/audio/clip_6_blue_beard_outcome.m4a,null,,,,,"<div class='center'><p> See, he succeeded in robbing the ships most of the time but not every time. </p></div>",,,,,,,,,,,,,,,,,,
,html-keyboard-response,31,146352,0.0-31.0,"""event"",""trial"",""time""
""fullscreenenter"",""0"",""2742""
","
","
","""event"",""trial"",""time""
""fullscreenenter"",""0"",""2742""
","
",1835.1,"<div class='center'><p> See, he succeeded in robbing the ships most of the time but not every time. </p><p><b>[Press the space bar to continue]</b></p></div>",32,,,,,,,,,,,,,,,,,,,,,,,
,audio-keyboard-response,32,162689,0.0-32.0,"""event"",""trial"",""time""
""fullscreenenter"",""0"",""2742""
","
","
","""event"",""trial"",""time""
""fullscreenenter"",""0"",""2742""
","
",16334.5,run_exp/static/audio/clip_7_pick_pirate.m4a,50,,,,,,,,,,,,,,,,,,,,,,,
,audio-keyboard-response,33,167776,0.0-33.0-0.0,"""event"",""trial"",""time""
""fullscreenenter"",""0"",""2742""
","
","
","""event"",""trial"",""time""
""fullscreenenter"",""0"",""2742""
","
",5080.2,run_exp/static/audio/clip_8_chosen_pirate_win.m4a,32,,,,,,,,,,,,,,,,,,,,,,,
,audio-keyboard-response,34,170050,0.0-33.0-1.0,"""event"",""trial"",""time""
""fullscreenenter"",""0"",""2742""
","
","
","""event"",""trial"",""time""
""fullscreenenter"",""0"",""2742""
","
",2271.6,run_exp/static/audio/clip_9_pick_a_pirate_again.m4a,49,,,,,,,,,,,,,,,,,,,,,,,
,audio-keyboard-response,35,174941,0.0-34.0-0.0,"""event"",""trial"",""time""
""fullscreenenter"",""0"",""2742""
","
","
","""event"",""trial"",""time""
""fullscreenenter"",""0"",""2742""
","
",4888.6,run_exp/static/audio/clip_10_chosen_pirate_loss.m4a,32,,,,,,,,,,,,,,,,,,,,,,,
,instruc9,36,180440,0.0-35.0-0.0,"""event"",""trial"",""time""
""fullscreenenter"",""0"",""2742""
","
","
","""event"",""trial"",""time""
""fullscreenenter"",""0"",""2742""
","
",null,run_exp/static/audio/clip_11_time_out.m4a,null,,,,,"<div class='center'><p>If you don’t make your choice fast enough, you’ll have to wait a few seconds before you can make another one. </p><p><img src='run_exp/static/images/miscellaneous/hurry_up.png' height='500'></p></div>",,,,,,,,,,,,,,,,,,
,html-keyboard-response,37,181415,0.0-35.0-1.0,"""event"",""trial"",""time""
""fullscreenenter"",""0"",""2742""
","
","
","""event"",""trial"",""time""
""fullscreenenter"",""0"",""2742""
","
",972,"<div class='center'><p>If you don’t make your choice fast enough, you’ll have to wait a few seconds before you can make another one. </p><p><img src='run_exp/static/images/miscellaneous/hurry_up.png' height='500'></p><p><b>[Press the space bar to continue]</b></p></div>",32,,,,,,,,,,,,,,,,,,,,,,,
,instruc10,38,220525,0.0-35.0-2.0,"""event"",""trial"",""time""
""fullscreenenter"",""0"",""2742""
","
","
","""event"",""trial"",""time""
""fullscreenenter"",""0"",""2742""
","
",null,run_exp/static/audio/clip_12_probe.m4a,null,,,,,"<div class='center'><p>Once you've chosen a pirate, you’ll be shown the ship they are robbing. You will never rob the same ship twice. Ships can be told apart from one another by the image on them. These are the goods that they sell. See, this ship has a travel mug on it. </p><p> You’ll have to remember which island you saw each ship on. You will win more gold coins and hence more bonus money if you remember correctly! To help you remember, you can imagine a story. For example, here, you could imagine a mug full of water in the desert. Or, as another example, if on the forest island, your pirate robbed a ship with an apple on it, you could imagine an apple falling from a tree in the forest. </p><p><img src='run_exp/static/images/tutorial/example_probe.png' height='500'></p></div>",,,,,,,,,,,,,,,,,,
,html-keyboard-response,39,222699,0.0-35.0-3.0,"""event"",""trial"",""time""
""fullscreenenter"",""0"",""2742""
","
","
","""event"",""trial"",""time""
""fullscreenenter"",""0"",""2742""
","
",2167.3,"<div class='center'><p>Once you've chosen a pirate, you’ll be shown the ship they are robbing. You will never rob the same ship twice. Ships can be told apart from one another by the image on them. These are the goods that they sell. See, this ship has a travel mug on it. </p><p> You’ll have to remember which island you saw each ship on. You will win more gold coins and hence more bonus money if you remember correctly! To help you remember, you can imagine a story. For example, here, you could imagine a mug full of water in the desert. Or, as another example, if on the forest island, your pirate robbed a ship with an apple on it, you could imagine an apple falling from a tree in the forest. </p><p><img src='run_exp/static/images/tutorial/example_probe.png' height='500'></p><p><b>[Press the space bar to continue]</b></p></div>",32,,,,,,,,,,,,,,,,,,,,,,,
,instruc11,40,239107,0.0-35.0-4.0,"""event"",""trial"",""time""
""fullscreenenter"",""0"",""2742""
","
","
","""event"",""trial"",""time""
""fullscreenenter"",""0"",""2742""
","
",null,run_exp/static/audio/clip_13_changepoint.m4a,null,,,,,"<div class='center'><p>How successful a pirate is at robbing ships will depend on the island you’re on.</p><p> A pirate may have visited this island many times before and gained a lot of practice robbing ships there.</p><p>So, they’re more likely to be successful than a pirate who has never visited the island before.</p></div>",,,,,,,,,,,,,,,,,,
,html-keyboard-response,41,240246,0.0-35.0-5.0,"""event"",""trial"",""time""
""fullscreenenter"",""0"",""2742""
","
","
","""event"",""trial"",""time""
""fullscreenenter"",""0"",""2742""
","
",1137.2,"<div class='center'><p>How successful a pirate is at robbing ships will depend on the island you’re on.</p><p> A pirate may have visited this island many times before and gained a lot of practice robbing ships there.</p><p>So, they’re more likely to be successful than a pirate who has never visited the island before.</p><p><b>[Press the space bar to continue]</b></p></div>",32,,,,,,,,,,,,,,,,,,,,,,,
,instruc12,42,281346,0.0-35.0-6.0,"""event"",""trial"",""time""
""fullscreenenter"",""0"",""2742""
","
","
","""event"",""trial"",""time""
""fullscreenenter"",""0"",""2742""
","
",null,run_exp/static/audio/clip_14_drift.m4a,null,,,,,"<div class='center'><p>How successful a pirate is at robbing ships can also change over the time spent on the island. </p><p> Ships may hear from islanders about the pirates coming and will improve their protections against the attack. This may make it harder to rob them.</p><p> Ships may also become lazy and weaken the strength of their protections. This may make it easier to rob them.</p><br><p>Things are always changing on the high seas! So, try your best to pay attention!</p><p><img src='run_exp/static/images/tutorial/contingency.png' height='500'></p></div>",,,,,,,,,,,,,,,,,,
,html-keyboard-response,43,282788,0.0-35.0-7.0,"""event"",""trial"",""time""
""fullscreenenter"",""0"",""2742""
","
","
","""event"",""trial"",""time""
""fullscreenenter"",""0"",""2742""
","
",1430.9,"<div class='center'><p>How successful a pirate is at robbing ships can also change over the time spent on the island. </p><p> Ships may hear from islanders about the pirates coming and will improve their protections against the attack. This may make it harder to rob them.</p><p> Ships may also become lazy and weaken the strength of their protections. This may make it easier to rob them.</p><br><p>Things are always changing on the high seas! So, try your best to pay attention!</p><p><img src='run_exp/static/images/tutorial/contingency.png' height='500'></p><p><b>[Press the space bar to continue]</b></p></div>",32,,,,,,,,,,,,,,,,,,,,,,,
,instruc13,44,317997,0.0-35.0-8.0,"""event"",""trial"",""time""
""fullscreenenter"",""0"",""2742""
","
","
","""event"",""trial"",""time""
""fullscreenenter"",""0"",""2742""
","
",null,run_exp/static/audio/clip_15_summary.m4a,null,,,,,"<div class='center'><p>Let's go over the instructions quickly again. You have two important things to do: </p><b><p> 1. Pick the pirate who is the best at robbing ships on the current island. </p></b><b><p> 2. Remember on which island a ship was robbed.</p> </b><p>The amount of bonus money you can win depends on both.</p><p><br><p>Let’s try a practice game. The game will start by showing you the pirates. First, pick a pirate using the <b> 1, 2, 3 </b> keys on your keyboard. When you are shown a ship, try to remember which island you’re on by making up a story.</p><p>This is just a practice game, so you’re not playing for money. </p><p> Good luck! This game will be very difficult but try your best!</p></div>",,,,,,,,,,,,,,,,,,
,html-keyboard-response,45,318461,0.0-35.0-9.0,"""event"",""trial"",""time""
""fullscreenenter"",""0"",""2742""
","
","
","""event"",""trial"",""time""
""fullscreenenter"",""0"",""2742""
","
",462.2,"<div class='center'><p>Let's go over the instructions quickly again. You have two important things to do: </p><b><p> 1. Pick the pirate who is the best at robbing ships on the current island. </p></b><b><p> 2. Remember on which island a ship was robbed.</p> </b><p>The amount of bonus money you can win depends on both.</p><p><br><p>Let’s try a practice game. The game will start by showing you the pirates. First, pick a pirate using the <b> 1, 2, 3 </b> keys on your keyboard. When you are shown a ship, try to remember which island you’re on by making up a story.</p><p>This is just a practice game, so you’re not playing for money. </p><p> Good luck! This game will be very difficult but try your best!</p><p><b>[Press the space bar to continue]</b></p></div>",32,,,,,,,,,,,,,,,,,,,,,,,
,do_welcome,46,322474,0.0-35.0-10.0,"""event"",""trial"",""time""
""fullscreenenter"",""0"",""2742""
","
","
","""event"",""trial"",""time""
""fullscreenenter"",""0"",""2742""
","
",null,,,,,,,,null,,,,,,,,,,,,,,,,,
,do_trial,47,329113,0.0-35.0-11.0,"""event"",""trial"",""time""
""fullscreenenter"",""0"",""2742""
","
","
","""event"",""trial"",""time""
""fullscreenenter"",""0"",""2742""
","
",2128.2,,,,,,,,50,"1,0,0",,,,,,,,,,,,,,,,
,html-keyboard-response,48,330120,0.0-36.0-0.0,"""event"",""trial"",""time""
""fullscreenenter"",""0"",""2742""
","
","
","""event"",""trial"",""time""
""fullscreenenter"",""0"",""2742""
","
",null,<p></p>,null,,,,,,,,,,,,,,,,,,,,,,,
,do_trial,49,336130,0.0-36.0-1.0,"""event"",""trial"",""time""
""fullscreenenter"",""0"",""2742""
","
","
","""event"",""trial"",""time""
""fullscreenenter"",""0"",""2742""
","
",null,,,,,,,,null,"1,1,0",,,,,,,,,,,,,,,,
,html-keyboard-response,50,337134,0.0-37.0-0.0,"""event"",""trial"",""time""
""fullscreenenter"",""0"",""2742""
","
","
","""event"",""trial"",""time""
""fullscreenenter"",""0"",""2742""
","
",null,<p></p>,null,,,,,,,,,,,,,,,,,,,,,,,
,do_trial,51,342379,0.0-37.0-1.0,"""event"",""trial"",""time""
""fullscreenenter"",""0"",""2742""
","
","
","""event"",""trial"",""time""
""fullscreenenter"",""0"",""2742""
","
",734.3,,,,,,,,50,"1,1,0",,,,,,,,,,,,,,,,
,html-keyboard-response,52,343383,0.0-38.0-0.0,"""event"",""trial"",""time""
""fullscreenenter"",""0"",""2742""
","
","
","""event"",""trial"",""time""
""fullscreenenter"",""0"",""2742""
","
",null,<p></p>,null,,,,,,,,,,,,,,,,,,,,,,,
,do_trial,53,348754,0.0-38.0-1.0,"""event"",""trial"",""time""
""fullscreenenter"",""0"",""2742""
","
","
","""event"",""trial"",""time""
""fullscreenenter"",""0"",""2742""
","
",855.4,,,,,,,,49,"1,0,1",,,,,,,,,,,,,,,,
,html-keyboard-response,54,349760,0.0-39.0-0.0,"""event"",""trial"",""time""
""fullscreenenter"",""0"",""2742""
","
","
","""event"",""trial"",""time""
""fullscreenenter"",""0"",""2742""
","
",null,<p></p>,null,,,,,,,,,,,,,,,,,,,,,,,
,do_trial,55,355417,0.0-39.0-1.0,"""event"",""trial"",""time""
""fullscreenenter"",""0"",""2742""
","
","
","""event"",""trial"",""time""
""fullscreenenter"",""0"",""2742""
","
",1146.3,,,,,,,,49,"0,1,0",,,,,,,,,,,,,,,,
,html-keyboard-response,56,356423,0.0-40.0-0.0,"""event"",""trial"",""time""
""fullscreenenter"",""0"",""2742""
","
","
","""event"",""trial"",""time""
""fullscreenenter"",""0"",""2742""
","
",null,<p></p>,null,,,,,,,,,,,,,,,,,,,,,,,
,do_trial,57,361744,0.0-40.0-1.0,"""event"",""trial"",""time""
""fullscreenenter"",""0"",""2742""
","
","
","""event"",""trial"",""time""
""fullscreenenter"",""0"",""2742""
","
",807.6,,,,,,,,50,"1,0,0",,,,,,,,,,,,,,,,
,do_bye,58,363257,0.0-41.0-0.0,"""event"",""trial"",""time""
""fullscreenenter"",""0"",""2742""
","
","
","""event"",""trial"",""time""
""fullscreenenter"",""0"",""2742""
","
",null,,,,,,,,null,,,,,,,,,,,,,,,,,
,do_travel,59,372266,0.0-41.0-1.0,"""event"",""trial"",""time""
""fullscreenenter"",""0"",""2742""
","
","
","""event"",""trial"",""time""
""fullscreenenter"",""0"",""2742""
","
",null,,,,,,,,null,,,,,,,,,,,,,,,,,
,do_welcome,60,376278,0.0-41.0-2.0,"""event"",""trial"",""time""
""fullscreenenter"",""0"",""2742""
","
","
","""event"",""trial"",""time""
""fullscreenenter"",""0"",""2742""
","
",null,,,,,,,,null,,,,,,,,,,,,,,,,,
,do_trial,61,381817,0.0-41.0-3.0,"""event"",""trial"",""time""
""fullscreenenter"",""0"",""2742""
","
","
","""event"",""trial"",""time""
""fullscreenenter"",""0"",""2742""
","
",1025.4,,,,,,,,49,"1,0,0",,,,,,,,,,,,,,,,
,html-keyboard-response,62,382822,0.0-42.0-0.0,"""event"",""trial"",""time""
""fullscreenenter"",""0"",""2742""
","
","
","""event"",""trial"",""time""
""fullscreenenter"",""0"",""2742""
","
",null,<p></p>,null,,,,,,,,,,,,,,,,,,,,,,,
,do_trial,63,389418,0.0-42.0-1.0,"""event"",""trial"",""time""
""fullscreenenter"",""0"",""2742""
","
","
","""event"",""trial"",""time""
""fullscreenenter"",""0"",""2742""
","
",2081.2,,,,,,,,51,"1,0,1",,,,,,,,,,,,,,,,
,html-keyboard-response,64,390425,0.0-43.0-0.0,"""event"",""trial"",""time""
""fullscreenenter"",""0"",""2742""
","
","
","""event"",""trial"",""time""
""fullscreenenter"",""0"",""2742""
","
",null,<p></p>,null,,,,,,,,,,,,,,,,,,,,,,,
,do_trial,65,396323,0.0-43.0-1.0,"""event"",""trial"",""time""
""fullscreenenter"",""0"",""2742""
","
","
","""event"",""trial"",""time""
""fullscreenenter"",""0"",""2742""
","
",1388.6,,,,,,,,49,"1,1,0",,,,,,,,,,,,,,,,
,html-keyboard-response,66,397327,0.0-44.0-0.0,"""event"",""trial"",""time""
""fullscreenenter"",""0"",""2742""
","
","
","""event"",""trial"",""time""
""fullscreenenter"",""0"",""2742""
","
",null,<p></p>,null,,,,,,,,,,,,,,,,,,,,,,,
,do_trial,67,403307,0.0-44.0-1.0,"""event"",""trial"",""time""
""fullscreenenter"",""0"",""2742""
","
","
","""event"",""trial"",""time""
""fullscreenenter"",""0"",""2742""
","
",1463.1,,,,,,,,50,"0,0,1",,,,,,,,,,,,,,,,
,html-keyboard-response,68,404309,0.0-45.0-0.0,"""event"",""trial"",""time""
""fullscreenenter"",""0"",""2742""
","
","
","""event"",""trial"",""time""
""fullscreenenter"",""0"",""2742""
","
",null,<p></p>,null,,,,,,,,,,,,,,,,,,,,,,,
,do_trial,69,410325,0.0-45.0-1.0,"""event"",""trial"",""time""
""fullscreenenter"",""0"",""2742""
","
","
","""event"",""trial"",""time""
""fullscreenenter"",""0"",""2742""
","
",null,,,,,,,,null,"1,0,1",,,,,,,,,,,,,,,,
,html-keyboard-response,70,411329,0.0-46.0-0.0,"""event"",""trial"",""time""
""fullscreenenter"",""0"",""2742""
","
","
","""event"",""trial"",""time""
""fullscreenenter"",""0"",""2742""
","
",null,<p></p>,null,,,,,,,,,,,,,,,,,,,,,,,
,do_trial,71,416881,0.0-46.0-1.0,"""event"",""trial"",""time""
""fullscreenenter"",""0"",""2742""
","
","
","""event"",""trial"",""time""
""fullscreenenter"",""0"",""2742""
","
",1041.7,,,,,,,,49,"1,0,1",,,,,,,,,,,,,,,,
,html-keyboard-response,72,421043,0.0-47.0-0.0,"""event"",""trial"",""time""
""fullscreenenter"",""0"",""2742""
","
","
","""event"",""trial"",""time""
""fullscreenenter"",""0"",""2742""
","
",4156.9,<div class='center'><p><img src='run_exp/static/images/tutorial/prac_best_pirate.png'  height='500'></p></div>,49,,,,,,,,,,,,,,,,,,,,,,,
,html-keyboard-response,73,426954,0.0-48.0-0.0,"""event"",""trial"",""time""
""fullscreenenter"",""0"",""2742""
","
","
","""event"",""trial"",""time""
""fullscreenenter"",""0"",""2742""
","
",5909.3,<div class='center'><p>That's correct! Red beard was the best.</p><p><b>[Press the space bar to continue]</b></p></div>,32,,,,,,,,,,,,,,,,,,,,,,,
,html-keyboard-response,74,429848,0.0-48.0-1.0,"""event"",""trial"",""time""
""fullscreenenter"",""0"",""2742""
","
","
","""event"",""trial"",""time""
""fullscreenenter"",""0"",""2742""
","
",2891.9,<div class='center'><p><img src='run_exp/static/images/tutorial/prac_source.png'  height='500'></p></div>,50,,,,,,,,,,,,,,,,,,,,,,,
,html-keyboard-response,75,434125,0.0-49.0-0.0,"""event"",""trial"",""time""
""fullscreenenter"",""0"",""2742""
","
","
","""event"",""trial"",""time""
""fullscreenenter"",""0"",""2742""
","
",4275.2,<div class='center'><p>That's correct! You saw this ship on the cavern island.</p><p><b>[Press the space bar to continue]</b></p></div>,32,,,,,,,,,,,,,,,,,,,,,,,
,quiz_beginning,76,445370,0.0-49.0-1.0,"""event"",""trial"",""time""
""fullscreenenter"",""0"",""2742""
","
","
","""event"",""trial"",""time""
""fullscreenenter"",""0"",""2742""
","
",null,run_exp/static/audio/clip_16_quiz_intro.m4a,null,,,,,"<div class='center'><p>Good job on the practice game! Now, you will be asked some true or false questions to make sure you really understand the rules of the game.</p><p> Press <b>'1'</b> on the keyboard for true and press <b>'2'</b> for false.</p></div>",,,,,,,,,,,,,,,,,,
,audio-keyboard-response,77,450759,0.0-49.0-2.0,"""event"",""trial"",""time""
""fullscreenenter"",""0"",""2742""
","
","
","""event"",""trial"",""time""
""fullscreenenter"",""0"",""2742""
","
",5387.1,run_exp/static/audio/clip_17_q1.m4a,49,,,,,,,,,,,,,,,,,,,,,,,
,correct,78,453178,0.0-50.0-0.0,"""event"",""trial"",""time""
""fullscreenenter"",""0"",""2742""
","
","
","""event"",""trial"",""time""
""fullscreenenter"",""0"",""2742""
","
",null,run_exp/static/audio/clip_18_correct.m4a,null,,,,,<div class='center'><p>That's correct!</p></div>,,,,,,,,,,,,,,,,,,
,html-keyboard-response,79,453898,0.0-50.0-1.0,"""event"",""trial"",""time""
""fullscreenenter"",""0"",""2742""
","
","
","""event"",""trial"",""time""
""fullscreenenter"",""0"",""2742""
","
",719.2,<div class='center'><p>That's correct!</p><p><b>[Press the space bar to continue]</b></p></div>,32,,,,,,,,,,,,,,,,,,,,,,,
,audio-keyboard-response,80,458317,0.0-50.0-2.0,"""event"",""trial"",""time""
""fullscreenenter"",""0"",""2742""
","
","
","""event"",""trial"",""time""
""fullscreenenter"",""0"",""2742""
","
",4417,run_exp/static/audio/clip_20_q2.m4a,50,,,,,,,,,,,,,,,,,,,,,,,
,correct,81,460730,0.0-51.0-0.0,"""event"",""trial"",""time""
""fullscreenenter"",""0"",""2742""
","
","
","""event"",""trial"",""time""
""fullscreenenter"",""0"",""2742""
","
",null,run_exp/static/audio/clip_18_correct.m4a,null,,,,,<div class='center'><p>That's correct!</p></div>,,,,,,,,,,,,,,,,,,
,html-keyboard-response,82,461165,0.0-51.0-1.0,"""event"",""trial"",""time""
""fullscreenenter"",""0"",""2742""
","
","
","""event"",""trial"",""time""
""fullscreenenter"",""0"",""2742""
","
",434.3,<div class='center'><p>That's correct!</p><p><b>[Press the space bar to continue]</b></p></div>,32,,,,,,,,,,,,,,,,,,,,,,,
,audio-keyboard-response,83,464468,0.0-51.0-2.0,"""event"",""trial"",""time""
""fullscreenenter"",""0"",""2742""
","
","
","""event"",""trial"",""time""
""fullscreenenter"",""0"",""2742""
","
",3301.3,run_exp/static/audio/clip_22_q3.m4a,50,,,,,,,,,,,,,,,,,,,,,,,
,correct,84,466874,0.0-52.0-0.0,"""event"",""trial"",""time""
""fullscreenenter"",""0"",""2742""
","
","
","""event"",""trial"",""time""
""fullscreenenter"",""0"",""2742""
","
",null,run_exp/static/audio/clip_18_correct.m4a,null,,,,,<div class='center'><p>That's correct!</p></div>,,,,,,,,,,,,,,,,,,
,html-keyboard-response,85,467355,0.0-52.0-1.0,"""event"",""trial"",""time""
""fullscreenenter"",""0"",""2742""
","
","
","""event"",""trial"",""time""
""fullscreenenter"",""0"",""2742""
","
",480.3,<div class='center'><p>That's correct!</p><p><b>[Press the space bar to continue]</b></p></div>,32,,,,,,,,,,,,,,,,,,,,,,,
,audio-keyboard-response,86,470484,0.0-52.0-2.0,"""event"",""trial"",""time""
""fullscreenenter"",""0"",""2742""
","
","
","""event"",""trial"",""time""
""fullscreenenter"",""0"",""2742""
","
",3127.2,run_exp/static/audio/clip_24_q4.m4a,49,,,,,,,,,,,,,,,,,,,,,,,
,correct,87,472933,0.0-53.0-0.0,"""event"",""trial"",""time""
""fullscreenenter"",""0"",""2742""
","
","
","""event"",""trial"",""time""
""fullscreenenter"",""0"",""2742""
","
",null,run_exp/static/audio/clip_18_correct.m4a,null,,,,,<div class='center'><p>That's correct!</p></div>,,,,,,,,,,,,,,,,,,
,html-keyboard-response,88,474737,0.0-53.0-1.0,"""event"",""trial"",""time""
""fullscreenenter"",""0"",""2742""
","
","
","""event"",""trial"",""time""
""fullscreenenter"",""0"",""2742""
","
",1801.9,<div class='center'><p>That's correct!</p><p><b>[Press the space bar to continue]</b></p></div>,32,,,,,,,,,,,,,,,,,,,,,,,
,q_all_corr,89,483237,0.0-54.0-0.0,"""event"",""trial"",""time""
""fullscreenenter"",""0"",""2742""
","
","
","""event"",""trial"",""time""
""fullscreenenter"",""0"",""2742""
","
",null,run_exp/static/audio/clip_27_quiz_all_correct.m4a,null,,,,,<div class='center'><p>Good job! You’re now ready to move on to the real game! Remember this game will be difficult but don't get discouraged and try your best!</p></div>,,,,,,,,,,,,,,,,,,
,html-keyboard-response,90,493510,0.0-54.0-1.0,"""event"",""trial"",""time""
""fullscreenenter"",""0"",""2742""
","
","
","""event"",""trial"",""time""
""fullscreenenter"",""0"",""2742""
","
",10270.3,<div class='center'><p>Good job! You’re now ready to move on to the real game! Remember this game will be difficult but don't get discouraged and try your best!</p><p><b>[Press the space bar to continue]</b></p></div>,32,,,,,,,,,,,,,,,,,,,,,,,
,do_welcome,91,497521,0.0-55.0-0.0,"""event"",""trial"",""time""
""fullscreenenter"",""0"",""2742""
","
","
","""event"",""trial"",""time""
""fullscreenenter"",""0"",""2742""
","
",null,,,,,,,,null,,,,,,,,,,,,,,,,,
,do_trial,92,503030,0.0-56.0-0.0,"""event"",""trial"",""time""
""fullscreenenter"",""0"",""2742""
","
","
","""event"",""trial"",""time""
""fullscreenenter"",""0"",""2742""
","
",954.4,,,,,,,,50,"1,0,0",0,countryside,0,probe-219,0.6,0.3,0.1,0,,,,,,,,
,html-keyboard-response,93,504038,0.0-56.0-1.0,"""event"",""trial"",""time""
""fullscreenenter"",""0"",""2742""
","
","
","""event"",""trial"",""time""
""fullscreenenter"",""0"",""2742""
","
",null,<p></p>,null,,,,,,,,,,,,,,,,,,,,,,,
,do_trial,94,509467,0.0-57.0-0.0,"""event"",""trial"",""time""
""fullscreenenter"",""0"",""2742""
","
","
","""event"",""trial"",""time""
""fullscreenenter"",""0"",""2742""
","
",876.1,,,,,,,,49,"1,0,0",0,countryside,1,probe-230,0.686845747,0.25924589,0.172200384,1,,,,,,,,
,html-keyboard-response,95,510475,0.0-57.0-1.0,"""event"",""trial"",""time""
""fullscreenenter"",""0"",""2742""
","
","
","""event"",""trial"",""time""
""fullscreenenter"",""0"",""2742""
","
",null,<p></p>,null,,,,,,,,,,,,,,,,,,,,,,,
,do_trial,96,517417,0.0-58.0-0.0,"""event"",""trial"",""time""
""fullscreenenter"",""0"",""2742""
","
","
","""event"",""trial"",""time""
""fullscreenenter"",""0"",""2742""
","
",2386.8,,,,,,,,51,"1,1,0",0,countryside,2,probe-84,0.738970139,0.370609132,0.207756264,0,,,,,,,,
,html-keyboard-response,97,518424,0.0-58.0-1.0,"""event"",""trial"",""time""
""fullscreenenter"",""0"",""2742""
","
","
","""event"",""trial"",""time""
""fullscreenenter"",""0"",""2742""
","
",null,<p></p>,null,,,,,,,,,,,,,,,,,,,,,,,
,do_trial,98,524165,0.0-59.0-0.0,"""event"",""trial"",""time""
""fullscreenenter"",""0"",""2742""
","
","
","""event"",""trial"",""time""
""fullscreenenter"",""0"",""2742""
","
",1189.1,,,,,,,,49,"1,1,0",0,countryside,3,probe-166,0.675642992,0.34255178,0.160245154,1,,,,,,,,
,html-keyboard-response,99,525173,0.0-59.0-1.0,"""event"",""trial"",""time""
""fullscreenenter"",""0"",""2742""
","
","
","""event"",""trial"",""time""
""fullscreenenter"",""0"",""2742""
","
",null,<p></p>,null,,,,,,,,,,,,,,,,,,,,,,,
,do_trial,100,531828,0.0-60.0-0.0,"""event"",""trial"",""time""
""fullscreenenter"",""0"",""2742""
","
","
","""event"",""trial"",""time""
""fullscreenenter"",""0"",""2742""
","
",2101.9,,,,,,,,49,"0,0,0",0,countryside,4,probe-184,0.774188609,0.264540778,0.208641102,0,,,,,,,,
,html-keyboard-response,101,532832,0.0-60.0-1.0,"""event"",""trial"",""time""
""fullscreenenter"",""0"",""2742""
","
","
","""event"",""trial"",""time""
""fullscreenenter"",""0"",""2742""
","
",null,<p></p>,null,,,,,,,,,,,,,,,,,,,,,,,
,do_trial,102,539103,0.0-61.0-0.0,"""event"",""trial"",""time""
""fullscreenenter"",""0"",""2742""
","
","
","""event"",""trial"",""time""
""fullscreenenter"",""0"",""2742""
","
",1721.2,,,,,,,,49,"1,0,1",0,countryside,5,probe-110,0.688728173,0.376266201,0.101934629,1,,,,,,,,
,html-keyboard-response,103,540108,0.0-61.0-1.0,"""event"",""trial"",""time""
""fullscreenenter"",""0"",""2742""
","
","
","""event"",""trial"",""time""
""fullscreenenter"",""0"",""2742""
","
",null,<p></p>,null,,,,,,,,,,,,,,,,,,,,,,,
,do_trial,104,546446,0.0-62.0-0.0,"""event"",""trial"",""time""
""fullscreenenter"",""0"",""2742""
","
","
","""event"",""trial"",""time""
""fullscreenenter"",""0"",""2742""
","
",1783.8,,,,,,,,49,"0,0,1",0,countryside,6,probe-122,0.703115761,0.290366195,0.165873959,0,,,,,,,,
,html-keyboard-response,105,547454,0.0-62.0-1.0,"""event"",""trial"",""time""
""fullscreenenter"",""0"",""2742""
","
","
","""event"",""trial"",""time""
""fullscreenenter"",""0"",""2742""
","
",null,<p></p>,null,,,,,,,,,,,,,,,,,,,,,,,
,do_trial,106,552893,0.0-63.0-0.0,"""event"",""trial"",""time""
""fullscreenenter"",""0"",""2742""
","
","
","""event"",""trial"",""time""
""fullscreenenter"",""0"",""2742""
","
",883.1,,,,,,,,50,"0,0,0",0,countryside,7,probe-11,0.66189144,0.235114886,0.270570661,0,,,,,,,,
,html-keyboard-response,107,553897,0.0-63.0-1.0,"""event"",""trial"",""time""
""fullscreenenter"",""0"",""2742""
","
","
","""event"",""trial"",""time""
""fullscreenenter"",""0"",""2742""
","
",null,<p></p>,null,,,,,,,,,,,,,,,,,,,,,,,
,do_trial,108,559760,0.0-64.0-0.0,"""event"",""trial"",""time""
""fullscreenenter"",""0"",""2742""
","
","
","""event"",""trial"",""time""
""fullscreenenter"",""0"",""2742""
","
",1307.8,,,,,,,,51,"1,0,0",0,countryside,8,probe-226,0.592653765,0.211132892,0.336985106,0,,,,,,,,
,html-keyboard-response,109,560768,0.0-64.0-1.0,"""event"",""trial"",""time""
""fullscreenenter"",""0"",""2742""
","
","
","""event"",""trial"",""time""
""fullscreenenter"",""0"",""2742""
","
",null,<p></p>,null,,,,,,,,,,,,,,,,,,,,,,,
,do_trial,110,565632,0.0-65.0-0.0,"""event"",""trial"",""time""
""fullscreenenter"",""0"",""2742""
","
","
","""event"",""trial"",""time""
""fullscreenenter"",""0"",""2742""
","
",312.7,,,,,,,,49,"1,0,0",0,countryside,9,probe-129,0.665281253,0.311191304,0.117913635,1,,,,,,,,
,html-keyboard-response,111,566638,0.0-65.0-1.0,"""event"",""trial"",""time""
""fullscreenenter"",""0"",""2742""
","
","
","""event"",""trial"",""time""
""fullscreenenter"",""0"",""2742""
","
",null,<p></p>,null,,,,,,,,,,,,,,,,,,,,,,,
,do_trial,112,571737,0.0-66.0-0.0,"""event"",""trial"",""time""
""fullscreenenter"",""0"",""2742""
","
","
","""event"",""trial"",""time""
""fullscreenenter"",""0"",""2742""
","
",545.2,,,,,,,,49,"1,1,0",0,countryside,10,probe-115,0.575969602,0.445042428,0.124390851,1,,,,,,,,
,html-keyboard-response,113,572743,0.0-66.0-1.0,"""event"",""trial"",""time""
""fullscreenenter"",""0"",""2742""
","
","
","""event"",""trial"",""time""
""fullscreenenter"",""0"",""2742""
","
",null,<p></p>,null,,,,,,,,,,,,,,,,,,,,,,,
,do_trial,114,577638,0.0-67.0-0.0,"""event"",""trial"",""time""
""fullscreenenter"",""0"",""2742""
","
","
","""event"",""trial"",""time""
""fullscreenenter"",""0"",""2742""
","
",348.1,,,,,,,,49,"1,0,0",0,countryside,11,probe-25,0.440457378,0.403551856,0.061436382,1,,,,,,,,
,html-keyboard-response,115,578645,0.0-67.0-1.0,"""event"",""trial"",""time""
""fullscreenenter"",""0"",""2742""
","
","
","""event"",""trial"",""time""
""fullscreenenter"",""0"",""2742""
","
",null,<p></p>,null,,,,,,,,,,,,,,,,,,,,,,,
,do_trial,116,583553,0.0-68.0-0.0,"""event"",""trial"",""time""
""fullscreenenter"",""0"",""2742""
","
","
","""event"",""trial"",""time""
""fullscreenenter"",""0"",""2742""
","
",345.8,,,,,,,,49,"1,1,0",0,countryside,12,probe-178,0.4403735,0.376925165,0.15103436,1,,,,,,,,
,html-keyboard-response,117,584561,0.0-68.0-1.0,"""event"",""trial"",""time""
""fullscreenenter"",""0"",""2742""
","
","
","""event"",""trial"",""time""
""fullscreenenter"",""0"",""2742""
","
",null,<p></p>,null,,,,,,,,,,,,,,,,,,,,,,,
,do_trial,118,589666,0.0-69.0-0.0,"""event"",""trial"",""time""
""fullscreenenter"",""0"",""2742""
","
","
","""event"",""trial"",""time""
""fullscreenenter"",""0"",""2742""
","
",557,,,,,,,,49,"1,0,0",0,countryside,13,probe-39,0.506369533,0.452759713,0.147057002,1,,,,,,,,
,html-keyboard-response,119,590669,0.0-69.0-1.0,"""event"",""trial"",""time""
""fullscreenenter"",""0"",""2742""
","
","
","""event"",""trial"",""time""
""fullscreenenter"",""0"",""2742""
","
",null,<p></p>,null,,,,,,,,,,,,,,,,,,,,,,,
,do_trial,120,595718,0.0-70.0-0.0,"""event"",""trial"",""time""
""fullscreenenter"",""0"",""2742""
","
","
","""event"",""trial"",""time""
""fullscreenenter"",""0"",""2742""
","
",499.5,,,,,,,,49,"0,0,0",0,countryside,14,probe-41,0.637381447,0.3402937,0.130272307,0,,,,,,,,
,html-keyboard-response,121,596721,0.0-70.0-1.0,"""event"",""trial"",""time""
""fullscreenenter"",""0"",""2742""
","
","
","""event"",""trial"",""time""
""fullscreenenter"",""0"",""2742""
","
",null,<p></p>,null,,,,,,,,,,,,,,,,,,,,,,,
,do_trial,122,601736,0.0-71.0-0.0,"""event"",""trial"",""time""
""fullscreenenter"",""0"",""2742""
","
","
","""event"",""trial"",""time""
""fullscreenenter"",""0"",""2742""
","
",460.9,,,,,,,,49,"1,0,1",0,countryside,15,probe-161,0.61385441,0.310772633,0.157059454,1,,,,,,,,
,html-keyboard-response,123,602744,0.0-71.0-1.0,"""event"",""trial"",""time""
""fullscreenenter"",""0"",""2742""
","
","
","""event"",""trial"",""time""
""fullscreenenter"",""0"",""2742""
","
",null,<p></p>,null,,,,,,,,,,,,,,,,,,,,,,,
,do_trial,124,607744,0.0-72.0-0.0,"""event"",""trial"",""time""
""fullscreenenter"",""0"",""2742""
","
","
","""event"",""trial"",""time""
""fullscreenenter"",""0"",""2742""
","
",447.3,,,,,,,,49,"0,0,0",0,countryside,16,probe-164,0.506220742,0.29732656,0.358331466,0,,,,,,,,
,html-keyboard-response,125,608749,0.0-72.0-1.0,"""event"",""trial"",""time""
""fullscreenenter"",""0"",""2742""
","
","
","""event"",""trial"",""time""
""fullscreenenter"",""0"",""2742""
","
",null,<p></p>,null,,,,,,,,,,,,,,,,,,,,,,,
,do_trial,126,614074,0.0-73.0-0.0,"""event"",""trial"",""time""
""fullscreenenter"",""0"",""2742""
","
","
","""event"",""trial"",""time""
""fullscreenenter"",""0"",""2742""
","
",774.3,,,,,,,,49,"1,0,0",0,countryside,17,probe-134,0.478324546,0.27496953,0.289486436,1,,,,,,,,
,html-keyboard-response,127,615082,0.0-73.0-1.0,"""event"",""trial"",""time""
""fullscreenenter"",""0"",""2742""
","
","
","""event"",""trial"",""time""
""fullscreenenter"",""0"",""2742""
","
",null,<p></p>,null,,,,,,,,,,,,,,,,,,,,,,,
,do_trial,128,620195,0.0-74.0-0.0,"""event"",""trial"",""time""
""fullscreenenter"",""0"",""2742""
","
","
","""event"",""trial"",""time""
""fullscreenenter"",""0"",""2742""
","
",555.4,,,,,,,,49,"1,0,0",0,countryside,18,probe-167,0.526781107,0.346473673,0.157517361,1,,,,,,,,
,html-keyboard-response,129,621198,0.0-74.0-1.0,"""event"",""trial"",""time""
""fullscreenenter"",""0"",""2742""
","
","
","""event"",""trial"",""time""
""fullscreenenter"",""0"",""2742""
","
",null,<p></p>,null,,,,,,,,,,,,,,,,,,,,,,,
,do_trial,130,626043,0.0-75.0-0.0,"""event"",""trial"",""time""
""fullscreenenter"",""0"",""2742""
","
","
","""event"",""trial"",""time""
""fullscreenenter"",""0"",""2742""
","
",290.4,,,,,,,,49,"0,0,0",0,countryside,19,probe-220,0.634083124,0.307890583,0.057330549,0,,,,,,,,
,html-keyboard-response,131,627049,0.0-75.0-1.0,"""event"",""trial"",""time""
""fullscreenenter"",""0"",""2742""
","
","
","""event"",""trial"",""time""
""fullscreenenter"",""0"",""2742""
","
",null,<p></p>,null,,,,,,,,,,,,,,,,,,,,,,,
,do_trial,132,632015,0.0-76.0-0.0,"""event"",""trial"",""time""
""fullscreenenter"",""0"",""2742""
","
","
","""event"",""trial"",""time""
""fullscreenenter"",""0"",""2742""
","
",414,,,,,,,,49,"1,0,0",0,countryside,20,probe-179,0.598802427,0.299691458,0.164610651,1,,,,,,,,
,html-keyboard-response,133,633020,0.0-76.0-1.0,"""event"",""trial"",""time""
""fullscreenenter"",""0"",""2742""
","
","
","""event"",""trial"",""time""
""fullscreenenter"",""0"",""2742""
","
",null,<p></p>,null,,,,,,,,,,,,,,,,,,,,,,,
,do_trial,134,638095,0.0-77.0-0.0,"""event"",""trial"",""time""
""fullscreenenter"",""0"",""2742""
","
","
","""event"",""trial"",""time""
""fullscreenenter"",""0"",""2742""
","
",520.1,,,,,,,,49,"0,0,0",0,countryside,21,probe-58,0.565227903,0.307489774,0.106889455,0,,,,,,,,
,html-keyboard-response,135,639102,0.0-77.0-1.0,"""event"",""trial"",""time""
""fullscreenenter"",""0"",""2742""
","
","
","""event"",""trial"",""time""
""fullscreenenter"",""0"",""2742""
","
",null,<p></p>,null,,,,,,,,,,,,,,,,,,,,,,,
,do_trial,136,643927,0.0-78.0-0.0,"""event"",""trial"",""time""
""fullscreenenter"",""0"",""2742""
","
","
","""event"",""trial"",""time""
""fullscreenenter"",""0"",""2742""
","
",268.2,,,,,,,,49,"0,0,1",0,countryside,22,probe-159,0.567392199,0.226081478,0.256549809,0,,,,,,,,
,html-keyboard-response,137,644933,0.0-78.0-1.0,"""event"",""trial"",""time""
""fullscreenenter"",""0"",""2742""
","
","
","""event"",""trial"",""time""
""fullscreenenter"",""0"",""2742""
","
",null,<p></p>,null,,,,,,,,,,,,,,,,,,,,,,,
,do_trial,138,649762,0.0-79.0-0.0,"""event"",""trial"",""time""
""fullscreenenter"",""0"",""2742""
","
","
","""event"",""trial"",""time""
""fullscreenenter"",""0"",""2742""
","
",277.2,,,,,,,,50,"0,0,0",0,countryside,23,probe-165,0.582302152,0.251758705,0.188385098,0,,,,,,,,
,html-keyboard-response,139,650765,0.0-79.0-1.0,"""event"",""trial"",""time""
""fullscreenenter"",""0"",""2742""
","
","
","""event"",""trial"",""time""
""fullscreenenter"",""0"",""2742""
","
",null,<p></p>,null,,,,,,,,,,,,,,,,,,,,,,,
,do_trial,140,656601,0.0-80.0-0.0,"""event"",""trial"",""time""
""fullscreenenter"",""0"",""2742""
","
","
","""event"",""trial"",""time""
""fullscreenenter"",""0"",""2742""
","
",1282.5,,,,,,,,50,"1,1,0",0,countryside,24,probe-67,0.594505746,0.405727549,0.2420826,1,,,,,,,,
,html-keyboard-response,141,657610,0.0-80.0-1.0,"""event"",""trial"",""time""
""fullscreenenter"",""0"",""2742""
","
","
","""event"",""trial"",""time""
""fullscreenenter"",""0"",""2742""
","
",null,<p></p>,null,,,,,,,,,,,,,,,,,,,,,,,
,do_trial,142,662573,0.0-81.0-0.0,"""event"",""trial"",""time""
""fullscreenenter"",""0"",""2742""
","
","
","""event"",""trial"",""time""
""fullscreenenter"",""0"",""2742""
","
",407.4,,,,,,,,50,"1,0,0",0,countryside,25,probe-86,0.600304878,0.360434237,0.214014511,0,,,,,,,,
,html-keyboard-response,143,663576,0.0-81.0-1.0,"""event"",""trial"",""time""
""fullscreenenter"",""0"",""2742""
","
","
","""event"",""trial"",""time""
""fullscreenenter"",""0"",""2742""
","
",null,<p></p>,null,,,,,,,,,,,,,,,,,,,,,,,
,do_trial,144,668465,0.0-82.0-0.0,"""event"",""trial"",""time""
""fullscreenenter"",""0"",""2742""
","
","
","""event"",""trial"",""time""
""fullscreenenter"",""0"",""2742""
","
",330.8,,,,,,,,49,"0,0,0",0,countryside,26,probe-222,0.656458047,0.228562205,0.271335245,0,,,,,,,,
,html-keyboard-response,145,669472,0.0-82.0-1.0,"""event"",""trial"",""time""
""fullscreenenter"",""0"",""2742""
","
","
","""event"",""trial"",""time""
""fullscreenenter"",""0"",""2742""
","
",null,<p></p>,null,,,,,,,,,,,,,,,,,,,,,,,
,do_trial,146,674428,0.0-83.0-0.0,"""event"",""trial"",""time""
""fullscreenenter"",""0"",""2742""
","
","
","""event"",""trial"",""time""
""fullscreenenter"",""0"",""2742""
","
",396.1,,,,,,,,49,"1,0,0",0,countryside,27,probe-99,0.665483693,0.365521083,0.191154768,1,,,,,,,,
,html-keyboard-response,147,675432,0.0-83.0-1.0,"""event"",""trial"",""time""
""fullscreenenter"",""0"",""2742""
","
","
","""event"",""trial"",""time""
""fullscreenenter"",""0"",""2742""
","
",null,<p></p>,null,,,,,,,,,,,,,,,,,,,,,,,
,do_trial,148,680434,0.0-84.0-0.0,"""event"",""trial"",""time""
""fullscreenenter"",""0"",""2742""
","
","
","""event"",""trial"",""time""
""fullscreenenter"",""0"",""2742""
","
",448,,,,,,,,49,"1,1,0",0,countryside,28,probe-118,0.633650841,0.442920829,0.154580688,1,,,,,,,,
,html-keyboard-response,149,681441,0.0-84.0-1.0,"""event"",""trial"",""time""
""fullscreenenter"",""0"",""2742""
","
","
","""event"",""trial"",""time""
""fullscreenenter"",""0"",""2742""
","
",null,<p></p>,null,,,,,,,,,,,,,,,,,,,,,,,
,do_trial,150,686624,0.0-85.0-0.0,"""event"",""trial"",""time""
""fullscreenenter"",""0"",""2742""
","
","
","""event"",""trial"",""time""
""fullscreenenter"",""0"",""2742""
","
",639.3,,,,,,,,49,"1,0,0",0,countryside,29,probe-46,0.64110329,0.398415214,0.194362518,1,,,,,,,,
,html-keyboard-response,151,687627,0.0-85.0-1.0,"""event"",""trial"",""time""
""fullscreenenter"",""0"",""2742""
","
","
","""event"",""trial"",""time""
""fullscreenenter"",""0"",""2742""
","
",null,<p></p>,null,,,,,,,,,,,,,,,,,,,,,,,
,do_bye,152,689140,0.0-86.0-0.0,"""event"",""trial"",""time""
""fullscreenenter"",""0"",""2742""
","
","
","""event"",""trial"",""time""
""fullscreenenter"",""0"",""2742""
","
",null,,,,,,,,null,,,,,,,,,,,,,,,,,
,break,153,752984,0.0-86.0-1.0,"""event"",""trial"",""time""
""fullscreenenter"",""0"",""2742""
","
","
","""event"",""trial"",""time""
""fullscreenenter"",""0"",""2742""
","
",63843.6,"<div class='center'><p>Time to take a quick break! You have 2 minutes to rest, but you can move on sooner if you'd like.</p><p> Press the <b>space bar</b> to continue.</p></div>",32,,,,,,,,,,,,,,,,,,,,,,,
,do_travel,154,761992,0.0-87.0-0.0,"""event"",""trial"",""time""
""fullscreenenter"",""0"",""2742""
","
","
","""event"",""trial"",""time""
""fullscreenenter"",""0"",""2742""
","
",null,,,,,,,,null,,,,,,,,,,,,,,,,,
,do_welcome,155,766000,0.0-87.0-1.0,"""event"",""trial"",""time""
""fullscreenenter"",""0"",""2742""
","
","
","""event"",""trial"",""time""
""fullscreenenter"",""0"",""2742""
","
",null,,,,,,,,null,,,,,,,,,,,,,,,,,
,do_trial,156,772014,0.0-88.0-0.0,"""event"",""trial"",""time""
""fullscreenenter"",""0"",""2742""
","
","
","""event"",""trial"",""time""
""fullscreenenter"",""0"",""2742""
","
",1456.7,,,,,,,,51,"1,1,0",1,forest,30,probe-138,1,0.29509775,0.165960808,0,,,,,,,,
,html-keyboard-response,157,773017,0.0-88.0-1.0,"""event"",""trial"",""time""
""fullscreenenter"",""0"",""2742""
","
","
","""event"",""trial"",""time""
""fullscreenenter"",""0"",""2742""
","
",null,<p></p>,null,,,,,,,,,,,,,,,,,,,,,,,
,do_trial,158,778830,0.0-89.0-0.0,"""event"",""trial"",""time""
""fullscreenenter"",""0"",""2742""
","
","
","""event"",""trial"",""time""
""fullscreenenter"",""0"",""2742""
","
",1257.7,,,,,,,,51,"1,1,0",1,forest,31,probe-97,1,0.387081581,0.16195487,0,,,,,,,,
,html-keyboard-response,159,779838,0.0-89.0-1.0,"""event"",""trial"",""time""
""fullscreenenter"",""0"",""2742""
","
","
","""event"",""trial"",""time""
""fullscreenenter"",""0"",""2742""
","
",null,<p></p>,null,,,,,,,,,,,,,,,,,,,,,,,
,do_trial,160,784677,0.0-90.0-0.0,"""event"",""trial"",""time""
""fullscreenenter"",""0"",""2742""
","
","
","""event"",""trial"",""time""
""fullscreenenter"",""0"",""2742""
","
",290.4,,,,,,,,50,"1,1,0",1,forest,32,probe-172,1,0.461713025,0.191700383,1,,,,,,,,
,html-keyboard-response,161,785685,0.0-90.0-1.0,"""event"",""trial"",""time""
""fullscreenenter"",""0"",""2742""
","
","
","""event"",""trial"",""time""
""fullscreenenter"",""0"",""2742""
","
",null,<p></p>,null,,,,,,,,,,,,,,,,,,,,,,,
,do_trial,162,790240,0.0-91.0-0.0,"""event"",""trial"",""time""
""fullscreenenter"",""0"",""2742""
","
","
","""event"",""trial"",""time""
""fullscreenenter"",""0"",""2742""
","
",0.099999994,,,,,,,,50,"1,1,0",1,forest,33,probe-55,0.862579261,0.51040602,0.116143722,1,,,,,,,,
,html-keyboard-response,163,791248,0.0-91.0-1.0,"""event"",""trial"",""time""
""fullscreenenter"",""0"",""2742""
","
","
","""event"",""trial"",""time""
""fullscreenenter"",""0"",""2742""
","
",null,<p></p>,null,,,,,,,,,,,,,,,,,,,,,,,
,do_trial,164,796121,0.0-92.0-0.0,"""event"",""trial"",""time""
""fullscreenenter"",""0"",""2742""
","
","
","""event"",""trial"",""time""
""fullscreenenter"",""0"",""2742""
","
",321.2,,,,,,,,50,"1,1,0",1,forest,34,probe-228,0.738845823,0.466494326,0.056243668,1,,,,,,,,
,html-keyboard-response,165,797129,0.0-92.0-1.0,"""event"",""trial"",""time""
""fullscreenenter"",""0"",""2742""
","
","
","""event"",""trial"",""time""
""fullscreenenter"",""0"",""2742""
","
",null,<p></p>,null,,,,,,,,,,,,,,,,,,,,,,,
,do_trial,166,801924,0.0-93.0-0.0,"""event"",""trial"",""time""
""fullscreenenter"",""0"",""2742""
","
","
","""event"",""trial"",""time""
""fullscreenenter"",""0"",""2742""
","
",243.2,,,,,,,,50,"1,0,0",1,forest,35,probe-59,0.714174583,0.194799513,0.096907485,0,,,,,,,,
,html-keyboard-response,167,802928,0.0-93.0-1.0,"""event"",""trial"",""time""
""fullscreenenter"",""0"",""2742""
","
","
","""event"",""trial"",""time""
""fullscreenenter"",""0"",""2742""
","
",null,<p></p>,null,,,,,,,,,,,,,,,,,,,,,,,
,do_trial,168,807538,0.0-94.0-0.0,"""event"",""trial"",""time""
""fullscreenenter"",""0"",""2742""
","
","
","""event"",""trial"",""time""
""fullscreenenter"",""0"",""2742""
","
",64.90000001,,,,,,,,50,"0,0,0",1,forest,36,probe-198,0.489353605,0.22224912,0.078252551,0,,,,,,,,
,html-keyboard-response,169,808543,0.0-94.0-1.0,"""event"",""trial"",""time""
""fullscreenenter"",""0"",""2742""
","
","
","""event"",""trial"",""time""
""fullscreenenter"",""0"",""2742""
","
",null,<p></p>,null,,,,,,,,,,,,,,,,,,,,,,,
,do_trial,170,814445,0.0-95.0-0.0,"""event"",""trial"",""time""
""fullscreenenter"",""0"",""2742""
","
","
","""event"",""trial"",""time""
""fullscreenenter"",""0"",""2742""
","
",1342,,,,,,,,50,"1,1,0",1,forest,37,probe-16,0.661403571,0.247960258,0.124076617,1,,,,,,,,
,html-keyboard-response,171,815452,0.0-95.0-1.0,"""event"",""trial"",""time""
""fullscreenenter"",""0"",""2742""
","
","
","""event"",""trial"",""time""
""fullscreenenter"",""0"",""2742""
","
",null,<p></p>,null,,,,,,,,,,,,,,,,,,,,,,,
,do_trial,172,820005,0.0-96.0-0.0,"""event"",""trial"",""time""
""fullscreenenter"",""0"",""2742""
","
","
","""event"",""trial"",""time""
""fullscreenenter"",""0"",""2742""
","
",0.200000018,,,,,,,,50,"1,0,0",1,forest,38,probe-196,0.732363252,0.229859808,0.057899699,0,,,,,,,,
,html-keyboard-response,173,821012,0.0-96.0-1.0,"""event"",""trial"",""time""
""fullscreenenter"",""0"",""2742""
","
","
","""event"",""trial"",""time""
""fullscreenenter"",""0"",""2742""
","
",null,<p></p>,null,,,,,,,,,,,,,,,,,,,,,,,
,do_trial,174,825904,0.0-97.0-0.0,"""event"",""trial"",""time""
""fullscreenenter"",""0"",""2742""
","
","
","""event"",""trial"",""time""
""fullscreenenter"",""0"",""2742""
","
",341.9,,,,,,,,50,"1,0,0",1,forest,39,probe-150,0.607990883,0.280039669,0.112986277,0,,,,,,,,
,html-keyboard-response,175,826912,0.0-97.0-1.0,"""event"",""trial"",""time""
""fullscreenenter"",""0"",""2742""
","
","
","""event"",""trial"",""time""
""fullscreenenter"",""0"",""2742""
","
",null,<p></p>,null,,,,,,,,,,,,,,,,,,,,,,,
,do_trial,176,831489,0.0-98.0-0.0,"""event"",""trial"",""time""
""fullscreenenter"",""0"",""2742""
","
","
","""event"",""trial"",""time""
""fullscreenenter"",""0"",""2742""
","
",27.59999999,,,,,,,,49,"1,0,0",1,forest,40,probe-206,0.607814411,0.239121274,0.074569336,1,,,,,,,,
,html-keyboard-response,177,832494,0.0-98.0-1.0,"""event"",""trial"",""time""
""fullscreenenter"",""0"",""2742""
","
","
","""event"",""trial"",""time""
""fullscreenenter"",""0"",""2742""
","
",null,<p></p>,null,,,,,,,,,,,,,,,,,,,,,,,
,do_trial,178,837294,0.0-99.0-0.0,"""event"",""trial"",""time""
""fullscreenenter"",""0"",""2742""
","
","
","""event"",""trial"",""time""
""fullscreenenter"",""0"",""2742""
","
",249.3,,,,,,,,49,"1,0,0",1,forest,41,probe-190,0.655933259,0.307335117,0.121822425,1,,,,,,,,
,html-keyboard-response,179,838302,0.0-99.0-1.0,"""event"",""trial"",""time""
""fullscreenenter"",""0"",""2742""
","
","
","""event"",""trial"",""time""
""fullscreenenter"",""0"",""2742""
","
",null,<p></p>,null,,,,,,,,,,,,,,,,,,,,,,,
,do_trial,180,843219,0.0-100.0-0.0,"""event"",""trial"",""time""
""fullscreenenter"",""0"",""2742""
","
","
","""event"",""trial"",""time""
""fullscreenenter"",""0"",""2742""
","
",361.2,,,,,,,,49,"1,0,0",1,forest,42,probe-31,0.346871535,0.193960503,0.277248462,1,,,,,,,,
,html-keyboard-response,181,844222,0.0-100.0-1.0,"""event"",""trial"",""time""
""fullscreenenter"",""0"",""2742""
","
","
","""event"",""trial"",""time""
""fullscreenenter"",""0"",""2742""
","
",null,<p></p>,null,,,,,,,,,,,,,,,,,,,,,,,
,do_trial,182,850014,0.0-101.0-0.0,"""event"",""trial"",""time""
""fullscreenenter"",""0"",""2742""
","
","
","""event"",""trial"",""time""
""fullscreenenter"",""0"",""2742""
","
",1235.9,,,,,,,,49,"0,0,1",1,forest,43,probe-170,0.280921633,0.151041896,0.291080833,0,,,,,,,,
,html-keyboard-response,183,851019,0.0-101.0-1.0,"""event"",""trial"",""time""
""fullscreenenter"",""0"",""2742""
","
","
","""event"",""trial"",""time""
""fullscreenenter"",""0"",""2742""
","
",null,<p></p>,null,,,,,,,,,,,,,,,,,,,,,,,
,do_trial,184,855803,0.0-102.0-0.0,"""event"",""trial"",""time""
""fullscreenenter"",""0"",""2742""
","
","
","""event"",""trial"",""time""
""fullscreenenter"",""0"",""2742""
","
",233.6,,,,,,,,49,"0,0,1",1,forest,44,probe-71,0.207013601,0.127567173,0.500025705,0,,,,,,,,
,html-keyboard-response,185,856808,0.0-102.0-1.0,"""event"",""trial"",""time""
""fullscreenenter"",""0"",""2742""
","
","
","""event"",""trial"",""time""
""fullscreenenter"",""0"",""2742""
","
",null,<p></p>,null,,,,,,,,,,,,,,,,,,,,,,,
,do_trial,186,861784,0.0-103.0-0.0,"""event"",""trial"",""time""
""fullscreenenter"",""0"",""2742""
","
","
","""event"",""trial"",""time""
""fullscreenenter"",""0"",""2742""
","
",414.4,,,,,,,,50,"1,0,1",1,forest,45,probe-177,0.332649912,0.093176041,0.629496459,0,,,,,,,,
,html-keyboard-response,187,862789,0.0-103.0-1.0,"""event"",""trial"",""time""
""fullscreenenter"",""0"",""2742""
","
","
","""event"",""trial"",""time""
""fullscreenenter"",""0"",""2742""
","
",null,<p></p>,null,,,,,,,,,,,,,,,,,,,,,,,
,do_trial,188,868013,0.0-104.0-0.0,"""event"",""trial"",""time""
""fullscreenenter"",""0"",""2742""
","
","
","""event"",""trial"",""time""
""fullscreenenter"",""0"",""2742""
","
",668.8,,,,,,,,49,"0,0,1",1,forest,46,probe-163,0.197461326,0.176877399,0.644494814,0,,,,,,,,
,html-keyboard-response,189,869017,0.0-104.0-1.0,"""event"",""trial"",""time""
""fullscreenenter"",""0"",""2742""
","
","
","""event"",""trial"",""time""
""fullscreenenter"",""0"",""2742""
","
",null,<p></p>,null,,,,,,,,,,,,,,,,,,,,,,,
,do_trial,190,873915,0.0-105.0-0.0,"""event"",""trial"",""time""
""fullscreenenter"",""0"",""2742""
","
","
","""event"",""trial"",""time""
""fullscreenenter"",""0"",""2742""
","
",342.8,,,,,,,,49,"0,0,1",1,forest,47,probe-141,0.135680155,0.15933161,0.676015,0,,,,,,,,
,html-keyboard-response,191,874922,0.0-105.0-1.0,"""event"",""trial"",""time""
""fullscreenenter"",""0"",""2742""
","
","
","""event"",""trial"",""time""
""fullscreenenter"",""0"",""2742""
","
",null,<p></p>,null,,,,,,,,,,,,,,,,,,,,,,,
,do_trial,192,880267,0.0-106.0-0.0,"""event"",""trial"",""time""
""fullscreenenter"",""0"",""2742""
","
","
","""event"",""trial"",""time""
""fullscreenenter"",""0"",""2742""
","
",788.1,,,,,,,,49,"0,0,0",1,forest,48,probe-125,0.210051984,0.096919795,0.701360916,0,,,,,,,,
,html-keyboard-response,193,881274,0.0-106.0-1.0,"""event"",""trial"",""time""
""fullscreenenter"",""0"",""2742""
","
","
","""event"",""trial"",""time""
""fullscreenenter"",""0"",""2742""
","
",null,<p></p>,null,,,,,,,,,,,,,,,,,,,,,,,
,do_trial,194,886635,0.0-107.0-0.0,"""event"",""trial"",""time""
""fullscreenenter"",""0"",""2742""
","
","
","""event"",""trial"",""time""
""fullscreenenter"",""0"",""2742""
","
",813.6,,,,,,,,51,"0,0,1",1,forest,49,probe-213,0.280711237,0.172558938,0.742076037,1,,,,,,,,
,html-keyboard-response,195,887642,0.0-107.0-1.0,"""event"",""trial"",""time""
""fullscreenenter"",""0"",""2742""
","
","
","""event"",""trial"",""time""
""fullscreenenter"",""0"",""2742""
","
",null,<p></p>,null,,,,,,,,,,,,,,,,,,,,,,,
,do_trial,196,892865,0.0-108.0-0.0,"""event"",""trial"",""time""
""fullscreenenter"",""0"",""2742""
","
","
","""event"",""trial"",""time""
""fullscreenenter"",""0"",""2742""
","
",667.1,,,,,,,,51,"0,1,1",1,forest,50,probe-132,0.254097859,0.15864707,0.694301615,1,,,,,,,,
,html-keyboard-response,197,893868,0.0-108.0-1.0,"""event"",""trial"",""time""
""fullscreenenter"",""0"",""2742""
","
","
","""event"",""trial"",""time""
""fullscreenenter"",""0"",""2742""
","
",null,<p></p>,null,,,,,,,,,,,,,,,,,,,,,,,
,do_trial,198,899245,0.0-109.0-0.0,"""event"",""trial"",""time""
""fullscreenenter"",""0"",""2742""
","
","
","""event"",""trial"",""time""
""fullscreenenter"",""0"",""2742""
","
",823.5,,,,,,,,51,"0,0,1",1,forest,51,probe-101,0.316059816,0.222053537,0.682181348,1,,,,,,,,
,html-keyboard-response,199,900250,0.0-109.0-1.0,"""event"",""trial"",""time""
""fullscreenenter"",""0"",""2742""
","
","
","""event"",""trial"",""time""
""fullscreenenter"",""0"",""2742""
","
",null,<p></p>,null,,,,,,,,,,,,,,,,,,,,,,,
,do_trial,200,905329,0.0-110.0-0.0,"""event"",""trial"",""time""
""fullscreenenter"",""0"",""2742""
","
","
","""event"",""trial"",""time""
""fullscreenenter"",""0"",""2742""
","
",521.4,,,,,,,,51,"0,0,1",1,forest,52,probe-49,0.338760951,0.132791877,0.543566995,1,,,,,,,,
,html-keyboard-response,201,906335,0.0-110.0-1.0,"""event"",""trial"",""time""
""fullscreenenter"",""0"",""2742""
","
","
","""event"",""trial"",""time""
""fullscreenenter"",""0"",""2742""
","
",null,<p></p>,null,,,,,,,,,,,,,,,,,,,,,,,
,do_trial,202,911309,0.0-111.0-0.0,"""event"",""trial"",""time""
""fullscreenenter"",""0"",""2742""
","
","
","""event"",""trial"",""time""
""fullscreenenter"",""0"",""2742""
","
",419.5,,,,,,,,51,"1,0,0",1,forest,53,probe-85,0.421638417,0.08541311,0.595117017,0,,,,,,,,
,html-keyboard-response,203,912314,0.0-111.0-1.0,"""event"",""trial"",""time""
""fullscreenenter"",""0"",""2742""
","
","
","""event"",""trial"",""time""
""fullscreenenter"",""0"",""2742""
","
",null,<p></p>,null,,,,,,,,,,,,,,,,,,,,,,,
,do_trial,204,916868,0.0-112.0-0.0,"""event"",""trial"",""time""
""fullscreenenter"",""0"",""2742""
","
","
","""event"",""trial"",""time""
""fullscreenenter"",""0"",""2742""
","
",0.900000006,,,,,,,,50,"1,1,1",1,forest,54,probe-76,0.360513811,0.151544741,0.591053806,1,,,,,,,,
,html-keyboard-response,205,917871,0.0-112.0-1.0,"""event"",""trial"",""time""
""fullscreenenter"",""0"",""2742""
","
","
","""event"",""trial"",""time""
""fullscreenenter"",""0"",""2742""
","
",null,<p></p>,null,,,,,,,,,,,,,,,,,,,,,,,
,do_trial,206,922832,0.0-113.0-0.0,"""event"",""trial"",""time""
""fullscreenenter"",""0"",""2742""
","
","
","""event"",""trial"",""time""
""fullscreenenter"",""0"",""2742""
","
",404.9,,,,,,,,51,"0,0,0",1,forest,55,probe-139,0.440650784,0.210210933,0.536906368,0,,,,,,,,
,html-keyboard-response,207,923839,0.0-113.0-1.0,"""event"",""trial"",""time""
""fullscreenenter"",""0"",""2742""
","
","
","""event"",""trial"",""time""
""fullscreenenter"",""0"",""2742""
","
",null,<p></p>,null,,,,,,,,,,,,,,,,,,,,,,,
,do_trial,208,928839,0.0-114.0-0.0,"""event"",""trial"",""time""
""fullscreenenter"",""0"",""2742""
","
","
","""event"",""trial"",""time""
""fullscreenenter"",""0"",""2742""
","
",448.1,,,,,,,,49,"0,1,1",1,forest,56,probe-82,0.306840246,0.106927582,0.574196424,0,,,,,,,,
,html-keyboard-response,209,929844,0.0-114.0-1.0,"""event"",""trial"",""time""
""fullscreenenter"",""0"",""2742""
","
","
","""event"",""trial"",""time""
""fullscreenenter"",""0"",""2742""
","
",null,<p></p>,null,,,,,,,,,,,,,,,,,,,,,,,
,do_trial,210,934611,0.0-115.0-0.0,"""event"",""trial"",""time""
""fullscreenenter"",""0"",""2742""
","
","
","""event"",""trial"",""time""
""fullscreenenter"",""0"",""2742""
","
",208.4,,,,,,,,51,"0,0,0",1,forest,57,probe-19,0.206184555,0.055323357,0.529452531,0,,,,,,,,
,html-keyboard-response,211,935618,0.0-115.0-1.0,"""event"",""trial"",""time""
""fullscreenenter"",""0"",""2742""
","
","
","""event"",""trial"",""time""
""fullscreenenter"",""0"",""2742""
","
",null,<p></p>,null,,,,,,,,,,,,,,,,,,,,,,,
,do_trial,212,941227,0.0-116.0-0.0,"""event"",""trial"",""time""
""fullscreenenter"",""0"",""2742""
","
","
","""event"",""trial"",""time""
""fullscreenenter"",""0"",""2742""
","
",1056.3,,,,,,,,51,"0,0,1",1,forest,58,probe-93,0.1588346,0.118398909,0.583682789,1,,,,,,,,
,html-keyboard-response,213,942233,0.0-116.0-1.0,"""event"",""trial"",""time""
""fullscreenenter"",""0"",""2742""
","
","
","""event"",""trial"",""time""
""fullscreenenter"",""0"",""2742""
","
",null,<p></p>,null,,,,,,,,,,,,,,,,,,,,,,,
,do_trial,214,946838,0.0-117.0-0.0,"""event"",""trial"",""time""
""fullscreenenter"",""0"",""2742""
","
","
","""event"",""trial"",""time""
""fullscreenenter"",""0"",""2742""
","
",47.59999999,,,,,,,,51,"0,0,0",1,forest,59,probe-207,0.257837933,0.058424087,0.518160558,0,,,,,,,,
,html-keyboard-response,215,947843,0.0-117.0-1.0,"""event"",""trial"",""time""
""fullscreenenter"",""0"",""2742""
","
","
","""event"",""trial"",""time""
""fullscreenenter"",""0"",""2742""
","
",null,<p></p>,null,,,,,,,,,,,,,,,,,,,,,,,
,do_trial,216,953207,0.0-118.0-0.0,"""event"",""trial"",""time""
""fullscreenenter"",""0"",""2742""
","
","
","""event"",""trial"",""time""
""fullscreenenter"",""0"",""2742""
","
",813.5,,,,,,,,51,"0,0,0",1,forest,60,probe-215,0.193365378,0.085873786,0.480066795,0,,,,,,,,
,html-keyboard-response,217,954215,0.0-118.0-1.0,"""event"",""trial"",""time""
""fullscreenenter"",""0"",""2742""
","
","
","""event"",""trial"",""time""
""fullscreenenter"",""0"",""2742""
","
",null,<p></p>,null,,,,,,,,,,,,,,,,,,,,,,,
,do_trial,218,959055,0.0-119.0-0.0,"""event"",""trial"",""time""
""fullscreenenter"",""0"",""2742""
","
","
","""event"",""trial"",""time""
""fullscreenenter"",""0"",""2742""
","
",290.8,,,,,,,,51,"0,0,0",1,forest,61,probe-27,0.161072012,0.186185672,0.51155555,0,,,,,,,,
,html-keyboard-response,219,960063,0.0-119.0-1.0,"""event"",""trial"",""time""
""fullscreenenter"",""0"",""2742""
","
","
","""event"",""trial"",""time""
""fullscreenenter"",""0"",""2742""
","
",null,<p></p>,null,,,,,,,,,,,,,,,,,,,,,,,
,do_trial,220,965138,0.0-120.0-0.0,"""event"",""trial"",""time""
""fullscreenenter"",""0"",""2742""
","
","
","""event"",""trial"",""time""
""fullscreenenter"",""0"",""2742""
","
",524.4,,,,,,,,51,"0,0,1",1,forest,62,probe-43,0.185103347,0.211202244,0.397410631,1,,,,,,,,
,html-keyboard-response,221,966143,0.0-120.0-1.0,"""event"",""trial"",""time""
""fullscreenenter"",""0"",""2742""
","
","
","""event"",""trial"",""time""
""fullscreenenter"",""0"",""2742""
","
",null,<p></p>,null,,,,,,,,,,,,,,,,,,,,,,,
,do_trial,222,970900,0.0-121.0-0.0,"""event"",""trial"",""time""
""fullscreenenter"",""0"",""2742""
","
","
","""event"",""trial"",""time""
""fullscreenenter"",""0"",""2742""
","
",209.1,,,,,,,,51,"0,0,1",1,forest,63,probe-193,0.213854847,0.362882961,0.524808119,1,,,,,,,,
,html-keyboard-response,223,971907,0.0-121.0-1.0,"""event"",""trial"",""time""
""fullscreenenter"",""0"",""2742""
","
","
","""event"",""trial"",""time""
""fullscreenenter"",""0"",""2742""
","
",null,<p></p>,null,,,,,,,,,,,,,,,,,,,,,,,
,do_trial,224,976814,0.0-122.0-0.0,"""event"",""trial"",""time""
""fullscreenenter"",""0"",""2742""
","
","
","""event"",""trial"",""time""
""fullscreenenter"",""0"",""2742""
","
",357.4,,,,,,,,51,"0,0,1",1,forest,64,probe-185,0.342817335,0.303993334,0.567756358,1,,,,,,,,
,html-keyboard-response,225,977819,0.0-122.0-1.0,"""event"",""trial"",""time""
""fullscreenenter"",""0"",""2742""
","
","
","""event"",""trial"",""time""
""fullscreenenter"",""0"",""2742""
","
",null,<p></p>,null,,,,,,,,,,,,,,,,,,,,,,,
,do_trial,226,982919,0.0-123.0-0.0,"""event"",""trial"",""time""
""fullscreenenter"",""0"",""2742""
","
","
","""event"",""trial"",""time""
""fullscreenenter"",""0"",""2742""
","
",545.8,,,,,,,,51,"0,0,1",1,forest,65,probe-133,0.255541326,0.243421374,0.578677202,1,,,,,,,,
,html-keyboard-response,227,983926,0.0-123.0-1.0,"""event"",""trial"",""time""
""fullscreenenter"",""0"",""2742""
","
","
","""event"",""trial"",""time""
""fullscreenenter"",""0"",""2742""
","
",null,<p></p>,null,,,,,,,,,,,,,,,,,,,,,,,
,do_trial,228,988909,0.0-124.0-0.0,"""event"",""trial"",""time""
""fullscreenenter"",""0"",""2742""
","
","
","""event"",""trial"",""time""
""fullscreenenter"",""0"",""2742""
","
",426.5,,,,,,,,51,"1,0,1",1,forest,66,probe-191,0.219128303,0.309825782,0.531480457,1,,,,,,,,
,html-keyboard-response,229,989915,0.0-124.0-1.0,"""event"",""trial"",""time""
""fullscreenenter"",""0"",""2742""
","
","
","""event"",""trial"",""time""
""fullscreenenter"",""0"",""2742""
","
",null,<p></p>,null,,,,,,,,,,,,,,,,,,,,,,,
,do_trial,230,994604,0.0-125.0-0.0,"""event"",""trial"",""time""
""fullscreenenter"",""0"",""2742""
","
","
","""event"",""trial"",""time""
""fullscreenenter"",""0"",""2742""
","
",138.2,,,,,,,,51,"0,0,1",1,forest,67,probe-72,0.308402966,0.170148986,0.514097298,1,,,,,,,,
,html-keyboard-response,231,995612,0.0-125.0-1.0,"""event"",""trial"",""time""
""fullscreenenter"",""0"",""2742""
","
","
","""event"",""trial"",""time""
""fullscreenenter"",""0"",""2742""
","
",null,<p></p>,null,,,,,,,,,,,,,,,,,,,,,,,
,do_trial,232,1000406,0.0-126.0-0.0,"""event"",""trial"",""time""
""fullscreenenter"",""0"",""2742""
","
","
","""event"",""trial"",""time""
""fullscreenenter"",""0"",""2742""
","
",243.7,,,,,,,,51,"0,0,1",1,forest,68,probe-45,0.300516382,0.166315602,0.691856894,1,,,,,,,,
,html-keyboard-response,233,1001411,0.0-126.0-1.0,"""event"",""trial"",""time""
""fullscreenenter"",""0"",""2742""
","
","
","""event"",""trial"",""time""
""fullscreenenter"",""0"",""2742""
","
",null,<p></p>,null,,,,,,,,,,,,,,,,,,,,,,,
,do_trial,234,1006223,0.0-127.0-0.0,"""event"",""trial"",""time""
""fullscreenenter"",""0"",""2742""
","
","
","""event"",""trial"",""time""
""fullscreenenter"",""0"",""2742""
","
",257.1,,,,,,,,51,"1,1,0",1,forest,69,probe-211,0.299815035,0.178451753,0.478800939,0,,,,,,,,
,html-keyboard-response,235,1007231,0.0-127.0-1.0,"""event"",""trial"",""time""
""fullscreenenter"",""0"",""2742""
","
","
","""event"",""trial"",""time""
""fullscreenenter"",""0"",""2742""
","
",null,<p></p>,null,,,,,,,,,,,,,,,,,,,,,,,
,do_bye,236,1008737,0.0-128.0-0.0,"""event"",""trial"",""time""
""fullscreenenter"",""0"",""2742""
","
","
","""event"",""trial"",""time""
""fullscreenenter"",""0"",""2742""
","
",null,,,,,,,,null,,,,,,,,,,,,,,,,,
,break,237,1084648,0.0-128.0-1.0,"""event"",""trial"",""time""
""fullscreenenter"",""0"",""2742""
","
","
","""event"",""trial"",""time""
""fullscreenenter"",""0"",""2742""
","
",75910.1,"<div class='center'><p>Time to take a quick break! You have 2 minutes to rest, but you can move on sooner if you'd like.</p><p> Press the <b>space bar</b> to continue.</p></div>",32,,,,,,,,,,,,,,,,,,,,,,,
,do_travel,238,1093653,0.0-129.0-0.0,"""event"",""trial"",""time""
""fullscreenenter"",""0"",""2742""
","
","
","""event"",""trial"",""time""
""fullscreenenter"",""0"",""2742""
","
",null,,,,,,,,null,,,,,,,,,,,,,,,,,
,do_welcome,239,1097667,0.0-129.0-1.0,"""event"",""trial"",""time""
""fullscreenenter"",""0"",""2742""
","
","
","""event"",""trial"",""time""
""fullscreenenter"",""0"",""2742""
","
",null,,,,,,,,null,,,,,,,,,,,,,,,,,
,do_trial,240,1103903,0.0-130.0-0.0,"""event"",""trial"",""time""
""fullscreenenter"",""0"",""2742""
","
","
","""event"",""trial"",""time""
""fullscreenenter"",""0"",""2742""
","
",1681.2,,,,,,,,50,"0,0,1",2,coast,70,probe-36,0.339140675,0.237745442,1,0,,,,,,,,
,html-keyboard-response,241,1104908,0.0-130.0-1.0,"""event"",""trial"",""time""
""fullscreenenter"",""0"",""2742""
","
","
","""event"",""trial"",""time""
""fullscreenenter"",""0"",""2742""
","
",null,<p></p>,null,,,,,,,,,,,,,,,,,,,,,,,
,do_trial,242,1109780,0.0-131.0-0.0,"""event"",""trial"",""time""
""fullscreenenter"",""0"",""2742""
","
","
","""event"",""trial"",""time""
""fullscreenenter"",""0"",""2742""
","
",322,,,,,,,,50,"0,0,1",2,coast,71,probe-111,0.396879731,0.213398881,1,0,,,,,,,,
,html-keyboard-response,243,1110786,0.0-131.0-1.0,"""event"",""trial"",""time""
""fullscreenenter"",""0"",""2742""
","
","
","""event"",""trial"",""time""
""fullscreenenter"",""0"",""2742""
","
",null,<p></p>,null,,,,,,,,,,,,,,,,,,,,,,,
,do_trial,244,1116738,0.0-132.0-0.0,"""event"",""trial"",""time""
""fullscreenenter"",""0"",""2742""
","
","
","""event"",""trial"",""time""
""fullscreenenter"",""0"",""2742""
","
",1399.8,,,,,,,,51,"0,0,0",2,coast,72,probe-104,0.345610575,0.189352676,0.75800438,0,,,,,,,,
,html-keyboard-response,245,1117743,0.0-132.0-1.0,"""event"",""trial"",""time""
""fullscreenenter"",""0"",""2742""
","
","
","""event"",""trial"",""time""
""fullscreenenter"",""0"",""2742""
","
",null,<p></p>,null,,,,,,,,,,,,,,,,,,,,,,,
,do_trial,246,1122641,0.0-133.0-0.0,"""event"",""trial"",""time""
""fullscreenenter"",""0"",""2742""
","
","
","""event"",""trial"",""time""
""fullscreenenter"",""0"",""2742""
","
",343.1,,,,,,,,49,"1,0,1",2,coast,73,probe-50,0.228209222,0.129357995,0.685552176,1,,,,,,,,
,html-keyboard-response,247,1123649,0.0-133.0-1.0,"""event"",""trial"",""time""
""fullscreenenter"",""0"",""2742""
","
","
","""event"",""trial"",""time""
""fullscreenenter"",""0"",""2742""
","
",null,<p></p>,null,,,,,,,,,,,,,,,,,,,,,,,
,do_trial,248,1128929,0.0-134.0-0.0,"""event"",""trial"",""time""
""fullscreenenter"",""0"",""2742""
","
","
","""event"",""trial"",""time""
""fullscreenenter"",""0"",""2742""
","
",727.9,,,,,,,,49,"0,0,0",2,coast,74,probe-180,0.245718871,0.113394527,0.725659877,0,,,,,,,,
,html-keyboard-response,249,1129936,0.0-134.0-1.0,"""event"",""trial"",""time""
""fullscreenenter"",""0"",""2742""
","
","
","""event"",""trial"",""time""
""fullscreenenter"",""0"",""2742""
","
",null,<p></p>,null,,,,,,,,,,,,,,,,,,,,,,,
,do_trial,250,1134718,0.0-135.0-0.0,"""event"",""trial"",""time""
""fullscreenenter"",""0"",""2742""
","
","
","""event"",""trial"",""time""
""fullscreenenter"",""0"",""2742""
","
",234.5,,,,,,,,49,"0,0,1",2,coast,75,probe-145,0.077203601,0.1447179,0.681722332,0,,,,,,,,
,html-keyboard-response,251,1135723,0.0-135.0-1.0,"""event"",""trial"",""time""
""fullscreenenter"",""0"",""2742""
","
","
","""event"",""trial"",""time""
""fullscreenenter"",""0"",""2742""
","
",null,<p></p>,null,,,,,,,,,,,,,,,,,,,,,,,
,do_trial,252,1141780,0.0-136.0-0.0,"""event"",""trial"",""time""
""fullscreenenter"",""0"",""2742""
","
","
","""event"",""trial"",""time""
""fullscreenenter"",""0"",""2742""
","
",null,,,,,,,,null,"0,0,1",2,coast,76,probe-96,0.231318816,0.064703708,0.518244489,,,,,,,,,
,html-keyboard-response,253,1142786,0.0-136.0-1.0,"""event"",""trial"",""time""
""fullscreenenter"",""0"",""2742""
","
","
","""event"",""trial"",""time""
""fullscreenenter"",""0"",""2742""
","
",null,<p></p>,null,,,,,,,,,,,,,,,,,,,,,,,
,do_trial,254,1147695,0.0-137.0-0.0,"""event"",""trial"",""time""
""fullscreenenter"",""0"",""2742""
","
","
","""event"",""trial"",""time""
""fullscreenenter"",""0"",""2742""
","
",349.3,,,,,,,,49,"0,0,1",2,coast,77,probe-05,0.289172098,0.094335683,0.501074338,0,,,,,,,,
,html-keyboard-response,255,1148699,0.0-137.0-1.0,"""event"",""trial"",""time""
""fullscreenenter"",""0"",""2742""
","
","
","""event"",""trial"",""time""
""fullscreenenter"",""0"",""2742""
","
",null,<p></p>,null,,,,,,,,,,,,,,,,,,,,,,,
,do_trial,256,1153604,0.0-138.0-0.0,"""event"",""trial"",""time""
""fullscreenenter"",""0"",""2742""
","
","
","""event"",""trial"",""time""
""fullscreenenter"",""0"",""2742""
","
",350.6,,,,,,,,50,"1,0,0",2,coast,78,probe-142,0.297995291,0.063658967,0.543163128,0,,,,,,,,
,html-keyboard-response,257,1154609,0.0-138.0-1.0,"""event"",""trial"",""time""
""fullscreenenter"",""0"",""2742""
","
","
","""event"",""trial"",""time""
""fullscreenenter"",""0"",""2742""
","
",null,<p></p>,null,,,,,,,,,,,,,,,,,,,,,,,
,do_trial,258,1159385,0.0-139.0-0.0,"""event"",""trial"",""time""
""fullscreenenter"",""0"",""2742""
","
","
","""event"",""trial"",""time""
""fullscreenenter"",""0"",""2742""
","
",217.9,,,,,,,,49,"0,0,0",2,coast,79,probe-187,0.469067407,0.147349621,0.601935283,0,,,,,,,,
,html-keyboard-response,259,1160393,0.0-139.0-1.0,"""event"",""trial"",""time""
""fullscreenenter"",""0"",""2742""
","
","
","""event"",""trial"",""time""
""fullscreenenter"",""0"",""2742""
","
",null,<p></p>,null,,,,,,,,,,,,,,,,,,,,,,,
,do_trial,260,1165258,0.0-140.0-0.0,"""event"",""trial"",""time""
""fullscreenenter"",""0"",""2742""
","
","
","""event"",""trial"",""time""
""fullscreenenter"",""0"",""2742""
","
",311.4,,,,,,,,51,"0,1,1",2,coast,80,probe-103,0.449530491,0.119757048,0.624194861,1,,,,,,,,
,html-keyboard-response,261,1166261,0.0-140.0-1.0,"""event"",""trial"",""time""
""fullscreenenter"",""0"",""2742""
","
","
","""event"",""trial"",""time""
""fullscreenenter"",""0"",""2742""
","
",null,<p></p>,null,,,,,,,,,,,,,,,,,,,,,,,
,do_trial,262,1171106,0.0-141.0-0.0,"""event"",""trial"",""time""
""fullscreenenter"",""0"",""2742""
","
","
","""event"",""trial"",""time""
""fullscreenenter"",""0"",""2742""
","
",288.4,,,,,,,,51,"1,0,0",2,coast,81,probe-21,0.619422479,0.05103366,0.459791544,0,,,,,,,,
,html-keyboard-response,263,1172112,0.0-141.0-1.0,"""event"",""trial"",""time""
""fullscreenenter"",""0"",""2742""
","
","
","""event"",""trial"",""time""
""fullscreenenter"",""0"",""2742""
","
",null,<p></p>,null,,,,,,,,,,,,,,,,,,,,,,,
,do_trial,264,1177579,0.0-142.0-0.0,"""event"",""trial"",""time""
""fullscreenenter"",""0"",""2742""
","
","
","""event"",""trial"",""time""
""fullscreenenter"",""0"",""2742""
","
",915.9,,,,,,,,49,"0,0,1",2,coast,82,probe-13,0.557380814,0.122350837,0.379734458,0,,,,,,,,
,html-keyboard-response,265,1178584,0.0-142.0-1.0,"""event"",""trial"",""time""
""fullscreenenter"",""0"",""2742""
","
","
","""event"",""trial"",""time""
""fullscreenenter"",""0"",""2742""
","
",null,<p></p>,null,,,,,,,,,,,,,,,,,,,,,,,
,do_trial,266,1183376,0.0-143.0-0.0,"""event"",""trial"",""time""
""fullscreenenter"",""0"",""2742""
","
","
","""event"",""trial"",""time""
""fullscreenenter"",""0"",""2742""
","
",234.8,,,,,,,,49,"0,0,0",2,coast,83,probe-151,0.559422999,0.114509245,0.307348026,0,,,,,,,,
,html-keyboard-response,267,1184383,0.0-143.0-1.0,"""event"",""trial"",""time""
""fullscreenenter"",""0"",""2742""
","
","
","""event"",""trial"",""time""
""fullscreenenter"",""0"",""2742""
","
",null,<p></p>,null,,,,,,,,,,,,,,,,,,,,,,,
,do_trial,268,1190038,0.0-144.0-0.0,"""event"",""trial"",""time""
""fullscreenenter"",""0"",""2742""
","
","
","""event"",""trial"",""time""
""fullscreenenter"",""0"",""2742""
","
",1100.8,,,,,,,,50,"1,0,1",2,coast,84,probe-78,0.677985345,0.10011663,0.377161054,0,,,,,,,,
,html-keyboard-response,269,1191046,0.0-144.0-1.0,"""event"",""trial"",""time""
""fullscreenenter"",""0"",""2742""
","
","
","""event"",""trial"",""time""
""fullscreenenter"",""0"",""2742""
","
",null,<p></p>,null,,,,,,,,,,,,,,,,,,,,,,,
,do_trial,270,1196730,0.0-145.0-0.0,"""event"",""trial"",""time""
""fullscreenenter"",""0"",""2742""
","
","
","""event"",""trial"",""time""
""fullscreenenter"",""0"",""2742""
","
",1131,,,,,,,,49,"1,0,0",2,coast,85,probe-48,0.665718948,0.113415715,0.416321399,1,,,,,,,,
,html-keyboard-response,271,1197735,0.0-145.0-1.0,"""event"",""trial"",""time""
""fullscreenenter"",""0"",""2742""
","
","
","""event"",""trial"",""time""
""fullscreenenter"",""0"",""2742""
","
",null,<p></p>,null,,,,,,,,,,,,,,,,,,,,,,,
,do_trial,272,1203603,0.0-146.0-0.0,"""event"",""trial"",""time""
""fullscreenenter"",""0"",""2742""
","
","
","""event"",""trial"",""time""
""fullscreenenter"",""0"",""2742""
","
",1309.8,,,,,,,,49,"0,0,0",2,coast,86,probe-135,0.517869035,0.11205877,0.269735743,0,,,,,,,,
,html-keyboard-response,273,1204610,0.0-146.0-1.0,"""event"",""trial"",""time""
""fullscreenenter"",""0"",""2742""
","
","
","""event"",""trial"",""time""
""fullscreenenter"",""0"",""2742""
","
",null,<p></p>,null,,,,,,,,,,,,,,,,,,,,,,,
,do_trial,274,1209477,0.0-147.0-0.0,"""event"",""trial"",""time""
""fullscreenenter"",""0"",""2742""
","
","
","""event"",""trial"",""time""
""fullscreenenter"",""0"",""2742""
","
",308.6,,,,,,,,50,"0,0,0",2,coast,87,probe-205,0.567226621,0.080968424,0.222728804,0,,,,,,,,
,html-keyboard-response,275,1210482,0.0-147.0-1.0,"""event"",""trial"",""time""
""fullscreenenter"",""0"",""2742""
","
","
","""event"",""trial"",""time""
""fullscreenenter"",""0"",""2742""
","
",null,<p></p>,null,,,,,,,,,,,,,,,,,,,,,,,
,do_trial,276,1215033,0.0-148.0-0.0,"""event"",""trial"",""time""
""fullscreenenter"",""0"",""2742""
","
","
","""event"",""trial"",""time""
""fullscreenenter"",""0"",""2742""
","
",0.099999994,,,,,,,,51,"0,0,0",2,coast,88,probe-12,0.641503985,0.135765291,0.169067083,0,,,,,,,,
,html-keyboard-response,277,1216038,0.0-148.0-1.0,"""event"",""trial"",""time""
""fullscreenenter"",""0"",""2742""
","
","
","""event"",""trial"",""time""
""fullscreenenter"",""0"",""2742""
","
",null,<p></p>,null,,,,,,,,,,,,,,,,,,,,,,,
,do_trial,278,1221884,0.0-149.0-0.0,"""event"",""trial"",""time""
""fullscreenenter"",""0"",""2742""
","
","
","""event"",""trial"",""time""
""fullscreenenter"",""0"",""2742""
","
",1295.1,,,,,,,,49,"1,0,1",2,coast,89,probe-109,0.622896393,0.139123589,0.206303099,1,,,,,,,,
,html-keyboard-response,279,1222892,0.0-149.0-1.0,"""event"",""trial"",""time""
""fullscreenenter"",""0"",""2742""
","
","
","""event"",""trial"",""time""
""fullscreenenter"",""0"",""2742""
","
",null,<p></p>,null,,,,,,,,,,,,,,,,,,,,,,,
,do_trial,280,1227666,0.0-150.0-0.0,"""event"",""trial"",""time""
""fullscreenenter"",""0"",""2742""
","
","
","""event"",""trial"",""time""
""fullscreenenter"",""0"",""2742""
","
",218.5,,,,,,,,49,"0,0,0",2,coast,90,probe-62,0.668872068,0.106512274,0.21049239,0,,,,,,,,
,html-keyboard-response,281,1228674,0.0-150.0-1.0,"""event"",""trial"",""time""
""fullscreenenter"",""0"",""2742""
","
","
","""event"",""trial"",""time""
""fullscreenenter"",""0"",""2742""
","
",null,<p></p>,null,,,,,,,,,,,,,,,,,,,,,,,
,do_trial,282,1233630,0.0-151.0-0.0,"""event"",""trial"",""time""
""fullscreenenter"",""0"",""2742""
","
","
","""event"",""trial"",""time""
""fullscreenenter"",""0"",""2742""
","
",398.4,,,,,,,,49,"0,0,0",2,coast,91,probe-126,0.718082128,0.055126168,0.265813212,0,,,,,,,,
,html-keyboard-response,283,1234634,0.0-151.0-1.0,"""event"",""trial"",""time""
""fullscreenenter"",""0"",""2742""
","
","
","""event"",""trial"",""time""
""fullscreenenter"",""0"",""2742""
","
",null,<p></p>,null,,,,,,,,,,,,,,,,,,,,,,,
,do_trial,284,1239499,0.0-152.0-0.0,"""event"",""trial"",""time""
""fullscreenenter"",""0"",""2742""
","
","
","""event"",""trial"",""time""
""fullscreenenter"",""0"",""2742""
","
",312,,,,,,,,49,"1,0,0",2,coast,92,probe-224,0.745143524,0.231645476,0.152931956,1,,,,,,,,
,html-keyboard-response,285,1240504,0.0-152.0-1.0,"""event"",""trial"",""time""
""fullscreenenter"",""0"",""2742""
","
","
","""event"",""trial"",""time""
""fullscreenenter"",""0"",""2742""
","
",null,<p></p>,null,,,,,,,,,,,,,,,,,,,,,,,
,do_trial,286,1245732,0.0-153.0-0.0,"""event"",""trial"",""time""
""fullscreenenter"",""0"",""2742""
","
","
","""event"",""trial"",""time""
""fullscreenenter"",""0"",""2742""
","
",670.5,,,,,,,,49,"1,1,0",2,coast,93,probe-23,0.562706844,0.187702519,0.078927816,1,,,,,,,,
,html-keyboard-response,287,1246739,0.0-153.0-1.0,"""event"",""trial"",""time""
""fullscreenenter"",""0"",""2742""
","
","
","""event"",""trial"",""time""
""fullscreenenter"",""0"",""2742""
","
",null,<p></p>,null,,,,,,,,,,,,,,,,,,,,,,,
,do_trial,288,1251752,0.0-154.0-0.0,"""event"",""trial"",""time""
""fullscreenenter"",""0"",""2742""
","
","
","""event"",""trial"",""time""
""fullscreenenter"",""0"",""2742""
","
",458,,,,,,,,49,"1,0,1",2,coast,94,probe-209,0.5744568,0.216543159,0.222074365,1,,,,,,,,
,html-keyboard-response,289,1252757,0.0-154.0-1.0,"""event"",""trial"",""time""
""fullscreenenter"",""0"",""2742""
","
","
","""event"",""trial"",""time""
""fullscreenenter"",""0"",""2742""
","
",null,<p></p>,null,,,,,,,,,,,,,,,,,,,,,,,
,do_trial,290,1257793,0.0-155.0-0.0,"""event"",""trial"",""time""
""fullscreenenter"",""0"",""2742""
","
","
","""event"",""trial"",""time""
""fullscreenenter"",""0"",""2742""
","
",478,,,,,,,,49,"1,0,1",2,coast,95,probe-01,0.579945172,0.093078231,0.229097475,1,,,,,,,,
,html-keyboard-response,291,1258796,0.0-155.0-1.0,"""event"",""trial"",""time""
""fullscreenenter"",""0"",""2742""
","
","
","""event"",""trial"",""time""
""fullscreenenter"",""0"",""2742""
","
",null,<p></p>,null,,,,,,,,,,,,,,,,,,,,,,,
,do_trial,292,1263857,0.0-156.0-0.0,"""event"",""trial"",""time""
""fullscreenenter"",""0"",""2742""
","
","
","""event"",""trial"",""time""
""fullscreenenter"",""0"",""2742""
","
",506.5,,,,,,,,49,"0,0,1",2,coast,96,probe-157,0.610309212,0.135690689,0.439734979,0,,,,,,,,
,html-keyboard-response,293,1264861,0.0-156.0-1.0,"""event"",""trial"",""time""
""fullscreenenter"",""0"",""2742""
","
","
","""event"",""trial"",""time""
""fullscreenenter"",""0"",""2742""
","
",null,<p></p>,null,,,,,,,,,,,,,,,,,,,,,,,
,do_trial,294,1269526,0.0-157.0-0.0,"""event"",""trial"",""time""
""fullscreenenter"",""0"",""2742""
","
","
","""event"",""trial"",""time""
""fullscreenenter"",""0"",""2742""
","
",113.1,,,,,,,,49,"1,0,0",2,coast,97,probe-75,0.654281021,0.099261318,0.425191587,1,,,,,,,,
,html-keyboard-response,295,1270531,0.0-157.0-1.0,"""event"",""trial"",""time""
""fullscreenenter"",""0"",""2742""
","
","
","""event"",""trial"",""time""
""fullscreenenter"",""0"",""2742""
","
",null,<p></p>,null,,,,,,,,,,,,,,,,,,,,,,,
,do_trial,296,1275354,0.0-158.0-0.0,"""event"",""trial"",""time""
""fullscreenenter"",""0"",""2742""
","
","
","""event"",""trial"",""time""
""fullscreenenter"",""0"",""2742""
","
",269,,,,,,,,49,"1,1,1",2,coast,98,probe-113,0.755471909,0.051551718,0.327960147,1,,,,,,,,
,html-keyboard-response,297,1276358,0.0-158.0-1.0,"""event"",""trial"",""time""
""fullscreenenter"",""0"",""2742""
","
","
","""event"",""trial"",""time""
""fullscreenenter"",""0"",""2742""
","
",null,<p></p>,null,,,,,,,,,,,,,,,,,,,,,,,
,do_trial,298,1281928,0.0-159.0-0.0,"""event"",""trial"",""time""
""fullscreenenter"",""0"",""2742""
","
","
","""event"",""trial"",""time""
""fullscreenenter"",""0"",""2742""
","
",1015.8,,,,,,,,49,"1,0,0",2,coast,99,probe-212,0.811966432,0.130182823,0.413438452,1,,,,,,,,
,html-keyboard-response,299,1282933,0.0-159.0-1.0,"""event"",""trial"",""time""
""fullscreenenter"",""0"",""2742""
","
","
","""event"",""trial"",""time""
""fullscreenenter"",""0"",""2742""
","
",null,<p></p>,null,,,,,,,,,,,,,,,,,,,,,,,
,do_trial,300,1288610,0.0-160.0-0.0,"""event"",""trial"",""time""
""fullscreenenter"",""0"",""2742""
","
","
","""event"",""trial"",""time""
""fullscreenenter"",""0"",""2742""
","
",1123.1,,,,,,,,49,"1,0,0",2,coast,100,probe-90,0.847274165,0.125771673,0.316572292,1,,,,,,,,
,html-keyboard-response,301,1289616,0.0-160.0-1.0,"""event"",""trial"",""time""
""fullscreenenter"",""0"",""2742""
","
","
","""event"",""trial"",""time""
""fullscreenenter"",""0"",""2742""
","
",null,<p></p>,null,,,,,,,,,,,,,,,,,,,,,,,
,do_trial,302,1294300,0.0-161.0-0.0,"""event"",""trial"",""time""
""fullscreenenter"",""0"",""2742""
","
","
","""event"",""trial"",""time""
""fullscreenenter"",""0"",""2742""
","
",128.5,,,,,,,,49,"1,0,0",2,coast,101,probe-88,0.924757633,0.216679428,0.339720272,1,,,,,,,,
,html-keyboard-response,303,1295305,0.0-161.0-1.0,"""event"",""trial"",""time""
""fullscreenenter"",""0"",""2742""
","
","
","""event"",""trial"",""time""
""fullscreenenter"",""0"",""2742""
","
",null,<p></p>,null,,,,,,,,,,,,,,,,,,,,,,,
,do_trial,304,1299895,0.0-162.0-0.0,"""event"",""trial"",""time""
""fullscreenenter"",""0"",""2742""
","
","
","""event"",""trial"",""time""
""fullscreenenter"",""0"",""2742""
","
",34,,,,,,,,49,"1,0,0",2,coast,102,probe-203,0.915376493,0.127458829,0.306845135,1,,,,,,,,
,html-keyboard-response,305,1300899,0.0-162.0-1.0,"""event"",""trial"",""time""
""fullscreenenter"",""0"",""2742""
","
","
","""event"",""trial"",""time""
""fullscreenenter"",""0"",""2742""
","
",null,<p></p>,null,,,,,,,,,,,,,,,,,,,,,,,
,do_trial,306,1306122,0.0-163.0-0.0,"""event"",""trial"",""time""
""fullscreenenter"",""0"",""2742""
","
","
","""event"",""trial"",""time""
""fullscreenenter"",""0"",""2742""
","
",670.4,,,,,,,,49,"1,0,0",2,coast,103,probe-144,0.766077748,0.172638183,0.227365846,1,,,,,,,,
,html-keyboard-response,307,1307127,0.0-163.0-1.0,"""event"",""trial"",""time""
""fullscreenenter"",""0"",""2742""
","
","
","""event"",""trial"",""time""
""fullscreenenter"",""0"",""2742""
","
",null,<p></p>,null,,,,,,,,,,,,,,,,,,,,,,,
,do_trial,308,1312045,0.0-164.0-0.0,"""event"",""trial"",""time""
""fullscreenenter"",""0"",""2742""
","
","
","""event"",""trial"",""time""
""fullscreenenter"",""0"",""2742""
","
",362.8,,,,,,,,49,"1,0,0",2,coast,104,probe-152,0.728923743,0.103359766,0.196252267,1,,,,,,,,
,html-keyboard-response,309,1313049,0.0-164.0-1.0,"""event"",""trial"",""time""
""fullscreenenter"",""0"",""2742""
","
","
","""event"",""trial"",""time""
""fullscreenenter"",""0"",""2742""
","
",null,<p></p>,null,,,,,,,,,,,,,,,,,,,,,,,
,do_trial,310,1317837,0.0-165.0-0.0,"""event"",""trial"",""time""
""fullscreenenter"",""0"",""2742""
","
","
","""event"",""trial"",""time""
""fullscreenenter"",""0"",""2742""
","
",233.4,,,,,,,,49,"1,0,0",2,coast,105,probe-40,0.540585568,0.07318483,0.175944167,1,,,,,,,,
,html-keyboard-response,311,1318844,0.0-165.0-1.0,"""event"",""trial"",""time""
""fullscreenenter"",""0"",""2742""
","
","
","""event"",""trial"",""time""
""fullscreenenter"",""0"",""2742""
","
",null,<p></p>,null,,,,,,,,,,,,,,,,,,,,,,,
,do_trial,312,1324194,0.0-166.0-0.0,"""event"",""trial"",""time""
""fullscreenenter"",""0"",""2742""
","
","
","""event"",""trial"",""time""
""fullscreenenter"",""0"",""2742""
","
",807.6,,,,,,,,49,"1,0,1",2,coast,106,probe-92,0.514198072,0.095377006,0.247546509,1,,,,,,,,
,html-keyboard-response,313,1325199,0.0-166.0-1.0,"""event"",""trial"",""time""
""fullscreenenter"",""0"",""2742""
","
","
","""event"",""trial"",""time""
""fullscreenenter"",""0"",""2742""
","
",null,<p></p>,null,,,,,,,,,,,,,,,,,,,,,,,
,do_trial,314,1329874,0.0-167.0-0.0,"""event"",""trial"",""time""
""fullscreenenter"",""0"",""2742""
","
","
","""event"",""trial"",""time""
""fullscreenenter"",""0"",""2742""
","
",123.5,,,,,,,,49,"0,0,0",2,coast,107,probe-28,0.488723452,0.074346287,0.337015466,0,,,,,,,,
,html-keyboard-response,315,1330881,0.0-167.0-1.0,"""event"",""trial"",""time""
""fullscreenenter"",""0"",""2742""
","
","
","""event"",""trial"",""time""
""fullscreenenter"",""0"",""2742""
","
",null,<p></p>,null,,,,,,,,,,,,,,,,,,,,,,,
,do_trial,316,1336028,0.0-168.0-0.0,"""event"",""trial"",""time""
""fullscreenenter"",""0"",""2742""
","
","
","""event"",""trial"",""time""
""fullscreenenter"",""0"",""2742""
","
",589.5,,,,,,,,49,"0,0,0",2,coast,108,probe-15,0.539803685,0.12855178,0.294420885,0,,,,,,,,
,html-keyboard-response,317,1337036,0.0-168.0-1.0,"""event"",""trial"",""time""
""fullscreenenter"",""0"",""2742""
","
","
","""event"",""trial"",""time""
""fullscreenenter"",""0"",""2742""
","
",null,<p></p>,null,,,,,,,,,,,,,,,,,,,,,,,
,do_trial,318,1341867,0.0-169.0-0.0,"""event"",""trial"",""time""
""fullscreenenter"",""0"",""2742""
","
","
","""event"",""trial"",""time""
""fullscreenenter"",""0"",""2742""
","
",278.3,,,,,,,,49,"0,0,0",2,coast,109,probe-149,0.561924956,0.123294604,0.413567407,0,,,,,,,,
,html-keyboard-response,319,1342873,0.0-169.0-1.0,"""event"",""trial"",""time""
""fullscreenenter"",""0"",""2742""
","
","
","""event"",""trial"",""time""
""fullscreenenter"",""0"",""2742""
","
",null,<p></p>,null,,,,,,,,,,,,,,,,,,,,,,,
,do_bye,320,1344381,0.0-170.0-0.0,"""event"",""trial"",""time""
""fullscreenenter"",""0"",""2742""
","
","
","""event"",""trial"",""time""
""fullscreenenter"",""0"",""2742""
","
",null,,,,,,,,null,,,,,,,,,,,,,,,,,
,break,321,1426841,0.0-170.0-1.0,"""event"",""trial"",""time""
""fullscreenenter"",""0"",""2742""
","
","
","""event"",""trial"",""time""
""fullscreenenter"",""0"",""2742""
","
",82459.2,"<div class='center'><p>Time to take a quick break! You have 2 minutes to rest, but you can move on sooner if you'd like.</p><p> Press the <b>space bar</b> to continue.</p></div>",32,,,,,,,,,,,,,,,,,,,,,,,
,do_travel,322,1435851,0.0-171.0-0.0,"""event"",""trial"",""time""
""fullscreenenter"",""0"",""2742""
","
","
","""event"",""trial"",""time""
""fullscreenenter"",""0"",""2742""
","
",null,,,,,,,,null,,,,,,,,,,,,,,,,,
,do_welcome,323,1439865,0.0-171.0-1.0,"""event"",""trial"",""time""
""fullscreenenter"",""0"",""2742""
","
","
","""event"",""trial"",""time""
""fullscreenenter"",""0"",""2742""
","
",null,,,,,,,,null,,,,,,,,,,,,,,,,,
,do_trial,324,1445860,0.0-172.0-0.0,"""event"",""trial"",""time""
""fullscreenenter"",""0"",""2742""
","
","
","""event"",""trial"",""time""
""fullscreenenter"",""0"",""2742""
","
",1441.7,,,,,,,,50,"1,0,0",3,mountain,110,probe-123,1,0.145494459,0.470621952,0,,,,,,,,
,html-keyboard-response,325,1446864,0.0-172.0-1.0,"""event"",""trial"",""time""
""fullscreenenter"",""0"",""2742""
","
","
","""event"",""trial"",""time""
""fullscreenenter"",""0"",""2742""
","
",null,<p></p>,null,,,,,,,,,,,,,,,,,,,,,,,
,do_trial,326,1451486,0.0-173.0-0.0,"""event"",""trial"",""time""
""fullscreenenter"",""0"",""2742""
","
","
","""event"",""trial"",""time""
""fullscreenenter"",""0"",""2742""
","
",69.09999999,,,,,,,,50,"1,0,0",3,mountain,111,probe-33,1,0.102947409,0.280506926,0,,,,,,,,
,html-keyboard-response,327,1452492,0.0-173.0-1.0,"""event"",""trial"",""time""
""fullscreenenter"",""0"",""2742""
","
","
","""event"",""trial"",""time""
""fullscreenenter"",""0"",""2742""
","
",null,<p></p>,null,,,,,,,,,,,,,,,,,,,,,,,
,do_trial,328,1457332,0.0-174.0-0.0,"""event"",""trial"",""time""
""fullscreenenter"",""0"",""2742""
","
","
","""event"",""trial"",""time""
""fullscreenenter"",""0"",""2742""
","
",277,,,,,,,,49,"1,0,0",3,mountain,112,probe-146,0.794736489,0.053743573,0.299845385,1,,,,,,,,
,html-keyboard-response,329,1458339,0.0-174.0-1.0,"""event"",""trial"",""time""
""fullscreenenter"",""0"",""2742""
","
","
","""event"",""trial"",""time""
""fullscreenenter"",""0"",""2742""
","
",null,<p></p>,null,,,,,,,,,,,,,,,,,,,,,,,
,do_trial,330,1463109,0.0-175.0-0.0,"""event"",""trial"",""time""
""fullscreenenter"",""0"",""2742""
","
","
","""event"",""trial"",""time""
""fullscreenenter"",""0"",""2742""
","
",215.6,,,,,,,,49,"1,0,0",3,mountain,113,probe-09,0.682916662,0.150268729,0.317500641,1,,,,,,,,
,html-keyboard-response,331,1464117,0.0-175.0-1.0,"""event"",""trial"",""time""
""fullscreenenter"",""0"",""2742""
","
","
","""event"",""trial"",""time""
""fullscreenenter"",""0"",""2742""
","
",null,<p></p>,null,,,,,,,,,,,,,,,,,,,,,,,
,do_trial,332,1469249,0.0-176.0-0.0,"""event"",""trial"",""time""
""fullscreenenter"",""0"",""2742""
","
","
","""event"",""trial"",""time""
""fullscreenenter"",""0"",""2742""
","
",587.3,,,,,,,,49,"0,0,0",3,mountain,114,probe-127,0.703512191,0.106151632,0.276632907,0,,,,,,,,
,html-keyboard-response,333,1470255,0.0-176.0-1.0,"""event"",""trial"",""time""
""fullscreenenter"",""0"",""2742""
","
","
","""event"",""trial"",""time""
""fullscreenenter"",""0"",""2742""
","
",null,<p></p>,null,,,,,,,,,,,,,,,,,,,,,,,
,do_trial,334,1474814,0.0-177.0-0.0,"""event"",""trial"",""time""
