"success","trial_type","trial_index","time_elapsed","internal_node_id","interactions","blur_events","focus_events","fullscreenenter_events","fullscreenexit_events","rt","stimulus","key_press","subject_id","participant_id","age","gender","prompt","response","choice_outcomes","context_n","context_img_id","trial_n","probe_img_id","pR_red","pR_white","pR_black","outcome","contextArray_ind","validImageProbes","invalidImageProbes","pRew_Red","pRew_White","pRew_Black","availableForMemProbe","choice_blocks"
"true","fullscreen","0","2686","0.0-0.0","""event"",""trial"",""time""
""fullscreenenter"",""0"",""1744""
","
","
","""event"",""trial"",""time""
""fullscreenenter"",""0"",""1744""
","
","","","","","","","","","","","","","","","","","","","","","","","","","",""
"","pavlovia","1","2693","0.0-1.0","""event"",""trial"",""time""
""fullscreenenter"",""0"",""1744""
","
","
","""event"",""trial"",""time""
""fullscreenenter"",""0"",""1744""
","
","","","","","","","","","","","","","","","","","","","","","","","","","",""
"","instruc1","2","47869","0.0-2.0","""event"",""trial"",""time""
""fullscreenenter"",""0"",""1744""
","
","
","""event"",""trial"",""time""
""fullscreenenter"",""0"",""1744""
","
","null","run_exp/static/audio/clip_1_welcome.m4a","null","261","659","13","Male","<div class='center'><p>Welcome! This is the first part of the study. It will last ~30 minutes. In part 1 and part 2 of the study, you are the head captain of a pirate ship traveling around the world to different islands. You will play a few different games throughout these two parts. Here is an overview of them:</p><br><p>Part 1 (today)</p><p>1. Instructions, practice game, and quiz</p><p>2. Pick a pirate game on 6 different islands</p><br><p>Part 2 (tomorrow)</p><p>3. Pick a pirate game and memory game</p><p>4. Where did you see this ship? </p></div>","","","","","","","","","","","","","","","","","",""
"","html-keyboard-response","3","49502","0.0-3.0","""event"",""trial"",""time""
""fullscreenenter"",""0"",""1744""
","
","
","""event"",""trial"",""time""
""fullscreenenter"",""0"",""1744""
","
","1630.8999999985099","<div class='center'><p>Welcome! This is the first part of the study. It will last ~30 minutes. In part 1 and part 2 of the study, you are the head captain of a pirate ship traveling around the world to different islands. You will play a few different games throughout these two parts. Here is an overview of them:</p><br><p>Part 1 (today)</p><p>1. Instructions, practice game, and quiz</p><p>2. Pick a pirate game on 6 different islands</p><br><p>Part 2 (tomorrow)</p><p>3. Pick a pirate game and memory game</p><p>4. Where did you see this ship? </p><p><b>[Press the space bar to continue]</b></p></div>","32","","","","","","","","","","","","","","","","","","","","","","",""
"","instruc2","4","54843","0.0-4.0","""event"",""trial"",""time""
""fullscreenenter"",""0"",""1744""
","
","
","""event"",""trial"",""time""
""fullscreenenter"",""0"",""1744""
","
","null","run_exp/static/audio/clip_2_different_places.m4a","null","","","","","<div class='center'><p>Today, you’ll visit these 6 islands on your journey. You'll be able to see these islands from your ship.</p><p><img src='run_exp/static/images/contexts/all_contexts.png' height='500'></p></div>","","","","","","","","","","","","","","","","","",""
"","html-keyboard-response","5","55409","0.0-5.0","""event"",""trial"",""time""
""fullscreenenter"",""0"",""1744""
","
","
","""event"",""trial"",""time""
""fullscreenenter"",""0"",""1744""
","
","563.8999999985099","<div class='center'><p>Today, you’ll visit these 6 islands on your journey. You'll be able to see these islands from your ship.</p><p><img src='run_exp/static/images/contexts/all_contexts.png' height='500'></p><p><b>[Press the space bar to continue]</b></p></div>","32","","","","","","","","","","","","","","","","","","","","","","",""
"","instruc3","6","65134","0.0-6.0","""event"",""trial"",""time""
""fullscreenenter"",""0"",""1744""
","
","
","""event"",""trial"",""time""
""fullscreenenter"",""0"",""1744""
","
","null","run_exp/static/audio/clip_3_goal_of_game_1.m4a","null","","","","","<div class='center'><p> The pirates on your ship will rob other ships as they leave the island.</p> These ships have just sold their goods to the islanders, so they will be filled with lots and lots of gold.</p><p><img src='run_exp/static/images/tutorial/ship_center.png' height='400'></p></div>","","","","","","","","","","","","","","","","","",""
"","html-keyboard-response","7","66064","0.0-7.0","""event"",""trial"",""time""
""fullscreenenter"",""0"",""1744""
","
","
","""event"",""trial"",""time""
""fullscreenenter"",""0"",""1744""
","
","928.8000000044703","<div class='center'><p> The pirates on your ship will rob other ships as they leave the island.</p> These ships have just sold their goods to the islanders, so they will be filled with lots and lots of gold.</p><p><img src='run_exp/static/images/tutorial/ship_center.png' height='400'></p><p><b>[Press the space bar to continue]</b></p></div>","32","","","","","","","","","","","","","","","","","","","","","","",""
"","instruc4","8","94086","0.0-8.0","""event"",""trial"",""time""
""fullscreenenter"",""0"",""1744""
","
","
","""event"",""trial"",""time""
""fullscreenenter"",""0"",""1744""
","
","null","run_exp/static/audio/clip_4_goal_of_game_2.m4a","null","","","","","<div class='center'><p>As the head captain, you do not have to rob any ships yourself. Another pirate will be doing the robbing for you. First, you will choose a pirate to rob the next ship.</p><p><img src='run_exp/static/images/tutorial/pirates_all_crop.png' height='200'></p><p>Then, you'll see if the pirate successfully robbed the ship of their gold. If they were successful, then you'll get a stack of gold coins like this:</p><p><img src='run_exp/static/images/tutorial/reward.png' height='150'></p><p> If they were <b>not</b> successful, then you'll get no gold coins, and you'll see a big red x like this: </p><p><img src='run_exp/static/images/tutorial/reward_no.png' height='150'></p><p> How much bonus money you make is based on how many gold coins you collect.</p><div>","","","","","","","","","","","","","","","","","",""
"","html-keyboard-response","9","95109","0.0-9.0","""event"",""trial"",""time""
""fullscreenenter"",""0"",""1744""
","
","
","""event"",""trial"",""time""
""fullscreenenter"",""0"",""1744""
","
","1021.3999999985099","<div class='center'><p>As the head captain, you do not have to rob any ships yourself. Another pirate will be doing the robbing for you. First, you will choose a pirate to rob the next ship.</p><p><img src='run_exp/static/images/tutorial/pirates_all_crop.png' height='200'></p><p>Then, you'll see if the pirate successfully robbed the ship of their gold. If they were successful, then you'll get a stack of gold coins like this:</p><p><img src='run_exp/static/images/tutorial/reward.png' height='150'></p><p> If they were <b>not</b> successful, then you'll get no gold coins, and you'll see a big red x like this: </p><p><img src='run_exp/static/images/tutorial/reward_no.png' height='150'></p><p> How much bonus money you make is based on how many gold coins you collect.</p<p><b>[Press the space bar to continue]</b></p></div>","32","","","","","","","","","","","","","","","","","","","","","","",""
"","instruc5","10","111131","0.0-10.0","""event"",""trial"",""time""
""fullscreenenter"",""0"",""1744""
","
","
","""event"",""trial"",""time""
""fullscreenenter"",""0"",""1744""
","
","16019.10000000149","run_exp/static/audio/clip_5_probabilistic.m4a","49","","","","","<div class='center'><p>Even the most skilled pirate can not rob EVERY ship.</p><p> Some ships will have very strong protections against pirate attacks.</p><p> Blue beard, here, is very, very good at robbing ships, but he won't be successful every time he tries to rob one.</p><p> You can press the <b>‘1’</b> key on the keyboard to choose him.</p><p> Try choosing him 10 times to see how often he succeeds at robbing a ship. </p><p><img src='run_exp/static/images/tutorial/blue.png' height='500'></p></div>","","","","","","","","","","","","","","","","","",""
"","html-keyboard-response","11","112634","0.0-11.0","""event"",""trial"",""time""
""fullscreenenter"",""0"",""1744""
","
","
","""event"",""trial"",""time""
""fullscreenenter"",""0"",""1744""
","
","null","<div class='center'><p><img src='run_exp/static/images/tutorial/blue_win.png' height='500'></p></div>","null","","","","","","","","","","","","","","","","","","","","","","",""
"","html-keyboard-response","12","112976","0.0-12.0","""event"",""trial"",""time""
""fullscreenenter"",""0"",""1744""
","
","
","""event"",""trial"",""time""
""fullscreenenter"",""0"",""1744""
","
","339.90000000596046","<div class='center'><img src='run_exp/static/images/tutorial/blue.png' height='500'></p></div>","49","","","","","","","","","","","","","","","","","","","","","","",""
"","html-keyboard-response","13","114478","0.0-13.0","""event"",""trial"",""time""
""fullscreenenter"",""0"",""1744""
","
","
","""event"",""trial"",""time""
""fullscreenenter"",""0"",""1744""
","
","null","<div class='center'><p><img src='run_exp/static/images/tutorial/blue_win.png' height='500'></p></div>","null","","","","","","","","","","","","","","","","","","","","","","",""
"","html-keyboard-response","14","114561","0.0-14.0","""event"",""trial"",""time""
""fullscreenenter"",""0"",""1744""
","
","
","""event"",""trial"",""time""
""fullscreenenter"",""0"",""1744""
","
","82.69999999552965","<div class='center'><img src='run_exp/static/images/tutorial/blue.png' height='500'></p></div>","49","","","","","","","","","","","","","","","","","","","","","","",""
"","html-keyboard-response","15","116063","0.0-15.0","""event"",""trial"",""time""
""fullscreenenter"",""0"",""1744""
","
","
","""event"",""trial"",""time""
""fullscreenenter"",""0"",""1744""
","
","null","<div class='center'><p><img src='run_exp/static/images/tutorial/blue_win.png' height='500'></p></div>","null","","","","","","","","","","","","","","","","","","","","","","",""
"","html-keyboard-response","16","116452","0.0-16.0","""event"",""trial"",""time""
""fullscreenenter"",""0"",""1744""
","
","
","""event"",""trial"",""time""
""fullscreenenter"",""0"",""1744""
","
","387.8999999985099","<div class='center'><img src='run_exp/static/images/tutorial/blue.png' height='500'></p></div>","49","","","","","","","","","","","","","","","","","","","","","","",""
"","html-keyboard-response","17","117957","0.0-17.0","""event"",""trial"",""time""
""fullscreenenter"",""0"",""1744""
","
","
","""event"",""trial"",""time""
""fullscreenenter"",""0"",""1744""
","
","null","<div class='center'><p><img src='run_exp/static/images/tutorial/blue_no_win.png' height='500'></p></div>","null","","","","","","","","","","","","","","","","","","","","","","",""
"","html-keyboard-response","18","118290","0.0-18.0","""event"",""trial"",""time""
""fullscreenenter"",""0"",""1744""
","
","
","""event"",""trial"",""time""
""fullscreenenter"",""0"",""1744""
","
","331","<div class='center'><img src='run_exp/static/images/tutorial/blue.png' height='500'></p></div>","49","","","","","","","","","","","","","","","","","","","","","","",""
"","html-keyboard-response","19","119795","0.0-19.0","""event"",""trial"",""time""
""fullscreenenter"",""0"",""1744""
","
","
","""event"",""trial"",""time""
""fullscreenenter"",""0"",""1744""
","
","null","<div class='center'><p><img src='run_exp/static/images/tutorial/blue_win.png' height='500'></p></div>","null","","","","","","","","","","","","","","","","","","","","","","",""
"","html-keyboard-response","20","120983","0.0-20.0","""event"",""trial"",""time""
""fullscreenenter"",""0"",""1744""
","
","
","""event"",""trial"",""time""
""fullscreenenter"",""0"",""1744""
","
","1187.2000000029802","<div class='center'><img src='run_exp/static/images/tutorial/blue.png' height='500'></p></div>","49","","","","","","","","","","","","","","","","","","","","","","",""
"","html-keyboard-response","21","122486","0.0-21.0","""event"",""trial"",""time""
""fullscreenenter"",""0"",""1744""
","
","
","""event"",""trial"",""time""
""fullscreenenter"",""0"",""1744""
","
","null","<div class='center'><p><img src='run_exp/static/images/tutorial/blue_win.png' height='500'></p></div>","null","","","","","","","","","","","","","","","","","","","","","","",""
"","html-keyboard-response","22","123271","0.0-22.0","""event"",""trial"",""time""
""fullscreenenter"",""0"",""1744""
","
","
","""event"",""trial"",""time""
""fullscreenenter"",""0"",""1744""
","
","784","<div class='center'><img src='run_exp/static/images/tutorial/blue.png' height='500'></p></div>","49","","","","","","","","","","","","","","","","","","","","","","",""
"","html-keyboard-response","23","124773","0.0-23.0","""event"",""trial"",""time""
""fullscreenenter"",""0"",""1744""
","
","
","""event"",""trial"",""time""
""fullscreenenter"",""0"",""1744""
","
","null","<div class='center'><p><img src='run_exp/static/images/tutorial/blue_win.png' height='500'></p></div>","null","","","","","","","","","","","","","","","","","","","","","","",""
"","html-keyboard-response","24","125210","0.0-24.0","""event"",""trial"",""time""
""fullscreenenter"",""0"",""1744""
","
","
","""event"",""trial"",""time""
""fullscreenenter"",""0"",""1744""
","
","435.8999999985099","<div class='center'><img src='run_exp/static/images/tutorial/blue.png' height='500'></p></div>","49","","","","","","","","","","","","","","","","","","","","","","",""
"","html-keyboard-response","25","126711","0.0-25.0","""event"",""trial"",""time""
""fullscreenenter"",""0"",""1744""
","
","
","""event"",""trial"",""time""
""fullscreenenter"",""0"",""1744""
","
","null","<div class='center'><p><img src='run_exp/static/images/tutorial/blue_no_win.png' height='500'></p></div>","null","","","","","","","","","","","","","","","","","","","","","","",""
"","html-keyboard-response","26","126980","0.0-26.0","""event"",""trial"",""time""
""fullscreenenter"",""0"",""1744""
","
","
","""event"",""trial"",""time""
""fullscreenenter"",""0"",""1744""
","
","267.8999999985099","<div class='center'><img src='run_exp/static/images/tutorial/blue.png' height='500'></p></div>","49","","","","","","","","","","","","","","","","","","","","","","",""
"","html-keyboard-response","27","128484","0.0-27.0","""event"",""trial"",""time""
""fullscreenenter"",""0"",""1744""
","
","
","""event"",""trial"",""time""
""fullscreenenter"",""0"",""1744""
","
","null","<div class='center'><p><img src='run_exp/static/images/tutorial/blue_win.png' height='500'></p></div>","null","","","","","","","","","","","","","","","","","","","","","","",""
"","html-keyboard-response","28","128927","0.0-28.0","""event"",""trial"",""time""
""fullscreenenter"",""0"",""1744""
","
","
","""event"",""trial"",""time""
""fullscreenenter"",""0"",""1744""
","
","442.3999999985099","<div class='center'><img src='run_exp/static/images/tutorial/blue.png' height='500'></p></div>","49","","","","","","","","","","","","","","","","","","","","","","",""
"","html-keyboard-response","29","130429","0.0-29.0","""event"",""trial"",""time""
""fullscreenenter"",""0"",""1744""
","
","
","""event"",""trial"",""time""
""fullscreenenter"",""0"",""1744""
","
","null","<div class='center'><p><img src='run_exp/static/images/tutorial/blue_win.png' height='500'></p></div>","null","","","","","","","","","","","","","","","","","","","","","","",""
"","instruc6","30","135835","0.0-30.0","""event"",""trial"",""time""
""fullscreenenter"",""0"",""1744""
","
","
","""event"",""trial"",""time""
""fullscreenenter"",""0"",""1744""
","
","null","run_exp/static/audio/clip_6_blue_beard_outcome.m4a","null","","","","","<div class='center'><p> See, he succeeded in robbing the ships most of the time but not every time. </p></div>","","","","","","","","","","","","","","","","","",""
"","html-keyboard-response","31","136365","0.0-31.0","""event"",""trial"",""time""
""fullscreenenter"",""0"",""1744""
","
","
","""event"",""trial"",""time""
""fullscreenenter"",""0"",""1744""
","
","528.7999999970198","<div class='center'><p> See, he succeeded in robbing the ships most of the time but not every time. </p><p><b>[Press the space bar to continue]</b></p></div>","32","","","","","","","","","","","","","","","","","","","","","","",""
"","audio-keyboard-response","32","141129","0.0-32.0","""event"",""trial"",""time""
""fullscreenenter"",""0"",""1744""
","
","
","""event"",""trial"",""time""
""fullscreenenter"",""0"",""1744""
","
","4762","run_exp/static/audio/clip_7_pick_pirate.m4a","49","","","","","","","","","","","","","","","","","","","","","","",""
"","audio-keyboard-response","33","144595","0.0-33.0-0.0","""event"",""trial"",""time""
""fullscreenenter"",""0"",""1744""
","
","
","""event"",""trial"",""time""
""fullscreenenter"",""0"",""1744""
","
","3463.39999999851","run_exp/static/audio/clip_8_chosen_pirate_win.m4a","32","","","","","","","","","","","","","","","","","","","","","","",""
"","audio-keyboard-response","34","145374","0.0-33.0-1.0","""event"",""trial"",""time""
""fullscreenenter"",""0"",""1744""
","
","
","""event"",""trial"",""time""
""fullscreenenter"",""0"",""1744""
","
","776.7000000029802","run_exp/static/audio/clip_9_pick_a_pirate_again.m4a","50","","","","","","","","","","","","","","","","","","","","","","",""
"","audio-keyboard-response","35","147526","0.0-34.0-0.0","""event"",""trial"",""time""
""fullscreenenter"",""0"",""1744""
","
","
","""event"",""trial"",""time""
""fullscreenenter"",""0"",""1744""
","
","2149.10000000149","run_exp/static/audio/clip_10_chosen_pirate_loss.m4a","32","","","","","","","","","","","","","","","","","","","","","","",""
"","instruc9","36","153041","0.0-35.0-0.0","""event"",""trial"",""time""
""fullscreenenter"",""0"",""1744""
","
","
","""event"",""trial"",""time""
""fullscreenenter"",""0"",""1744""
","
","null","run_exp/static/audio/clip_11_time_out.m4a","null","","","","","<div class='center'><p>If you don’t make your choice fast enough, you’ll have to wait a few seconds before you can make another one. </p><p><img src='run_exp/static/images/miscellaneous/hurry_up.png' height='500'></p></div>","","","","","","","","","","","","","","","","","",""
"","html-keyboard-response","37","153572","0.0-35.0-1.0","""event"",""trial"",""time""
""fullscreenenter"",""0"",""1744""
","
","
","""event"",""trial"",""time""
""fullscreenenter"",""0"",""1744""
","
","529.7999999970198","<div class='center'><p>If you don’t make your choice fast enough, you’ll have to wait a few seconds before you can make another one. </p><p><img src='run_exp/static/images/miscellaneous/hurry_up.png' height='500'></p><p><b>[Press the space bar to continue]</b></p></div>","32","","","","","","","","","","","","","","","","","","","","","","",""
"","instruc10","38","192702","0.0-35.0-2.0","""event"",""trial"",""time""
""fullscreenenter"",""0"",""1744""
","
","
","""event"",""trial"",""time""
""fullscreenenter"",""0"",""1744""
","
","null","run_exp/static/audio/clip_12_probe.m4a","null","","","","","<div class='center'><p>Once you've chosen a pirate, you’ll be shown the ship they are robbing. You will never rob the same ship twice. Ships can be told apart from one another by the image on them. These are the goods that they sell. See, this ship has a travel mug on it. </p><p> You’ll have to remember which island you saw each ship on. You will win more gold coins and hence more bonus money if you remember correctly! To help you remember, you can imagine a story. For example, here, you could imagine a mug full of water in the desert. Or, as another example, if on the forest island, your pirate robbed a ship with an apple on it, you could imagine an apple falling from a tree in the forest. </p><p><img src='run_exp/static/images/tutorial/example_probe.png' height='500'></p></div>","","","","","","","","","","","","","","","","","",""
"","html-keyboard-response","39","194115","0.0-35.0-3.0","""event"",""trial"",""time""
""fullscreenenter"",""0"",""1744""
","
","
","""event"",""trial"",""time""
""fullscreenenter"",""0"",""1744""
","
","1411.2999999970198","<div class='center'><p>Once you've chosen a pirate, you’ll be shown the ship they are robbing. You will never rob the same ship twice. Ships can be told apart from one another by the image on them. These are the goods that they sell. See, this ship has a travel mug on it. </p><p> You’ll have to remember which island you saw each ship on. You will win more gold coins and hence more bonus money if you remember correctly! To help you remember, you can imagine a story. For example, here, you could imagine a mug full of water in the desert. Or, as another example, if on the forest island, your pirate robbed a ship with an apple on it, you could imagine an apple falling from a tree in the forest. </p><p><img src='run_exp/static/images/tutorial/example_probe.png' height='500'></p><p><b>[Press the space bar to continue]</b></p></div>","32","","","","","","","","","","","","","","","","","","","","","","",""
"","instruc11","40","210536","0.0-35.0-4.0","""event"",""trial"",""time""
""fullscreenenter"",""0"",""1744""
","
","
","""event"",""trial"",""time""
""fullscreenenter"",""0"",""1744""
","
","null","run_exp/static/audio/clip_13_changepoint.m4a","null","","","","","<div class='center'><p>How successful a pirate is at robbing ships will depend on the island you’re on.</p><p> A pirate may have visited this island many times before and gained a lot of practice robbing ships there.</p><p>So, they’re more likely to be successful than a pirate who has never visited the island before.</p></div>","","","","","","","","","","","","","","","","","",""
"","html-keyboard-response","41","210901","0.0-35.0-5.0","""event"",""trial"",""time""
""fullscreenenter"",""0"",""1744""
","
","
","""event"",""trial"",""time""
""fullscreenenter"",""0"",""1744""
","
","363.8999999985099","<div class='center'><p>How successful a pirate is at robbing ships will depend on the island you’re on.</p><p> A pirate may have visited this island many times before and gained a lot of practice robbing ships there.</p><p>So, they’re more likely to be successful than a pirate who has never visited the island before.</p><p><b>[Press the space bar to continue]</b></p></div>","32","","","","","","","","","","","","","","","","","","","","","","",""
"","instruc12","42","252008","0.0-35.0-6.0","""event"",""trial"",""time""
""fullscreenenter"",""0"",""1744""
","
","
","""event"",""trial"",""time""
""fullscreenenter"",""0"",""1744""
","
","null","run_exp/static/audio/clip_14_drift.m4a","null","","","","","<div class='center'><p>How successful a pirate is at robbing ships can also change over the time spent on the island. </p><p> Ships may hear from islanders about the pirates coming and will improve their protections against the attack. This may make it harder to rob them.</p><p> Ships may also become lazy and weaken the strength of their protections. This may make it easier to rob them.</p><br><p>Things are always changing on the high seas! So, try your best to pay attention!</p><p><img src='run_exp/static/images/tutorial/contingency.png' height='500'></p></div>","","","","","","","","","","","","","","","","","",""
"","html-keyboard-response","43","260336","0.0-35.0-7.0","""event"",""trial"",""time""
""fullscreenenter"",""0"",""1744""
","
","
","""event"",""trial"",""time""
""fullscreenenter"",""0"",""1744""
","
","8326.60000000149","<div class='center'><p>How successful a pirate is at robbing ships can also change over the time spent on the island. </p><p> Ships may hear from islanders about the pirates coming and will improve their protections against the attack. This may make it harder to rob them.</p><p> Ships may also become lazy and weaken the strength of their protections. This may make it easier to rob them.</p><br><p>Things are always changing on the high seas! So, try your best to pay attention!</p><p><img src='run_exp/static/images/tutorial/contingency.png' height='500'></p><p><b>[Press the space bar to continue]</b></p></div>","32","","","","","","","","","","","","","","","","","","","","","","",""
"","instruc13","44","295546","0.0-35.0-8.0","""event"",""trial"",""time""
""fullscreenenter"",""0"",""1744""
","
","
","""event"",""trial"",""time""
""fullscreenenter"",""0"",""1744""
","
","null","run_exp/static/audio/clip_15_summary.m4a","null","","","","","<div class='center'><p>Let's go over the instructions quickly again. You have two important things to do: </p><b><p> 1. Pick the pirate who is the best at robbing ships on the current island. </p></b><b><p> 2. Remember on which island a ship was robbed.</p> </b><p>The amount of bonus money you can win depends on both.</p><p><br><p>Let’s try a practice game. The game will start by showing you the pirates. First, pick a pirate using the <b> 1, 2, 3 </b> keys on your keyboard. When you are shown a ship, try to remember which island you’re on by making up a story.</p><p>This is just a practice game, so you’re not playing for money. </p><p> Good luck! This game will be very difficult but try your best!</p></div>","","","","","","","","","","","","","","","","","",""
"","html-keyboard-response","45","296860","0.0-35.0-9.0","""event"",""trial"",""time""
""fullscreenenter"",""0"",""1744""
","
","
","""event"",""trial"",""time""
""fullscreenenter"",""0"",""1744""
","
","1312.2000000029802","<div class='center'><p>Let's go over the instructions quickly again. You have two important things to do: </p><b><p> 1. Pick the pirate who is the best at robbing ships on the current island. </p></b><b><p> 2. Remember on which island a ship was robbed.</p> </b><p>The amount of bonus money you can win depends on both.</p><p><br><p>Let’s try a practice game. The game will start by showing you the pirates. First, pick a pirate using the <b> 1, 2, 3 </b> keys on your keyboard. When you are shown a ship, try to remember which island you’re on by making up a story.</p><p>This is just a practice game, so you’re not playing for money. </p><p> Good luck! This game will be very difficult but try your best!</p><p><b>[Press the space bar to continue]</b></p></div>","32","","","","","","","","","","","","","","","","","","","","","","",""
"","do_welcome","46","300882","0.0-35.0-10.0","""event"",""trial"",""time""
""fullscreenenter"",""0"",""1744""
","
","
","""event"",""trial"",""time""
""fullscreenenter"",""0"",""1744""
","
","null","","","","","","","","null","","","","","","","","","","","","","","","","",""
"","do_trial","47","307654","0.0-35.0-11.0","""event"",""trial"",""time""
""fullscreenenter"",""0"",""1744""
","
","
","""event"",""trial"",""time""
""fullscreenenter"",""0"",""1744""
","
","2265.7000000029802","","","","","","","","49","1,0,0","","","","","","","","","","","","","","","",""
"","html-keyboard-response","48","308659","0.0-36.0-0.0","""event"",""trial"",""time""
""fullscreenenter"",""0"",""1744""
","
","
","""event"",""trial"",""time""
""fullscreenenter"",""0"",""1744""
","
","null","<p></p>","null","","","","","","","","","","","","","","","","","","","","","","",""
"","do_trial","49","314079","0.0-36.0-1.0","""event"",""trial"",""time""
""fullscreenenter"",""0"",""1744""
","
","
","""event"",""trial"",""time""
""fullscreenenter"",""0"",""1744""
","
","914.9000000059605","","","","","","","","50","1,1,0","","","","","","","","","","","","","","","",""
"","html-keyboard-response","50","315082","0.0-37.0-0.0","""event"",""trial"",""time""
""fullscreenenter"",""0"",""1744""
","
","
","""event"",""trial"",""time""
""fullscreenenter"",""0"",""1744""
","
","null","<p></p>","null","","","","","","","","","","","","","","","","","","","","","","",""
"","do_trial","51","320879","0.0-37.0-1.0","""event"",""trial"",""time""
""fullscreenenter"",""0"",""1744""
","
","
","""event"",""trial"",""time""
""fullscreenenter"",""0"",""1744""
","
","1285.1000000014901","","","","","","","","51","1,0,1","","","","","","","","","","","","","","","",""
"","html-keyboard-response","52","321880","0.0-38.0-0.0","""event"",""trial"",""time""
""fullscreenenter"",""0"",""1744""
","
","
","""event"",""trial"",""time""
""fullscreenenter"",""0"",""1744""
","
","null","<p></p>","null","","","","","","","","","","","","","","","","","","","","","","",""
"","do_trial","53","327265","0.0-38.0-1.0","""event"",""trial"",""time""
""fullscreenenter"",""0"",""1744""
","
","
","""event"",""trial"",""time""
""fullscreenenter"",""0"",""1744""
","
","875.5999999940395","","","","","","","","50","0,1,0","","","","","","","","","","","","","","","",""
"","html-keyboard-response","54","328267","0.0-39.0-0.0","""event"",""trial"",""time""
""fullscreenenter"",""0"",""1744""
","
","
","""event"",""trial"",""time""
""fullscreenenter"",""0"",""1744""
","
","null","<p></p>","null","","","","","","","","","","","","","","","","","","","","","","",""
"","do_trial","55","333364","0.0-39.0-1.0","""event"",""trial"",""time""
""fullscreenenter"",""0"",""1744""
","
","
","""event"",""trial"",""time""
""fullscreenenter"",""0"",""1744""
","
","587.8999999985099","","","","","","","","49","1,0,0","","","","","","","","","","","","","","","",""
"","do_bye","56","334871","0.0-40.0-0.0","""event"",""trial"",""time""
""fullscreenenter"",""0"",""1744""
","
","
","""event"",""trial"",""time""
""fullscreenenter"",""0"",""1744""
","
","null","","","","","","","","null","","","","","","","","","","","","","","","","",""
"","do_travel","57","343877","0.0-40.0-1.0","""event"",""trial"",""time""
""fullscreenenter"",""0"",""1744""
","
","
","""event"",""trial"",""time""
""fullscreenenter"",""0"",""1744""
","
","null","","","","","","","","null","","","","","","","","","","","","","","","","",""
"","do_welcome","58","347885","0.0-40.0-2.0","""event"",""trial"",""time""
""fullscreenenter"",""0"",""1744""
","
","
","""event"",""trial"",""time""
""fullscreenenter"",""0"",""1744""
","
","null","","","","","","","","null","","","","","","","","","","","","","","","","",""
"","do_trial","59","353290","0.0-40.0-3.0","""event"",""trial"",""time""
""fullscreenenter"",""0"",""1744""
","
","
","""event"",""trial"",""time""
""fullscreenenter"",""0"",""1744""
","
","892.8000000044703","","","","","","","","49","1,0,0","","","","","","","","","","","","","","","",""
"","html-keyboard-response","60","354315","0.0-41.0-0.0","""event"",""trial"",""time""
""fullscreenenter"",""0"",""1744""
","
","
","""event"",""trial"",""time""
""fullscreenenter"",""0"",""1744""
","
","null","<p></p>","null","","","","","","","","","","","","","","","","","","","","","","",""
"","do_trial","61","359778","0.0-41.0-1.0","""event"",""trial"",""time""
""fullscreenenter"",""0"",""1744""
","
","
","""event"",""trial"",""time""
""fullscreenenter"",""0"",""1744""
","
","902.2999999970198","","","","","","","","49","1,0,1","","","","","","","","","","","","","","","",""
"","html-keyboard-response","62","360814","0.0-42.0-0.0","""event"",""trial"",""time""
""fullscreenenter"",""0"",""1744""
","
","
","""event"",""trial"",""time""
""fullscreenenter"",""0"",""1744""
","
","null","<p></p>","null","","","","","","","","","","","","","","","","","","","","","","",""
"","do_trial","63","365776","0.0-42.0-1.0","""event"",""trial"",""time""
""fullscreenenter"",""0"",""1744""
","
","
","""event"",""trial"",""time""
""fullscreenenter"",""0"",""1744""
","
","436.79999999701977","","","","","","","","49","1,1,0","","","","","","","","","","","","","","","",""
"","html-keyboard-response","64","366786","0.0-43.0-0.0","""event"",""trial"",""time""
""fullscreenenter"",""0"",""1744""
","
","
","""event"",""trial"",""time""
""fullscreenenter"",""0"",""1744""
","
","null","<p></p>","null","","","","","","","","","","","","","","","","","","","","","","",""
"","do_trial","65","371675","0.0-43.0-1.0","""event"",""trial"",""time""
""fullscreenenter"",""0"",""1744""
","
","
","""event"",""trial"",""time""
""fullscreenenter"",""0"",""1744""
","
","367.20000000298023","","","","","","","","50","0,0,1","","","","","","","","","","","","","","","",""
"","html-keyboard-response","66","372687","0.0-44.0-0.0","""event"",""trial"",""time""
""fullscreenenter"",""0"",""1744""
","
","
","""event"",""trial"",""time""
""fullscreenenter"",""0"",""1744""
","
","null","<p></p>","null","","","","","","","","","","","","","","","","","","","","","","",""
"","do_trial","67","377693","0.0-44.0-1.0","""event"",""trial"",""time""
""fullscreenenter"",""0"",""1744""
","
","
","""event"",""trial"",""time""
""fullscreenenter"",""0"",""1744""
","
","470.40000000596046","","","","","","","","49","1,0,1","","","","","","","","","","","","","","","",""
"","html-keyboard-response","68","380523","0.0-45.0-0.0","""event"",""trial"",""time""
""fullscreenenter"",""0"",""1744""
","
","
","""event"",""trial"",""time""
""fullscreenenter"",""0"",""1744""
","
","2798.10000000149","<div class='center'><p><img src='run_exp/static/images/tutorial/prac_best_pirate.png'  height='500'></p></div>","49","","","","","","","","","","","","","","","","","","","","","","",""
"","html-keyboard-response","69","381894","0.0-46.0-0.0","""event"",""trial"",""time""
""fullscreenenter"",""0"",""1744""
","
","
","""event"",""trial"",""time""
""fullscreenenter"",""0"",""1744""
","
","1368.6000000014901","<div class='center'><p>That's correct! Red beard was the best.</p><p><b>[Press the space bar to continue]</b></p></div>","32","","","","","","","","","","","","","","","","","","","","","","",""
"","html-keyboard-response","70","384044","0.0-46.0-1.0","""event"",""trial"",""time""
""fullscreenenter"",""0"",""1744""
","
","
","""event"",""trial"",""time""
""fullscreenenter"",""0"",""1744""
","
","2149.2000000029802","<div class='center'><p><img src='run_exp/static/images/tutorial/prac_source.png'  height='500'></p></div>","50","","","","","","","","","","","","","","","","","","","","","","",""
"","html-keyboard-response","71","385037","0.0-47.0-0.0","""event"",""trial"",""time""
""fullscreenenter"",""0"",""1744""
","
","
","""event"",""trial"",""time""
""fullscreenenter"",""0"",""1744""
","
","991.5","<div class='center'><p>That's correct! You saw this ship on the cavern island.</p><p><b>[Press the space bar to continue]</b></p></div>","32","","","","","","","","","","","","","","","","","","","","","","",""
"","quiz_beginning","72","396427","0.0-47.0-1.0","""event"",""trial"",""time""
""fullscreenenter"",""0"",""1744""
","
","
","""event"",""trial"",""time""
""fullscreenenter"",""0"",""1744""
","
","null","run_exp/static/audio/clip_16_quiz_intro.m4a","null","","","","","<div class='center'><p>Good job on the practice game! Now, you will be asked some true or false questions to make sure you really understand the rules of the game.</p><p> Press <b>'1'</b> on the keyboard for true and press <b>'2'</b> for false.</p></div>","","","","","","","","","","","","","","","","","",""
"","audio-keyboard-response","73","405084","0.0-47.0-2.0","""event"",""trial"",""time""
""fullscreenenter"",""0"",""1744""
","
","
","""event"",""trial"",""time""
""fullscreenenter"",""0"",""1744""
","
","8654.29999999702","run_exp/static/audio/clip_17_q1.m4a","49","","","","","","","","","","","","","","","","","","","","","","",""
"","correct","74","407495","0.0-48.0-0.0","""event"",""trial"",""time""
""fullscreenenter"",""0"",""1744""
","
","
","""event"",""trial"",""time""
""fullscreenenter"",""0"",""1744""
","
","null","run_exp/static/audio/clip_18_correct.m4a","null","","","","","<div class='center'><p>That's correct!</p></div>","","","","","","","","","","","","","","","","","",""
"","html-keyboard-response","75","408107","0.0-48.0-1.0","""event"",""trial"",""time""
""fullscreenenter"",""0"",""1744""
","
","
","""event"",""trial"",""time""
""fullscreenenter"",""0"",""1744""
","
","610.8999999985099","<div class='center'><p>That's correct!</p><p><b>[Press the space bar to continue]</b></p></div>","32","","","","","","","","","","","","","","","","","","","","","","",""
"","audio-keyboard-response","76","417628","0.0-48.0-2.0","""event"",""trial"",""time""
""fullscreenenter"",""0"",""1744""
","
","
","""event"",""trial"",""time""
""fullscreenenter"",""0"",""1744""
","
","9519","run_exp/static/audio/clip_20_q2.m4a","49","","","","","","","","","","","","","","","","","","","","","","",""
"","q2_err","77","423146","0.0-49.0-0.0","""event"",""trial"",""time""
""fullscreenenter"",""0"",""1744""
","
","
","""event"",""trial"",""time""
""fullscreenenter"",""0"",""1744""
","
","null","run_exp/static/audio/clip_21_wrong_q2.m4a","null","","","","","<div class='center'><p>That’s incorrect. Which pirate is the best may change during your time on the island.</p></div>","","","","","","","","","","","","","","","","","",""
"","html-keyboard-response","78","424925","0.0-49.0-1.0","""event"",""trial"",""time""
""fullscreenenter"",""0"",""1744""
","
","
","""event"",""trial"",""time""
""fullscreenenter"",""0"",""1744""
","
","1777.5999999940395","<div class='center'><p>That’s incorrect. Which pirate is the best may change during your time on the island.</p><p><b>[Press the space bar to continue]</b></p></div>","32","","","","","","","","","","","","","","","","","","","","","","",""
"","audio-keyboard-response","79","431499","0.0-49.0-2.0","""event"",""trial"",""time""
""fullscreenenter"",""0"",""1744""
","
","
","""event"",""trial"",""time""
""fullscreenenter"",""0"",""1744""
","
","6573.39999999851","run_exp/static/audio/clip_22_q3.m4a","50","","","","","","","","","","","","","","","","","","","","","","",""
"","correct","80","433920","0.0-50.0-0.0","""event"",""trial"",""time""
""fullscreenenter"",""0"",""1744""
","
","
","""event"",""trial"",""time""
""fullscreenenter"",""0"",""1744""
","
","null","run_exp/static/audio/clip_18_correct.m4a","null","","","","","<div class='center'><p>That's correct!</p></div>","","","","","","","","","","","","","","","","","",""
"","html-keyboard-response","81","434404","0.0-50.0-1.0","""event"",""trial"",""time""
""fullscreenenter"",""0"",""1744""
","
","
","""event"",""trial"",""time""
""fullscreenenter"",""0"",""1744""
","
","482.19999999552965","<div class='center'><p>That's correct!</p><p><b>[Press the space bar to continue]</b></p></div>","32","","","","","","","","","","","","","","","","","","","","","","",""
"","audio-keyboard-response","82","440539","0.0-50.0-2.0","""event"",""trial"",""time""
""fullscreenenter"",""0"",""1744""
","
","
","""event"",""trial"",""time""
""fullscreenenter"",""0"",""1744""
","
","6133.79999999702","run_exp/static/audio/clip_24_q4.m4a","49","","","","","","","","","","","","","","","","","","","","","","",""
"","correct","83","442953","0.0-51.0-0.0","""event"",""trial"",""time""
""fullscreenenter"",""0"",""1744""
","
","
","""event"",""trial"",""time""
""fullscreenenter"",""0"",""1744""
","
","null","run_exp/static/audio/clip_18_correct.m4a","null","","","","","<div class='center'><p>That's correct!</p></div>","","","","","","","","","","","","","","","","","",""
"","html-keyboard-response","84","443569","0.0-51.0-1.0","""event"",""trial"",""time""
""fullscreenenter"",""0"",""1744""
","
","
","""event"",""trial"",""time""
""fullscreenenter"",""0"",""1744""
","
","614.1999999955297","<div class='center'><p>That's correct!</p><p><b>[Press the space bar to continue]</b></p></div>","32","","","","","","","","","","","","","","","","","","","","","","",""
"","q_all_err","85","449780","0.0-52.0-0.0","""event"",""trial"",""time""
""fullscreenenter"",""0"",""1744""
","
","
","""event"",""trial"",""time""
""fullscreenenter"",""0"",""1744""
","
","null","run_exp/static/audio/clip_26_quiz_redo.m4a","null","","","","","<div class='center'><p>Oops, you missed some questions. Now that you’ve heard the correct answers. Try the quiz again! </p></div>","","","","","","","","","","","","","","","","","",""
"","html-keyboard-response","86","450178","0.0-52.0-1.0","""event"",""trial"",""time""
""fullscreenenter"",""0"",""1744""
","
","
","""event"",""trial"",""time""
""fullscreenenter"",""0"",""1744""
","
","396.1000000014901","<div class='center'><p>Oops, you missed some questions. Now that you’ve heard the correct answers. Try the quiz again! </p><p><b>[Press the space bar to continue]</b></p></div>","32","","","","","","","","","","","","","","","","","","","","","","",""
"","audio-keyboard-response","87","453522","0.0-52.0-2.0","""event"",""trial"",""time""
""fullscreenenter"",""0"",""1744""
","
","
","""event"",""trial"",""time""
""fullscreenenter"",""0"",""1744""
","
","3343.39999999851","run_exp/static/audio/clip_17_q1.m4a","49","","","","","","","","","","","","","","","","","","","","","","",""
"","correct","88","455934","0.0-53.0-0.0","""event"",""trial"",""time""
""fullscreenenter"",""0"",""1744""
","
","
","""event"",""trial"",""time""
""fullscreenenter"",""0"",""1744""
","
","null","run_exp/static/audio/clip_18_correct.m4a","null","","","","","<div class='center'><p>That's correct!</p></div>","","","","","","","","","","","","","","","","","",""
"","html-keyboard-response","89","456542","0.0-53.0-1.0","""event"",""trial"",""time""
""fullscreenenter"",""0"",""1744""
","
","
","""event"",""trial"",""time""
""fullscreenenter"",""0"",""1744""
","
","606.7999999970198","<div class='center'><p>That's correct!</p><p><b>[Press the space bar to continue]</b></p></div>","32","","","","","","","","","","","","","","","","","","","","","","",""
"","audio-keyboard-response","90","458808","0.0-53.0-2.0","""event"",""trial"",""time""
""fullscreenenter"",""0"",""1744""
","
","
","""event"",""trial"",""time""
""fullscreenenter"",""0"",""1744""
","
","2264.9000000059605","run_exp/static/audio/clip_20_q2.m4a","50","","","","","","","","","","","","","","","","","","","","","","",""
"","correct","91","461228","0.0-54.0-0.0","""event"",""trial"",""time""
""fullscreenenter"",""0"",""1744""
","
","
","""event"",""trial"",""time""
""fullscreenenter"",""0"",""1744""
","
","null","run_exp/static/audio/clip_18_correct.m4a","null","","","","","<div class='center'><p>That's correct!</p></div>","","","","","","","","","","","","","","","","","",""
"","html-keyboard-response","92","461491","0.0-54.0-1.0","""event"",""trial"",""time""
""fullscreenenter"",""0"",""1744""
","
","
","""event"",""trial"",""time""
""fullscreenenter"",""0"",""1744""
","
","262","<div class='center'><p>That's correct!</p><p><b>[Press the space bar to continue]</b></p></div>","32","","","","","","","","","","","","","","","","","","","","","","",""
"","audio-keyboard-response","93","463826","0.0-54.0-2.0","""event"",""trial"",""time""
""fullscreenenter"",""0"",""1744""
","
","
","""event"",""trial"",""time""
""fullscreenenter"",""0"",""1744""
","
","2333.89999999851","run_exp/static/audio/clip_22_q3.m4a","50","","","","","","","","","","","","","","","","","","","","","","",""
"","correct","94","466244","0.0-55.0-0.0","""event"",""trial"",""time""
""fullscreenenter"",""0"",""1744""
","
","
","""event"",""trial"",""time""
""fullscreenenter"",""0"",""1744""
","
","null","run_exp/static/audio/clip_18_correct.m4a","null","","","","","<div class='center'><p>That's correct!</p></div>","","","","","","","","","","","","","","","","","",""
"","html-keyboard-response","95","466612","0.0-55.0-1.0","""event"",""trial"",""time""
""fullscreenenter"",""0"",""1744""
","
","
","""event"",""trial"",""time""
""fullscreenenter"",""0"",""1744""
","
","367.6000000014901","<div class='center'><p>That's correct!</p><p><b>[Press the space bar to continue]</b></p></div>","32","","","","","","","","","","","","","","","","","","","","","","",""
"","audio-keyboard-response","96","467899","0.0-55.0-2.0","""event"",""trial"",""time""
""fullscreenenter"",""0"",""1744""
","
","
","""event"",""trial"",""time""
""fullscreenenter"",""0"",""1744""
","
","1284.6000000014901","run_exp/static/audio/clip_24_q4.m4a","49","","","","","","","","","","","","","","","","","","","","","","",""
"","correct","97","470377","0.0-56.0-0.0","""event"",""trial"",""time""
""fullscreenenter"",""0"",""1744""
","
","
","""event"",""trial"",""time""
""fullscreenenter"",""0"",""1744""
","
","null","run_exp/static/audio/clip_18_correct.m4a","null","","","","","<div class='center'><p>That's correct!</p></div>","","","","","","","","","","","","","","","","","",""
"","html-keyboard-response","98","470746","0.0-56.0-1.0","""event"",""trial"",""time""
""fullscreenenter"",""0"",""1744""
","
","
","""event"",""trial"",""time""
""fullscreenenter"",""0"",""1744""
","
","367.19999999552965","<div class='center'><p>That's correct!</p><p><b>[Press the space bar to continue]</b></p></div>","32","","","","","","","","","","","","","","","","","","","","","","",""
"","q_all_corr","99","479248","0.0-57.0-0.0","""event"",""trial"",""time""
""fullscreenenter"",""0"",""1744""
","
","
","""event"",""trial"",""time""
""fullscreenenter"",""0"",""1744""
","
","null","run_exp/static/audio/clip_27_quiz_all_correct.m4a","null","","","","","<div class='center'><p>Good job! You’re now ready to move on to the real game! Remember this game will be difficult but don't get discouraged and try your best!</p></div>","","","","","","","","","","","","","","","","","",""
"","html-keyboard-response","100","480237","0.0-57.0-1.0","""event"",""trial"",""time""
""fullscreenenter"",""0"",""1744""
","
","
","""event"",""trial"",""time""
""fullscreenenter"",""0"",""1744""
","
","986.3000000044703","<div class='center'><p>Good job! You’re now ready to move on to the real game! Remember this game will be difficult but don't get discouraged and try your best!</p><p><b>[Press the space bar to continue]</b></p></div>","32","","","","","","","","","","","","","","","","","","","","","","",""
"","do_welcome","101","484283","0.0-58.0-0.0","""event"",""trial"",""time""
""fullscreenenter"",""0"",""1744""
","
","
","""event"",""trial"",""time""
""fullscreenenter"",""0"",""1744""
","
","null","","","","","","","","null","","","","","","","","","","","","","","","","",""
"","do_trial","102","490133","0.0-59.0-0.0","""event"",""trial"",""time""
""fullscreenenter"",""0"",""1744""
","
","
","""event"",""trial"",""time""
""fullscreenenter"",""0"",""1744""
","
","1289.2999999970198","","","","","","","","49","1,0,0","0","forest","0","probe-85","0.6","0.3","0.1","1","","","","","","","",""
"","html-keyboard-response","103","491147","0.0-59.0-1.0","""event"",""trial"",""time""
""fullscreenenter"",""0"",""1744""
","
","
","""event"",""trial"",""time""
""fullscreenenter"",""0"",""1744""
","
","null","<p></p>","null","","","","","","","","","","","","","","","","","","","","","","",""
"","do_trial","104","497653","0.0-60.0-0.0","""event"",""trial"",""time""
""fullscreenenter"",""0"",""1744""
","
","
","""event"",""trial"",""time""
""fullscreenenter"",""0"",""1744""
","
","1956.1999999955297","","","","","","","","49","1,1,0","0","forest","1","probe-137","0.6799569768915984","0.3850392098501383","0.08240667485018854","1","","","","","","","",""
"","html-keyboard-response","105","498656","0.0-60.0-1.0","""event"",""trial"",""time""
""fullscreenenter"",""0"",""1744""
","
","
","""event"",""trial"",""time""
""fullscreenenter"",""0"",""1744""
","
","null","<p></p>","null","","","","","","","","","","","","","","","","","","","","","","",""
"","do_trial","106","503938","0.0-61.0-0.0","""event"",""trial"",""time""
""fullscreenenter"",""0"",""1744""
","
","
","""event"",""trial"",""time""
""fullscreenenter"",""0"",""1744""
","
","732.1000000014901","","","","","","","","49","0,1,0","0","forest","2","probe-141","0.5622832963102152","0.3418785843165696","0.18763356731802977","0","","","","","","","",""
"","html-keyboard-response","107","504940","0.0-61.0-1.0","""event"",""trial"",""time""
""fullscreenenter"",""0"",""1744""
","
","
","""event"",""trial"",""time""
""fullscreenenter"",""0"",""1744""
","
","null","<p></p>","null","","","","","","","","","","","","","","","","","","","","","","",""
"","do_trial","108","510277","0.0-62.0-0.0","""event"",""trial"",""time""
""fullscreenenter"",""0"",""1744""
","
","
","""event"",""trial"",""time""
""fullscreenenter"",""0"",""1744""
","
","774.4000000059605","","","","","","","","51","1,0,1","0","forest","3","probe-59","0.48246495391016625","0.28905010265558184","0.13325877905128072","1","","","","","","","",""
"","html-keyboard-response","109","511279","0.0-62.0-1.0","""event"",""trial"",""time""
""fullscreenenter"",""0"",""1744""
","
","
","""event"",""trial"",""time""
""fullscreenenter"",""0"",""1744""
","
","null","<p></p>","null","","","","","","","","","","","","","","","","","","","","","","",""
"","do_trial","110","516181","0.0-63.0-0.0","""event"",""trial"",""time""
""fullscreenenter"",""0"",""1744""
","
","
","""event"",""trial"",""time""
""fullscreenenter"",""0"",""1744""
","
","350","","","","","","","","51","0,0,0","0","forest","4","probe-179","0.5542903249371228","0.2571257654330492","0.15864283658412423","0","","","","","","","",""
"","html-keyboard-response","111","517183","0.0-63.0-1.0","""event"",""trial"",""time""
""fullscreenenter"",""0"",""1744""
","
","
","""event"",""trial"",""time""
""fullscreenenter"",""0"",""1744""
","
","null","<p></p>","null","","","","","","","","","","","","","","","","","","","","","","",""
"","do_trial","112","522126","0.0-64.0-0.0","""event"",""trial"",""time""
""fullscreenenter"",""0"",""1744""
","
","
","""event"",""trial"",""time""
""fullscreenenter"",""0"",""1744""
","
","392","","","","","","","","50","0,0,0","0","forest","5","probe-197","0.6381740465144463","0.26891420159274254","0.06682655310079293","0","","","","","","","",""
"","html-keyboard-response","113","523128","0.0-64.0-1.0","""event"",""trial"",""time""
""fullscreenenter"",""0"",""1744""
","
","
","""event"",""trial"",""time""
""fullscreenenter"",""0"",""1744""
","
","null","<p></p>","null","","","","","","","","","","","","","","","","","","","","","","",""
"","do_trial","114","527965","0.0-65.0-0.0","""event"",""trial"",""time""
""fullscreenenter"",""0"",""1744""
","
","
","""event"",""trial"",""time""
""fullscreenenter"",""0"",""1744""
","
","285.80000000447035","","","","","","","","49","0,0,0","0","forest","6","probe-175","0.6518690847894645","0.21916652602890083","0.07063483860019865","0","","","","","","","",""
"","html-keyboard-response","115","528967","0.0-65.0-1.0","""event"",""trial"",""time""
""fullscreenenter"",""0"",""1744""
","
","
","""event"",""trial"",""time""
""fullscreenenter"",""0"",""1744""
","
","null","<p></p>","null","","","","","","","","","","","","","","","","","","","","","","",""
"","do_trial","116","534020","0.0-66.0-0.0","""event"",""trial"",""time""
""fullscreenenter"",""0"",""1744""
","
","
","""event"",""trial"",""time""
""fullscreenenter"",""0"",""1744""
","
","501.19999999552965","","","","","","","","49","0,0,1","0","forest","7","probe-110","0.5505450981016631","0.3223065042438097","0.23492549991203462","0","","","","","","","",""
"","html-keyboard-response","117","535022","0.0-66.0-1.0","""event"",""trial"",""time""
""fullscreenenter"",""0"",""1744""
","
","
","""event"",""trial"",""time""
""fullscreenenter"",""0"",""1744""
","
","null","<p></p>","null","","","","","","","","","","","","","","","","","","","","","","",""
"","do_trial","118","539874","0.0-67.0-0.0","""event"",""trial"",""time""
""fullscreenenter"",""0"",""1744""
","
","
","""event"",""trial"",""time""
""fullscreenenter"",""0"",""1744""
","
","301.5","","","","","","","","51","1,0,0","0","forest","8","probe-224","0.5690591735058537","0.31046842259710616","0.12867548960626027","0","","","","","","","",""
"","html-keyboard-response","119","540876","0.0-67.0-1.0","""event"",""trial"",""time""
""fullscreenenter"",""0"",""1744""
","
","
","""event"",""trial"",""time""
""fullscreenenter"",""0"",""1744""
","
","null","<p></p>","null","","","","","","","","","","","","","","","","","","","","","","",""
"","do_trial","120","545774","0.0-68.0-0.0","""event"",""trial"",""time""
""fullscreenenter"",""0"",""1744""
","
","
","""event"",""trial"",""time""
""fullscreenenter"",""0"",""1744""
","
","348.09999999403954","","","","","","","","50","1,1,0","0","forest","9","probe-95","0.7746667907096594","0.24935106252787329","0.1651472494484214","1","","","","","","","",""
"","html-keyboard-response","121","546776","0.0-68.0-1.0","""event"",""trial"",""time""
""fullscreenenter"",""0"",""1744""
","
","
","""event"",""trial"",""time""
""fullscreenenter"",""0"",""1744""
","
","null","<p></p>","null","","","","","","","","","","","","","","","","","","","","","","",""
"","do_trial","122","551908","0.0-69.0-0.0","""event"",""trial"",""time""
""fullscreenenter"",""0"",""1744""
","
","
","""event"",""trial"",""time""
""fullscreenenter"",""0"",""1744""
","
","571.6000000014901","","","","","","","","50","0,0,0","0","forest","10","probe-133","0.6354129046480472","0.2710471200564313","0.12248932077627661","0","","","","","","","",""
"","html-keyboard-response","123","552910","0.0-69.0-1.0","""event"",""trial"",""time""
""fullscreenenter"",""0"",""1744""
","
","
","""event"",""trial"",""time""
""fullscreenenter"",""0"",""1744""
","
","null","<p></p>","null","","","","","","","","","","","","","","","","","","","","","","",""
"","do_trial","124","557918","0.0-70.0-0.0","""event"",""trial"",""time""
""fullscreenenter"",""0"",""1744""
","
","
","""event"",""trial"",""time""
""fullscreenenter"",""0"",""1744""
","
","455","","","","","","","","50","0,0,0","0","forest","11","probe-142","0.501790382556436","0.36319928618185926","0.06927347375388344","0","","","","","","","",""
"","html-keyboard-response","125","558923","0.0-70.0-1.0","""event"",""trial"",""time""
""fullscreenenter"",""0"",""1744""
","
","
","""event"",""trial"",""time""
""fullscreenenter"",""0"",""1744""
","
","null","<p></p>","null","","","","","","","","","","","","","","","","","","","","","","",""
"","do_trial","126","563939","0.0-71.0-0.0","""event"",""trial"",""time""
""fullscreenenter"",""0"",""1744""
","
","
","""event"",""trial"",""time""
""fullscreenenter"",""0"",""1744""
","
","466.69999999552965","","","","","","","","49","1,1,0","0","forest","12","probe-70","0.41769856333502114","0.29371188581189306","0.13934710042638215","1","","","","","","","",""
"","html-keyboard-response","127","564941","0.0-71.0-1.0","""event"",""trial"",""time""
""fullscreenenter"",""0"",""1744""
","
","
","""event"",""trial"",""time""
""fullscreenenter"",""0"",""1744""
","
","null","<p></p>","null","","","","","","","","","","","","","","","","","","","","","","",""
"","do_trial","128","570036","0.0-72.0-0.0","""event"",""trial"",""time""
""fullscreenenter"",""0"",""1744""
","
","
","""event"",""trial"",""time""
""fullscreenenter"",""0"",""1744""
","
","545.1000000014901","","","","","","","","49","0,1,0","0","forest","13","probe-62","0.4578911779933314","0.3985439068938247","0.15038381051311084","0","","","","","","","",""
"","html-keyboard-response","129","571038","0.0-72.0-1.0","""event"",""trial"",""time""
""fullscreenenter"",""0"",""1744""
","
","
","""event"",""trial"",""time""
""fullscreenenter"",""0"",""1744""
","
","null","<p></p>","null","","","","","","","","","","","","","","","","","","","","","","",""
"","do_trial","130","576128","0.0-73.0-0.0","""event"",""trial"",""time""
""fullscreenenter"",""0"",""1744""
","
","
","""event"",""trial"",""time""
""fullscreenenter"",""0"",""1744""
","
","538.5","","","","","","","","51","1,0,0","0","forest","14","probe-25","0.5833141707034966","0.3489435091161438","0.1789480449992953","0","","","","","","","",""
"","html-keyboard-response","131","577130","0.0-73.0-1.0","""event"",""trial"",""time""
""fullscreenenter"",""0"",""1744""
","
","
","""event"",""trial"",""time""
""fullscreenenter"",""0"",""1744""
","
","null","<p></p>","null","","","","","","","","","","","","","","","","","","","","","","",""
"","do_trial","132","581695","0.0-74.0-0.0","""event"",""trial"",""time""
""fullscreenenter"",""0"",""1744""
","
","
","""event"",""trial"",""time""
""fullscreenenter"",""0"",""1744""
","
","0.3999999985098839","","","","","","","","51","0,0,0","0","forest","15","probe-164","0.5631705755200476","0.4028230300398894","0.1862112717661763","0","","","","","","","",""
"","html-keyboard-response","133","582697","0.0-74.0-1.0","""event"",""trial"",""time""
""fullscreenenter"",""0"",""1744""
","
","
","""event"",""trial"",""time""
""fullscreenenter"",""0"",""1744""
","
","null","<p></p>","null","","","","","","","","","","","","","","","","","","","","","","",""
"","do_trial","134","587420","0.0-75.0-0.0","""event"",""trial"",""time""
""fullscreenenter"",""0"",""1744""
","
","
","""event"",""trial"",""time""
""fullscreenenter"",""0"",""1744""
","
","171.70000000298023","","","","","","","","50","1,0,0","0","forest","16","probe-78","0.6086440767412028","0.31918952456604743","0.09520472836539151","0","","","","","","","",""
"","html-keyboard-response","135","588430","0.0-75.0-1.0","""event"",""trial"",""time""
""fullscreenenter"",""0"",""1744""
","
","
","""event"",""trial"",""time""
""fullscreenenter"",""0"",""1744""
","
","null","<p></p>","null","","","","","","","","","","","","","","","","","","","","","","",""
"","do_trial","136","593144","0.0-76.0-0.0","""event"",""trial"",""time""
""fullscreenenter"",""0"",""1744""
","
","
","""event"",""trial"",""time""
""fullscreenenter"",""0"",""1744""
","
","151.29999999701977","","","","","","","","50","1,0,0","0","forest","17","probe-167","0.7720215534419304","0.42154864554338956","0.12603490961444766","0","","","","","","","",""
"","html-keyboard-response","137","594146","0.0-76.0-1.0","""event"",""trial"",""time""
""fullscreenenter"",""0"",""1744""
","
","
","""event"",""trial"",""time""
""fullscreenenter"",""0"",""1744""
","
","null","<p></p>","null","","","","","","","","","","","","","","","","","","","","","","",""
"","do_trial","138","598791","0.0-77.0-0.0","""event"",""trial"",""time""
""fullscreenenter"",""0"",""1744""
","
","
","""event"",""trial"",""time""
""fullscreenenter"",""0"",""1744""
","
","81.39999999850988","","","","","","","","49","1,1,0","0","forest","18","probe-208","0.6365036952499215","0.3261516507125091","0.07434382242730413","1","","","","","","","",""
"","html-keyboard-response","139","599793","0.0-77.0-1.0","""event"",""trial"",""time""
""fullscreenenter"",""0"",""1744""
","
","
","""event"",""trial"",""time""
""fullscreenenter"",""0"",""1744""
","
","null","<p></p>","null","","","","","","","","","","","","","","","","","","","","","","",""
"","do_trial","140","604523","0.0-78.0-0.0","""event"",""trial"",""time""
""fullscreenenter"",""0"",""1744""
","
","
","""event"",""trial"",""time""
""fullscreenenter"",""0"",""1744""
","
","179.70000000298023","","","","","","","","49","1,0,0","0","forest","19","probe-207","0.4759832788889417","0.27121020185008454","0.15840578514101009","1","","","","","","","",""
"","html-keyboard-response","141","605525","0.0-78.0-1.0","""event"",""trial"",""time""
""fullscreenenter"",""0"",""1744""
","
","
","""event"",""trial"",""time""
""fullscreenenter"",""0"",""1744""
","
","null","<p></p>","null","","","","","","","","","","","","","","","","","","","","","","",""
"","do_trial","142","610619","0.0-79.0-0.0","""event"",""trial"",""time""
""fullscreenenter"",""0"",""1744""
","
","
","""event"",""trial"",""time""
""fullscreenenter"",""0"",""1744""
","
","544.5","","","","","","","","49","1,0,0","0","forest","20","probe-07","0.5156389791546634","0.21099001853189756","0.15612694570121372","1","","","","","","","",""
"","html-keyboard-response","143","611622","0.0-79.0-1.0","""event"",""trial"",""time""
""fullscreenenter"",""0"",""1744""
","
","
","""event"",""trial"",""time""
""fullscreenenter"",""0"",""1744""
","
","null","<p></p>","null","","","","","","","","","","","","","","","","","","","","","","",""
"","do_trial","144","616614","0.0-80.0-0.0","""event"",""trial"",""time""
""fullscreenenter"",""0"",""1744""
","
","
","""event"",""trial"",""time""
""fullscreenenter"",""0"",""1744""
","
","441.70000000298023","","","","","","","","49","0,0,0","0","forest","21","probe-135","0.3935526112355081","0.30404103195273047","0.1706344412099071","0","","","","","","","",""
"","html-keyboard-response","145","617616","0.0-80.0-1.0","""event"",""trial"",""time""
""fullscreenenter"",""0"",""1744""
","
","
","""event"",""trial"",""time""
""fullscreenenter"",""0"",""1744""
","
","null","<p></p>","null","","","","","","","","","","","","","","","","","","","","","","",""
"","do_trial","146","622790","0.0-81.0-0.0","""event"",""trial"",""time""
""fullscreenenter"",""0"",""1744""
","
","
","""event"",""trial"",""time""
""fullscreenenter"",""0"",""1744""
","
","622","","","","","","","","49","1,0,1","0","forest","22","probe-61","0.4987573844423973","0.31941551315268013","0.230701337712359","1","","","","","","","",""
"","html-keyboard-response","147","623792","0.0-81.0-1.0","""event"",""trial"",""time""
""fullscreenenter"",""0"",""1744""
","
","
","""event"",""trial"",""time""
""fullscreenenter"",""0"",""1744""
","
","null","<p></p>","null","","","","","","","","","","","","","","","","","","","","","","",""
"","do_trial","148","628726","0.0-82.0-0.0","""event"",""trial"",""time""
""fullscreenenter"",""0"",""1744""
","
","
","""event"",""trial"",""time""
""fullscreenenter"",""0"",""1744""
","
","383.1000000014901","","","","","","","","49","1,1,0","0","forest","23","probe-34","0.5649260177728974","0.42894415944060627","0.27200947924994917","1","","","","","","","",""
"","html-keyboard-response","149","629728","0.0-82.0-1.0","""event"",""trial"",""time""
""fullscreenenter"",""0"",""1744""
","
","
","""event"",""trial"",""time""
""fullscreenenter"",""0"",""1744""
","
","null","<p></p>","null","","","","","","","","","","","","","","","","","","","","","","",""
"","do_trial","150","634280","0.0-83.0-0.0","""event"",""trial"",""time""
""fullscreenenter"",""0"",""1744""
","
","
","""event"",""trial"",""time""
""fullscreenenter"",""0"",""1744""
","
","0.30000000447034836","","","","","","","","49","1,0,0","0","forest","24","probe-49","0.5391782323365515","0.46176731771911533","0.4006574657512333","1","","","","","","","",""
"","html-keyboard-response","151","635282","0.0-83.0-1.0","""event"",""trial"",""time""
""fullscreenenter"",""0"",""1744""
","
","
","""event"",""trial"",""time""
""fullscreenenter"",""0"",""1744""
","
","null","<p></p>","null","","","","","","","","","","","","","","","","","","","","","","",""
"","do_trial","152","641615","0.0-84.0-0.0","""event"",""trial"",""time""
""fullscreenenter"",""0"",""1744""
","
","
","""event"",""trial"",""time""
""fullscreenenter"",""0"",""1744""
","
","1784.3999999985099","","","","","","","","49","0,0,0","0","forest","25","probe-145","0.41609848715654485","0.30399881025051784","0.28074557722007426","0","","","","","","","",""
"","html-keyboard-response","153","642618","0.0-84.0-1.0","""event"",""trial"",""time""
""fullscreenenter"",""0"",""1744""
","
","
","""event"",""trial"",""time""
""fullscreenenter"",""0"",""1744""
","
","null","<p></p>","null","","","","","","","","","","","","","","","","","","","","","","",""
"","do_trial","154","647668","0.0-85.0-0.0","""event"",""trial"",""time""
""fullscreenenter"",""0"",""1744""
","
","
","""event"",""trial"",""time""
""fullscreenenter"",""0"",""1744""
","
","501.29999999701977","","","","","","","","49","1,1,1","0","forest","26","probe-66","0.48965906365875345","0.3602418786919189","0.10625907015306721","1","","","","","","","",""
"","html-keyboard-response","155","648672","0.0-85.0-1.0","""event"",""trial"",""time""
""fullscreenenter"",""0"",""1744""
","
","
","""event"",""trial"",""time""
""fullscreenenter"",""0"",""1744""
","
","null","<p></p>","null","","","","","","","","","","","","","","","","","","","","","","",""
"","do_trial","156","653739","0.0-86.0-0.0","""event"",""trial"",""time""
""fullscreenenter"",""0"",""1744""
","
","
","""event"",""trial"",""time""
""fullscreenenter"",""0"",""1744""
","
","517","","","","","","","","49","0,1,0","0","forest","27","probe-87","0.4814141096756919","0.45047026020342534","0.10393407282990168","0","","","","","","","",""
"","html-keyboard-response","157","654741","0.0-86.0-1.0","""event"",""trial"",""time""
""fullscreenenter"",""0"",""1744""
","
","
","""event"",""trial"",""time""
""fullscreenenter"",""0"",""1744""
","
","null","<p></p>","null","","","","","","","","","","","","","","","","","","","","","","",""
"","do_trial","158","660801","0.0-87.0-0.0","""event"",""trial"",""time""
""fullscreenenter"",""0"",""1744""
","
","
","""event"",""trial"",""time""
""fullscreenenter"",""0"",""1744""
","
","1499.8000000044703","","","","","","","","49","1,0,0","0","forest","28","probe-112","0.46578628975339365","0.47699551729869155","0.08219049999615419","1","","","","","","","",""
"","html-keyboard-response","159","661804","0.0-87.0-1.0","""event"",""trial"",""time""
""fullscreenenter"",""0"",""1744""
","
","
","""event"",""trial"",""time""
""fullscreenenter"",""0"",""1744""
","
","null","<p></p>","null","","","","","","","","","","","","","","","","","","","","","","",""
"","do_trial","160","666934","0.0-88.0-0.0","""event"",""trial"",""time""
""fullscreenenter"",""0"",""1744""
","
","
","""event"",""trial"",""time""
""fullscreenenter"",""0"",""1744""
","
","578.5","","","","","","","","49","0,1,1","0","forest","29","probe-105","0.47563848715732804","0.28961582618251075","0.15368771827625588","0","","","","","","","",""
"","html-keyboard-response","161","667936","0.0-88.0-1.0","""event"",""trial"",""time""
""fullscreenenter"",""0"",""1744""
","
","
","""event"",""trial"",""time""
""fullscreenenter"",""0"",""1744""
","
","null","<p></p>","null","","","","","","","","","","","","","","","","","","","","","","",""
"","do_bye","162","669443","0.0-89.0-0.0","""event"",""trial"",""time""
""fullscreenenter"",""0"",""1744""
","
","
","""event"",""trial"",""time""
""fullscreenenter"",""0"",""1744""
","
","null","","","","","","","","null","","","","","","","","","","","","","","","","",""
"","break","163","675709","0.0-89.0-1.0","""event"",""trial"",""time""
""fullscreenenter"",""0"",""1744""
","
","
","""event"",""trial"",""time""
""fullscreenenter"",""0"",""1744""
","
","6265.10000000149","<div class='center'><p>Time to take a quick break! You have 2 minutes to rest, but you can move on sooner if you'd like.</p><p> Press the <b>space bar</b> to continue.</p></div>","32","","","","","","","","","","","","","","","","","","","","","","",""
"","do_travel","164","684715","0.0-90.0-0.0","""event"",""trial"",""time""
""fullscreenenter"",""0"",""1744""
","
","
","""event"",""trial"",""time""
""fullscreenenter"",""0"",""1744""
","
","null","","","","","","","","null","","","","","","","","","","","","","","","","",""
"","do_welcome","165","688733","0.0-90.0-1.0","""event"",""trial"",""time""
""fullscreenenter"",""0"",""1744""
","
","
","""event"",""trial"",""time""
""fullscreenenter"",""0"",""1744""
","
","null","","","","","","","","null","","","","","","","","","","","","","","","","",""
"","do_trial","166","693986","0.0-91.0-0.0","""event"",""trial"",""time""
""fullscreenenter"",""0"",""1744""
","
","
","""event"",""trial"",""time""
""fullscreenenter"",""0"",""1744""
","
","700.8999999985099","","","","","","","","49","1,0,0","1","countryside","30","probe-15","1","0.34768181006859594","0.08737943682762842","1","","","","","","","",""
"","html-keyboard-response","167","694989","0.0-91.0-1.0","""event"",""trial"",""time""
""fullscreenenter"",""0"",""1744""
","
","
","""event"",""trial"",""time""
""fullscreenenter"",""0"",""1744""
","
","null","<p></p>","null","","","","","","","","","","","","","","","","","","","","","","",""
"","do_trial","168","700123","0.0-92.0-0.0","""event"",""trial"",""time""
""fullscreenenter"",""0"",""1744""
","
","
","""event"",""trial"",""time""
""fullscreenenter"",""0"",""1744""
","
","581.8999999985099","","","","","","","","49","1,0,0","1","countryside","31","probe-83","1","0.15757111414949332","0.06425139896982428","1","","","","","","","",""
"","html-keyboard-response","169","701124","0.0-92.0-1.0","""event"",""trial"",""time""
""fullscreenenter"",""0"",""1744""
","
","
","""event"",""trial"",""time""
""fullscreenenter"",""0"",""1744""
","
","null","<p></p>","null","","","","","","","","","","","","","","","","","","","","","","",""
"","do_trial","170","706249","0.0-93.0-0.0","""event"",""trial"",""time""
""fullscreenenter"",""0"",""1744""
","
","
","""event"",""trial"",""time""
""fullscreenenter"",""0"",""1744""
","
","573.1000000014901","","","","","","","","49","1,0,0","1","countryside","32","probe-81","1","0.15549512272004218","0.1218030518154436","1","","","","","","","",""
"","html-keyboard-response","171","707255","0.0-93.0-1.0","""event"",""trial"",""time""
""fullscreenenter"",""0"",""1744""
","
","
","""event"",""trial"",""time""
""fullscreenenter"",""0"",""1744""
","
","null","<p></p>","null","","","","","","","","","","","","","","","","","","","","","","",""
"","do_trial","172","711806","0.0-94.0-0.0","""event"",""trial"",""time""
""fullscreenenter"",""0"",""1744""
","
","
","""event"",""trial"",""time""
""fullscreenenter"",""0"",""1744""
","
","0.20000000298023224","","","","","","","","49","1,0,0","1","countryside","33","probe-19","0.8914217061365406","0.16706474406383454","0.07845671181985756","1","","","","","","","",""
"","html-keyboard-response","173","712808","0.0-94.0-1.0","""event"",""trial"",""time""
""fullscreenenter"",""0"",""1744""
","
","
","""event"",""trial"",""time""
""fullscreenenter"",""0"",""1744""
","
","null","<p></p>","null","","","","","","","","","","","","","","","","","","","","","","",""
"","do_trial","174","717940","0.0-95.0-0.0","""event"",""trial"",""time""
""fullscreenenter"",""0"",""1744""
","
","
","""event"",""trial"",""time""
""fullscreenenter"",""0"",""1744""
","
","582.3000000044703","","","","","","","","49","0,0,0","1","countryside","34","probe-213","0.6644401396058253","0.39448949749446527","0.1263019745153699","0","","","","","","","",""
"","html-keyboard-response","175","718942","0.0-95.0-1.0","""event"",""trial"",""time""
""fullscreenenter"",""0"",""1744""
","
","
","""event"",""trial"",""time""
""fullscreenenter"",""0"",""1744""
","
","null","<p></p>","null","","","","","","","","","","","","","","","","","","","","","","",""
"","do_trial","176","723975","0.0-96.0-0.0","""event"",""trial"",""time""
""fullscreenenter"",""0"",""1744""
","
","
","""event"",""trial"",""time""
""fullscreenenter"",""0"",""1744""
","
","482.6000000014901","","","","","","","","49","1,0,0","1","countryside","35","probe-117","0.5559259680370723","0.2901103527383448","0.2024053235493559","1","","","","","","","",""
"","html-keyboard-response","177","724977","0.0-96.0-1.0","""event"",""trial"",""time""
""fullscreenenter"",""0"",""1744""
","
","
","""event"",""trial"",""time""
""fullscreenenter"",""0"",""1744""
","
","null","<p></p>","null","","","","","","","","","","","","","","","","","","","","","","",""
"","do_trial","178","729970","0.0-97.0-0.0","""event"",""trial"",""time""
""fullscreenenter"",""0"",""1744""
","
","
","""event"",""trial"",""time""
""fullscreenenter"",""0"",""1744""
","
","443","","","","","","","","49","1,0,0","1","countryside","36","probe-122","0.5674643113283606","0.2510364774882819","0.2087649155494844","1","","","","","","","",""
"","html-keyboard-response","179","730972","0.0-97.0-1.0","""event"",""trial"",""time""
""fullscreenenter"",""0"",""1744""
","
","
","""event"",""trial"",""time""
""fullscreenenter"",""0"",""1744""
","
","null","<p></p>","null","","","","","","","","","","","","","","","","","","","","","","",""
"","do_trial","180","735903","0.0-98.0-0.0","""event"",""trial"",""time""
""fullscreenenter"",""0"",""1744""
","
","
","""event"",""trial"",""time""
""fullscreenenter"",""0"",""1744""
","
","380.19999999552965","","","","","","","","49","1,1,0","1","countryside","37","probe-229","0.610519952728329","0.42702962298195507","0.21500214442604113","1","","","","","","","",""
"","html-keyboard-response","181","736906","0.0-98.0-1.0","""event"",""trial"",""time""
""fullscreenenter"",""0"",""1744""
","
","
","""event"",""trial"",""time""
""fullscreenenter"",""0"",""1744""
","
","null","<p></p>","null","","","","","","","","","","","","","","","","","","","","","","",""
"","do_trial","182","741687","0.0-99.0-0.0","""event"",""trial"",""time""
""fullscreenenter"",""0"",""1744""
","
","
","""event"",""trial"",""time""
""fullscreenenter"",""0"",""1744""
","
","231.79999999701977","","","","","","","","49","0,0,0","1","countryside","38","probe-47","0.6172776438040962","0.36950062920605503","0.09014180177076436","0","","","","","","","",""
"","html-keyboard-response","183","742689","0.0-99.0-1.0","""event"",""trial"",""time""
""fullscreenenter"",""0"",""1744""
","
","
","""event"",""trial"",""time""
""fullscreenenter"",""0"",""1744""
","
","null","<p></p>","null","","","","","","","","","","","","","","","","","","","","","","",""
"","do_trial","184","747646","0.0-100.0-0.0","""event"",""trial"",""time""
""fullscreenenter"",""0"",""1744""
","
","
","""event"",""trial"",""time""
""fullscreenenter"",""0"",""1744""
","
","407.8999999985099","","","","","","","","49","0,1,0","1","countryside","39","probe-180","0.6577158556654367","0.4019664357963136","0.12837952265409","0","","","","","","","",""
"","html-keyboard-response","185","748649","0.0-100.0-1.0","""event"",""trial"",""time""
""fullscreenenter"",""0"",""1744""
","
","
","""event"",""trial"",""time""
""fullscreenenter"",""0"",""1744""
","
","null","<p></p>","null","","","","","","","","","","","","","","","","","","","","","","",""
"","do_trial","186","753523","0.0-101.0-0.0","""event"",""trial"",""time""
""fullscreenenter"",""0"",""1744""
","
","
","""event"",""trial"",""time""
""fullscreenenter"",""0"",""1744""
","
","322.20000000298023","","","","","","","","49","1,0,1","1","countryside","40","probe-100","0.5941721519371668","0.32313705850749846","0.06955443135616653","1","","","","","","","",""
"","html-keyboard-response","187","754524","0.0-101.0-1.0","""event"",""trial"",""time""
""fullscreenenter"",""0"",""1744""
","
","
","""event"",""trial"",""time""
""fullscreenenter"",""0"",""1744""
","
","null","<p></p>","null","","","","","","","","","","","","","","","","","","","","","","",""
"","do_trial","188","759411","0.0-102.0-0.0","""event"",""trial"",""time""
""fullscreenenter"",""0"",""1744""
","
","
","""event"",""trial"",""time""
""fullscreenenter"",""0"",""1744""
","
","335.20000000298023","","","","","","","","49","0,0,0","1","countryside","41","probe-53","0.5710513975757717","0.39879527546862825","0.05943606991871587","0","","","","","","","",""
"","html-keyboard-response","189","760414","0.0-102.0-1.0","""event"",""trial"",""time""
""fullscreenenter"",""0"",""1744""
","
","
","""event"",""trial"",""time""
""fullscreenenter"",""0"",""1744""
","
","null","<p></p>","null","","","","","","","","","","","","","","","","","","","","","","",""
"","do_trial","190","765291","0.0-103.0-0.0","""event"",""trial"",""time""
""fullscreenenter"",""0"",""1744""
","
","
","""event"",""trial"",""time""
""fullscreenenter"",""0"",""1744""
","
","325.3999999985099","","","","","","","","50","1,0,0","1","countryside","42","probe-127","0.4828441682688007","0.4565810255144426","0.4839896506888026","0","","","","","","","",""
"","html-keyboard-response","191","766296","0.0-103.0-1.0","""event"",""trial"",""time""
""fullscreenenter"",""0"",""1744""
","
","
","""event"",""trial"",""time""
""fullscreenenter"",""0"",""1744""
","
","null","<p></p>","null","","","","","","","","","","","","","","","","","","","","","","",""
"","do_trial","192","771110","0.0-104.0-0.0","""event"",""trial"",""time""
""fullscreenenter"",""0"",""1744""
","
","
","""event"",""trial"",""time""
""fullscreenenter"",""0"",""1744""
","
","265.29999999701977","","","","","","","","50","1,0,1","1","countryside","43","probe-06","0.28186967362154514","0.3365261475293353","0.569688121831812","0","","","","","","","",""
"","html-keyboard-response","193","772113","0.0-104.0-1.0","""event"",""trial"",""time""
""fullscreenenter"",""0"",""1744""
","
","
","""event"",""trial"",""time""
""fullscreenenter"",""0"",""1744""
","
","null","<p></p>","null","","","","","","","","","","","","","","","","","","","","","","",""
"","do_trial","194","776965","0.0-105.0-0.0","""event"",""trial"",""time""
""fullscreenenter"",""0"",""1744""
","
","
","""event"",""trial"",""time""
""fullscreenenter"",""0"",""1744""
","
","301.8999999985099","","","","","","","","51","1,1,1","1","countryside","44","probe-155","0.2788551777009961","0.28230857799014697","0.5805007764821726","1","","","","","","","",""
"","html-keyboard-response","195","777967","0.0-105.0-1.0","""event"",""trial"",""time""
""fullscreenenter"",""0"",""1744""
","
","
","""event"",""trial"",""time""
""fullscreenenter"",""0"",""1744""
","
","null","<p></p>","null","","","","","","","","","","","","","","","","","","","","","","",""
"","do_trial","196","782876","0.0-106.0-0.0","""event"",""trial"",""time""
""fullscreenenter"",""0"",""1744""
","
","
","""event"",""trial"",""time""
""fullscreenenter"",""0"",""1744""
","
","356.8999999985099","","","","","","","","51","1,0,0","1","countryside","45","probe-29","0.2284404797768955","0.15320865407403025","0.6202340889422664","0","","","","","","","",""
"","html-keyboard-response","197","783879","0.0-106.0-1.0","""event"",""trial"",""time""
""fullscreenenter"",""0"",""1744""
","
","
","""event"",""trial"",""time""
""fullscreenenter"",""0"",""1744""
","
","null","<p></p>","null","","","","","","","","","","","","","","","","","","","","","","",""
"","do_trial","198","788908","0.0-107.0-0.0","""event"",""trial"",""time""
""fullscreenenter"",""0"",""1744""
","
","
","""event"",""trial"",""time""
""fullscreenenter"",""0"",""1744""
","
","468.5","","","","","","","","51","0,0,0","1","countryside","46","probe-217","0.1646510869300833","0.2289056052591553","0.5929563296706891","0","","","","","","","",""
"","html-keyboard-response","199","789910","0.0-107.0-1.0","""event"",""trial"",""time""
""fullscreenenter"",""0"",""1744""
","
","
","""event"",""trial"",""time""
""fullscreenenter"",""0"",""1744""
","
","null","<p></p>","null","","","","","","","","","","","","","","","","","","","","","","",""
"","do_trial","200","794500","0.0-108.0-0.0","""event"",""trial"",""time""
""fullscreenenter"",""0"",""1744""
","
","
","""event"",""trial"",""time""
""fullscreenenter"",""0"",""1744""
","
","34.5","","","","","","","","49","0,0,0","1","countryside","47","probe-74","0.05189507902292542","0.23995543477269632","0.6194015263730157","0","","","","","","","",""
"","html-keyboard-response","201","795503","0.0-108.0-1.0","""event"",""trial"",""time""
""fullscreenenter"",""0"",""1744""
","
","
","""event"",""trial"",""time""
""fullscreenenter"",""0"",""1744""
","
","null","<p></p>","null","","","","","","","","","","","","","","","","","","","","","","",""
"","do_trial","202","800417","0.0-109.0-0.0","""event"",""trial"",""time""
""fullscreenenter"",""0"",""1744""
","
","
","""event"",""trial"",""time""
""fullscreenenter"",""0"",""1744""
","
","358.1000000014901","","","","","","","","50","0,0,0","1","countryside","48","probe-63","0.16360694779236035","0.35672648307042215","0.6621327100051018","0","","","","","","","",""
"","html-keyboard-response","203","801419","0.0-109.0-1.0","""event"",""trial"",""time""
""fullscreenenter"",""0"",""1744""
","
","
","""event"",""trial"",""time""
""fullscreenenter"",""0"",""1744""
","
","null","<p></p>","null","","","","","","","","","","","","","","","","","","","","","","",""
"","do_trial","204","806635","0.0-110.0-0.0","""event"",""trial"",""time""
""fullscreenenter"",""0"",""1744""
","
","
","""event"",""trial"",""time""
""fullscreenenter"",""0"",""1744""
","
","664.7000000029802","","","","","","","","51","0,0,1","1","countryside","49","probe-187","0.13340763699523137","0.2921747984771989","0.6292134573976109","1","","","","","","","",""
"","html-keyboard-response","205","807638","0.0-110.0-1.0","""event"",""trial"",""time""
""fullscreenenter"",""0"",""1744""
","
","
","""event"",""trial"",""time""
""fullscreenenter"",""0"",""1744""
","
","null","<p></p>","null","","","","","","","","","","","","","","","","","","","","","","",""
"","do_trial","206","812913","0.0-111.0-0.0","""event"",""trial"",""time""
""fullscreenenter"",""0"",""1744""
","
","
","""event"",""trial"",""time""
""fullscreenenter"",""0"",""1744""
","
","724.5","","","","","","","","51","0,0,1","1","countryside","50","probe-30","0.1706482995054624","0.39397917893551293","0.5606881916723269","1","","","","","","","",""
"","html-keyboard-response","207","813916","0.0-111.0-1.0","""event"",""trial"",""time""
""fullscreenenter"",""0"",""1744""
","
","
","""event"",""trial"",""time""
""fullscreenenter"",""0"",""1744""
","
","null","<p></p>","null","","","","","","","","","","","","","","","","","","","","","","",""
"","do_trial","208","819038","0.0-112.0-0.0","""event"",""trial"",""time""
""fullscreenenter"",""0"",""1744""
","
","
","""event"",""trial"",""time""
""fullscreenenter"",""0"",""1744""
","
","572.3000000044703","","","","","","","","51","0,0,1","1","countryside","51","probe-226","0.2432050033001972","0.24019886360421577","0.6344422637984033","1","","","","","","","",""
"","html-keyboard-response","209","820040","0.0-112.0-1.0","""event"",""trial"",""time""
""fullscreenenter"",""0"",""1744""
","
","
","""event"",""trial"",""time""
""fullscreenenter"",""0"",""1744""
","
","null","<p></p>","null","","","","","","","","","","","","","","","","","","","","","","",""
"","do_trial","210","825023","0.0-113.0-0.0","""event"",""trial"",""time""
""fullscreenenter"",""0"",""1744""
","
","
","""event"",""trial"",""time""
""fullscreenenter"",""0"",""1744""
","
","432.70000000298023","","","","","","","","51","0,1,1","1","countryside","52","probe-118","0.2505509142889705","0.23219667027964758","0.6339812679484262","1","","","","","","","",""
"","html-keyboard-response","211","826025","0.0-113.0-1.0","""event"",""trial"",""time""
""fullscreenenter"",""0"",""1744""
","
","
","""event"",""trial"",""time""
""fullscreenenter"",""0"",""1744""
","
","null","<p></p>","null","","","","","","","","","","","","","","","","","","","","","","",""
"","do_trial","212","831116","0.0-114.0-0.0","""event"",""trial"",""time""
""fullscreenenter"",""0"",""1744""
","
","
","""event"",""trial"",""time""
""fullscreenenter"",""0"",""1744""
","
","540.6000000014901","","","","","","","","51","0,0,1","1","countryside","53","probe-168","0.13765684663711958","0.26094411482139795","0.6685481155455297","1","","","","","","","",""
"","html-keyboard-response","213","832119","0.0-114.0-1.0","""event"",""trial"",""time""
""fullscreenenter"",""0"",""1744""
","
","
","""event"",""trial"",""time""
""fullscreenenter"",""0"",""1744""
","
","null","<p></p>","null","","","","","","","","","","","","","","","","","","","","","","",""
"","do_trial","214","837359","0.0-115.0-0.0","""event"",""trial"",""time""
""fullscreenenter"",""0"",""1744""
","
","
","""event"",""trial"",""time""
""fullscreenenter"",""0"",""1744""
","
","687.3999999985099","","","","","","","","51","1,0,1","1","countryside","54","probe-146","0.27768470794537364","0.3459627530745209","0.7616737718928158","1","","","","","","","",""
"","html-keyboard-response","215","838362","0.0-115.0-1.0","""event"",""trial"",""time""
""fullscreenenter"",""0"",""1744""
","
","
","""event"",""trial"",""time""
""fullscreenenter"",""0"",""1744""
","
","null","<p></p>","null","","","","","","","","","","","","","","","","","","","","","","",""
"","do_trial","216","843042","0.0-116.0-0.0","""event"",""trial"",""time""
""fullscreenenter"",""0"",""1744""
","
","
","""event"",""trial"",""time""
""fullscreenenter"",""0"",""1744""
","
","129","","","","","","","","51","0,0,1","1","countryside","55","probe-166","0.2078140864105431","0.3894869042425065","0.7864337199705255","1","","","","","","","",""
"","html-keyboard-response","217","844049","0.0-116.0-1.0","""event"",""trial"",""time""
""fullscreenenter"",""0"",""1744""
","
","
","""event"",""trial"",""time""
""fullscreenenter"",""0"",""1744""
","
","null","<p></p>","null","","","","","","","","","","","","","","","","","","","","","","",""
"","do_trial","218","849001","0.0-117.0-0.0","""event"",""trial"",""time""
""fullscreenenter"",""0"",""1744""
","
","
","""event"",""trial"",""time""
""fullscreenenter"",""0"",""1744""
","
","404.90000000596046","","","","","","","","51","0,1,0","1","countryside","56","probe-160","0.12668701535236515","0.4892030535858581","0.6412748108950912","0","","","","","","","",""
"","html-keyboard-response","219","850003","0.0-117.0-1.0","""event"",""trial"",""time""
""fullscreenenter"",""0"",""1744""
","
","
","""event"",""trial"",""time""
""fullscreenenter"",""0"",""1744""
","
","null","<p></p>","null","","","","","","","","","","","","","","","","","","","","","","",""
"","do_trial","220","855193","0.0-118.0-0.0","""event"",""trial"",""time""
""fullscreenenter"",""0"",""1744""
","
","
","""event"",""trial"",""time""
""fullscreenenter"",""0"",""1744""
","
","638.0999999940395","","","","","","","","51","0,1,1","1","countryside","57","probe-214","0.1278668725156147","0.44175118030416405","0.7034436291250465","1","","","","","","","",""
"","html-keyboard-response","221","856195","0.0-118.0-1.0","""event"",""trial"",""time""
""fullscreenenter"",""0"",""1744""
","
","
","""event"",""trial"",""time""
""fullscreenenter"",""0"",""1744""
","
","null","<p></p>","null","","","","","","","","","","","","","","","","","","","","","","",""
"","do_trial","222","861177","0.0-119.0-0.0","""event"",""trial"",""time""
""fullscreenenter"",""0"",""1744""
","
","
","""event"",""trial"",""time""
""fullscreenenter"",""0"",""1744""
","
","431.29999999701977","","","","","","","","51","0,0,0","1","countryside","58","probe-194","0.15338278931442292","0.37947043497446564","0.6499619415471157","0","","","","","","","",""
"","html-keyboard-response","223","862178","0.0-119.0-1.0","""event"",""trial"",""time""
""fullscreenenter"",""0"",""1744""
","
","
","""event"",""trial"",""time""
""fullscreenenter"",""0"",""1744""
","
","null","<p></p>","null","","","","","","","","","","","","","","","","","","","","","","",""
"","do_trial","224","867202","0.0-120.0-0.0","""event"",""trial"",""time""
""fullscreenenter"",""0"",""1744""
","
","
","""event"",""trial"",""time""
""fullscreenenter"",""0"",""1744""
","
","473.70000000298023","","","","","","","","51","0,0,1","1","countryside","59","probe-121","0.09726040416881693","0.3561541474272989","0.507693716984694","1","","","","","","","",""
"","html-keyboard-response","225","868205","0.0-120.0-1.0","""event"",""trial"",""time""
""fullscreenenter"",""0"",""1744""
","
","
","""event"",""trial"",""time""
""fullscreenenter"",""0"",""1744""
","
","null","<p></p>","null","","","","","","","","","","","","","","","","","","","","","","",""
"","do_trial","226","872902","0.0-121.0-0.0","""event"",""trial"",""time""
""fullscreenenter"",""0"",""1744""
","
","
","""event"",""trial"",""time""
""fullscreenenter"",""0"",""1744""
","
","145.29999999701977","","","","","","","","51","0,0,1","1","countryside","60","probe-21","0.09171252491738605","0.2577470176039994","0.5761351536161788","1","","","","","","","",""
"","html-keyboard-response","227","873905","0.0-121.0-1.0","""event"",""trial"",""time""
""fullscreenenter"",""0"",""1744""
","
","
","""event"",""trial"",""time""
""fullscreenenter"",""0"",""1744""
","
","null","<p></p>","null","","","","","","","","","","","","","","","","","","","","","","",""
"","do_trial","228","878674","0.0-122.0-0.0","""event"",""trial"",""time""
""fullscreenenter"",""0"",""1744""
","
","
","""event"",""trial"",""time""
""fullscreenenter"",""0"",""1744""
","
","219.19999999552965","","","","","","","","51","0,1,1","1","countryside","61","probe-220","0.10587851250084572","0.22341687224583232","0.6793257356220679","1","","","","","","","",""
"","html-keyboard-response","229","879676","0.0-122.0-1.0","""event"",""trial"",""time""
""fullscreenenter"",""0"",""1744""
","
","
","""event"",""trial"",""time""
""fullscreenenter"",""0"",""1744""
","
","null","<p></p>","null","","","","","","","","","","","","","","","","","","","","","","",""
"","do_trial","230","884648","0.0-123.0-0.0","""event"",""trial"",""time""
""fullscreenenter"",""0"",""1744""
","
","
","""event"",""trial"",""time""
""fullscreenenter"",""0"",""1744""
","
","421.29999999701977","","","","","","","","51","0,0,0","1","countryside","62","probe-154","0.14595156175955767","0.2369910119960672","0.7025748681873595","0","","","","","","","",""
"","html-keyboard-response","231","885650","0.0-123.0-1.0","""event"",""trial"",""time""
""fullscreenenter"",""0"",""1744""
","
","
","""event"",""trial"",""time""
""fullscreenenter"",""0"",""1744""
","
","null","<p></p>","null","","","","","","","","","","","","","","","","","","","","","","",""
"","do_trial","232","890689","0.0-124.0-0.0","""event"",""trial"",""time""
""fullscreenenter"",""0"",""1744""
","
","
","""event"",""trial"",""time""
""fullscreenenter"",""0"",""1744""
","
","488.20000000298023","","","","","","","","51","0,0,1","1","countryside","63","probe-114","0.2703861851236005","0.21130538981986138","0.7885224727310995","1","","","","","","","",""
"","html-keyboard-response","233","891691","0.0-124.0-1.0","""event"",""trial"",""time""
""fullscreenenter"",""0"",""1744""
","
","
","""event"",""trial"",""time""
""fullscreenenter"",""0"",""1744""
","
","null","<p></p>","null","","","","","","","","","","","","","","","","","","","","","","",""
"","do_trial","234","896618","0.0-125.0-0.0","""event"",""trial"",""time""
""fullscreenenter"",""0"",""1744""
","
","
","""event"",""trial"",""time""
""fullscreenenter"",""0"",""1744""
","
","376.6000000014901","","","","","","","","51","0,1,0","1","countryside","64","probe-48","0.25251743806962346","0.3419289075959426","0.7008298435661395","0","","","","","","","",""
"","html-keyboard-response","235","897620","0.0-125.0-1.0","""event"",""trial"",""time""
""fullscreenenter"",""0"",""1744""
","
","
","""event"",""trial"",""time""
""fullscreenenter"",""0"",""1744""
","
","null","<p></p>","null","","","","","","","","","","","","","","","","","","","","","","",""
"","do_trial","236","902584","0.0-126.0-0.0","""event"",""trial"",""time""
""fullscreenenter"",""0"",""1744""
","
","
","""event"",""trial"",""time""
""fullscreenenter"",""0"",""1744""
","
","413.20000000298023","","","","","","","","51","0,0,1","1","countryside","65","probe-65","0.3129900627452299","0.32180729570534633","0.6839865971854638","1","","","","","","","",""
"","html-keyboard-response","237","903586","0.0-126.0-1.0","""event"",""trial"",""time""
""fullscreenenter"",""0"",""1744""
","
","
","""event"",""trial"",""time""
""fullscreenenter"",""0"",""1744""
","
","null","<p></p>","null","","","","","","","","","","","","","","","","","","","","","","",""
"","do_trial","238","908830","0.0-127.0-0.0","""event"",""trial"",""time""
""fullscreenenter"",""0"",""1744""
","
","
","""event"",""trial"",""time""
""fullscreenenter"",""0"",""1744""
","
","693.3999999985099","","","","","","","","51","0,0,1","1","countryside","66","probe-27","0.19150620561460888","0.31707145362474864","0.6197852127682427","1","","","","","","","",""
"","html-keyboard-response","239","909832","0.0-127.0-1.0","""event"",""trial"",""time""
""fullscreenenter"",""0"",""1744""
","
","
","""event"",""trial"",""time""
""fullscreenenter"",""0"",""1744""
","
","null","<p></p>","null","","","","","","","","","","","","","","","","","","","","","","",""
"","do_trial","240","914981","0.0-128.0-0.0","""event"",""trial"",""time""
""fullscreenenter"",""0"",""1744""
","
","
","""event"",""trial"",""time""
""fullscreenenter"",""0"",""1744""
","
","598.7000000029802","","","","","","","","51","1,1,1","1","countryside","67","probe-165","0.14371935126333213","0.3907811279419554","0.6750917917430982","1","","","","","","","",""
"","html-keyboard-response","241","915983","0.0-128.0-1.0","""event"",""trial"",""time""
""fullscreenenter"",""0"",""1744""
","
","
","""event"",""trial"",""time""
""fullscreenenter"",""0"",""1744""
","
","null","<p></p>","null","","","","","","","","","","","","","","","","","","","","","","",""
"","do_trial","242","921014","0.0-129.0-0.0","""event"",""trial"",""time""
""fullscreenenter"",""0"",""1744""
","
","
","""event"",""trial"",""time""
""fullscreenenter"",""0"",""1744""
","
","471.1000000014901","","","","","","","","51","0,0,1","1","countryside","68","probe-190","0.222023814220476","0.3414956222629337","0.6454256446983235","1","","","","","","","",""
"","html-keyboard-response","243","922016","0.0-129.0-1.0","""event"",""trial"",""time""
""fullscreenenter"",""0"",""1744""
","
","
","""event"",""trial"",""time""
""fullscreenenter"",""0"",""1744""
","
","null","<p></p>","null","","","","","","","","","","","","","","","","","","","","","","",""
"","do_trial","244","926856","0.0-130.0-0.0","""event"",""trial"",""time""
""fullscreenenter"",""0"",""1744""
","
","
","""event"",""trial"",""time""
""fullscreenenter"",""0"",""1744""
","
","290.1000000014901","","","","","","","","51","1,1,0","1","countryside","69","probe-215","0.08203923383299704","0.32156886097218634","0.491049166886328","0","","","","","","","",""
"","html-keyboard-response","245","927861","0.0-130.0-1.0","""event"",""trial"",""time""
""fullscreenenter"",""0"",""1744""
","
","
","""event"",""trial"",""time""
""fullscreenenter"",""0"",""1744""
","
","null","<p></p>","null","","","","","","","","","","","","","","","","","","","","","","",""
"","do_bye","246","929369","0.0-131.0-0.0","""event"",""trial"",""time""
""fullscreenenter"",""0"",""1744""
","
","
","""event"",""trial"",""time""
""fullscreenenter"",""0"",""1744""
","
","null","","","","","","","","null","","","","","","","","","","","","","","","","",""
"","break","247","932460","0.0-131.0-1.0","""event"",""trial"",""time""
""fullscreenenter"",""0"",""1744""
","
","
","""event"",""trial"",""time""
""fullscreenenter"",""0"",""1744""
","
","3089","<div class='center'><p>Time to take a quick break! You have 2 minutes to rest, but you can move on sooner if you'd like.</p><p> Press the <b>space bar</b> to continue.</p></div>","32","","","","","","","","","","","","","","","","","","","","","","",""
"","do_travel","248","941465","0.0-132.0-0.0","""event"",""trial"",""time""
""fullscreenenter"",""0"",""1744""
","
","
","""event"",""trial"",""time""
""fullscreenenter"",""0"",""1744""
","
","null","","","","","","","","null","","","","","","","","","","","","","","","","",""
"","do_welcome","249","945474","0.0-132.0-1.0","""event"",""trial"",""time""
""fullscreenenter"",""0"",""1744""
","
","
","""event"",""trial"",""time""
""fullscreenenter"",""0"",""1744""
","
","null","","","","","","","","null","","","","","","","","","","","","","","","","",""
"","do_trial","250","950951","0.0-133.0-0.0","""event"",""trial"",""time""
""fullscreenenter"",""0"",""1744""
","
","
","""event"",""trial"",""time""
""fullscreenenter"",""0"",""1744""
","
","924.6000000014901","","","","","","","","51","1,0,1","2","city","70","probe-71","0.17147683614265405","0.3373490684431752","1","1","","","","","","","",""
"","html-keyboard-response","251","951953","0.0-133.0-1.0","""event"",""trial"",""time""
""fullscreenenter"",""0"",""1744""
","
","
","""event"",""trial"",""time""
""fullscreenenter"",""0"",""1744""
","
","null","<p></p>","null","","","","","","","","","","","","","","","","","","","","","","",""
"","do_trial","252","956576","0.0-134.0-0.0","""event"",""trial"",""time""
""fullscreenenter"",""0"",""1744""
","
","
","""event"",""trial"",""time""
""fullscreenenter"",""0"",""1744""
","
","70.20000000298023","","","","","","","","51","0,0,1","2","city","71","probe-28","0.17528793192636208","0.33670481900661536","1","1","","","","","","","",""
"","html-keyboard-response","253","957578","0.0-134.0-1.0","""event"",""trial"",""time""
""fullscreenenter"",""0"",""1744""
","
","
","""event"",""trial"",""time""
""fullscreenenter"",""0"",""1744""
","
","null","<p></p>","null","","","","","","","","","","","","","","","","","","","","","","",""
"","do_trial","254","962519","0.0-135.0-0.0","""event"",""trial"",""time""
""fullscreenenter"",""0"",""1744""
","
","
","""event"",""trial"",""time""
""fullscreenenter"",""0"",""1744""
","
","382.79999999701977","","","","","","","","51","0,1,1","2","city","72","probe-89","0.0895993458782952","0.2888493307203482","0.942985299580001","1","","","","","","","",""
"","html-keyboard-response","255","963521","0.0-135.0-1.0","""event"",""trial"",""time""
""fullscreenenter"",""0"",""1744""
","
","
","""event"",""trial"",""time""
""fullscreenenter"",""0"",""1744""
","
","null","<p></p>","null","","","","","","","","","","","","","","","","","","","","","","",""
"","do_trial","256","968542","0.0-136.0-0.0","""event"",""trial"",""time""
""fullscreenenter"",""0"",""1744""
","
","
","""event"",""trial"",""time""
""fullscreenenter"",""0"",""1744""
","
","469.8999999985099","","","","","","","","51","0,0,0","2","city","73","probe-134","0.15776535121134994","0.2643281359960342","0.9184377191457879","0","","","","","","","",""
"","html-keyboard-response","257","969545","0.0-136.0-1.0","""event"",""trial"",""time""
""fullscreenenter"",""0"",""1744""
","
","
","""event"",""trial"",""time""
""fullscreenenter"",""0"",""1744""
","
","null","<p></p>","null","","","","","","","","","","","","","","","","","","","","","","",""
"","do_trial","258","974518","0.0-137.0-0.0","""event"",""trial"",""time""
""fullscreenenter"",""0"",""1744""
","
","
","""event"",""trial"",""time""
""fullscreenenter"",""0"",""1744""
","
