success,trial_type,trial_index,time_elapsed,internal_node_id,interactions,blur_events,focus_events,fullscreenenter_events,fullscreenexit_events,rt,stimulus,key_press,subject_id,participant_id,age,gender,prompt,response,choice_outcomes,context_n,context_img_id,trial_n,probe_img_id,pR_red,pR_white,pR_black,outcome,contextArray_ind,validImageProbes,invalidImageProbes,pRew_Red,pRew_White,pRew_Black,availableForMemProbe,choice_blocks
TRUE,fullscreen,0,9277,0.0-0.0,"""event"",""trial"",""time""
""fullscreenenter"",""0"",""8320""
","
","
","""event"",""trial"",""time""
""fullscreenenter"",""0"",""8320""
","
",,,,,,,,,,,,,,,,,,,,,,,,,,
,pavlovia,1,9284,0.0-1.0,"""event"",""trial"",""time""
""fullscreenenter"",""0"",""8320""
","
","
","""event"",""trial"",""time""
""fullscreenenter"",""0"",""8320""
","
",,,,,,,,,,,,,,,,,,,,,,,,,,
,instruc1,2,54348,0.0-2.0,"""event"",""trial"",""time""
""fullscreenenter"",""0"",""8320""
","
","
","""event"",""trial"",""time""
""fullscreenenter"",""0"",""8320""
","
",null,run_exp/static/audio/clip_1_welcome.m4a,null,360,9,23,Male,"<div class='center'><p>Welcome! This is the first part of the study. It will last ~30 minutes. In part 1 and part 2 of the study, you are the head captain of a pirate ship traveling around the world to different islands. You will play a few different games throughout these two parts. Here is an overview of them:</p><br><p>Part 1 (today)</p><p>1. Instructions, practice game, and quiz</p><p>2. Pick a pirate game on 6 different islands</p><br><p>Part 2 (tomorrow)</p><p>3. Pick a pirate game and memory game</p><p>4. Where did you see this ship? </p></div>",,,,,,,,,,,,,,,,,,
,html-keyboard-response,3,55408,0.0-3.0,"""event"",""trial"",""time""
""fullscreenenter"",""0"",""8320""
","
","
","""event"",""trial"",""time""
""fullscreenenter"",""0"",""8320""
","
",1055.5,"<div class='center'><p>Welcome! This is the first part of the study. It will last ~30 minutes. In part 1 and part 2 of the study, you are the head captain of a pirate ship traveling around the world to different islands. You will play a few different games throughout these two parts. Here is an overview of them:</p><br><p>Part 1 (today)</p><p>1. Instructions, practice game, and quiz</p><p>2. Pick a pirate game on 6 different islands</p><br><p>Part 2 (tomorrow)</p><p>3. Pick a pirate game and memory game</p><p>4. Where did you see this ship? </p><p><b>[Press the space bar to continue]</b></p></div>",32,,,,,,,,,,,,,,,,,,,,,,,
,instruc2,4,60682,0.0-4.0,"""event"",""trial"",""time""
""fullscreenenter"",""0"",""8320""
","
","
","""event"",""trial"",""time""
""fullscreenenter"",""0"",""8320""
","
",null,run_exp/static/audio/clip_2_different_places.m4a,null,,,,,"<div class='center'><p>Today, you’ll visit these 6 islands on your journey. You'll be able to see these islands from your ship.</p><p><img src='run_exp/static/images/contexts/all_contexts.png' height='500'></p></div>",,,,,,,,,,,,,,,,,,
,html-keyboard-response,5,62231,0.0-5.0,"""event"",""trial"",""time""
""fullscreenenter"",""0"",""8320""
","
","
","""event"",""trial"",""time""
""fullscreenenter"",""0"",""8320""
","
",1545.9,"<div class='center'><p>Today, you’ll visit these 6 islands on your journey. You'll be able to see these islands from your ship.</p><p><img src='run_exp/static/images/contexts/all_contexts.png' height='500'></p><p><b>[Press the space bar to continue]</b></p></div>",32,,,,,,,,,,,,,,,,,,,,,,,
,instruc3,6,71903,0.0-6.0,"""event"",""trial"",""time""
""fullscreenenter"",""0"",""8320""
","
","
","""event"",""trial"",""time""
""fullscreenenter"",""0"",""8320""
","
",null,run_exp/static/audio/clip_3_goal_of_game_1.m4a,null,,,,,"<div class='center'><p> The pirates on your ship will rob other ships as they leave the island.</p> These ships have just sold their goods to the islanders, so they will be filled with lots and lots of gold.</p><p><img src='run_exp/static/images/tutorial/ship_center.png' height='400'></p></div>",,,,,,,,,,,,,,,,,,
,html-keyboard-response,7,72270,0.0-7.0,"""event"",""trial"",""time""
""fullscreenenter"",""0"",""8320""
","
","
","""event"",""trial"",""time""
""fullscreenenter"",""0"",""8320""
","
",362.7,"<div class='center'><p> The pirates on your ship will rob other ships as they leave the island.</p> These ships have just sold their goods to the islanders, so they will be filled with lots and lots of gold.</p><p><img src='run_exp/static/images/tutorial/ship_center.png' height='400'></p><p><b>[Press the space bar to continue]</b></p></div>",32,,,,,,,,,,,,,,,,,,,,,,,
,instruc4,8,100234,0.0-8.0,"""event"",""trial"",""time""
""fullscreenenter"",""0"",""8320""
","
","
","""event"",""trial"",""time""
""fullscreenenter"",""0"",""8320""
","
",null,run_exp/static/audio/clip_4_goal_of_game_2.m4a,null,,,,,"<div class='center'><p>As the head captain, you do not have to rob any ships yourself. Another pirate will be doing the robbing for you. First, you will choose a pirate to rob the next ship.</p><p><img src='run_exp/static/images/tutorial/pirates_all_crop.png' height='200'></p><p>Then, you'll see if the pirate successfully robbed the ship of their gold. If they were successful, then you'll get a stack of gold coins like this:</p><p><img src='run_exp/static/images/tutorial/reward.png' height='150'></p><p> If they were <b>not</b> successful, then you'll get no gold coins, and you'll see a big red x like this: </p><p><img src='run_exp/static/images/tutorial/reward_no.png' height='150'></p><p> How much bonus money you make is based on how many gold coins you collect.</p><div>",,,,,,,,,,,,,,,,,,
,html-keyboard-response,9,100655,0.0-9.0,"""event"",""trial"",""time""
""fullscreenenter"",""0"",""8320""
","
","
","""event"",""trial"",""time""
""fullscreenenter"",""0"",""8320""
","
",417,"<div class='center'><p>As the head captain, you do not have to rob any ships yourself. Another pirate will be doing the robbing for you. First, you will choose a pirate to rob the next ship.</p><p><img src='run_exp/static/images/tutorial/pirates_all_crop.png' height='200'></p><p>Then, you'll see if the pirate successfully robbed the ship of their gold. If they were successful, then you'll get a stack of gold coins like this:</p><p><img src='run_exp/static/images/tutorial/reward.png' height='150'></p><p> If they were <b>not</b> successful, then you'll get no gold coins, and you'll see a big red x like this: </p><p><img src='run_exp/static/images/tutorial/reward_no.png' height='150'></p><p> How much bonus money you make is based on how many gold coins you collect.</p<p><b>[Press the space bar to continue]</b></p></div>",32,,,,,,,,,,,,,,,,,,,,,,,
,instruc5,10,121690,0.0-10.0,"""event"",""trial"",""time""
""fullscreenenter"",""0"",""8320""
","
","
","""event"",""trial"",""time""
""fullscreenenter"",""0"",""8320""
","
",21033.1,run_exp/static/audio/clip_5_probabilistic.m4a,49,,,,,"<div class='center'><p>Even the most skilled pirate can not rob EVERY ship.</p><p> Some ships will have very strong protections against pirate attacks.</p><p> Blue beard, here, is very, very good at robbing ships, but he won't be successful every time he tries to rob one.</p><p> You can press the <b>‘1’</b> key on the keyboard to choose him.</p><p> Try choosing him 10 times to see how often he succeeds at robbing a ship. </p><p><img src='run_exp/static/images/tutorial/blue.png' height='500'></p></div>",,,,,,,,,,,,,,,,,,
,html-keyboard-response,11,123193,0.0-11.0,"""event"",""trial"",""time""
""fullscreenenter"",""0"",""8320""
","
","
","""event"",""trial"",""time""
""fullscreenenter"",""0"",""8320""
","
",null,<div class='center'><p><img src='run_exp/static/images/tutorial/blue_win.png' height='500'></p></div>,null,,,,,,,,,,,,,,,,,,,,,,,
,html-keyboard-response,12,123370,0.0-12.0,"""event"",""trial"",""time""
""fullscreenenter"",""0"",""8320""
","
","
","""event"",""trial"",""time""
""fullscreenenter"",""0"",""8320""
","
",174.4,<div class='center'><img src='run_exp/static/images/tutorial/blue.png' height='500'></p></div>,49,,,,,,,,,,,,,,,,,,,,,,,
,html-keyboard-response,13,124874,0.0-13.0,"""event"",""trial"",""time""
""fullscreenenter"",""0"",""8320""
","
","
","""event"",""trial"",""time""
""fullscreenenter"",""0"",""8320""
","
",null,<div class='center'><p><img src='run_exp/static/images/tutorial/blue_win.png' height='500'></p></div>,null,,,,,,,,,,,,,,,,,,,,,,,
,html-keyboard-response,14,124930,0.0-14.0,"""event"",""trial"",""time""
""fullscreenenter"",""0"",""8320""
","
","
","""event"",""trial"",""time""
""fullscreenenter"",""0"",""8320""
","
",54.10000002,<div class='center'><img src='run_exp/static/images/tutorial/blue.png' height='500'></p></div>,49,,,,,,,,,,,,,,,,,,,,,,,
,html-keyboard-response,15,126434,0.0-15.0,"""event"",""trial"",""time""
""fullscreenenter"",""0"",""8320""
","
","
","""event"",""trial"",""time""
""fullscreenenter"",""0"",""8320""
","
",null,<div class='center'><p><img src='run_exp/static/images/tutorial/blue_win.png' height='500'></p></div>,null,,,,,,,,,,,,,,,,,,,,,,,
,html-keyboard-response,16,128123,0.0-16.0,"""event"",""trial"",""time""
""fullscreenenter"",""0"",""8320""
","
","
","""event"",""trial"",""time""
""fullscreenenter"",""0"",""8320""
","
",1687.1,<div class='center'><img src='run_exp/static/images/tutorial/blue.png' height='500'></p></div>,49,,,,,,,,,,,,,,,,,,,,,,,
,html-keyboard-response,17,129626,0.0-17.0,"""event"",""trial"",""time""
""fullscreenenter"",""0"",""8320""
","
","
","""event"",""trial"",""time""
""fullscreenenter"",""0"",""8320""
","
",null,<div class='center'><p><img src='run_exp/static/images/tutorial/blue_no_win.png' height='500'></p></div>,null,,,,,,,,,,,,,,,,,,,,,,,
,html-keyboard-response,18,130264,0.0-18.0,"""event"",""trial"",""time""
""fullscreenenter"",""0"",""8320""
","
","
","""event"",""trial"",""time""
""fullscreenenter"",""0"",""8320""
","
",635.7,<div class='center'><img src='run_exp/static/images/tutorial/blue.png' height='500'></p></div>,49,,,,,,,,,,,,,,,,,,,,,,,
,html-keyboard-response,19,131769,0.0-19.0,"""event"",""trial"",""time""
""fullscreenenter"",""0"",""8320""
","
","
","""event"",""trial"",""time""
""fullscreenenter"",""0"",""8320""
","
",null,<div class='center'><p><img src='run_exp/static/images/tutorial/blue_win.png' height='500'></p></div>,null,,,,,,,,,,,,,,,,,,,,,,,
,html-keyboard-response,20,132128,0.0-20.0,"""event"",""trial"",""time""
""fullscreenenter"",""0"",""8320""
","
","
","""event"",""trial"",""time""
""fullscreenenter"",""0"",""8320""
","
",357.4,<div class='center'><img src='run_exp/static/images/tutorial/blue.png' height='500'></p></div>,49,,,,,,,,,,,,,,,,,,,,,,,
,html-keyboard-response,21,133634,0.0-21.0,"""event"",""trial"",""time""
""fullscreenenter"",""0"",""8320""
","
","
","""event"",""trial"",""time""
""fullscreenenter"",""0"",""8320""
","
",null,<div class='center'><p><img src='run_exp/static/images/tutorial/blue_win.png' height='500'></p></div>,null,,,,,,,,,,,,,,,,,,,,,,,
,html-keyboard-response,22,133929,0.0-22.0,"""event"",""trial"",""time""
""fullscreenenter"",""0"",""8320""
","
","
","""event"",""trial"",""time""
""fullscreenenter"",""0"",""8320""
","
",291.9,<div class='center'><img src='run_exp/static/images/tutorial/blue.png' height='500'></p></div>,49,,,,,,,,,,,,,,,,,,,,,,,
,html-keyboard-response,23,135433,0.0-23.0,"""event"",""trial"",""time""
""fullscreenenter"",""0"",""8320""
","
","
","""event"",""trial"",""time""
""fullscreenenter"",""0"",""8320""
","
",null,<div class='center'><p><img src='run_exp/static/images/tutorial/blue_win.png' height='500'></p></div>,null,,,,,,,,,,,,,,,,,,,,,,,
,html-keyboard-response,24,135580,0.0-24.0,"""event"",""trial"",""time""
""fullscreenenter"",""0"",""8320""
","
","
","""event"",""trial"",""time""
""fullscreenenter"",""0"",""8320""
","
",145.2,<div class='center'><img src='run_exp/static/images/tutorial/blue.png' height='500'></p></div>,49,,,,,,,,,,,,,,,,,,,,,,,
,html-keyboard-response,25,137082,0.0-25.0,"""event"",""trial"",""time""
""fullscreenenter"",""0"",""8320""
","
","
","""event"",""trial"",""time""
""fullscreenenter"",""0"",""8320""
","
",null,<div class='center'><p><img src='run_exp/static/images/tutorial/blue_no_win.png' height='500'></p></div>,null,,,,,,,,,,,,,,,,,,,,,,,
,html-keyboard-response,26,137380,0.0-26.0,"""event"",""trial"",""time""
""fullscreenenter"",""0"",""8320""
","
","
","""event"",""trial"",""time""
""fullscreenenter"",""0"",""8320""
","
",295.3,<div class='center'><img src='run_exp/static/images/tutorial/blue.png' height='500'></p></div>,49,,,,,,,,,,,,,,,,,,,,,,,
,html-keyboard-response,27,138883,0.0-27.0,"""event"",""trial"",""time""
""fullscreenenter"",""0"",""8320""
","
","
","""event"",""trial"",""time""
""fullscreenenter"",""0"",""8320""
","
",null,<div class='center'><p><img src='run_exp/static/images/tutorial/blue_win.png' height='500'></p></div>,null,,,,,,,,,,,,,,,,,,,,,,,
,html-keyboard-response,28,139289,0.0-28.0,"""event"",""trial"",""time""
""fullscreenenter"",""0"",""8320""
","
","
","""event"",""trial"",""time""
""fullscreenenter"",""0"",""8320""
","
",404.2,<div class='center'><img src='run_exp/static/images/tutorial/blue.png' height='500'></p></div>,49,,,,,,,,,,,,,,,,,,,,,,,
,html-keyboard-response,29,140793,0.0-29.0,"""event"",""trial"",""time""
""fullscreenenter"",""0"",""8320""
","
","
","""event"",""trial"",""time""
""fullscreenenter"",""0"",""8320""
","
",null,<div class='center'><p><img src='run_exp/static/images/tutorial/blue_win.png' height='500'></p></div>,null,,,,,,,,,,,,,,,,,,,,,,,
,instruc6,30,146150,0.0-30.0,"""event"",""trial"",""time""
""fullscreenenter"",""0"",""8320""
","
","
","""event"",""trial"",""time""
""fullscreenenter"",""0"",""8320""
","
",null,run_exp/static/audio/clip_6_blue_beard_outcome.m4a,null,,,,,"<div class='center'><p> See, he succeeded in robbing the ships most of the time but not every time. </p></div>",,,,,,,,,,,,,,,,,,
,html-keyboard-response,31,147149,0.0-31.0,"""event"",""trial"",""time""
""fullscreenenter"",""0"",""8320""
","
","
","""event"",""trial"",""time""
""fullscreenenter"",""0"",""8320""
","
",997.7,"<div class='center'><p> See, he succeeded in robbing the ships most of the time but not every time. </p><p><b>[Press the space bar to continue]</b></p></div>",32,,,,,,,,,,,,,,,,,,,,,,,
,audio-keyboard-response,32,163756,0.0-32.0,"""event"",""trial"",""time""
""fullscreenenter"",""0"",""8320""
","
","
","""event"",""trial"",""time""
""fullscreenenter"",""0"",""8320""
","
",16604.8,run_exp/static/audio/clip_7_pick_pirate.m4a,51,,,,,,,,,,,,,,,,,,,,,,,
,audio-keyboard-response,33,168007,0.0-33.0-0.0,"""event"",""trial"",""time""
""fullscreenenter"",""0"",""8320""
","
","
","""event"",""trial"",""time""
""fullscreenenter"",""0"",""8320""
","
",4246.9,run_exp/static/audio/clip_8_chosen_pirate_win.m4a,32,,,,,,,,,,,,,,,,,,,,,,,
,audio-keyboard-response,34,170772,0.0-33.0-1.0,"""event"",""trial"",""time""
""fullscreenenter"",""0"",""8320""
","
","
","""event"",""trial"",""time""
""fullscreenenter"",""0"",""8320""
","
",2763.4,run_exp/static/audio/clip_9_pick_a_pirate_again.m4a,51,,,,,,,,,,,,,,,,,,,,,,,
,audio-keyboard-response,35,172359,0.0-34.0-0.0,"""event"",""trial"",""time""
""fullscreenenter"",""0"",""8320""
","
","
","""event"",""trial"",""time""
""fullscreenenter"",""0"",""8320""
","
",1583.6,run_exp/static/audio/clip_10_chosen_pirate_loss.m4a,32,,,,,,,,,,,,,,,,,,,,,,,
,instruc9,36,177807,0.0-35.0-0.0,"""event"",""trial"",""time""
""fullscreenenter"",""0"",""8320""
","
","
","""event"",""trial"",""time""
""fullscreenenter"",""0"",""8320""
","
",null,run_exp/static/audio/clip_11_time_out.m4a,null,,,,,"<div class='center'><p>If you don’t make your choice fast enough, you’ll have to wait a few seconds before you can make another one. </p><p><img src='run_exp/static/images/miscellaneous/hurry_up.png' height='500'></p></div>",,,,,,,,,,,,,,,,,,
,html-keyboard-response,37,178814,0.0-35.0-1.0,"""event"",""trial"",""time""
""fullscreenenter"",""0"",""8320""
","
","
","""event"",""trial"",""time""
""fullscreenenter"",""0"",""8320""
","
",1004.2,"<div class='center'><p>If you don’t make your choice fast enough, you’ll have to wait a few seconds before you can make another one. </p><p><img src='run_exp/static/images/miscellaneous/hurry_up.png' height='500'></p><p><b>[Press the space bar to continue]</b></p></div>",32,,,,,,,,,,,,,,,,,,,,,,,
,instruc10,38,217872,0.0-35.0-2.0,"""event"",""trial"",""time""
""fullscreenenter"",""0"",""8320""
","
","
","""event"",""trial"",""time""
""fullscreenenter"",""0"",""8320""
","
",null,run_exp/static/audio/clip_12_probe.m4a,null,,,,,"<div class='center'><p>Once you've chosen a pirate, you’ll be shown the ship they are robbing. You will never rob the same ship twice. Ships can be told apart from one another by the image on them. These are the goods that they sell. See, this ship has a travel mug on it. </p><p> You’ll have to remember which island you saw each ship on. You will win more gold coins and hence more bonus money if you remember correctly! To help you remember, you can imagine a story. For example, here, you could imagine a mug full of water in the desert. Or, as another example, if on the forest island, your pirate robbed a ship with an apple on it, you could imagine an apple falling from a tree in the forest. </p><p><img src='run_exp/static/images/tutorial/example_probe.png' height='500'></p></div>",,,,,,,,,,,,,,,,,,
,html-keyboard-response,39,218828,0.0-35.0-3.0,"""event"",""trial"",""time""
""fullscreenenter"",""0"",""8320""
","
","
","""event"",""trial"",""time""
""fullscreenenter"",""0"",""8320""
","
",952.3,"<div class='center'><p>Once you've chosen a pirate, you’ll be shown the ship they are robbing. You will never rob the same ship twice. Ships can be told apart from one another by the image on them. These are the goods that they sell. See, this ship has a travel mug on it. </p><p> You’ll have to remember which island you saw each ship on. You will win more gold coins and hence more bonus money if you remember correctly! To help you remember, you can imagine a story. For example, here, you could imagine a mug full of water in the desert. Or, as another example, if on the forest island, your pirate robbed a ship with an apple on it, you could imagine an apple falling from a tree in the forest. </p><p><img src='run_exp/static/images/tutorial/example_probe.png' height='500'></p><p><b>[Press the space bar to continue]</b></p></div>",32,,,,,,,,,,,,,,,,,,,,,,,
,instruc11,40,235215,0.0-35.0-4.0,"""event"",""trial"",""time""
""fullscreenenter"",""0"",""8320""
","
","
","""event"",""trial"",""time""
""fullscreenenter"",""0"",""8320""
","
",null,run_exp/static/audio/clip_13_changepoint.m4a,null,,,,,"<div class='center'><p>How successful a pirate is at robbing ships will depend on the island you’re on.</p><p> A pirate may have visited this island many times before and gained a lot of practice robbing ships there.</p><p>So, they’re more likely to be successful than a pirate who has never visited the island before.</p></div>",,,,,,,,,,,,,,,,,,
,html-keyboard-response,41,235663,0.0-35.0-5.0,"""event"",""trial"",""time""
""fullscreenenter"",""0"",""8320""
","
","
","""event"",""trial"",""time""
""fullscreenenter"",""0"",""8320""
","
",444.7,"<div class='center'><p>How successful a pirate is at robbing ships will depend on the island you’re on.</p><p> A pirate may have visited this island many times before and gained a lot of practice robbing ships there.</p><p>So, they’re more likely to be successful than a pirate who has never visited the island before.</p><p><b>[Press the space bar to continue]</b></p></div>",32,,,,,,,,,,,,,,,,,,,,,,,
,instruc12,42,276729,0.0-35.0-6.0,"""event"",""trial"",""time""
""fullscreenenter"",""0"",""8320""
","
","
","""event"",""trial"",""time""
""fullscreenenter"",""0"",""8320""
","
",null,run_exp/static/audio/clip_14_drift.m4a,null,,,,,"<div class='center'><p>How successful a pirate is at robbing ships can also change over the time spent on the island. </p><p> Ships may hear from islanders about the pirates coming and will improve their protections against the attack. This may make it harder to rob them.</p><p> Ships may also become lazy and weaken the strength of their protections. This may make it easier to rob them.</p><br><p>Things are always changing on the high seas! So, try your best to pay attention!</p><p><img src='run_exp/static/images/tutorial/contingency.png' height='500'></p></div>",,,,,,,,,,,,,,,,,,
,html-keyboard-response,43,277759,0.0-35.0-7.0,"""event"",""trial"",""time""
""fullscreenenter"",""0"",""8320""
","
","
","""event"",""trial"",""time""
""fullscreenenter"",""0"",""8320""
","
",1026.8,"<div class='center'><p>How successful a pirate is at robbing ships can also change over the time spent on the island. </p><p> Ships may hear from islanders about the pirates coming and will improve their protections against the attack. This may make it harder to rob them.</p><p> Ships may also become lazy and weaken the strength of their protections. This may make it easier to rob them.</p><br><p>Things are always changing on the high seas! So, try your best to pay attention!</p><p><img src='run_exp/static/images/tutorial/contingency.png' height='500'></p><p><b>[Press the space bar to continue]</b></p></div>",32,,,,,,,,,,,,,,,,,,,,,,,
,instruc13,44,312911,0.0-35.0-8.0,"""event"",""trial"",""time""
""fullscreenenter"",""0"",""8320""
","
","
","""event"",""trial"",""time""
""fullscreenenter"",""0"",""8320""
","
",null,run_exp/static/audio/clip_15_summary.m4a,null,,,,,"<div class='center'><p>Let's go over the instructions quickly again. You have two important things to do: </p><b><p> 1. Pick the pirate who is the best at robbing ships on the current island. </p></b><b><p> 2. Remember on which island a ship was robbed.</p> </b><p>The amount of bonus money you can win depends on both.</p><p><br><p>Let’s try a practice game. The game will start by showing you the pirates. First, pick a pirate using the <b> 1, 2, 3 </b> keys on your keyboard. When you are shown a ship, try to remember which island you’re on by making up a story.</p><p>This is just a practice game, so you’re not playing for money. </p><p> Good luck! This game will be very difficult but try your best!</p></div>",,,,,,,,,,,,,,,,,,
,html-keyboard-response,45,313292,0.0-35.0-9.0,"""event"",""trial"",""time""
""fullscreenenter"",""0"",""8320""
","
","
","""event"",""trial"",""time""
""fullscreenenter"",""0"",""8320""
","
",377.6,"<div class='center'><p>Let's go over the instructions quickly again. You have two important things to do: </p><b><p> 1. Pick the pirate who is the best at robbing ships on the current island. </p></b><b><p> 2. Remember on which island a ship was robbed.</p> </b><p>The amount of bonus money you can win depends on both.</p><p><br><p>Let’s try a practice game. The game will start by showing you the pirates. First, pick a pirate using the <b> 1, 2, 3 </b> keys on your keyboard. When you are shown a ship, try to remember which island you’re on by making up a story.</p><p>This is just a practice game, so you’re not playing for money. </p><p> Good luck! This game will be very difficult but try your best!</p><p><b>[Press the space bar to continue]</b></p></div>",32,,,,,,,,,,,,,,,,,,,,,,,
,do_welcome,46,317300,0.0-35.0-10.0,"""event"",""trial"",""time""
""fullscreenenter"",""0"",""8320""
","
","
","""event"",""trial"",""time""
""fullscreenenter"",""0"",""8320""
","
",null,,,,,,,,null,,,,,,,,,,,,,,,,,
,do_trial,47,324226,0.0-35.0-11.0,"""event"",""trial"",""time""
""fullscreenenter"",""0"",""8320""
","
","
","""event"",""trial"",""time""
""fullscreenenter"",""0"",""8320""
","
",2414.8,,,,,,,,51,"1,0,0",,,,,,,,,,,,,,,,
,html-keyboard-response,48,325233,0.0-36.0-0.0,"""event"",""trial"",""time""
""fullscreenenter"",""0"",""8320""
","
","
","""event"",""trial"",""time""
""fullscreenenter"",""0"",""8320""
","
",null,<p></p>,null,,,,,,,,,,,,,,,,,,,,,,,
,do_trial,49,331245,0.0-36.0-1.0,"""event"",""trial"",""time""
""fullscreenenter"",""0"",""8320""
","
","
","""event"",""trial"",""time""
""fullscreenenter"",""0"",""8320""
","
",null,,,,,,,,null,"1,1,0",,,,,,,,,,,,,,,,
,html-keyboard-response,50,332249,0.0-37.0-0.0,"""event"",""trial"",""time""
""fullscreenenter"",""0"",""8320""
","
","
","""event"",""trial"",""time""
""fullscreenenter"",""0"",""8320""
","
",null,<p></p>,null,,,,,,,,,,,,,,,,,,,,,,,
,do_trial,51,337459,0.0-37.0-1.0,"""event"",""trial"",""time""
""fullscreenenter"",""0"",""8320""
","
","
","""event"",""trial"",""time""
""fullscreenenter"",""0"",""8320""
","
",700.3,,,,,,,,49,"1,1,0",,,,,,,,,,,,,,,,
,html-keyboard-response,52,338464,0.0-38.0-0.0,"""event"",""trial"",""time""
""fullscreenenter"",""0"",""8320""
","
","
","""event"",""trial"",""time""
""fullscreenenter"",""0"",""8320""
","
",null,<p></p>,null,,,,,,,,,,,,,,,,,,,,,,,
,do_trial,53,343955,0.0-38.0-1.0,"""event"",""trial"",""time""
""fullscreenenter"",""0"",""8320""
","
","
","""event"",""trial"",""time""
""fullscreenenter"",""0"",""8320""
","
",978.2,,,,,,,,50,"1,0,1",,,,,,,,,,,,,,,,
,html-keyboard-response,54,344961,0.0-39.0-0.0,"""event"",""trial"",""time""
""fullscreenenter"",""0"",""8320""
","
","
","""event"",""trial"",""time""
""fullscreenenter"",""0"",""8320""
","
",null,<p></p>,null,,,,,,,,,,,,,,,,,,,,,,,
,do_trial,55,350173,0.0-39.0-1.0,"""event"",""trial"",""time""
""fullscreenenter"",""0"",""8320""
","
","
","""event"",""trial"",""time""
""fullscreenenter"",""0"",""8320""
","
",698.9,,,,,,,,51,"0,1,0",,,,,,,,,,,,,,,,
,html-keyboard-response,56,351181,0.0-40.0-0.0,"""event"",""trial"",""time""
""fullscreenenter"",""0"",""8320""
","
","
","""event"",""trial"",""time""
""fullscreenenter"",""0"",""8320""
","
",null,<p></p>,null,,,,,,,,,,,,,,,,,,,,,,,
,do_trial,57,356094,0.0-40.0-1.0,"""event"",""trial"",""time""
""fullscreenenter"",""0"",""8320""
","
","
","""event"",""trial"",""time""
""fullscreenenter"",""0"",""8320""
","
",401.9,,,,,,,,51,"1,0,0",,,,,,,,,,,,,,,,
,do_bye,58,357603,0.0-41.0-0.0,"""event"",""trial"",""time""
""fullscreenenter"",""0"",""8320""
","
","
","""event"",""trial"",""time""
""fullscreenenter"",""0"",""8320""
","
",null,,,,,,,,null,,,,,,,,,,,,,,,,,
,do_travel,59,366609,0.0-41.0-1.0,"""event"",""trial"",""time""
""fullscreenenter"",""0"",""8320""
","
","
","""event"",""trial"",""time""
""fullscreenenter"",""0"",""8320""
","
",null,,,,,,,,null,,,,,,,,,,,,,,,,,
,do_welcome,60,370619,0.0-41.0-2.0,"""event"",""trial"",""time""
""fullscreenenter"",""0"",""8320""
","
","
","""event"",""trial"",""time""
""fullscreenenter"",""0"",""8320""
","
",null,,,,,,,,null,,,,,,,,,,,,,,,,,
,do_trial,61,376131,0.0-41.0-3.0,"""event"",""trial"",""time""
""fullscreenenter"",""0"",""8320""
","
","
","""event"",""trial"",""time""
""fullscreenenter"",""0"",""8320""
","
",1007,,,,,,,,49,"1,0,0",,,,,,,,,,,,,,,,
,html-keyboard-response,62,377136,0.0-42.0-0.0,"""event"",""trial"",""time""
""fullscreenenter"",""0"",""8320""
","
","
","""event"",""trial"",""time""
""fullscreenenter"",""0"",""8320""
","
",null,<p></p>,null,,,,,,,,,,,,,,,,,,,,,,,
,do_trial,63,382168,0.0-42.0-1.0,"""event"",""trial"",""time""
""fullscreenenter"",""0"",""8320""
","
","
","""event"",""trial"",""time""
""fullscreenenter"",""0"",""8320""
","
",518.8,,,,,,,,51,"1,0,1",,,,,,,,,,,,,,,,
,html-keyboard-response,64,383175,0.0-43.0-0.0,"""event"",""trial"",""time""
""fullscreenenter"",""0"",""8320""
","
","
","""event"",""trial"",""time""
""fullscreenenter"",""0"",""8320""
","
",null,<p></p>,null,,,,,,,,,,,,,,,,,,,,,,,
,do_trial,65,388120,0.0-43.0-1.0,"""event"",""trial"",""time""
""fullscreenenter"",""0"",""8320""
","
","
","""event"",""trial"",""time""
""fullscreenenter"",""0"",""8320""
","
",436.5,,,,,,,,51,"1,1,0",,,,,,,,,,,,,,,,
,html-keyboard-response,66,389126,0.0-44.0-0.0,"""event"",""trial"",""time""
""fullscreenenter"",""0"",""8320""
","
","
","""event"",""trial"",""time""
""fullscreenenter"",""0"",""8320""
","
",null,<p></p>,null,,,,,,,,,,,,,,,,,,,,,,,
,do_trial,67,393803,0.0-44.0-1.0,"""event"",""trial"",""time""
""fullscreenenter"",""0"",""8320""
","
","
","""event"",""trial"",""time""
""fullscreenenter"",""0"",""8320""
","
",162,,,,,,,,50,"0,0,1",,,,,,,,,,,,,,,,
,html-keyboard-response,68,394807,0.0-45.0-0.0,"""event"",""trial"",""time""
""fullscreenenter"",""0"",""8320""
","
","
","""event"",""trial"",""time""
""fullscreenenter"",""0"",""8320""
","
",null,<p></p>,null,,,,,,,,,,,,,,,,,,,,,,,
,do_trial,69,399817,0.0-45.0-1.0,"""event"",""trial"",""time""
""fullscreenenter"",""0"",""8320""
","
","
","""event"",""trial"",""time""
""fullscreenenter"",""0"",""8320""
","
",502.5,,,,,,,,50,"1,0,1",,,,,,,,,,,,,,,,
,html-keyboard-response,70,403054,0.0-46.0-0.0,"""event"",""trial"",""time""
""fullscreenenter"",""0"",""8320""
","
","
","""event"",""trial"",""time""
""fullscreenenter"",""0"",""8320""
","
",3230.4,<div class='center'><p><img src='run_exp/static/images/tutorial/prac_best_pirate.png'  height='500'></p></div>,51,,,,,,,,,,,,,,,,,,,,,,,
,html-keyboard-response,71,404637,0.0-47.0-0.0,"""event"",""trial"",""time""
""fullscreenenter"",""0"",""8320""
","
","
","""event"",""trial"",""time""
""fullscreenenter"",""0"",""8320""
","
",1580.6,<div class='center'><p>That's incorrect! Red beard was the best.</p><p><b>[Press the space bar to continue]</b></p></div>,32,,,,,,,,,,,,,,,,,,,,,,,
,html-keyboard-response,72,408202,0.0-47.0-1.0,"""event"",""trial"",""time""
""fullscreenenter"",""0"",""8320""
","
","
","""event"",""trial"",""time""
""fullscreenenter"",""0"",""8320""
","
",3563.2,<div class='center'><p><img src='run_exp/static/images/tutorial/prac_source.png'  height='500'></p></div>,50,,,,,,,,,,,,,,,,,,,,,,,
,html-keyboard-response,73,409334,0.0-48.0-0.0,"""event"",""trial"",""time""
""fullscreenenter"",""0"",""8320""
","
","
","""event"",""trial"",""time""
""fullscreenenter"",""0"",""8320""
","
",1129.7,<div class='center'><p>That's correct! You saw this ship on the cavern island.</p><p><b>[Press the space bar to continue]</b></p></div>,32,,,,,,,,,,,,,,,,,,,,,,,
,quiz_beginning,74,420489,0.0-48.0-1.0,"""event"",""trial"",""time""
""fullscreenenter"",""0"",""8320""
","
","
","""event"",""trial"",""time""
""fullscreenenter"",""0"",""8320""
","
",null,run_exp/static/audio/clip_16_quiz_intro.m4a,null,,,,,"<div class='center'><p>Good job on the practice game! Now, you will be asked some true or false questions to make sure you really understand the rules of the game.</p><p> Press <b>'1'</b> on the keyboard for true and press <b>'2'</b> for false.</p></div>",,,,,,,,,,,,,,,,,,
,audio-keyboard-response,75,423502,0.0-48.0-2.0,"""event"",""trial"",""time""
""fullscreenenter"",""0"",""8320""
","
","
","""event"",""trial"",""time""
""fullscreenenter"",""0"",""8320""
","
",3009.1,run_exp/static/audio/clip_17_q1.m4a,49,,,,,,,,,,,,,,,,,,,,,,,
,correct,76,425865,0.0-49.0-0.0,"""event"",""trial"",""time""
""fullscreenenter"",""0"",""8320""
","
","
","""event"",""trial"",""time""
""fullscreenenter"",""0"",""8320""
","
",null,run_exp/static/audio/clip_18_correct.m4a,null,,,,,<div class='center'><p>That's correct!</p></div>,,,,,,,,,,,,,,,,,,
,html-keyboard-response,77,426668,0.0-49.0-1.0,"""event"",""trial"",""time""
""fullscreenenter"",""0"",""8320""
","
","
","""event"",""trial"",""time""
""fullscreenenter"",""0"",""8320""
","
",801.6,<div class='center'><p>That's correct!</p><p><b>[Press the space bar to continue]</b></p></div>,32,,,,,,,,,,,,,,,,,,,,,,,
,audio-keyboard-response,78,434059,0.0-49.0-2.0,"""event"",""trial"",""time""
""fullscreenenter"",""0"",""8320""
","
","
","""event"",""trial"",""time""
""fullscreenenter"",""0"",""8320""
","
",7389.1,run_exp/static/audio/clip_20_q2.m4a,50,,,,,,,,,,,,,,,,,,,,,,,
,correct,79,436425,0.0-50.0-0.0,"""event"",""trial"",""time""
""fullscreenenter"",""0"",""8320""
","
","
","""event"",""trial"",""time""
""fullscreenenter"",""0"",""8320""
","
",null,run_exp/static/audio/clip_18_correct.m4a,null,,,,,<div class='center'><p>That's correct!</p></div>,,,,,,,,,,,,,,,,,,
,html-keyboard-response,80,437036,0.0-50.0-1.0,"""event"",""trial"",""time""
""fullscreenenter"",""0"",""8320""
","
","
","""event"",""trial"",""time""
""fullscreenenter"",""0"",""8320""
","
",610.3,<div class='center'><p>That's correct!</p><p><b>[Press the space bar to continue]</b></p></div>,32,,,,,,,,,,,,,,,,,,,,,,,
,audio-keyboard-response,81,442518,0.0-50.0-2.0,"""event"",""trial"",""time""
""fullscreenenter"",""0"",""8320""
","
","
","""event"",""trial"",""time""
""fullscreenenter"",""0"",""8320""
","
",5480.7,run_exp/static/audio/clip_22_q3.m4a,50,,,,,,,,,,,,,,,,,,,,,,,
,correct,82,444873,0.0-51.0-0.0,"""event"",""trial"",""time""
""fullscreenenter"",""0"",""8320""
","
","
","""event"",""trial"",""time""
""fullscreenenter"",""0"",""8320""
","
",null,run_exp/static/audio/clip_18_correct.m4a,null,,,,,<div class='center'><p>That's correct!</p></div>,,,,,,,,,,,,,,,,,,
,html-keyboard-response,83,445168,0.0-51.0-1.0,"""event"",""trial"",""time""
""fullscreenenter"",""0"",""8320""
","
","
","""event"",""trial"",""time""
""fullscreenenter"",""0"",""8320""
","
",293.4,<div class='center'><p>That's correct!</p><p><b>[Press the space bar to continue]</b></p></div>,32,,,,,,,,,,,,,,,,,,,,,,,
,audio-keyboard-response,84,447687,0.0-51.0-2.0,"""event"",""trial"",""time""
""fullscreenenter"",""0"",""8320""
","
","
","""event"",""trial"",""time""
""fullscreenenter"",""0"",""8320""
","
",2518.2,run_exp/static/audio/clip_24_q4.m4a,49,,,,,,,,,,,,,,,,,,,,,,,
,correct,85,450079,0.0-52.0-0.0,"""event"",""trial"",""time""
""fullscreenenter"",""0"",""8320""
","
","
","""event"",""trial"",""time""
""fullscreenenter"",""0"",""8320""
","
",null,run_exp/static/audio/clip_18_correct.m4a,null,,,,,<div class='center'><p>That's correct!</p></div>,,,,,,,,,,,,,,,,,,
,html-keyboard-response,86,450709,0.0-52.0-1.0,"""event"",""trial"",""time""
""fullscreenenter"",""0"",""8320""
","
","
","""event"",""trial"",""time""
""fullscreenenter"",""0"",""8320""
","
",628.3,<div class='center'><p>That's correct!</p><p><b>[Press the space bar to continue]</b></p></div>,32,,,,,,,,,,,,,,,,,,,,,,,
,q_all_corr,87,459188,0.0-53.0-0.0,"""event"",""trial"",""time""
""fullscreenenter"",""0"",""8320""
","
","
","""event"",""trial"",""time""
""fullscreenenter"",""0"",""8320""
","
",null,run_exp/static/audio/clip_27_quiz_all_correct.m4a,null,,,,,<div class='center'><p>Good job! You’re now ready to move on to the real game! Remember this game will be difficult but don't get discouraged and try your best!</p></div>,,,,,,,,,,,,,,,,,,
,html-keyboard-response,88,459520,0.0-53.0-1.0,"""event"",""trial"",""time""
""fullscreenenter"",""0"",""8320""
","
","
","""event"",""trial"",""time""
""fullscreenenter"",""0"",""8320""
","
",328.7,<div class='center'><p>Good job! You’re now ready to move on to the real game! Remember this game will be difficult but don't get discouraged and try your best!</p><p><b>[Press the space bar to continue]</b></p></div>,32,,,,,,,,,,,,,,,,,,,,,,,
,do_welcome,89,463531,0.0-54.0-0.0,"""event"",""trial"",""time""
""fullscreenenter"",""0"",""8320""
","
","
","""event"",""trial"",""time""
""fullscreenenter"",""0"",""8320""
","
",null,,,,,,,,null,,,,,,,,,,,,,,,,,
,do_trial,90,468895,0.0-55.0-0.0,"""event"",""trial"",""time""
""fullscreenenter"",""0"",""8320""
","
","
","""event"",""trial"",""time""
""fullscreenenter"",""0"",""8320""
","
",812.8,,,,,,,,50,"0,0,0",0,mountain,0,probe-134,0.6,0.3,0.1,0,,,,,,,,
,html-keyboard-response,91,469902,0.0-55.0-1.0,"""event"",""trial"",""time""
""fullscreenenter"",""0"",""8320""
","
","
","""event"",""trial"",""time""
""fullscreenenter"",""0"",""8320""
","
",null,<p></p>,null,,,,,,,,,,,,,,,,,,,,,,,
,do_trial,92,475639,0.0-56.0-0.0,"""event"",""trial"",""time""
""fullscreenenter"",""0"",""8320""
","
","
","""event"",""trial"",""time""
""fullscreenenter"",""0"",""8320""
","
",1186.6,,,,,,,,51,"0,0,0",0,mountain,1,probe-155,0.635477195,0.145706867,0.170223429,0,,,,,,,,
,html-keyboard-response,93,476647,0.0-56.0-1.0,"""event"",""trial"",""time""
""fullscreenenter"",""0"",""8320""
","
","
","""event"",""trial"",""time""
""fullscreenenter"",""0"",""8320""
","
",null,<p></p>,null,,,,,,,,,,,,,,,,,,,,,,,
,do_trial,94,481490,0.0-57.0-0.0,"""event"",""trial"",""time""
""fullscreenenter"",""0"",""8320""
","
","
","""event"",""trial"",""time""
""fullscreenenter"",""0"",""8320""
","
",299.1,,,,,,,,51,"1,0,0",0,mountain,2,probe-93,0.562030243,0.166069201,0.065528188,0,,,,,,,,
,html-keyboard-response,95,482498,0.0-57.0-1.0,"""event"",""trial"",""time""
""fullscreenenter"",""0"",""8320""
","
","
","""event"",""trial"",""time""
""fullscreenenter"",""0"",""8320""
","
",null,<p></p>,null,,,,,,,,,,,,,,,,,,,,,,,
,do_trial,96,487130,0.0-58.0-0.0,"""event"",""trial"",""time""
""fullscreenenter"",""0"",""8320""
","
","
","""event"",""trial"",""time""
""fullscreenenter"",""0"",""8320""
","
",87.70000002,,,,,,,,49,"1,0,0",0,mountain,3,probe-79,0.580353779,0.159938733,0.079845558,1,,,,,,,,
,html-keyboard-response,97,488134,0.0-58.0-1.0,"""event"",""trial"",""time""
""fullscreenenter"",""0"",""8320""
","
","
","""event"",""trial"",""time""
""fullscreenenter"",""0"",""8320""
","
",null,<p></p>,null,,,,,,,,,,,,,,,,,,,,,,,
,do_trial,98,493119,0.0-59.0-0.0,"""event"",""trial"",""time""
""fullscreenenter"",""0"",""8320""
","
","
","""event"",""trial"",""time""
""fullscreenenter"",""0"",""8320""
","
",441,,,,,,,,49,"1,0,0",0,mountain,4,probe-36,0.644688034,0.059206728,0.161060006,1,,,,,,,,
,html-keyboard-response,99,494126,0.0-59.0-1.0,"""event"",""trial"",""time""
""fullscreenenter"",""0"",""8320""
","
","
","""event"",""trial"",""time""
""fullscreenenter"",""0"",""8320""
","
",null,<p></p>,null,,,,,,,,,,,,,,,,,,,,,,,
,do_trial,100,499160,0.0-60.0-0.0,"""event"",""trial"",""time""
""fullscreenenter"",""0"",""8320""
","
","
","""event"",""trial"",""time""
""fullscreenenter"",""0"",""8320""
","
",490.4,,,,,,,,49,"0,1,0",0,mountain,5,probe-175,0.586005301,0.27786104,0.098081294,0,,,,,,,,
,html-keyboard-response,101,500167,0.0-60.0-1.0,"""event"",""trial"",""time""
""fullscreenenter"",""0"",""8320""
","
","
","""event"",""trial"",""time""
""fullscreenenter"",""0"",""8320""
","
",null,<p></p>,null,,,,,,,,,,,,,,,,,,,,,,,
,do_trial,102,504754,0.0-61.0-0.0,"""event"",""trial"",""time""
""fullscreenenter"",""0"",""8320""
","
","
","""event"",""trial"",""time""
""fullscreenenter"",""0"",""8320""
","
",43.59999999,,,,,,,,51,"1,1,0",0,mountain,6,probe-147,0.644523911,0.424173186,0.314857072,0,,,,,,,,
,html-keyboard-response,103,505758,0.0-61.0-1.0,"""event"",""trial"",""time""
""fullscreenenter"",""0"",""8320""
","
","
","""event"",""trial"",""time""
""fullscreenenter"",""0"",""8320""
","
",null,<p></p>,null,,,,,,,,,,,,,,,,,,,,,,,
,do_trial,104,510333,0.0-62.0-0.0,"""event"",""trial"",""time""
""fullscreenenter"",""0"",""8320""
","
","
","""event"",""trial"",""time""
""fullscreenenter"",""0"",""8320""
","
",28.30000001,,,,,,,,50,"1,0,0",0,mountain,7,probe-178,0.561809962,0.272074736,0.329760641,0,,,,,,,,
,html-keyboard-response,105,511338,0.0-62.0-1.0,"""event"",""trial"",""time""
""fullscreenenter"",""0"",""8320""
","
","
","""event"",""trial"",""time""
""fullscreenenter"",""0"",""8320""
","
",null,<p></p>,null,,,,,,,,,,,,,,,,,,,,,,,
,do_trial,106,516223,0.0-63.0-0.0,"""event"",""trial"",""time""
""fullscreenenter"",""0"",""8320""
","
","
","""event"",""trial"",""time""
""fullscreenenter"",""0"",""8320""
","
",342.6,,,,,,,,50,"1,0,1",0,mountain,8,probe-23,0.570362419,0.215413567,0.325179728,0,,,,,,,,
,html-keyboard-response,107,517227,0.0-63.0-1.0,"""event"",""trial"",""time""
""fullscreenenter"",""0"",""8320""
","
","
","""event"",""trial"",""time""
""fullscreenenter"",""0"",""8320""
","
",null,<p></p>,null,,,,,,,,,,,,,,,,,,,,,,,
,do_trial,108,521964,0.0-64.0-0.0,"""event"",""trial"",""time""
""fullscreenenter"",""0"",""8320""
","
","
","""event"",""trial"",""time""
""fullscreenenter"",""0"",""8320""
","
",192,,,,,,,,49,"0,0,1",0,mountain,9,probe-202,0.620152581,0.29927847,0.3514073,0,,,,,,,,
,html-keyboard-response,109,522970,0.0-64.0-1.0,"""event"",""trial"",""time""
""fullscreenenter"",""0"",""8320""
","
","
","""event"",""trial"",""time""
""fullscreenenter"",""0"",""8320""
","
",null,<p></p>,null,,,,,,,,,,,,,,,,,,,,,,,
,do_trial,110,527632,0.0-65.0-0.0,"""event"",""trial"",""time""
""fullscreenenter"",""0"",""8320""
","
","
","""event"",""trial"",""time""
""fullscreenenter"",""0"",""8320""
","
",118,,,,,,,,49,"0,0,0",0,mountain,10,probe-56,0.535534306,0.319197354,0.163510247,0,,,,,,,,
,html-keyboard-response,111,528639,0.0-65.0-1.0,"""event"",""trial"",""time""
""fullscreenenter"",""0"",""8320""
","
","
","""event"",""trial"",""time""
""fullscreenenter"",""0"",""8320""
","
",null,<p></p>,null,,,,,,,,,,,,,,,,,,,,,,,
,do_trial,112,533399,0.0-66.0-0.0,"""event"",""trial"",""time""
""fullscreenenter"",""0"",""8320""
","
","
","""event"",""trial"",""time""
""fullscreenenter"",""0"",""8320""
","
",212.6,,,,,,,,51,"1,0,0",0,mountain,11,probe-195,0.591363097,0.216974217,0.117074952,0,,,,,,,,
,html-keyboard-response,113,534402,0.0-66.0-1.0,"""event"",""trial"",""time""
""fullscreenenter"",""0"",""8320""
","
","
","""event"",""trial"",""time""
""fullscreenenter"",""0"",""8320""
","
",null,<p></p>,null,,,,,,,,,,,,,,,,,,,,,,,
,do_trial,114,540364,0.0-67.0-0.0,"""event"",""trial"",""time""
""fullscreenenter"",""0"",""8320""
","
","
","""event"",""trial"",""time""
""fullscreenenter"",""0"",""8320""
","
",1415.5,,,,,,,,50,"0,1,0",0,mountain,12,probe-27,0.577168363,0.297268906,0.061206456,1,,,,,,,,
,html-keyboard-response,115,541371,0.0-67.0-1.0,"""event"",""trial"",""time""
""fullscreenenter"",""0"",""8320""
","
","
","""event"",""trial"",""time""
""fullscreenenter"",""0"",""8320""
","
",null,<p></p>,null,,,,,,,,,,,,,,,,,,,,,,,
,do_trial,116,546381,0.0-68.0-0.0,"""event"",""trial"",""time""
""fullscreenenter"",""0"",""8320""
","
","
","""event"",""trial"",""time""
""fullscreenenter"",""0"",""8320""
","
",462.7,,,,,,,,50,"0,1,0",0,mountain,13,probe-50,0.552992524,0.519627973,0.067615257,1,,,,,,,,
,html-keyboard-response,117,547388,0.0-68.0-1.0,"""event"",""trial"",""time""
""fullscreenenter"",""0"",""8320""
","
","
","""event"",""trial"",""time""
""fullscreenenter"",""0"",""8320""
","
",null,<p></p>,null,,,,,,,,,,,,,,,,,,,,,,,
,do_trial,118,552043,0.0-69.0-0.0,"""event"",""trial"",""time""
""fullscreenenter"",""0"",""8320""
","
","
","""event"",""trial"",""time""
""fullscreenenter"",""0"",""8320""
","
",109.7,,,,,,,,51,"1,0,1",0,mountain,14,probe-192,0.639640609,0.430203854,0.240420358,1,,,,,,,,
,html-keyboard-response,119,553049,0.0-69.0-1.0,"""event"",""trial"",""time""
""fullscreenenter"",""0"",""8320""
","
","
","""event"",""trial"",""time""
""fullscreenenter"",""0"",""8320""
","
",null,<p></p>,null,,,,,,,,,,,,,,,,,,,,,,,
,do_trial,120,557986,0.0-70.0-0.0,"""event"",""trial"",""time""
""fullscreenenter"",""0"",""8320""
","
","
","""event"",""trial"",""time""
""fullscreenenter"",""0"",""8320""
","
",391.5,,,,,,,,51,"1,0,0",0,mountain,15,probe-43,0.594298021,0.440530214,0.060302352,0,,,,,,,,
,html-keyboard-response,121,558991,0.0-70.0-1.0,"""event"",""trial"",""time""
""fullscreenenter"",""0"",""8320""
","
","
","""event"",""trial"",""time""
""fullscreenenter"",""0"",""8320""
","
",null,<p></p>,null,,,,,,,,,,,,,,,,,,,,,,,
,do_trial,122,563857,0.0-71.0-0.0,"""event"",""trial"",""time""
""fullscreenenter"",""0"",""8320""
","
","
","""event"",""trial"",""time""
""fullscreenenter"",""0"",""8320""
","
",323.3,,,,,,,,49,"1,0,0",0,mountain,16,probe-15,0.629260778,0.468422811,0.088465319,1,,,,,,,,
,html-keyboard-response,123,564864,0.0-71.0-1.0,"""event"",""trial"",""time""
""fullscreenenter"",""0"",""8320""
","
","
","""event"",""trial"",""time""
""fullscreenenter"",""0"",""8320""
","
",null,<p></p>,null,,,,,,,,,,,,,,,,,,,,,,,
,do_trial,124,570056,0.0-72.0-0.0,"""event"",""trial"",""time""
""fullscreenenter"",""0"",""8320""
","
","
","""event"",""trial"",""time""
""fullscreenenter"",""0"",""8320""
","
",650.3,,,,,,,,49,"1,0,0",0,mountain,17,probe-02,0.67113135,0.374962162,0.207653023,1,,,,,,,,
,html-keyboard-response,125,571064,0.0-72.0-1.0,"""event"",""trial"",""time""
""fullscreenenter"",""0"",""8320""
","
","
","""event"",""trial"",""time""
""fullscreenenter"",""0"",""8320""
","
",null,<p></p>,null,,,,,,,,,,,,,,,,,,,,,,,
,do_trial,126,575983,0.0-73.0-0.0,"""event"",""trial"",""time""
""fullscreenenter"",""0"",""8320""
","
","
","""event"",""trial"",""time""
""fullscreenenter"",""0"",""8320""
","
",375,,,,,,,,50,"1,1,0",0,mountain,18,probe-74,0.514701879,0.266130987,0.205766023,1,,,,,,,,
,html-keyboard-response,127,576992,0.0-73.0-1.0,"""event"",""trial"",""time""
""fullscreenenter"",""0"",""8320""
","
","
","""event"",""trial"",""time""
""fullscreenenter"",""0"",""8320""
","
",null,<p></p>,null,,,,,,,,,,,,,,,,,,,,,,,
,do_trial,128,581610,0.0-74.0-0.0,"""event"",""trial"",""time""
""fullscreenenter"",""0"",""8320""
","
","
","""event"",""trial"",""time""
""fullscreenenter"",""0"",""8320""
","
",75.5,,,,,,,,49,"0,0,0",0,mountain,19,probe-214,0.699992218,0.232832683,0.115696998,0,,,,,,,,
,html-keyboard-response,129,582617,0.0-74.0-1.0,"""event"",""trial"",""time""
""fullscreenenter"",""0"",""8320""
","
","
","""event"",""trial"",""time""
""fullscreenenter"",""0"",""8320""
","
",null,<p></p>,null,,,,,,,,,,,,,,,,,,,,,,,
,do_trial,130,587438,0.0-75.0-0.0,"""event"",""trial"",""time""
""fullscreenenter"",""0"",""8320""
","
","
","""event"",""trial"",""time""
""fullscreenenter"",""0"",""8320""
","
",274.6,,,,,,,,50,"1,0,0",0,mountain,20,probe-08,0.6562176,0.308932948,0.06845067,0,,,,,,,,
,html-keyboard-response,131,588443,0.0-75.0-1.0,"""event"",""trial"",""time""
""fullscreenenter"",""0"",""8320""
","
","
","""event"",""trial"",""time""
""fullscreenenter"",""0"",""8320""
","
",null,<p></p>,null,,,,,,,,,,,,,,,,,,,,,,,
,do_trial,132,593331,0.0-76.0-0.0,"""event"",""trial"",""time""
""fullscreenenter"",""0"",""8320""
","
","
","""event"",""trial"",""time""
""fullscreenenter"",""0"",""8320""
","
",339.8,,,,,,,,49,"1,0,0",0,mountain,21,probe-44,0.596948963,0.212024729,0.132399052,1,,,,,,,,
,html-keyboard-response,133,594338,0.0-76.0-1.0,"""event"",""trial"",""time""
""fullscreenenter"",""0"",""8320""
","
","
","""event"",""trial"",""time""
""fullscreenenter"",""0"",""8320""
","
",null,<p></p>,null,,,,,,,,,,,,,,,,,,,,,,,
,do_trial,134,599852,0.0-77.0-0.0,"""event"",""trial"",""time""
""fullscreenenter"",""0"",""8320""
","
","
","""event"",""trial"",""time""
""fullscreenenter"",""0"",""8320""
","
",968.9,,,,,,,,51,"1,1,0",0,mountain,22,probe-215,0.688072969,0.289622317,0.254017883,0,,,,,,,,
,html-keyboard-response,135,600857,0.0-77.0-1.0,"""event"",""trial"",""time""
""fullscreenenter"",""0"",""8320""
","
","
","""event"",""trial"",""time""
""fullscreenenter"",""0"",""8320""
","
",null,<p></p>,null,,,,,,,,,,,,,,,,,,,,,,,
,do_trial,136,605719,0.0-78.0-0.0,"""event"",""trial"",""time""
""fullscreenenter"",""0"",""8320""
","
","
","""event"",""trial"",""time""
""fullscreenenter"",""0"",""8320""
","
",316.8,,,,,,,,50,"0,0,0",0,mountain,23,probe-35,0.663894787,0.160950972,0.286591998,0,,,,,,,,
,html-keyboard-response,137,606726,0.0-78.0-1.0,"""event"",""trial"",""time""
""fullscreenenter"",""0"",""8320""
","
","
","""event"",""trial"",""time""
""fullscreenenter"",""0"",""8320""
","
",null,<p></p>,null,,,,,,,,,,,,,,,,,,,,,,,
,do_trial,138,611601,0.0-79.0-0.0,"""event"",""trial"",""time""
""fullscreenenter"",""0"",""8320""
","
","
","""event"",""trial"",""time""
""fullscreenenter"",""0"",""8320""
","
",327.6,,,,,,,,49,"1,1,0",0,mountain,24,probe-173,0.777811229,0.2355091,0.184714367,1,,,,,,,,
,html-keyboard-response,139,612608,0.0-79.0-1.0,"""event"",""trial"",""time""
""fullscreenenter"",""0"",""8320""
","
","
","""event"",""trial"",""time""
""fullscreenenter"",""0"",""8320""
","
",null,<p></p>,null,,,,,,,,,,,,,,,,,,,,,,,
,do_trial,140,617999,0.0-80.0-0.0,"""event"",""trial"",""time""
""fullscreenenter"",""0"",""8320""
","
","
","""event"",""trial"",""time""
""fullscreenenter"",""0"",""8320""
","
",846.7,,,,,,,,49,"1,1,1",0,mountain,25,probe-131,0.591110024,0.136443733,0.15785589,1,,,,,,,,
,html-keyboard-response,141,619003,0.0-80.0-1.0,"""event"",""trial"",""time""
""fullscreenenter"",""0"",""8320""
","
","
","""event"",""trial"",""time""
""fullscreenenter"",""0"",""8320""
","
",null,<p></p>,null,,,,,,,,,,,,,,,,,,,,,,,
,do_trial,142,624432,0.0-81.0-0.0,"""event"",""trial"",""time""
""fullscreenenter"",""0"",""8320""
","
","
","""event"",""trial"",""time""
""fullscreenenter"",""0"",""8320""
","
",882.5,,,,,,,,50,"0,0,1",0,mountain,26,probe-16,0.632317389,0.138753041,0.136759827,0,,,,,,,,
,html-keyboard-response,143,625436,0.0-81.0-1.0,"""event"",""trial"",""time""
""fullscreenenter"",""0"",""8320""
","
","
","""event"",""trial"",""time""
""fullscreenenter"",""0"",""8320""
","
",null,<p></p>,null,,,,,,,,,,,,,,,,,,,,,,,
,do_trial,144,630426,0.0-82.0-0.0,"""event"",""trial"",""time""
""fullscreenenter"",""0"",""8320""
","
","
","""event"",""trial"",""time""
""fullscreenenter"",""0"",""8320""
","
",445.6,,,,,,,,51,"1,0,1",0,mountain,27,probe-226,0.719208086,0.28443923,0.081971775,1,,,,,,,,
,html-keyboard-response,145,631431,0.0-82.0-1.0,"""event"",""trial"",""time""
""fullscreenenter"",""0"",""8320""
","
","
","""event"",""trial"",""time""
""fullscreenenter"",""0"",""8320""
","
",null,<p></p>,null,,,,,,,,,,,,,,,,,,,,,,,
,do_trial,146,636272,0.0-83.0-0.0,"""event"",""trial"",""time""
""fullscreenenter"",""0"",""8320""
","
","
","""event"",""trial"",""time""
""fullscreenenter"",""0"",""8320""
","
",297.4,,,,,,,,49,"0,0,0",0,mountain,28,probe-76,0.690583778,0.335486696,0.154409809,0,,,,,,,,
,html-keyboard-response,147,637280,0.0-83.0-1.0,"""event"",""trial"",""time""
""fullscreenenter"",""0"",""8320""
","
","
","""event"",""trial"",""time""
""fullscreenenter"",""0"",""8320""
","
",null,<p></p>,null,,,,,,,,,,,,,,,,,,,,,,,
,do_trial,148,642082,0.0-84.0-0.0,"""event"",""trial"",""time""
""fullscreenenter"",""0"",""8320""
","
","
","""event"",""trial"",""time""
""fullscreenenter"",""0"",""8320""
","
",255.3,,,,,,,,51,"0,0,0",0,mountain,29,probe-113,0.644769938,0.323614515,0.122711207,0,,,,,,,,
,html-keyboard-response,149,643090,0.0-84.0-1.0,"""event"",""trial"",""time""
""fullscreenenter"",""0"",""8320""
","
","
","""event"",""trial"",""time""
""fullscreenenter"",""0"",""8320""
","
",null,<p></p>,null,,,,,,,,,,,,,,,,,,,,,,,
,do_bye,150,644598,0.0-85.0-0.0,"""event"",""trial"",""time""
""fullscreenenter"",""0"",""8320""
","
","
","""event"",""trial"",""time""
""fullscreenenter"",""0"",""8320""
","
",null,,,,,,,,null,,,,,,,,,,,,,,,,,
,break,151,648354,0.0-85.0-1.0,"""event"",""trial"",""time""
""fullscreenenter"",""0"",""8320""
","
","
","""event"",""trial"",""time""
""fullscreenenter"",""0"",""8320""
","
",3753.3,"<div class='center'><p>Time to take a quick break! You have 2 minutes to rest, but you can move on sooner if you'd like.</p><p> Press the <b>space bar</b> to continue.</p></div>",32,,,,,,,,,,,,,,,,,,,,,,,
,do_travel,152,657363,0.0-86.0-0.0,"""event"",""trial"",""time""
""fullscreenenter"",""0"",""8320""
","
","
","""event"",""trial"",""time""
""fullscreenenter"",""0"",""8320""
","
",null,,,,,,,,null,,,,,,,,,,,,,,,,,
,do_welcome,153,661375,0.0-86.0-1.0,"""event"",""trial"",""time""
""fullscreenenter"",""0"",""8320""
","
","
","""event"",""trial"",""time""
""fullscreenenter"",""0"",""8320""
","
",null,,,,,,,,null,,,,,,,,,,,,,,,,,
,do_trial,154,665934,0.0-87.0-0.0,"""event"",""trial"",""time""
""fullscreenenter"",""0"",""8320""
","
","
","""event"",""trial"",""time""
""fullscreenenter"",""0"",""8320""
","
",19.59999999,,,,,,,,50,"1,0,0",1,forest,30,probe-59,1,0.408573287,0.063428251,0,,,,,,,,
,html-keyboard-response,155,666939,0.0-87.0-1.0,"""event"",""trial"",""time""
""fullscreenenter"",""0"",""8320""
","
","
","""event"",""trial"",""time""
""fullscreenenter"",""0"",""8320""
","
",null,<p></p>,null,,,,,,,,,,,,,,,,,,,,,,,
,do_trial,156,671936,0.0-88.0-0.0,"""event"",""trial"",""time""
""fullscreenenter"",""0"",""8320""
","
","
","""event"",""trial"",""time""
""fullscreenenter"",""0"",""8320""
","
",450.7,,,,,,,,49,"1,0,0",1,forest,31,probe-89,1,0.369727419,0.174709061,1,,,,,,,,
,html-keyboard-response,157,672941,0.0-88.0-1.0,"""event"",""trial"",""time""
""fullscreenenter"",""0"",""8320""
","
","
","""event"",""trial"",""time""
""fullscreenenter"",""0"",""8320""
","
",null,<p></p>,null,,,,,,,,,,,,,,,,,,,,,,,
,do_trial,158,677843,0.0-89.0-0.0,"""event"",""trial"",""time""
""fullscreenenter"",""0"",""8320""
","
","
","""event"",""trial"",""time""
""fullscreenenter"",""0"",""8320""
","
",357.8,,,,,,,,49,"1,1,0",1,forest,32,probe-109,1,0.444513616,0.146703909,1,,,,,,,,
,html-keyboard-response,159,678850,0.0-89.0-1.0,"""event"",""trial"",""time""
""fullscreenenter"",""0"",""8320""
","
","
","""event"",""trial"",""time""
""fullscreenenter"",""0"",""8320""
","
",null,<p></p>,null,,,,,,,,,,,,,,,,,,,,,,,
,do_trial,160,683793,0.0-90.0-0.0,"""event"",""trial"",""time""
""fullscreenenter"",""0"",""8320""
","
","
","""event"",""trial"",""time""
""fullscreenenter"",""0"",""8320""
","
",399.5,,,,,,,,49,"1,0,0",1,forest,33,probe-198,0.874435175,0.338330779,0.187573807,1,,,,,,,,
,html-keyboard-response,161,684799,0.0-90.0-1.0,"""event"",""trial"",""time""
""fullscreenenter"",""0"",""8320""
","
","
","""event"",""trial"",""time""
""fullscreenenter"",""0"",""8320""
","
",null,<p></p>,null,,,,,,,,,,,,,,,,,,,,,,,
,do_trial,162,689681,0.0-91.0-0.0,"""event"",""trial"",""time""
""fullscreenenter"",""0"",""8320""
","
","
","""event"",""trial"",""time""
""fullscreenenter"",""0"",""8320""
","
",337.1,,,,,,,,49,"1,0,0",1,forest,34,probe-97,0.894918651,0.294991407,0.23273147,1,,,,,,,,
,html-keyboard-response,163,690685,0.0-91.0-1.0,"""event"",""trial"",""time""
""fullscreenenter"",""0"",""8320""
","
","
","""event"",""trial"",""time""
""fullscreenenter"",""0"",""8320""
","
",null,<p></p>,null,,,,,,,,,,,,,,,,,,,,,,,
,do_trial,164,695247,0.0-92.0-0.0,"""event"",""trial"",""time""
""fullscreenenter"",""0"",""8320""
","
","
","""event"",""trial"",""time""
""fullscreenenter"",""0"",""8320""
","
",13.59999999,,,,,,,,49,"1,0,0",1,forest,35,probe-129,0.769522155,0.355621398,0.207559677,1,,,,,,,,
,html-keyboard-response,165,696254,0.0-92.0-1.0,"""event"",""trial"",""time""
""fullscreenenter"",""0"",""8320""
","
","
","""event"",""trial"",""time""
""fullscreenenter"",""0"",""8320""
","
",null,<p></p>,null,,,,,,,,,,,,,,,,,,,,,,,
,do_trial,166,700797,0.0-93.0-0.0,"""event"",""trial"",""time""
""fullscreenenter"",""0"",""8320""
","
","
","""event"",""trial"",""time""
""fullscreenenter"",""0"",""8320""
","
",0.099999994,,,,,,,,49,"1,0,1",1,forest,36,probe-150,0.669551356,0.232315261,0.257935869,1,,,,,,,,
,html-keyboard-response,167,701803,0.0-93.0-1.0,"""event"",""trial"",""time""
""fullscreenenter"",""0"",""8320""
","
","
","""event"",""trial"",""time""
""fullscreenenter"",""0"",""8320""
","
",null,<p></p>,null,,,,,,,,,,,,,,,,,,,,,,,
,do_trial,168,706347,0.0-94.0-0.0,"""event"",""trial"",""time""
""fullscreenenter"",""0"",""8320""
","
","
","""event"",""trial"",""time""
""fullscreenenter"",""0"",""8320""
","
",0.099999994,,,,,,,,49,"0,0,0",1,forest,37,probe-65,0.45067302,0.168199186,0.202649103,0,,,,,,,,
,html-keyboard-response,169,707351,0.0-94.0-1.0,"""event"",""trial"",""time""
""fullscreenenter"",""0"",""8320""
","
","
","""event"",""trial"",""time""
""fullscreenenter"",""0"",""8320""
","
",null,<p></p>,null,,,,,,,,,,,,,,,,,,,,,,,
,do_trial,170,712597,0.0-95.0-0.0,"""event"",""trial"",""time""
""fullscreenenter"",""0"",""8320""
","
","
","""event"",""trial"",""time""
""fullscreenenter"",""0"",""8320""
","
",701.4,,,,,,,,49,"0,0,0",1,forest,38,probe-200,0.522580165,0.056759616,0.174914946,0,,,,,,,,
,html-keyboard-response,171,713604,0.0-95.0-1.0,"""event"",""trial"",""time""
""fullscreenenter"",""0"",""8320""
","
","
","""event"",""trial"",""time""
""fullscreenenter"",""0"",""8320""
","
",null,<p></p>,null,,,,,,,,,,,,,,,,,,,,,,,
,do_trial,172,718386,0.0-96.0-0.0,"""event"",""trial"",""time""
""fullscreenenter"",""0"",""8320""
","
","
","""event"",""trial"",""time""
""fullscreenenter"",""0"",""8320""
","
",237.8,,,,,,,,49,"1,0,0",1,forest,39,probe-10,0.572613821,0.237963445,0.17546148,1,,,,,,,,
,html-keyboard-response,173,719389,0.0-96.0-1.0,"""event"",""trial"",""time""
""fullscreenenter"",""0"",""8320""
","
","
","""event"",""trial"",""time""
""fullscreenenter"",""0"",""8320""
","
",null,<p></p>,null,,,,,,,,,,,,,,,,,,,,,,,
,do_trial,174,724152,0.0-97.0-0.0,"""event"",""trial"",""time""
""fullscreenenter"",""0"",""8320""
","
","
","""event"",""trial"",""time""
""fullscreenenter"",""0"",""8320""
","
",219.5,,,,,,,,49,"1,0,0",1,forest,40,probe-187,0.543113786,0.258905852,0.313538407,1,,,,,,,,
,html-keyboard-response,175,725156,0.0-97.0-1.0,"""event"",""trial"",""time""
""fullscreenenter"",""0"",""8320""
","
","
","""event"",""trial"",""time""
""fullscreenenter"",""0"",""8320""
","
",null,<p></p>,null,,,,,,,,,,,,,,,,,,,,,,,
,do_trial,176,729817,0.0-98.0-0.0,"""event"",""trial"",""time""
""fullscreenenter"",""0"",""8320""
","
","
","""event"",""trial"",""time""
""fullscreenenter"",""0"",""8320""
","
",115.4,,,,,,,,49,"1,0,0",1,forest,41,probe-64,0.520374653,0.162025873,0.308068186,1,,,,,,,,
,html-keyboard-response,177,730824,0.0-98.0-1.0,"""event"",""trial"",""time""
""fullscreenenter"",""0"",""8320""
","
","
","""event"",""trial"",""time""
""fullscreenenter"",""0"",""8320""
","
",null,<p></p>,null,,,,,,,,,,,,,,,,,,,,,,,
,do_trial,178,735397,0.0-99.0-0.0,"""event"",""trial"",""time""
""fullscreenenter"",""0"",""8320""
","
","
","""event"",""trial"",""time""
""fullscreenenter"",""0"",""8320""
","
",27.09999999,,,,,,,,49,"0,0,0",1,forest,42,probe-71,0.504071769,0.135375268,0.319961532,0,,,,,,,,
,html-keyboard-response,179,736401,0.0-99.0-1.0,"""event"",""trial"",""time""
""fullscreenenter"",""0"",""8320""
","
","
","""event"",""trial"",""time""
""fullscreenenter"",""0"",""8320""
","
",null,<p></p>,null,,,,,,,,,,,,,,,,,,,,,,,
,do_trial,180,741391,0.0-100.0-0.0,"""event"",""trial"",""time""
""fullscreenenter"",""0"",""8320""
","
","
","""event"",""trial"",""time""
""fullscreenenter"",""0"",""8320""
","
",450.4,,,,,,,,49,"0,1,0",1,forest,43,probe-90,0.397305482,0.254860913,0.439294514,0,,,,,,,,
,html-keyboard-response,181,742400,0.0-100.0-1.0,"""event"",""trial"",""time""
""fullscreenenter"",""0"",""8320""
","
","
","""event"",""trial"",""time""
""fullscreenenter"",""0"",""8320""
","
",null,<p></p>,null,,,,,,,,,,,,,,,,,,,,,,,
,do_trial,182,747331,0.0-101.0-0.0,"""event"",""trial"",""time""
""fullscreenenter"",""0"",""8320""
","
","
","""event"",""trial"",""time""
""fullscreenenter"",""0"",""8320""
","
",385.1,,,,,,,,49,"0,0,0",1,forest,44,probe-72,0.301302381,0.088712682,0.621328357,0,,,,,,,,
,html-keyboard-response,183,748338,0.0-101.0-1.0,"""event"",""trial"",""time""
""fullscreenenter"",""0"",""8320""
","
","
","""event"",""trial"",""time""
""fullscreenenter"",""0"",""8320""
","
",null,<p></p>,null,,,,,,,,,,,,,,,,,,,,,,,
,do_trial,184,752884,0.0-102.0-0.0,"""event"",""trial"",""time""
""fullscreenenter"",""0"",""8320""
","
","
","""event"",""trial"",""time""
""fullscreenenter"",""0"",""8320""
","
",0.099999994,,,,,,,,49,"0,0,1",1,forest,45,probe-183,0.242656993,0.199470841,0.682487693,0,,,,,,,,
,html-keyboard-response,185,753888,0.0-102.0-1.0,"""event"",""trial"",""time""
""fullscreenenter"",""0"",""8320""
","
","
","""event"",""trial"",""time""
""fullscreenenter"",""0"",""8320""
","
",null,<p></p>,null,,,,,,,,,,,,,,,,,,,,,,,
,do_trial,186,758770,0.0-103.0-0.0,"""event"",""trial"",""time""
""fullscreenenter"",""0"",""8320""
","
","
","""event"",""trial"",""time""
""fullscreenenter"",""0"",""8320""
","
",336.6,,,,,,,,49,"1,0,1",1,forest,46,probe-191,0.186054322,0.090391473,0.653934733,1,,,,,,,,
,html-keyboard-response,187,759773,0.0-103.0-1.0,"""event"",""trial"",""time""
""fullscreenenter"",""0"",""8320""
","
","
","""event"",""trial"",""time""
""fullscreenenter"",""0"",""8320""
","
",null,<p></p>,null,,,,,,,,,,,,,,,,,,,,,,,
,do_trial,188,764519,0.0-104.0-0.0,"""event"",""trial"",""time""
""fullscreenenter"",""0"",""8320""
","
","
","""event"",""trial"",""time""
""fullscreenenter"",""0"",""8320""
","
",200.3,,,,,,,,49,"1,1,0",1,forest,47,probe-87,0.108048344,0.120334712,0.578351042,1,,,,,,,,
,html-keyboard-response,189,765524,0.0-104.0-1.0,"""event"",""trial"",""time""
""fullscreenenter"",""0"",""8320""
","
","
","""event"",""trial"",""time""
""fullscreenenter"",""0"",""8320""
","
",null,<p></p>,null,,,,,,,,,,,,,,,,,,,,,,,
,do_trial,190,770206,0.0-105.0-0.0,"""event"",""trial"",""time""
""fullscreenenter"",""0"",""8320""
","
","
","""event"",""trial"",""time""
""fullscreenenter"",""0"",""8320""
","
",136.7,,,,,,,,49,"0,1,1",1,forest,48,probe-225,0.178398482,0.146610539,0.599754127,0,,,,,,,,
,html-keyboard-response,191,771214,0.0-105.0-1.0,"""event"",""trial"",""time""
""fullscreenenter"",""0"",""8320""
","
","
","""event"",""trial"",""time""
""fullscreenenter"",""0"",""8320""
","
",null,<p></p>,null,,,,,,,,,,,,,,,,,,,,,,,
,do_trial,192,776182,0.0-106.0-0.0,"""event"",""trial"",""time""
""fullscreenenter"",""0"",""8320""
","
","
","""event"",""trial"",""time""
""fullscreenenter"",""0"",""8320""
","
",422.5,,,,,,,,49,"0,0,1",1,forest,49,probe-120,0.161983096,0.221472983,0.771132605,0,,,,,,,,
,html-keyboard-response,193,777186,0.0-106.0-1.0,"""event"",""trial"",""time""
""fullscreenenter"",""0"",""8320""
","
","
","""event"",""trial"",""time""
""fullscreenenter"",""0"",""8320""
","
",null,<p></p>,null,,,,,,,,,,,,,,,,,,,,,,,
,do_trial,194,782131,0.0-107.0-0.0,"""event"",""trial"",""time""
""fullscreenenter"",""0"",""8320""
","
","
","""event"",""trial"",""time""
""fullscreenenter"",""0"",""8320""
","
",396.2,,,,,,,,49,"0,0,0",1,forest,50,probe-47,0.1238279,0.079403224,0.64576648,0,,,,,,,,
,html-keyboard-response,195,783134,0.0-107.0-1.0,"""event"",""trial"",""time""
""fullscreenenter"",""0"",""8320""
","
","
","""event"",""trial"",""time""
""fullscreenenter"",""0"",""8320""
","
",null,<p></p>,null,,,,,,,,,,,,,,,,,,,,,,,
,do_trial,196,788021,0.0-108.0-0.0,"""event"",""trial"",""time""
""fullscreenenter"",""0"",""8320""
","
","
","""event"",""trial"",""time""
""fullscreenenter"",""0"",""8320""
","
",342.6,,,,,,,,49,"0,1,1",1,forest,51,probe-149,0.087269315,0.185740519,0.660319215,0,,,,,,,,
,html-keyboard-response,197,789027,0.0-108.0-1.0,"""event"",""trial"",""time""
""fullscreenenter"",""0"",""8320""
","
","
","""event"",""trial"",""time""
""fullscreenenter"",""0"",""8320""
","
",null,<p></p>,null,,,,,,,,,,,,,,,,,,,,,,,
,do_trial,198,795051,0.0-109.0-0.0,"""event"",""trial"",""time""
""fullscreenenter"",""0"",""8320""
","
","
","""event"",""trial"",""time""
""fullscreenenter"",""0"",""8320""
","
",1481.7,,,,,,,,49,"0,1,1",1,forest,52,probe-135,0.28287664,0.313497471,0.683942487,0,,,,,,,,
,html-keyboard-response,199,796059,0.0-109.0-1.0,"""event"",""trial"",""time""
""fullscreenenter"",""0"",""8320""
","
","
","""event"",""trial"",""time""
""fullscreenenter"",""0"",""8320""
","
",null,<p></p>,null,,,,,,,,,,,,,,,,,,,,,,,
,do_trial,200,801314,0.0-110.0-0.0,"""event"",""trial"",""time""
""fullscreenenter"",""0"",""8320""
","
","
","""event"",""trial"",""time""
""fullscreenenter"",""0"",""8320""
","
",709.5,,,,,,,,49,"0,0,1",1,forest,53,probe-85,0.419109742,0.114459449,0.546103836,0,,,,,,,,
,html-keyboard-response,201,802321,0.0-110.0-1.0,"""event"",""trial"",""time""
""fullscreenenter"",""0"",""8320""
","
","
","""event"",""trial"",""time""
""fullscreenenter"",""0"",""8320""
","
",null,<p></p>,null,,,,,,,,,,,,,,,,,,,,,,,
,do_trial,202,807140,0.0-111.0-0.0,"""event"",""trial"",""time""
""fullscreenenter"",""0"",""8320""
","
","
","""event"",""trial"",""time""
""fullscreenenter"",""0"",""8320""
","
",274.3,,,,,,,,49,"0,0,1",1,forest,54,probe-114,0.497957673,0.231697857,0.39873243,0,,,,,,,,
,html-keyboard-response,203,808148,0.0-111.0-1.0,"""event"",""trial"",""time""
""fullscreenenter"",""0"",""8320""
","
","
","""event"",""trial"",""time""
""fullscreenenter"",""0"",""8320""
","
",null,<p></p>,null,,,,,,,,,,,,,,,,,,,,,,,
,do_trial,204,813169,0.0-112.0-0.0,"""event"",""trial"",""time""
""fullscreenenter"",""0"",""8320""
","
","
","""event"",""trial"",""time""
""fullscreenenter"",""0"",""8320""
","
",475.1,,,,,,,,49,"1,0,0",1,forest,55,probe-211,0.449613269,0.18971394,0.376442074,1,,,,,,,,
,html-keyboard-response,205,814179,0.0-112.0-1.0,"""event"",""trial"",""time""
""fullscreenenter"",""0"",""8320""
","
","
","""event"",""trial"",""time""
""fullscreenenter"",""0"",""8320""
","
",null,<p></p>,null,,,,,,,,,,,,,,,,,,,,,,,
,do_trial,206,819052,0.0-113.0-0.0,"""event"",""trial"",""time""
""fullscreenenter"",""0"",""8320""
","
","
","""event"",""trial"",""time""
""fullscreenenter"",""0"",""8320""
","
",331.8,,,,,,,,49,"1,0,0",1,forest,56,probe-124,0.516895139,0.055861385,0.523295796,1,,,,,,,,
,html-keyboard-response,207,820057,0.0-113.0-1.0,"""event"",""trial"",""time""
""fullscreenenter"",""0"",""8320""
","
","
","""event"",""trial"",""time""
""fullscreenenter"",""0"",""8320""
","
",null,<p></p>,null,,,,,,,,,,,,,,,,,,,,,,,
,do_trial,208,824865,0.0-114.0-0.0,"""event"",""trial"",""time""
""fullscreenenter"",""0"",""8320""
","
","
","""event"",""trial"",""time""
""fullscreenenter"",""0"",""8320""
","
",265,,,,,,,,49,"0,0,0",1,forest,57,probe-201,0.516872978,0.137546478,0.513866957,0,,,,,,,,
,html-keyboard-response,209,825873,0.0-114.0-1.0,"""event"",""trial"",""time""
""fullscreenenter"",""0"",""8320""
","
","
","""event"",""trial"",""time""
""fullscreenenter"",""0"",""8320""
","
",null,<p></p>,null,,,,,,,,,,,,,,,,,,,,,,,
,do_trial,210,830800,0.0-115.0-0.0,"""event"",""trial"",""time""
""fullscreenenter"",""0"",""8320""
","
","
","""event"",""trial"",""time""
""fullscreenenter"",""0"",""8320""
","
",380.1,,,,,,,,49,"0,0,1",1,forest,58,probe-161,0.456750974,0.184036688,0.609404312,0,,,,,,,,
,html-keyboard-response,211,831805,0.0-115.0-1.0,"""event"",""trial"",""time""
""fullscreenenter"",""0"",""8320""
","
","
","""event"",""trial"",""time""
""fullscreenenter"",""0"",""8320""
","
",null,<p></p>,null,,,,,,,,,,,,,,,,,,,,,,,
,do_trial,212,836924,0.0-116.0-0.0,"""event"",""trial"",""time""
""fullscreenenter"",""0"",""8320""
","
","
","""event"",""trial"",""time""
""fullscreenenter"",""0"",""8320""
","
",575.5,,,,,,,,49,"1,0,0",1,forest,59,probe-220,0.503233988,0.343493381,0.607875679,1,,,,,,,,
,html-keyboard-response,213,837933,0.0-116.0-1.0,"""event"",""trial"",""time""
""fullscreenenter"",""0"",""8320""
","
","
","""event"",""trial"",""time""
""fullscreenenter"",""0"",""8320""
","
",null,<p></p>,null,,,,,,,,,,,,,,,,,,,,,,,
,do_trial,214,842672,0.0-117.0-0.0,"""event"",""trial"",""time""
""fullscreenenter"",""0"",""8320""
","
","
","""event"",""trial"",""time""
""fullscreenenter"",""0"",""8320""
","
",196.8,,,,,,,,49,"0,1,1",1,forest,60,probe-139,0.414619234,0.39851831,0.457385708,0,,,,,,,,
,html-keyboard-response,215,843677,0.0-117.0-1.0,"""event"",""trial"",""time""
""fullscreenenter"",""0"",""8320""
","
","
","""event"",""trial"",""time""
""fullscreenenter"",""0"",""8320""
","
",null,<p></p>,null,,,,,,,,,,,,,,,,,,,,,,,
,do_trial,216,848687,0.0-118.0-0.0,"""event"",""trial"",""time""
""fullscreenenter"",""0"",""8320""
","
","
","""event"",""trial"",""time""
""fullscreenenter"",""0"",""8320""
","
",463.6,,,,,,,,49,"1,0,0",1,forest,61,probe-34,0.48222497,0.21715105,0.550617134,1,,,,,,,,
,html-keyboard-response,217,849691,0.0-118.0-1.0,"""event"",""trial"",""time""
""fullscreenenter"",""0"",""8320""
","
","
","""event"",""trial"",""time""
""fullscreenenter"",""0"",""8320""
","
",null,<p></p>,null,,,,,,,,,,,,,,,,,,,,,,,
,do_trial,218,854730,0.0-119.0-0.0,"""event"",""trial"",""time""
""fullscreenenter"",""0"",""8320""
","
","
","""event"",""trial"",""time""
""fullscreenenter"",""0"",""8320""
","
",494.6,,,,,,,,49,"0,0,0",1,forest,62,probe-103,0.463705785,0.132220319,0.548634594,0,,,,,,,,
,html-keyboard-response,219,855738,0.0-119.0-1.0,"""event"",""trial"",""time""
""fullscreenenter"",""0"",""8320""
","
","
","""event"",""trial"",""time""
""fullscreenenter"",""0"",""8320""
","
",null,<p></p>,null,,,,,,,,,,,,,,,,,,,,,,,
,do_trial,220,860564,0.0-120.0-0.0,"""event"",""trial"",""time""
""fullscreenenter"",""0"",""8320""
","
","
","""event"",""trial"",""time""
""fullscreenenter"",""0"",""8320""
","
",282.3,,,,,,,,49,"0,0,0",1,forest,63,probe-119,0.434529328,0.121936065,0.511993385,0,,,,,,,,
,html-keyboard-response,221,861569,0.0-120.0-1.0,"""event"",""trial"",""time""
""fullscreenenter"",""0"",""8320""
","
","
","""event"",""trial"",""time""
""fullscreenenter"",""0"",""8320""
","
",null,<p></p>,null,,,,,,,,,,,,,,,,,,,,,,,
,do_trial,222,866406,0.0-121.0-0.0,"""event"",""trial"",""time""
""fullscreenenter"",""0"",""8320""
","
","
","""event"",""trial"",""time""
""fullscreenenter"",""0"",""8320""
","
",292.8,,,,,,,,49,"1,0,0",1,forest,64,probe-209,0.51816991,0.06806685,0.527865261,1,,,,,,,,
,html-keyboard-response,223,867414,0.0-121.0-1.0,"""event"",""trial"",""time""
""fullscreenenter"",""0"",""8320""
","
","
","""event"",""trial"",""time""
""fullscreenenter"",""0"",""8320""
","
",null,<p></p>,null,,,,,,,,,,,,,,,,,,,,,,,
,do_trial,224,873351,0.0-122.0-0.0,"""event"",""trial"",""time""
""fullscreenenter"",""0"",""8320""
","
","
","""event"",""trial"",""time""
""fullscreenenter"",""0"",""8320""
","
",1395.5,,,,,,,,49,"0,0,1",1,forest,65,probe-04,0.381600388,0.135142198,0.604359719,0,,,,,,,,
,html-keyboard-response,225,874357,0.0-122.0-1.0,"""event"",""trial"",""time""
""fullscreenenter"",""0"",""8320""
","
","
","""event"",""trial"",""time""
""fullscreenenter"",""0"",""8320""
","
",null,<p></p>,null,,,,,,,,,,,,,,,,,,,,,,,
,do_trial,226,879706,0.0-123.0-0.0,"""event"",""trial"",""time""
""fullscreenenter"",""0"",""8320""
","
","
","""event"",""trial"",""time""
""fullscreenenter"",""0"",""8320""
","
",805.7,,,,,,,,49,"1,1,1",1,forest,66,probe-17,0.462440541,0.263849434,0.477260411,1,,,,,,,,
,html-keyboard-response,227,880715,0.0-123.0-1.0,"""event"",""trial"",""time""
""fullscreenenter"",""0"",""8320""
","
","
","""event"",""trial"",""time""
""fullscreenenter"",""0"",""8320""
","
",null,<p></p>,null,,,,,,,,,,,,,,,,,,,,,,,
,do_trial,228,886739,0.0-124.0-0.0,"""event"",""trial"",""time""
""fullscreenenter"",""0"",""8320""
","
","
","""event"",""trial"",""time""
""fullscreenenter"",""0"",""8320""
","
",1481.9,,,,,,,,49,"1,0,0",1,forest,67,probe-11,0.370856025,0.197180378,0.56766396,1,,,,,,,,
,html-keyboard-response,229,887747,0.0-124.0-1.0,"""event"",""trial"",""time""
""fullscreenenter"",""0"",""8320""
","
","
","""event"",""trial"",""time""
""fullscreenenter"",""0"",""8320""
","
",null,<p></p>,null,,,,,,,,,,,,,,,,,,,,,,,
,do_trial,230,892659,0.0-125.0-0.0,"""event"",""trial"",""time""
""fullscreenenter"",""0"",""8320""
","
","
","""event"",""trial"",""time""
""fullscreenenter"",""0"",""8320""
","
",365.7,,,,,,,,49,"0,0,1",1,forest,68,probe-171,0.343440538,0.146662058,0.547349962,0,,,,,,,,
,html-keyboard-response,231,893665,0.0-125.0-1.0,"""event"",""trial"",""time""
""fullscreenenter"",""0"",""8320""
","
","
","""event"",""trial"",""time""
""fullscreenenter"",""0"",""8320""
","
",null,<p></p>,null,,,,,,,,,,,,,,,,,,,,,,,
,do_trial,232,898839,0.0-126.0-0.0,"""event"",""trial"",""time""
""fullscreenenter"",""0"",""8320""
","
","
","""event"",""trial"",""time""
""fullscreenenter"",""0"",""8320""
","
",628,,,,,,,,49,"0,0,1",1,forest,69,probe-30,0.320258981,0.167753002,0.527334696,0,,,,,,,,
,html-keyboard-response,233,899847,0.0-126.0-1.0,"""event"",""trial"",""time""
""fullscreenenter"",""0"",""8320""
","
","
","""event"",""trial"",""time""
""fullscreenenter"",""0"",""8320""
","
",null,<p></p>,null,,,,,,,,,,,,,,,,,,,,,,,
,do_bye,234,901358,0.0-127.0-0.0,"""event"",""trial"",""time""
""fullscreenenter"",""0"",""8320""
","
","
","""event"",""trial"",""time""
""fullscreenenter"",""0"",""8320""
","
",null,,,,,,,,null,,,,,,,,,,,,,,,,,
,break,235,902498,0.0-127.0-1.0,"""event"",""trial"",""time""
""fullscreenenter"",""0"",""8320""
","
","
","""event"",""trial"",""time""
""fullscreenenter"",""0"",""8320""
","
",1138.6,"<div class='center'><p>Time to take a quick break! You have 2 minutes to rest, but you can move on sooner if you'd like.</p><p> Press the <b>space bar</b> to continue.</p></div>",32,,,,,,,,,,,,,,,,,,,,,,,
,do_travel,236,911508,0.0-128.0-0.0,"""event"",""trial"",""time""
""fullscreenenter"",""0"",""8320""
","
","
","""event"",""trial"",""time""
""fullscreenenter"",""0"",""8320""
","
",null,,,,,,,,null,,,,,,,,,,,,,,,,,
,do_welcome,237,915521,0.0-128.0-1.0,"""event"",""trial"",""time""
""fullscreenenter"",""0"",""8320""
","
","
","""event"",""trial"",""time""
""fullscreenenter"",""0"",""8320""
","
",null,,,,,,,,null,,,,,,,,,,,,,,,,,
,do_trial,238,921497,0.0-129.0-0.0,"""event"",""trial"",""time""
""fullscreenenter"",""0"",""8320""
","
","
","""event"",""trial"",""time""
""fullscreenenter"",""0"",""8320""
","
",1435.8,,,,,,,,49,"0,0,1",2,highway,70,probe-95,0.339147817,0.067779008,1,0,,,,,,,,
,html-keyboard-response,239,922507,0.0-129.0-1.0,"""event"",""trial"",""time""
""fullscreenenter"",""0"",""8320""
","
","
","""event"",""trial"",""time""
""fullscreenenter"",""0"",""8320""
","
",null,<p></p>,null,,,,,,,,,,,,,,,,,,,,,,,
,do_trial,240,927581,0.0-130.0-0.0,"""event"",""trial"",""time""
""fullscreenenter"",""0"",""8320""
","
","
","""event"",""trial"",""time""
""fullscreenenter"",""0"",""8320""
","
",526.5,,,,,,,,50,"0,0,1",2,highway,71,probe-167,0.245899261,0.23878958,1,0,,,,,,,,
,html-keyboard-response,241,928585,0.0-130.0-1.0,"""event"",""trial"",""time""
""fullscreenenter"",""0"",""8320""
","
","
","""event"",""trial"",""time""
""fullscreenenter"",""0"",""8320""
","
",null,<p></p>,null,,,,,,,,,,,,,,,,,,,,,,,
,do_trial,242,933674,0.0-131.0-0.0,"""event"",""trial"",""time""
""fullscreenenter"",""0"",""8320""
","
","
","""event"",""trial"",""time""
""fullscreenenter"",""0"",""8320""
","
",543.2,,,,,,,,51,"0,0,1",2,highway,72,probe-63,0.211347072,0.075479561,0.726105167,1,,,,,,,,
,html-keyboard-response,243,934682,0.0-131.0-1.0,"""event"",""trial"",""time""
""fullscreenenter"",""0"",""8320""
","
","
","""event"",""trial"",""time""
""fullscreenenter"",""0"",""8320""
","
",null,<p></p>,null,,,,,,,,,,,,,,,,,,,,,,,
,do_trial,244,939505,0.0-132.0-0.0,"""event"",""trial"",""time""
""fullscreenenter"",""0"",""8320""
","
","
","""event"",""trial"",""time""
""fullscreenenter"",""0"",""8320""
","
",278.9,,,,,,,,51,"1,0,1",2,highway,73,probe-230,0.329703704,0.138919338,0.80370097,1,,,,,,,,
,html-keyboard-response,245,940510,0.0-132.0-1.0,"""event"",""trial"",""time""
""fullscreenenter"",""0"",""8320""
","
","
","""event"",""trial"",""time""
""fullscreenenter"",""0"",""8320""
","
",null,<p></p>,null,,,,,,,,,,,,,,,,,,,,,,,
,do_trial,246,945589,0.0-133.0-0.0,"""event"",""trial"",""time""
""fullscreenenter"",""0"",""8320""
","
","
","""event"",""trial"",""time""
""fullscreenenter"",""0"",""8320""
","
",530.7,,,,,,,,51,"0,0,1",2,highway,74,probe-106,0.440470133,0.093961981,0.725281373,1,,,,,,,,
,html-keyboard-response,247,946597,0.0-133.0-1.0,"""event"",""trial"",""time""
""fullscreenenter"",""0"",""8320""
","
","
","""event"",""trial"",""time""
""fullscreenenter"",""0"",""8320""
","
",null,<p></p>,null,,,,,,,,,,,,,,,,,,,,,,,
,do_trial,248,951492,0.0-134.0-0.0,"""event"",""trial"",""time""
""fullscreenenter"",""0"",""8320""
","
","
","""event"",""trial"",""time""
""fullscreenenter"",""0"",""8320""
","
",351.5,,,,,,,,51,"1,0,1",2,highway,75,probe-130,0.310661488,0.17238287,0.777998388,1,,,,,,,,
,html-keyboard-response,249,952500,0.0-134.0-1.0,"""event"",""trial"",""time""
""fullscreenenter"",""0"",""8320""
","
","
","""event"",""trial"",""time""
""fullscreenenter"",""0"",""8320""
","
",null,<p></p>,null,,,,,,,,,,,,,,,,,,,,,,,
,do_trial,250,957533,0.0-135.0-0.0,"""event"",""trial"",""time""
""fullscreenenter"",""0"",""8320""
","
","
","""event"",""trial"",""time""
""fullscreenenter"",""0"",""8320""
","
",487.2,,,,,,,,51,"1,0,0",2,highway,76,probe-142,0.352953887,0.21721888,0.679999059,0,,,,,,,,
,html-keyboard-response,251,958540,0.0-135.0-1.0,"""event"",""trial"",""time""
""fullscreenenter"",""0"",""8320""
","
","
","""event"",""trial"",""time""
""fullscreenenter"",""0"",""8320""
","
",null,<p></p>,null,,,,,,,,,,,,,,,,,,,,,,,
,do_trial,252,963424,0.0-136.0-0.0,"""event"",""trial"",""time""
""fullscreenenter"",""0"",""8320""
","
","
","""event"",""trial"",""time""
""fullscreenenter"",""0"",""8320""
","
",341.8,,,,,,,,51,"0,0,1",2,highway,77,probe-83,0.278315438,0.140760091,0.618430114,1,,,,,,,,
,html-keyboard-response,253,964432,0.0-136.0-1.0,"""event"",""trial"",""time""
""fullscreenenter"",""0"",""8320""
","
","
","""event"",""trial"",""time""
""fullscreenenter"",""0"",""8320""
","
",null,<p></p>,null,,,,,,,,,,,,,,,,,,,,,,,
,do_trial,254,969592,0.0-137.0-0.0,"""event"",""trial"",""time""
""fullscreenenter"",""0"",""8320""
","
","
","""event"",""trial"",""time""
""fullscreenenter"",""0"",""8320""
","
",617.2,,,,,,,,51,"0,0,1",2,highway,78,probe-193,0.545486396,0.154205027,0.469894211,1,,,,,,,,
,html-keyboard-response,255,970599,0.0-137.0-1.0,"""event"",""trial"",""time""
""fullscreenenter"",""0"",""8320""
","
","
","""event"",""trial"",""time""
""fullscreenenter"",""0"",""8320""
","
",null,<p></p>,null,,,,,,,,,,,,,,,,,,,,,,,
,do_trial,256,975505,0.0-138.0-0.0,"""event"",""trial"",""time""
""fullscreenenter"",""0"",""8320""
","
","
","""event"",""trial"",""time""
""fullscreenenter"",""0"",""8320""
","
",363.3,,,,,,,,51,"0,0,1",2,highway,79,probe-229,0.317956677,0.063521087,0.522939798,1,,,,,,,,
,html-keyboard-response,257,976513,0.0-138.0-1.0,"""event"",""trial"",""time""
""fullscreenenter"",""0"",""8320""
","
","
","""event"",""trial"",""time""
""fullscreenenter"",""0"",""8320""
","
",null,<p></p>,null,,,,,,,,,,,,,,,,,,,,,,,
,do_trial,258,981499,0.0-139.0-0.0,"""event"",""trial"",""time""
""fullscreenenter"",""0"",""8320""
","
","
","""event"",""trial"",""time""
""fullscreenenter"",""0"",""8320""
","
",442.8,,,,,,,,51,"1,0,0",2,highway,80,probe-22,0.397078498,0.104399696,0.470569299,0,,,,,,,,
,html-keyboard-response,259,982506,0.0-139.0-1.0,"""event"",""trial"",""time""
""fullscreenenter"",""0"",""8320""
","
","
","""event"",""trial"",""time""
""fullscreenenter"",""0"",""8320""
","
",null,<p></p>,null,,,,,,,,,,,,,,,,,,,,,,,
,do_trial,260,987343,0.0-140.0-0.0,"""event"",""trial"",""time""
""fullscreenenter"",""0"",""8320""
","
","
","""event"",""trial"",""time""
""fullscreenenter"",""0"",""8320""
","
",292,,,,,,,,51,"1,0,0",2,highway,81,probe-125,0.370829765,0.129433858,0.409867153,0,,,,,,,,
,html-keyboard-response,261,988348,0.0-140.0-1.0,"""event"",""trial"",""time""
""fullscreenenter"",""0"",""8320""
","
","
","""event"",""trial"",""time""
""fullscreenenter"",""0"",""8320""
","
",null,<p></p>,null,,,,,,,,,,,,,,,,,,,,,,,
,do_trial,262,994047,0.0-141.0-0.0,"""event"",""trial"",""time""
""fullscreenenter"",""0"",""8320""
","
","
","""event"",""trial"",""time""
""fullscreenenter"",""0"",""8320""
","
",1150.7,,,,,,,,51,"0,0,0",2,highway,82,probe-217,0.386400548,0.187653244,0.41614427,0,,,,,,,,
,html-keyboard-response,263,995053,0.0-141.0-1.0,"""event"",""trial"",""time""
""fullscreenenter"",""0"",""8320""
","
","
","""event"",""trial"",""time""
""fullscreenenter"",""0"",""8320""
","
",null,<p></p>,null,,,,,,,,,,,,,,,,,,,,,,,
,do_trial,264,1000383,0.0-142.0-0.0,"""event"",""trial"",""time""
""fullscreenenter"",""0"",""8320""
","
","
","""event"",""trial"",""time""
""fullscreenenter"",""0"",""8320""
","
",786.1,,,,,,,,51,"1,1,0",2,highway,83,probe-169,0.448825252,0.206243876,0.354666603,0,,,,,,,,
,html-keyboard-response,265,1001387,0.0-142.0-1.0,"""event"",""trial"",""time""
""fullscreenenter"",""0"",""8320""
","
","
","""event"",""trial"",""time""
""fullscreenenter"",""0"",""8320""
","
",null,<p></p>,null,,,,,,,,,,,,,,,,,,,,,,,
,do_trial,266,1006331,0.0-143.0-0.0,"""event"",""trial"",""time""
""fullscreenenter"",""0"",""8320""
","
","
","""event"",""trial"",""time""
""fullscreenenter"",""0"",""8320""
","
",403.8,,,,,,,,51,"1,1,0",2,highway,84,probe-180,0.560673889,0.393444822,0.266204536,0,,,,,,,,
,html-keyboard-response,267,1007339,0.0-143.0-1.0,"""event"",""trial"",""time""
""fullscreenenter"",""0"",""8320""
","
","
","""event"",""trial"",""time""
""fullscreenenter"",""0"",""8320""
","
",null,<p></p>,null,,,,,,,,,,,,,,,,,,,,,,,
,do_trial,268,1012636,0.0-144.0-0.0,"""event"",""trial"",""time""
""fullscreenenter"",""0"",""8320""
","
","
","""event"",""trial"",""time""
""fullscreenenter"",""0"",""8320""
","
",754.1,,,,,,,,51,"0,0,1",2,highway,85,probe-196,0.547386551,0.350537899,0.261331946,1,,,,,,,,
,html-keyboard-response,269,1013644,0.0-144.0-1.0,"""event"",""trial"",""time""
""fullscreenenter"",""0"",""8320""
","
","
","""event"",""trial"",""time""
""fullscreenenter"",""0"",""8320""
","
",null,<p></p>,null,,,,,,,,,,,,,,,,,,,,,,,
,do_trial,270,1018671,0.0-145.0-0.0,"""event"",""trial"",""time""
""fullscreenenter"",""0"",""8320""
","
","
","""event"",""trial"",""time""
""fullscreenenter"",""0"",""8320""
","
",482.5,,,,,,,,51,"1,1,0",2,highway,86,probe-132,0.530224452,0.428640205,0.326432762,0,,,,,,,,
,html-keyboard-response,271,1019679,0.0-145.0-1.0,"""event"",""trial"",""time""
""fullscreenenter"",""0"",""8320""
","
","
","""event"",""trial"",""time""
""fullscreenenter"",""0"",""8320""
","
",null,<p></p>,null,,,,,,,,,,,,,,,,,,,,,,,
,do_trial,272,1024819,0.0-146.0-0.0,"""event"",""trial"",""time""
""fullscreenenter"",""0"",""8320""
","
","
","""event"",""trial"",""time""
""fullscreenenter"",""0"",""8320""
","
",594.3,,,,,,,,51,"0,0,0",2,highway,87,probe-212,0.538961906,0.274506399,0.192599099,0,,,,,,,,
,html-keyboard-response,273,1025825,0.0-146.0-1.0,"""event"",""trial"",""time""
""fullscreenenter"",""0"",""8320""
","
","
","""event"",""trial"",""time""
""fullscreenenter"",""0"",""8320""
","
",null,<p></p>,null,,,,,,,,,,,,,,,,,,,,,,,
,do_trial,274,1030919,0.0-147.0-0.0,"""event"",""trial"",""time""
""fullscreenenter"",""0"",""8320""
","
","
","""event"",""trial"",""time""
""fullscreenenter"",""0"",""8320""
","
",547.8,,,,,,,,51,"0,0,1",2,highway,88,probe-208,0.495409696,0.284609693,0.229787954,1,,,,,,,,
,html-keyboard-response,275,1031927,0.0-147.0-1.0,"""event"",""trial"",""time""
""fullscreenenter"",""0"",""8320""
","
","
","""event"",""trial"",""time""
""fullscreenenter"",""0"",""8320""
","
",null,<p></p>,null,,,,,,,,,,,,,,,,,,,,,,,
,do_trial,276,1036930,0.0-148.0-0.0,"""event"",""trial"",""time""
""fullscreenenter"",""0"",""8320""
","
","
","""event"",""trial"",""time""
""fullscreenenter"",""0"",""8320""
","
",455.8,,,,,,,,51,"1,0,0",2,highway,89,probe-157,0.674058853,0.280872347,0.260423146,0,,,,,,,,
,html-keyboard-response,277,1037938,0.0-148.0-1.0,"""event"",""trial"",""time""
""fullscreenenter"",""0"",""8320""
","
","
","""event"",""trial"",""time""
""fullscreenenter"",""0"",""8320""
","
",null,<p></p>,null,,,,,,,,,,,,,,,,,,,,,,,
,do_trial,278,1045156,0.0-149.0-0.0,"""event"",""trial"",""time""
""fullscreenenter"",""0"",""8320""
","
","
","""event"",""trial"",""time""
""fullscreenenter"",""0"",""8320""
","
",2672.2,,,,,,,,51,"1,1,0",2,highway,90,probe-190,0.562455874,0.274094286,0.295959155,0,,,,,,,,
,html-keyboard-response,279,1046165,0.0-149.0-1.0,"""event"",""trial"",""time""
""fullscreenenter"",""0"",""8320""
","
","
","""event"",""trial"",""time""
""fullscreenenter"",""0"",""8320""
","
",null,<p></p>,null,,,,,,,,,,,,,,,,,,,,,,,
,do_trial,280,1052175,0.0-150.0-0.0,"""event"",""trial"",""time""
""fullscreenenter"",""0"",""8320""
","
","
","""event"",""trial"",""time""
""fullscreenenter"",""0"",""8320""
","
",1466.6,,,,,,,,51,"0,0,0",2,highway,91,probe-37,0.460429545,0.400613714,0.125285719,0,,,,,,,,
,html-keyboard-response,281,1053182,0.0-150.0-1.0,"""event"",""trial"",""time""
""fullscreenenter"",""0"",""8320""
","
","
","""event"",""trial"",""time""
""fullscreenenter"",""0"",""8320""
","
",null,<p></p>,null,,,,,,,,,,,,,,,,,,,,,,,
,do_trial,282,1058681,0.0-151.0-0.0,"""event"",""trial"",""time""
""fullscreenenter"",""0"",""8320""
","
","
","""event"",""trial"",""time""
""fullscreenenter"",""0"",""8320""
","
",954.2,,,,,,,,51,"1,0,0",2,highway,92,probe-78,0.664084775,0.283920101,0.101548273,0,,,,,,,,
,html-keyboard-response,283,1059685,0.0-151.0-1.0,"""event"",""trial"",""time""
""fullscreenenter"",""0"",""8320""
","
","
","""event"",""trial"",""time""
""fullscreenenter"",""0"",""8320""
","
",null,<p></p>,null,,,,,,,,,,,,,,,,,,,,,,,
,do_trial,284,1064934,0.0-152.0-0.0,"""event"",""trial"",""time""
""fullscreenenter"",""0"",""8320""
","
","
","""event"",""trial"",""time""
""fullscreenenter"",""0"",""8320""
","
",707.6,,,,,,,,51,"1,0,0",2,highway,93,probe-206,0.587297113,0.251403113,0.140724996,0,,,,,,,,
,html-keyboard-response,285,1065941,0.0-152.0-1.0,"""event"",""trial"",""time""
""fullscreenenter"",""0"",""8320""
","
","
","""event"",""trial"",""time""
""fullscreenenter"",""0"",""8320""
","
",null,<p></p>,null,,,,,,,,,,,,,,,,,,,,,,,
,do_trial,286,1071519,0.0-153.0-0.0,"""event"",""trial"",""time""
""fullscreenenter"",""0"",""8320""
","
","
","""event"",""trial"",""time""
""fullscreenenter"",""0"",""8320""
","
",1033.1,,,,,,,,51,"0,0,0",2,highway,94,probe-181,0.51180435,0.365628048,0.181289535,0,,,,,,,,
,html-keyboard-response,287,1072524,0.0-153.0-1.0,"""event"",""trial"",""time""
""fullscreenenter"",""0"",""8320""
","
","
","""event"",""trial"",""time""
""fullscreenenter"",""0"",""8320""
","
",null,<p></p>,null,,,,,,,,,,,,,,,,,,,,,,,
,do_trial,288,1078372,0.0-154.0-0.0,"""event"",""trial"",""time""
""fullscreenenter"",""0"",""8320""
","
","
","""event"",""trial"",""time""
""fullscreenenter"",""0"",""8320""
","
",1300.7,,,,,,,,51,"1,0,0",2,highway,95,probe-94,0.587079928,0.301804836,0.30031753,0,,,,,,,,
,html-keyboard-response,289,1079380,0.0-154.0-1.0,"""event"",""trial"",""time""
""fullscreenenter"",""0"",""8320""
","
","
","""event"",""trial"",""time""
""fullscreenenter"",""0"",""8320""
","
",null,<p></p>,null,,,,,,,,,,,,,,,,,,,,,,,
,do_trial,290,1084810,0.0-155.0-0.0,"""event"",""trial"",""time""
""fullscreenenter"",""0"",""8320""
","
","
","""event"",""trial"",""time""
""fullscreenenter"",""0"",""8320""
","
",886.3,,,,,,,,51,"0,0,0",2,highway,96,probe-77,0.553494847,0.22126486,0.2450845,0,,,,,,,,
,html-keyboard-response,291,1085817,0.0-155.0-1.0,"""event"",""trial"",""time""
""fullscreenenter"",""0"",""8320""
","
","
","""event"",""trial"",""time""
""fullscreenenter"",""0"",""8320""
","
",null,<p></p>,null,,,,,,,,,,,,,,,,,,,,,,,
,do_trial,292,1091974,0.0-156.0-0.0,"""event"",""trial"",""time""
""fullscreenenter"",""0"",""8320""
","
","
","""event"",""trial"",""time""
""fullscreenenter"",""0"",""8320""
","
",1615.4,,,,,,,,51,"1,1,1",2,highway,97,probe-99,0.506209208,0.233716738,0.188104168,1,,,,,,,,
,html-keyboard-response,293,1092980,0.0-156.0-1.0,"""event"",""trial"",""time""
""fullscreenenter"",""0"",""8320""
","
","
","""event"",""trial"",""time""
""fullscreenenter"",""0"",""8320""
","
",null,<p></p>,null,,,,,,,,,,,,,,,,,,,,,,,
,do_trial,294,1099474,0.0-157.0-0.0,"""event"",""trial"",""time""
""fullscreenenter"",""0"",""8320""
","
","
","""event"",""trial"",""time""
""fullscreenenter"",""0"",""8320""
","
",1946.1,,,,,,,,51,"1,0,0",2,highway,98,probe-203,0.443395195,0.236192789,0.176336373,0,,,,,,,,
,html-keyboard-response,295,1100479,0.0-157.0-1.0,"""event"",""trial"",""time""
""fullscreenenter"",""0"",""8320""
","
","
","""event"",""trial"",""time""
""fullscreenenter"",""0"",""8320""
","
",null,<p></p>,null,,,,,,,,,,,,,,,,,,,,,,,
,do_trial,296,1105693,0.0-158.0-0.0,"""event"",""trial"",""time""
""fullscreenenter"",""0"",""8320""
","
","
","""event"",""trial"",""time""
""fullscreenenter"",""0"",""8320""
","
",670.1,,,,,,,,51,"0,1,0",2,highway,99,probe-228,0.618413611,0.372040681,0.058017735,0,,,,,,,,
,html-keyboard-response,297,1106697,0.0-158.0-1.0,"""event"",""trial"",""time""
""fullscreenenter"",""0"",""8320""
","
","
","""event"",""trial"",""time""
""fullscreenenter"",""0"",""8320""
","
",null,<p></p>,null,,,,,,,,,,,,,,,,,,,,,,,
,do_trial,298,1111789,0.0-159.0-0.0,"""event"",""trial"",""time""
""fullscreenenter"",""0"",""8320""
","
","
","""event"",""trial"",""time""
""fullscreenenter"",""0"",""8320""
","
",547.2,,,,,,,,51,"0,0,0",2,highway,100,probe-62,0.60828987,0.345110665,0.086931037,0,,,,,,,,
,html-keyboard-response,299,1112796,0.0-159.0-1.0,"""event"",""trial"",""time""
""fullscreenenter"",""0"",""8320""
","
","
","""event"",""trial"",""time""
""fullscreenenter"",""0"",""8320""
","
",null,<p></p>,null,,,,,,,,,,,,,,,,,,,,,,,
,do_trial,300,1117864,0.0-160.0-0.0,"""event"",""trial"",""time""
""fullscreenenter"",""0"",""8320""
","
","
","""event"",""trial"",""time""
""fullscreenenter"",""0"",""8320""
","
",523.3,,,,,,,,51,"0,0,0",2,highway,101,probe-54,0.580973812,0.28172178,0.074250976,0,,,,,,,,
,html-keyboard-response,301,1118871,0.0-160.0-1.0,"""event"",""trial"",""time""
""fullscreenenter"",""0"",""8320""
","
","
","""event"",""trial"",""time""
""fullscreenenter"",""0"",""8320""
","
",null,<p></p>,null,,,,,,,,,,,,,,,,,,,,,,,
,do_trial,302,1124432,0.0-161.0-0.0,"""event"",""trial"",""time""
""fullscreenenter"",""0"",""8320""
","
","
","""event"",""trial"",""time""
""fullscreenenter"",""0"",""8320""
","
",1013.6,,,,,,,,51,"0,1,0",2,highway,102,probe-32,0.700359114,0.392713105,0.069020013,0,,,,,,,,
,html-keyboard-response,303,1125439,0.0-161.0-1.0,"""event"",""trial"",""time""
""fullscreenenter"",""0"",""8320""
","
","
","""event"",""trial"",""time""
""fullscreenenter"",""0"",""8320""
","
",null,<p></p>,null,,,,,,,,,,,,,,,,,,,,,,,
,do_trial,304,1132041,0.0-162.0-0.0,"""event"",""trial"",""time""
""fullscreenenter"",""0"",""8320""
","
","
","""event"",""trial"",""time""
""fullscreenenter"",""0"",""8320""
","
",2056.8,,,,,,,,51,"0,1,0",2,highway,103,probe-122,0.648466941,0.532655799,0.094128342,0,,,,,,,,
,html-keyboard-response,305,1133049,0.0-162.0-1.0,"""event"",""trial"",""time""
""fullscreenenter"",""0"",""8320""
","
","
","""event"",""trial"",""time""
""fullscreenenter"",""0"",""8320""
","
",null,<p></p>,null,,,,,,,,,,,,,,,,,,,,,,,
,do_trial,306,1140046,0.0-163.0-0.0,"""event"",""trial"",""time""
""fullscreenenter"",""0"",""8320""
","
","
","""event"",""trial"",""time""
""fullscreenenter"",""0"",""8320""
","
",2448.8,,,,,,,,51,"1,1,0",2,highway,104,probe-60,0.773749464,0.574432128,0.059829528,0,,,,,,,,
,html-keyboard-response,307,1141051,0.0-163.0-1.0,"""event"",""trial"",""time""
""fullscreenenter"",""0"",""8320""
","
","
","""event"",""trial"",""time""
""fullscreenenter"",""0"",""8320""
","
",null,<p></p>,null,,,,,,,,,,,,,,,,,,,,,,,
,do_trial,308,1146313,0.0-164.0-0.0,"""event"",""trial"",""time""
""fullscreenenter"",""0"",""8320""
","
","
","""event"",""trial"",""time""
""fullscreenenter"",""0"",""8320""
","
",717,,,,,,,,51,"0,0,0",2,highway,105,probe-24,0.494388283,0.511188411,0.132804055,0,,,,,,,,
,html-keyboard-response,309,1147318,0.0-164.0-1.0,"""event"",""trial"",""time""
""fullscreenenter"",""0"",""8320""
","
","
","""event"",""trial"",""time""
""fullscreenenter"",""0"",""8320""
","
",null,<p></p>,null,,,,,,,,,,,,,,,,,,,,,,,
,do_trial,310,1152199,0.0-165.0-0.0,"""event"",""trial"",""time""
""fullscreenenter"",""0"",""8320""
","
","
","""event"",""trial"",""time""
""fullscreenenter"",""0"",""8320""
","
",336.8,,,,,,,,51,"1,1,0",2,highway,106,probe-141,0.443776111,0.442815618,0.160930257,0,,,,,,,,
,html-keyboard-response,311,1153206,0.0-165.0-1.0,"""event"",""trial"",""time""
""fullscreenenter"",""0"",""8320""
","
","
","""event"",""trial"",""time""
""fullscreenenter"",""0"",""8320""
","
",null,<p></p>,null,,,,,,,,,,,,,,,,,,,,,,,
,do_trial,312,1157998,0.0-166.0-0.0,"""event"",""trial"",""time""
""fullscreenenter"",""0"",""8320""
","
","
","""event"",""trial"",""time""
""fullscreenenter"",""0"",""8320""
","
",241.1,,,,,,,,51,"1,0,1",2,highway,107,probe-176,0.355298832,0.348077004,0.103976425,1,,,,,,,,
,html-keyboard-response,313,1159003,0.0-166.0-1.0,"""event"",""trial"",""time""
""fullscreenenter"",""0"",""8320""
","
","
","""event"",""trial"",""time""
""fullscreenenter"",""0"",""8320""
","
",null,<p></p>,null,,,,,,,,,,,,,,,,,,,,,,,
,do_trial,314,1163972,0.0-167.0-0.0,"""event"",""trial"",""time""
""fullscreenenter"",""0"",""8320""
","
","
","""event"",""trial"",""time""
""fullscreenenter"",""0"",""8320""
","
",426.1,,,,,,,,51,"0,0,0",2,highway,108,probe-137,0.554657479,0.403644203,0.05397227,0,,,,,,,,
,html-keyboard-response,315,1164979,0.0-167.0-1.0,"""event"",""trial"",""time""
""fullscreenenter"",""0"",""8320""
","
","
","""event"",""trial"",""time""
""fullscreenenter"",""0"",""8320""
","
",null,<p></p>,null,,,,,,,,,,,,,,,,,,,,,,,
,do_trial,316,1170314,0.0-168.0-0.0,"""event"",""trial"",""time""
""fullscreenenter"",""0"",""8320""
","
","
","""event"",""trial"",""time""
""fullscreenenter"",""0"",""8320""
","
",789.7,,,,,,,,51,"0,0,0",2,highway,109,probe-29,0.560866849,0.432385557,0.198513143,0,,,,,,,,
,html-keyboard-response,317,1171321,0.0-168.0-1.0,"""event"",""trial"",""time""
""fullscreenenter"",""0"",""8320""
","
","
","""event"",""trial"",""time""
""fullscreenenter"",""0"",""8320""
","
",null,<p></p>,null,,,,,,,,,,,,,,,,,,,,,,,
,do_bye,318,1172829,0.0-169.0-0.0,"""event"",""trial"",""time""
""fullscreenenter"",""0"",""8320""
","
","
","""event"",""trial"",""time""
""fullscreenenter"",""0"",""8320""
","
",null,,,,,,,,null,,,,,,,,,,,,,,,,,
,break,319,1173489,0.0-169.0-1.0,"""event"",""trial"",""time""
""fullscreenenter"",""0"",""8320""
","
","
","""event"",""trial"",""time""
""fullscreenenter"",""0"",""8320""
","
",655.6,"<div class='center'><p>Time to take a quick break! You have 2 minutes to rest, but you can move on sooner if you'd like.</p><p> Press the <b>space bar</b> to continue.</p></div>",32,,,,,,,,,,,,,,,,,,,,,,,
,do_travel,320,1182496,0.0-170.0-0.0,"""event"",""trial"",""time""
""fullscreenenter"",""0"",""8320""
","
","
","""event"",""trial"",""time""
""fullscreenenter"",""0"",""8320""
","
",null,,,,,,,,null,,,,,,,,,,,,,,,,,
,do_welcome,321,1186504,0.0-170.0-1.0,"""event"",""trial"",""time""
""fullscreenenter"",""0"",""8320""
","
","
","""event"",""trial"",""time""
""fullscreenenter"",""0"",""8320""
","
",null,,,,,,,,null,,,,,,,,,,,,,,,,,
,do_trial,322,1191434,0.0-171.0-0.0,"""event"",""trial"",""time""
""fullscreenenter"",""0"",""8320""
","
","
","""event"",""trial"",""time""
""fullscreenenter"",""0"",""8320""
","
",389.2,,,,,,,,50,"1,1,0",3,countryside,110,probe-33,1,0.417227396,0.188113065,1,,,,,,,,
,html-keyboard-response,323,1192440,0.0-171.0-1.0,"""event"",""trial"",""time""
""fullscreenenter"",""0"",""8320""
","
","
","""event"",""trial"",""time""
""fullscreenenter"",""0"",""8320""
","
",null,<p></p>,null,,,,,,,,,,,,,,,,,,,,,,,
,do_trial,324,1197243,0.0-172.0-0.0,"""event"",""trial"",""time""
""fullscreenenter"",""0"",""8320""
","
","
","""event"",""trial"",""time""
""fullscreenenter"",""0"",""8320""
","
",256.8,,,,,,,,50,"1,0,0",3,countryside,111,probe-151,1,0.368075225,0.112603114,0,,,,,,,,
,html-keyboard-response,325,1198246,0.0-172.0-1.0,"""event"",""trial"",""time""
""fullscreenenter"",""0"",""8320""
","
","
","""event"",""trial"",""time""
""fullscreenenter"",""0"",""8320""
","
",null,<p></p>,null,,,,,,,,,,,,,,,,,,,,,,,
,do_trial,326,1203203,0.0-173.0-0.0,"""event"",""trial"",""time""
""fullscreenenter"",""0"",""8320""
","
","
","""event"",""trial"",""time""
""fullscreenenter"",""0"",""8320""
","
",408.8,,,,,,,,50,"0,0,1",3,countryside,112,probe-81,0.849961791,0.359756496,0.113245846,0,,,,,,,,
,html-keyboard-response,327,1204209,0.0-173.0-1.0,"""event"",""trial"",""time""
""fullscreenenter"",""0"",""8320""
","
","
","""event"",""trial"",""time""
""fullscreenenter"",""0"",""8320""
","
",null,<p></p>,null,,,,,,,,,,,,,,,,,,,,,,,
,do_trial,328,1209139,0.0-174.0-0.0,"""event"",""trial"",""time""
""fullscreenenter"",""0"",""8320""
","
","
","""event"",""trial"",""time""
""fullscreenenter"",""0"",""8320""
","
",384.6,,,,,,,,50,"1,0,0",3,countryside,113,probe-184,0.73659053,0.333514748,0.081187582,0,,,,,,,,
,html-keyboard-response,329,1210146,0.0-174.0-1.0,"""event"",""trial"",""time""
""fullscreenenter"",""0"",""8320""
","
","
","""event"",""trial"",""time""
""fullscreenenter"",""0"",""8320""
","
",null,<p></p>,null,,,,,,,,,,,,,,,,,,,,,,,
,do_trial,330,1215365,0.0-175.0-0.0,"""event"",""trial"",""time""
""fullscreenenter"",""0"",""8320""
","
","
","""event"",""trial"",""time""
""fullscreenenter"",""0"",""8320""
","
",676.6,,,,,,,,49,"1,0,0",3,countryside,114,probe-210,0.721167672,0.32297951,0.059396309,1,,,,,,,,
,html-keyboard-response,331,1216372,0.0-175.0-1.0,"""event"",""trial"",""time""
""fullscreenenter"",""0"",""8320""
","
","
","""event"",""trial"",""time""
""fullscreenenter"",""0"",""8320""
","
",null,<p></p>,null,,,,,,,,,,,,,,,,,,,,,,,
,do_trial,332,1221267,0.0-176.0-0.0,"""event"",""trial"",""time""
""fullscreenenter"",""0"",""8320""
","
","
","""event"",""trial"",""time""
""fullscreenenter"",""0"",""8320""
","
",348.6,,,,,,,,49,"1,1,0",3,countryside,115,probe-92,0.576873635,0.317438656,0.10353638,1,,,,,,,,
,html-keyboard-response,333,1222276,0.0-176.0-1.0,"""event"",""trial"",""time""
""fullscreenenter"",""0"",""8320""
","
","
","""event"",""trial"",""time""
""fullscreenenter"",""0"",""8320""
","
",null,<p></p>,null,,,,,,,,,,,,,,,,,,,,,,,
