"success","trial_type","trial_index","time_elapsed","internal_node_id","interactions","blur_events","focus_events","fullscreenenter_events","fullscreenexit_events","rt","stimulus","key_press","subject_id","participant_id","age","gender","prompt","response","choice_outcomes","context_n","context_img_id","trial_n","probe_img_id","pR_red","pR_white","pR_black","outcome","contextArray_ind","validImageProbes","invalidImageProbes","pRew_Red","pRew_White","pRew_Black","availableForMemProbe","choice_blocks"
"true","fullscreen","0","15272","0.0-0.0","""event"",""trial"",""time""
""fullscreenenter"",""0"",""14308""
","
","
","""event"",""trial"",""time""
""fullscreenenter"",""0"",""14308""
","
","","","","","","","","","","","","","","","","","","","","","","","","","",""
"","pavlovia","1","15284","0.0-1.0","""event"",""trial"",""time""
""fullscreenenter"",""0"",""14308""
","
","
","""event"",""trial"",""time""
""fullscreenenter"",""0"",""14308""
","
","","","","","","","","","","","","","","","","","","","","","","","","","",""
"","instruc1","2","60525","0.0-2.0","""event"",""trial"",""time""
""fullscreenenter"",""0"",""14308""
","
","
","""event"",""trial"",""time""
""fullscreenenter"",""0"",""14308""
","
","null","run_exp/static/audio/clip_1_welcome.m4a","null","1385","1403","8","Female","<div class='center'><p>Welcome! This is the first part of the study. It will last ~30 minutes. In part 1 and part 2 of the study, you are the head captain of a pirate ship traveling around the world to different islands. You will play a few different games throughout these two parts. Here is an overview of them:</p><br><p>Part 1 (today)</p><p>1. Instructions, practice game, and quiz</p><p>2. Pick a pirate game on 6 different islands</p><br><p>Part 2 (tomorrow)</p><p>3. Pick a pirate game and memory game</p><p>4. Where did you see this ship? </p></div>","","","","","","","","","","","","","","","","","",""
"","html-keyboard-response","3","61168","0.0-3.0","""event"",""trial"",""time""
""fullscreenenter"",""0"",""14308""
","
","
","""event"",""trial"",""time""
""fullscreenenter"",""0"",""14308""
","
","640.7000000178814","<div class='center'><p>Welcome! This is the first part of the study. It will last ~30 minutes. In part 1 and part 2 of the study, you are the head captain of a pirate ship traveling around the world to different islands. You will play a few different games throughout these two parts. Here is an overview of them:</p><br><p>Part 1 (today)</p><p>1. Instructions, practice game, and quiz</p><p>2. Pick a pirate game on 6 different islands</p><br><p>Part 2 (tomorrow)</p><p>3. Pick a pirate game and memory game</p><p>4. Where did you see this ship? </p><p><b>[Press the space bar to continue]</b></p></div>","32","","","","","","","","","","","","","","","","","","","","","","",""
"","instruc2","4","66507","0.0-4.0","""event"",""trial"",""time""
""fullscreenenter"",""0"",""14308""
","
","
","""event"",""trial"",""time""
""fullscreenenter"",""0"",""14308""
","
","null","run_exp/static/audio/clip_2_different_places.m4a","null","","","","","<div class='center'><p>Today, you’ll visit these 6 islands on your journey. You'll be able to see these islands from your ship.</p><p><img src='run_exp/static/images/contexts/all_contexts.png' height='500'></p></div>","","","","","","","","","","","","","","","","","",""
"","html-keyboard-response","5","68590","0.0-5.0","""event"",""trial"",""time""
""fullscreenenter"",""0"",""14308""
","
","
","""event"",""trial"",""time""
""fullscreenenter"",""0"",""14308""
","
","2079.9000000059605","<div class='center'><p>Today, you’ll visit these 6 islands on your journey. You'll be able to see these islands from your ship.</p><p><img src='run_exp/static/images/contexts/all_contexts.png' height='500'></p><p><b>[Press the space bar to continue]</b></p></div>","32","","","","","","","","","","","","","","","","","","","","","","",""
"","instruc3","6","78305","0.0-6.0","""event"",""trial"",""time""
""fullscreenenter"",""0"",""14308""
","
","
","""event"",""trial"",""time""
""fullscreenenter"",""0"",""14308""
","
","null","run_exp/static/audio/clip_3_goal_of_game_1.m4a","null","","","","","<div class='center'><p> The pirates on your ship will rob other ships as they leave the island.</p> These ships have just sold their goods to the islanders, so they will be filled with lots and lots of gold.</p><p><img src='run_exp/static/images/tutorial/ship_center.png' height='400'></p></div>","","","","","","","","","","","","","","","","","",""
"","html-keyboard-response","7","81077","0.0-7.0","""event"",""trial"",""time""
""fullscreenenter"",""0"",""14308""
","
","
","""event"",""trial"",""time""
""fullscreenenter"",""0"",""14308""
","
","2766.699999988079","<div class='center'><p> The pirates on your ship will rob other ships as they leave the island.</p> These ships have just sold their goods to the islanders, so they will be filled with lots and lots of gold.</p><p><img src='run_exp/static/images/tutorial/ship_center.png' height='400'></p><p><b>[Press the space bar to continue]</b></p></div>","32","","","","","","","","","","","","","","","","","","","","","","",""
"","instruc4","8","109106","0.0-8.0","""event"",""trial"",""time""
""fullscreenenter"",""0"",""14308""
","
","
","""event"",""trial"",""time""
""fullscreenenter"",""0"",""14308""
","
","null","run_exp/static/audio/clip_4_goal_of_game_2.m4a","null","","","","","<div class='center'><p>As the head captain, you do not have to rob any ships yourself. Another pirate will be doing the robbing for you. First, you will choose a pirate to rob the next ship.</p><p><img src='run_exp/static/images/tutorial/pirates_all_crop.png' height='200'></p><p>Then, you'll see if the pirate successfully robbed the ship of their gold. If they were successful, then you'll get a stack of gold coins like this:</p><p><img src='run_exp/static/images/tutorial/reward.png' height='150'></p><p> If they were <b>not</b> successful, then you'll get no gold coins, and you'll see a big red x like this: </p><p><img src='run_exp/static/images/tutorial/reward_no.png' height='150'></p><p> How much bonus money you make is based on how many gold coins you collect.</p><div>","","","","","","","","","","","","","","","","","",""
"","html-keyboard-response","9","117178","0.0-9.0","""event"",""trial"",""time""
""fullscreenenter"",""0"",""14308""
","
","
","""event"",""trial"",""time""
""fullscreenenter"",""0"",""14308""
","
","8064.899999976158","<div class='center'><p>As the head captain, you do not have to rob any ships yourself. Another pirate will be doing the robbing for you. First, you will choose a pirate to rob the next ship.</p><p><img src='run_exp/static/images/tutorial/pirates_all_crop.png' height='200'></p><p>Then, you'll see if the pirate successfully robbed the ship of their gold. If they were successful, then you'll get a stack of gold coins like this:</p><p><img src='run_exp/static/images/tutorial/reward.png' height='150'></p><p> If they were <b>not</b> successful, then you'll get no gold coins, and you'll see a big red x like this: </p><p><img src='run_exp/static/images/tutorial/reward_no.png' height='150'></p><p> How much bonus money you make is based on how many gold coins you collect.</p<p><b>[Press the space bar to continue]</b></p></div>","32","","","","","","","","","","","","","","","","","","","","","","",""
"","instruc5","10","140693","0.0-10.0","""event"",""trial"",""time""
""fullscreenenter"",""0"",""14308""
","
","
","""event"",""trial"",""time""
""fullscreenenter"",""0"",""14308""
","
","23513.40000000596","run_exp/static/audio/clip_5_probabilistic.m4a","49","","","","","<div class='center'><p>Even the most skilled pirate can not rob EVERY ship.</p><p> Some ships will have very strong protections against pirate attacks.</p><p> Blue beard, here, is very, very good at robbing ships, but he won't be successful every time he tries to rob one.</p><p> You can press the <b>‘1’</b> key on the keyboard to choose him.</p><p> Try choosing him 10 times to see how often he succeeds at robbing a ship. </p><p><img src='run_exp/static/images/tutorial/blue.png' height='500'></p></div>","","","","","","","","","","","","","","","","","",""
"","html-keyboard-response","11","142213","0.0-11.0","""event"",""trial"",""time""
""fullscreenenter"",""0"",""14308""
","
","
","""event"",""trial"",""time""
""fullscreenenter"",""0"",""14308""
","
","null","<div class='center'><p><img src='run_exp/static/images/tutorial/blue_win.png' height='500'></p></div>","null","","","","","","","","","","","","","","","","","","","","","","",""
"","html-keyboard-response","12","144931","0.0-12.0","""event"",""trial"",""time""
""fullscreenenter"",""0"",""14308""
","
","
","""event"",""trial"",""time""
""fullscreenenter"",""0"",""14308""
","
","2716.9000000059605","<div class='center'><img src='run_exp/static/images/tutorial/blue.png' height='500'></p></div>","49","","","","","","","","","","","","","","","","","","","","","","",""
"","html-keyboard-response","13","146433","0.0-13.0","""event"",""trial"",""time""
""fullscreenenter"",""0"",""14308""
","
","
","""event"",""trial"",""time""
""fullscreenenter"",""0"",""14308""
","
","null","<div class='center'><p><img src='run_exp/static/images/tutorial/blue_win.png' height='500'></p></div>","null","","","","","","","","","","","","","","","","","","","","","","",""
"","html-keyboard-response","14","147571","0.0-14.0","""event"",""trial"",""time""
""fullscreenenter"",""0"",""14308""
","
","
","""event"",""trial"",""time""
""fullscreenenter"",""0"",""14308""
","
","1134.4000000059605","<div class='center'><img src='run_exp/static/images/tutorial/blue.png' height='500'></p></div>","49","","","","","","","","","","","","","","","","","","","","","","",""
"","html-keyboard-response","15","149087","0.0-15.0","""event"",""trial"",""time""
""fullscreenenter"",""0"",""14308""
","
","
","""event"",""trial"",""time""
""fullscreenenter"",""0"",""14308""
","
","null","<div class='center'><p><img src='run_exp/static/images/tutorial/blue_win.png' height='500'></p></div>","null","","","","","","","","","","","","","","","","","","","","","","",""
"","html-keyboard-response","16","149597","0.0-16.0","""event"",""trial"",""time""
""fullscreenenter"",""0"",""14308""
","
","
","""event"",""trial"",""time""
""fullscreenenter"",""0"",""14308""
","
","507.7000000178814","<div class='center'><img src='run_exp/static/images/tutorial/blue.png' height='500'></p></div>","49","","","","","","","","","","","","","","","","","","","","","","",""
"","html-keyboard-response","17","151103","0.0-17.0","""event"",""trial"",""time""
""fullscreenenter"",""0"",""14308""
","
","
","""event"",""trial"",""time""
""fullscreenenter"",""0"",""14308""
","
","null","<div class='center'><p><img src='run_exp/static/images/tutorial/blue_no_win.png' height='500'></p></div>","null","","","","","","","","","","","","","","","","","","","","","","",""
"","html-keyboard-response","18","154742","0.0-18.0","""event"",""trial"",""time""
""fullscreenenter"",""0"",""14308""
","
","
","""event"",""trial"",""time""
""fullscreenenter"",""0"",""14308""
","
","3636.2000000178814","<div class='center'><img src='run_exp/static/images/tutorial/blue.png' height='500'></p></div>","49","","","","","","","","","","","","","","","","","","","","","","",""
"","html-keyboard-response","19","156258","0.0-19.0","""event"",""trial"",""time""
""fullscreenenter"",""0"",""14308""
","
","
","""event"",""trial"",""time""
""fullscreenenter"",""0"",""14308""
","
","null","<div class='center'><p><img src='run_exp/static/images/tutorial/blue_win.png' height='500'></p></div>","null","","","","","","","","","","","","","","","","","","","","","","",""
"","html-keyboard-response","20","156941","0.0-20.0","""event"",""trial"",""time""
""fullscreenenter"",""0"",""14308""
","
","
","""event"",""trial"",""time""
""fullscreenenter"",""0"",""14308""
","
","681.5","<div class='center'><img src='run_exp/static/images/tutorial/blue.png' height='500'></p></div>","49","","","","","","","","","","","","","","","","","","","","","","",""
"","html-keyboard-response","21","158452","0.0-21.0","""event"",""trial"",""time""
""fullscreenenter"",""0"",""14308""
","
","
","""event"",""trial"",""time""
""fullscreenenter"",""0"",""14308""
","
","null","<div class='center'><p><img src='run_exp/static/images/tutorial/blue_win.png' height='500'></p></div>","null","","","","","","","","","","","","","","","","","","","","","","",""
"","html-keyboard-response","22","158845","0.0-22.0","""event"",""trial"",""time""
""fullscreenenter"",""0"",""14308""
","
","
","""event"",""trial"",""time""
""fullscreenenter"",""0"",""14308""
","
","391.19999998807907","<div class='center'><img src='run_exp/static/images/tutorial/blue.png' height='500'></p></div>","49","","","","","","","","","","","","","","","","","","","","","","",""
"","html-keyboard-response","23","160357","0.0-23.0","""event"",""trial"",""time""
""fullscreenenter"",""0"",""14308""
","
","
","""event"",""trial"",""time""
""fullscreenenter"",""0"",""14308""
","
","null","<div class='center'><p><img src='run_exp/static/images/tutorial/blue_win.png' height='500'></p></div>","null","","","","","","","","","","","","","","","","","","","","","","",""
"","html-keyboard-response","24","160764","0.0-24.0","""event"",""trial"",""time""
""fullscreenenter"",""0"",""14308""
","
","
","""event"",""trial"",""time""
""fullscreenenter"",""0"",""14308""
","
","404.5","<div class='center'><img src='run_exp/static/images/tutorial/blue.png' height='500'></p></div>","49","","","","","","","","","","","","","","","","","","","","","","",""
"","html-keyboard-response","25","162271","0.0-25.0","""event"",""trial"",""time""
""fullscreenenter"",""0"",""14308""
","
","
","""event"",""trial"",""time""
""fullscreenenter"",""0"",""14308""
","
","null","<div class='center'><p><img src='run_exp/static/images/tutorial/blue_no_win.png' height='500'></p></div>","null","","","","","","","","","","","","","","","","","","","","","","",""
"","html-keyboard-response","26","162755","0.0-26.0","""event"",""trial"",""time""
""fullscreenenter"",""0"",""14308""
","
","
","""event"",""trial"",""time""
""fullscreenenter"",""0"",""14308""
","
","482.5","<div class='center'><img src='run_exp/static/images/tutorial/blue.png' height='500'></p></div>","49","","","","","","","","","","","","","","","","","","","","","","",""
"","html-keyboard-response","27","164259","0.0-27.0","""event"",""trial"",""time""
""fullscreenenter"",""0"",""14308""
","
","
","""event"",""trial"",""time""
""fullscreenenter"",""0"",""14308""
","
","null","<div class='center'><p><img src='run_exp/static/images/tutorial/blue_win.png' height='500'></p></div>","null","","","","","","","","","","","","","","","","","","","","","","",""
"","html-keyboard-response","28","164692","0.0-28.0","""event"",""trial"",""time""
""fullscreenenter"",""0"",""14308""
","
","
","""event"",""trial"",""time""
""fullscreenenter"",""0"",""14308""
","
","431.80000001192093","<div class='center'><img src='run_exp/static/images/tutorial/blue.png' height='500'></p></div>","49","","","","","","","","","","","","","","","","","","","","","","",""
"","html-keyboard-response","29","166200","0.0-29.0","""event"",""trial"",""time""
""fullscreenenter"",""0"",""14308""
","
","
","""event"",""trial"",""time""
""fullscreenenter"",""0"",""14308""
","
","null","<div class='center'><p><img src='run_exp/static/images/tutorial/blue_win.png' height='500'></p></div>","null","","","","","","","","","","","","","","","","","","","","","","",""
"","instruc6","30","171714","0.0-30.0","""event"",""trial"",""time""
""fullscreenenter"",""0"",""14308""
","
","
","""event"",""trial"",""time""
""fullscreenenter"",""0"",""14308""
","
","null","run_exp/static/audio/clip_6_blue_beard_outcome.m4a","null","","","","","<div class='center'><p> See, he succeeded in robbing the ships most of the time but not every time. </p></div>","","","","","","","","","","","","","","","","","",""
"","html-keyboard-response","31","173045","0.0-31.0","""event"",""trial"",""time""
""fullscreenenter"",""0"",""14308""
","
","
","""event"",""trial"",""time""
""fullscreenenter"",""0"",""14308""
","
","1329","<div class='center'><p> See, he succeeded in robbing the ships most of the time but not every time. </p><p><b>[Press the space bar to continue]</b></p></div>","32","","","","","","","","","","","","","","","","","","","","","","",""
"","audio-keyboard-response","32","188843","0.0-32.0","""event"",""trial"",""time""
""fullscreenenter"",""0"",""14308""
","
","
","""event"",""trial"",""time""
""fullscreenenter"",""0"",""14308""
","
","15794.5","run_exp/static/audio/clip_7_pick_pirate.m4a","51","","","","","","","","","","","","","","","","","","","","","","",""
"","audio-keyboard-response","33","192892","0.0-33.0-0.0","""event"",""trial"",""time""
""fullscreenenter"",""0"",""14308""
","
","
","""event"",""trial"",""time""
""fullscreenenter"",""0"",""14308""
","
","4045.9000000059605","run_exp/static/audio/clip_8_chosen_pirate_win.m4a","32","","","","","","","","","","","","","","","","","","","","","","",""
"","audio-keyboard-response","34","195548","0.0-33.0-1.0","""event"",""trial"",""time""
""fullscreenenter"",""0"",""14308""
","
","
","""event"",""trial"",""time""
""fullscreenenter"",""0"",""14308""
","
","2653.0999999940395","run_exp/static/audio/clip_9_pick_a_pirate_again.m4a","50","","","","","","","","","","","","","","","","","","","","","","",""
"","audio-keyboard-response","35","200962","0.0-34.0-0.0","""event"",""trial"",""time""
""fullscreenenter"",""0"",""14308""
","
","
","""event"",""trial"",""time""
""fullscreenenter"",""0"",""14308""
","
","5409.700000017881","run_exp/static/audio/clip_10_chosen_pirate_loss.m4a","32","","","","","","","","","","","","","","","","","","","","","","",""
"","instruc9","36","206474","0.0-35.0-0.0","""event"",""trial"",""time""
""fullscreenenter"",""0"",""14308""
","
","
","""event"",""trial"",""time""
""fullscreenenter"",""0"",""14308""
","
","null","run_exp/static/audio/clip_11_time_out.m4a","null","","","","","<div class='center'><p>If you don’t make your choice fast enough, you’ll have to wait a few seconds before you can make another one. </p><p><img src='run_exp/static/images/miscellaneous/hurry_up.png' height='500'></p></div>","","","","","","","","","","","","","","","","","",""
"","html-keyboard-response","37","207500","0.0-35.0-1.0","""event"",""trial"",""time""
""fullscreenenter"",""0"",""14308""
","
","
","""event"",""trial"",""time""
""fullscreenenter"",""0"",""14308""
","
","1023.7000000178814","<div class='center'><p>If you don’t make your choice fast enough, you’ll have to wait a few seconds before you can make another one. </p><p><img src='run_exp/static/images/miscellaneous/hurry_up.png' height='500'></p><p><b>[Press the space bar to continue]</b></p></div>","32","","","","","","","","","","","","","","","","","","","","","","",""
"","instruc10","38","246630","0.0-35.0-2.0","""event"",""trial"",""time""
""fullscreenenter"",""0"",""14308""
","
","
","""event"",""trial"",""time""
""fullscreenenter"",""0"",""14308""
","
","null","run_exp/static/audio/clip_12_probe.m4a","null","","","","","<div class='center'><p>Once you've chosen a pirate, you’ll be shown the ship they are robbing. You will never rob the same ship twice. Ships can be told apart from one another by the image on them. These are the goods that they sell. See, this ship has a travel mug on it. </p><p> You’ll have to remember which island you saw each ship on. You will win more gold coins and hence more bonus money if you remember correctly! To help you remember, you can imagine a story. For example, here, you could imagine a mug full of water in the desert. Or, as another example, if on the forest island, your pirate robbed a ship with an apple on it, you could imagine an apple falling from a tree in the forest. </p><p><img src='run_exp/static/images/tutorial/example_probe.png' height='500'></p></div>","","","","","","","","","","","","","","","","","",""
"","html-keyboard-response","39","252151","0.0-35.0-3.0","""event"",""trial"",""time""
""fullscreenenter"",""0"",""14308""
","
","
","""event"",""trial"",""time""
""fullscreenenter"",""0"",""14308""
","
","5515.800000011921","<div class='center'><p>Once you've chosen a pirate, you’ll be shown the ship they are robbing. You will never rob the same ship twice. Ships can be told apart from one another by the image on them. These are the goods that they sell. See, this ship has a travel mug on it. </p><p> You’ll have to remember which island you saw each ship on. You will win more gold coins and hence more bonus money if you remember correctly! To help you remember, you can imagine a story. For example, here, you could imagine a mug full of water in the desert. Or, as another example, if on the forest island, your pirate robbed a ship with an apple on it, you could imagine an apple falling from a tree in the forest. </p><p><img src='run_exp/static/images/tutorial/example_probe.png' height='500'></p><p><b>[Press the space bar to continue]</b></p></div>","32","","","","","","","","","","","","","","","","","","","","","","",""
"","instruc11","40","268571","0.0-35.0-4.0","""event"",""trial"",""time""
""fullscreenenter"",""0"",""14308""
","
","
","""event"",""trial"",""time""
""fullscreenenter"",""0"",""14308""
","
","null","run_exp/static/audio/clip_13_changepoint.m4a","null","","","","","<div class='center'><p>How successful a pirate is at robbing ships will depend on the island you’re on.</p><p> A pirate may have visited this island many times before and gained a lot of practice robbing ships there.</p><p>So, they’re more likely to be successful than a pirate who has never visited the island before.</p></div>","","","","","","","","","","","","","","","","","",""
"","html-keyboard-response","41","269793","0.0-35.0-5.0","""event"",""trial"",""time""
""fullscreenenter"",""0"",""14308""
","
","
","""event"",""trial"",""time""
""fullscreenenter"",""0"",""14308""
","
","1218.800000011921","<div class='center'><p>How successful a pirate is at robbing ships will depend on the island you’re on.</p><p> A pirate may have visited this island many times before and gained a lot of practice robbing ships there.</p><p>So, they’re more likely to be successful than a pirate who has never visited the island before.</p><p><b>[Press the space bar to continue]</b></p></div>","32","","","","","","","","","","","","","","","","","","","","","","",""
"","instruc12","42","310890","0.0-35.0-6.0","""event"",""trial"",""time""
""fullscreenenter"",""0"",""14308""
","
","
","""event"",""trial"",""time""
""fullscreenenter"",""0"",""14308""
","
","null","run_exp/static/audio/clip_14_drift.m4a","null","","","","","<div class='center'><p>How successful a pirate is at robbing ships can also change over the time spent on the island. </p><p> Ships may hear from islanders about the pirates coming and will improve their protections against the attack. This may make it harder to rob them.</p><p> Ships may also become lazy and weaken the strength of their protections. This may make it easier to rob them.</p><br><p>Things are always changing on the high seas! So, try your best to pay attention!</p><p><img src='run_exp/static/images/tutorial/contingency.png' height='500'></p></div>","","","","","","","","","","","","","","","","","",""
"","html-keyboard-response","43","318011","0.0-35.0-7.0","""event"",""trial"",""time""
""fullscreenenter"",""0"",""14308""
","
","
","""event"",""trial"",""time""
""fullscreenenter"",""0"",""14308""
","
","7116","<div class='center'><p>How successful a pirate is at robbing ships can also change over the time spent on the island. </p><p> Ships may hear from islanders about the pirates coming and will improve their protections against the attack. This may make it harder to rob them.</p><p> Ships may also become lazy and weaken the strength of their protections. This may make it easier to rob them.</p><br><p>Things are always changing on the high seas! So, try your best to pay attention!</p><p><img src='run_exp/static/images/tutorial/contingency.png' height='500'></p><p><b>[Press the space bar to continue]</b></p></div>","32","","","","","","","","","","","","","","","","","","","","","","",""
"","instruc13","44","353231","0.0-35.0-8.0","""event"",""trial"",""time""
""fullscreenenter"",""0"",""14308""
","
","
","""event"",""trial"",""time""
""fullscreenenter"",""0"",""14308""
","
","null","run_exp/static/audio/clip_15_summary.m4a","null","","","","","<div class='center'><p>Let's go over the instructions quickly again. You have two important things to do: </p><b><p> 1. Pick the pirate who is the best at robbing ships on the current island. </p></b><b><p> 2. Remember on which island a ship was robbed.</p> </b><p>The amount of bonus money you can win depends on both.</p><p><br><p>Let’s try a practice game. The game will start by showing you the pirates. First, pick a pirate using the <b> 1, 2, 3 </b> keys on your keyboard. When you are shown a ship, try to remember which island you’re on by making up a story.</p><p>This is just a practice game, so you’re not playing for money. </p><p> Good luck! This game will be very difficult but try your best!</p></div>","","","","","","","","","","","","","","","","","",""
"","html-keyboard-response","45","354274","0.0-35.0-9.0","""event"",""trial"",""time""
""fullscreenenter"",""0"",""14308""
","
","
","""event"",""trial"",""time""
""fullscreenenter"",""0"",""14308""
","
","1040.5","<div class='center'><p>Let's go over the instructions quickly again. You have two important things to do: </p><b><p> 1. Pick the pirate who is the best at robbing ships on the current island. </p></b><b><p> 2. Remember on which island a ship was robbed.</p> </b><p>The amount of bonus money you can win depends on both.</p><p><br><p>Let’s try a practice game. The game will start by showing you the pirates. First, pick a pirate using the <b> 1, 2, 3 </b> keys on your keyboard. When you are shown a ship, try to remember which island you’re on by making up a story.</p><p>This is just a practice game, so you’re not playing for money. </p><p> Good luck! This game will be very difficult but try your best!</p><p><b>[Press the space bar to continue]</b></p></div>","32","","","","","","","","","","","","","","","","","","","","","","",""
"","do_welcome","46","358293","0.0-35.0-10.0","""event"",""trial"",""time""
""fullscreenenter"",""0"",""14308""
","
","
","""event"",""trial"",""time""
""fullscreenenter"",""0"",""14308""
","
","null","","","","","","","","null","","","","","","","","","","","","","","","","",""
"","do_trial","47","364178","0.0-35.0-11.0","""event"",""trial"",""time""
""fullscreenenter"",""0"",""14308""
","
","
","""event"",""trial"",""time""
""fullscreenenter"",""0"",""14308""
","
","1350.7000000178814","","","","","","","","51","1,0,0","","","","","","","","","","","","","","","",""
"","html-keyboard-response","48","365188","0.0-36.0-0.0","""event"",""trial"",""time""
""fullscreenenter"",""0"",""14308""
","
","
","""event"",""trial"",""time""
""fullscreenenter"",""0"",""14308""
","
","null","<p></p>","null","","","","","","","","","","","","","","","","","","","","","","",""
"","do_trial","49","370483","0.0-36.0-1.0","""event"",""trial"",""time""
""fullscreenenter"",""0"",""14308""
","
","
","""event"",""trial"",""time""
""fullscreenenter"",""0"",""14308""
","
","768.9000000059605","","","","","","","","50","1,1,0","","","","","","","","","","","","","","","",""
"","html-keyboard-response","50","371492","0.0-37.0-0.0","""event"",""trial"",""time""
""fullscreenenter"",""0"",""14308""
","
","
","""event"",""trial"",""time""
""fullscreenenter"",""0"",""14308""
","
","null","<p></p>","null","","","","","","","","","","","","","","","","","","","","","","",""
"","do_trial","51","376590","0.0-37.0-1.0","""event"",""trial"",""time""
""fullscreenenter"",""0"",""14308""
","
","
","""event"",""trial"",""time""
""fullscreenenter"",""0"",""14308""
","
","576.7999999821186","","","","","","","","49","1,0,1","","","","","","","","","","","","","","","",""
"","html-keyboard-response","52","377604","0.0-38.0-0.0","""event"",""trial"",""time""
""fullscreenenter"",""0"",""14308""
","
","
","""event"",""trial"",""time""
""fullscreenenter"",""0"",""14308""
","
","null","<p></p>","null","","","","","","","","","","","","","","","","","","","","","","",""
"","do_trial","53","383627","0.0-38.0-1.0","""event"",""trial"",""time""
""fullscreenenter"",""0"",""14308""
","
","
","""event"",""trial"",""time""
""fullscreenenter"",""0"",""14308""
","
","null","","","","","","","","null","0,1,0","","","","","","","","","","","","","","","",""
"","html-keyboard-response","54","384636","0.0-39.0-0.0","""event"",""trial"",""time""
""fullscreenenter"",""0"",""14308""
","
","
","""event"",""trial"",""time""
""fullscreenenter"",""0"",""14308""
","
","null","<p></p>","null","","","","","","","","","","","","","","","","","","","","","","",""
"","do_trial","55","389979","0.0-39.0-1.0","""event"",""trial"",""time""
""fullscreenenter"",""0"",""14308""
","
","
","""event"",""trial"",""time""
""fullscreenenter"",""0"",""14308""
","
","821.6999999880791","","","","","","","","50","0,1,0","","","","","","","","","","","","","","","",""
"","html-keyboard-response","56","390983","0.0-40.0-0.0","""event"",""trial"",""time""
""fullscreenenter"",""0"",""14308""
","
","
","""event"",""trial"",""time""
""fullscreenenter"",""0"",""14308""
","
","null","<p></p>","null","","","","","","","","","","","","","","","","","","","","","","",""
"","do_trial","57","395893","0.0-40.0-1.0","""event"",""trial"",""time""
""fullscreenenter"",""0"",""14308""
","
","
","""event"",""trial"",""time""
""fullscreenenter"",""0"",""14308""
","
","397.69999998807907","","","","","","","","49","1,0,0","","","","","","","","","","","","","","","",""
"","do_bye","58","397419","0.0-41.0-0.0","""event"",""trial"",""time""
""fullscreenenter"",""0"",""14308""
","
","
","""event"",""trial"",""time""
""fullscreenenter"",""0"",""14308""
","
","null","","","","","","","","null","","","","","","","","","","","","","","","","",""
"","do_travel","59","406425","0.0-41.0-1.0","""event"",""trial"",""time""
""fullscreenenter"",""0"",""14308""
","
","
","""event"",""trial"",""time""
""fullscreenenter"",""0"",""14308""
","
","null","","","","","","","","null","","","","","","","","","","","","","","","","",""
"","do_welcome","60","410452","0.0-41.0-2.0","""event"",""trial"",""time""
""fullscreenenter"",""0"",""14308""
","
","
","""event"",""trial"",""time""
""fullscreenenter"",""0"",""14308""
","
","null","","","","","","","","null","","","","","","","","","","","","","","","","",""
"","do_trial","61","416392","0.0-41.0-3.0","""event"",""trial"",""time""
""fullscreenenter"",""0"",""14308""
","
","
","""event"",""trial"",""time""
""fullscreenenter"",""0"",""14308""
","
","1405.2999999821186","","","","","","","","51","1,0,0","","","","","","","","","","","","","","","",""
"","html-keyboard-response","62","417411","0.0-42.0-0.0","""event"",""trial"",""time""
""fullscreenenter"",""0"",""14308""
","
","
","""event"",""trial"",""time""
""fullscreenenter"",""0"",""14308""
","
","null","<p></p>","null","","","","","","","","","","","","","","","","","","","","","","",""
"","do_trial","63","422326","0.0-42.0-1.0","""event"",""trial"",""time""
""fullscreenenter"",""0"",""14308""
","
","
","""event"",""trial"",""time""
""fullscreenenter"",""0"",""14308""
","
","400.7999999821186","","","","","","","","50","1,0,1","","","","","","","","","","","","","","","",""
"","html-keyboard-response","64","423328","0.0-43.0-0.0","""event"",""trial"",""time""
""fullscreenenter"",""0"",""14308""
","
","
","""event"",""trial"",""time""
""fullscreenenter"",""0"",""14308""
","
","null","<p></p>","null","","","","","","","","","","","","","","","","","","","","","","",""
"","do_trial","65","428743","0.0-43.0-1.0","""event"",""trial"",""time""
""fullscreenenter"",""0"",""14308""
","
","
","""event"",""trial"",""time""
""fullscreenenter"",""0"",""14308""
","
","904.2999999821186","","","","","","","","49","1,1,0","","","","","","","","","","","","","","","",""
"","html-keyboard-response","66","429760","0.0-44.0-0.0","""event"",""trial"",""time""
""fullscreenenter"",""0"",""14308""
","
","
","""event"",""trial"",""time""
""fullscreenenter"",""0"",""14308""
","
","null","<p></p>","null","","","","","","","","","","","","","","","","","","","","","","",""
"","do_trial","67","435241","0.0-44.0-1.0","""event"",""trial"",""time""
""fullscreenenter"",""0"",""14308""
","
","
","""event"",""trial"",""time""
""fullscreenenter"",""0"",""14308""
","
","952.2000000178814","","","","","","","","50","0,0,1","","","","","","","","","","","","","","","",""
"","html-keyboard-response","68","436246","0.0-45.0-0.0","""event"",""trial"",""time""
""fullscreenenter"",""0"",""14308""
","
","
","""event"",""trial"",""time""
""fullscreenenter"",""0"",""14308""
","
","null","<p></p>","null","","","","","","","","","","","","","","","","","","","","","","",""
"","do_trial","69","441416","0.0-45.0-1.0","""event"",""trial"",""time""
""fullscreenenter"",""0"",""14308""
","
","
","""event"",""trial"",""time""
""fullscreenenter"",""0"",""14308""
","
","655.9000000059605","","","","","","","","49","1,0,1","","","","","","","","","","","","","","","",""
"","html-keyboard-response","70","446837","0.0-46.0-0.0","""event"",""trial"",""time""
""fullscreenenter"",""0"",""14308""
","
","
","""event"",""trial"",""time""
""fullscreenenter"",""0"",""14308""
","
","5416.200000017881","<div class='center'><p><img src='run_exp/static/images/tutorial/prac_best_pirate.png'  height='500'></p></div>","49","","","","","","","","","","","","","","","","","","","","","","",""
"","html-keyboard-response","71","449917","0.0-47.0-0.0","""event"",""trial"",""time""
""fullscreenenter"",""0"",""14308""
","
","
","""event"",""trial"",""time""
""fullscreenenter"",""0"",""14308""
","
","3077.5","<div class='center'><p>That's correct! Red beard was the best.</p><p><b>[Press the space bar to continue]</b></p></div>","32","","","","","","","","","","","","","","","","","","","","","","",""
"","html-keyboard-response","72","457026","0.0-47.0-1.0","""event"",""trial"",""time""
""fullscreenenter"",""0"",""14308""
","
","
","""event"",""trial"",""time""
""fullscreenenter"",""0"",""14308""
","
","7107.9000000059605","<div class='center'><p><img src='run_exp/static/images/tutorial/prac_source.png'  height='500'></p></div>","50","","","","","","","","","","","","","","","","","","","","","","",""
"","html-keyboard-response","73","459210","0.0-48.0-0.0","""event"",""trial"",""time""
""fullscreenenter"",""0"",""14308""
","
","
","""event"",""trial"",""time""
""fullscreenenter"",""0"",""14308""
","
","2182.5999999940395","<div class='center'><p>That's correct! You saw this ship on the cavern island.</p><p><b>[Press the space bar to continue]</b></p></div>","32","","","","","","","","","","","","","","","","","","","","","","",""
"","quiz_beginning","74","470512","0.0-48.0-1.0","""event"",""trial"",""time""
""fullscreenenter"",""0"",""14308""
","
","
","""event"",""trial"",""time""
""fullscreenenter"",""0"",""14308""
","
","null","run_exp/static/audio/clip_16_quiz_intro.m4a","null","","","","","<div class='center'><p>Good job on the practice game! Now, you will be asked some true or false questions to make sure you really understand the rules of the game.</p><p> Press <b>'1'</b> on the keyboard for true and press <b>'2'</b> for false.</p></div>","","","","","","","","","","","","","","","","","",""
"","audio-keyboard-response","75","483084","0.0-48.0-2.0","""event"",""trial"",""time""
""fullscreenenter"",""0"",""14308""
","
","
","""event"",""trial"",""time""
""fullscreenenter"",""0"",""14308""
","
","12567.700000017881","run_exp/static/audio/clip_17_q1.m4a","49","","","","","","","","","","","","","","","","","","","","","","",""
"","correct","76","485492","0.0-49.0-0.0","""event"",""trial"",""time""
""fullscreenenter"",""0"",""14308""
","
","
","""event"",""trial"",""time""
""fullscreenenter"",""0"",""14308""
","
","null","run_exp/static/audio/clip_18_correct.m4a","null","","","","","<div class='center'><p>That's correct!</p></div>","","","","","","","","","","","","","","","","","",""
"","html-keyboard-response","77","487355","0.0-49.0-1.0","""event"",""trial"",""time""
""fullscreenenter"",""0"",""14308""
","
","
","""event"",""trial"",""time""
""fullscreenenter"",""0"",""14308""
","
","1861.300000011921","<div class='center'><p>That's correct!</p><p><b>[Press the space bar to continue]</b></p></div>","32","","","","","","","","","","","","","","","","","","","","","","",""
"","audio-keyboard-response","78","496169","0.0-49.0-2.0","""event"",""trial"",""time""
""fullscreenenter"",""0"",""14308""
","
","
","""event"",""trial"",""time""
""fullscreenenter"",""0"",""14308""
","
","8817.200000017881","run_exp/static/audio/clip_20_q2.m4a","50","","","","","","","","","","","","","","","","","","","","","","",""
"","correct","79","498566","0.0-50.0-0.0","""event"",""trial"",""time""
""fullscreenenter"",""0"",""14308""
","
","
","""event"",""trial"",""time""
""fullscreenenter"",""0"",""14308""
","
","null","run_exp/static/audio/clip_18_correct.m4a","null","","","","","<div class='center'><p>That's correct!</p></div>","","","","","","","","","","","","","","","","","",""
"","html-keyboard-response","80","500518","0.0-50.0-1.0","""event"",""trial"",""time""
""fullscreenenter"",""0"",""14308""
","
","
","""event"",""trial"",""time""
""fullscreenenter"",""0"",""14308""
","
","1951.0999999940395","<div class='center'><p>That's correct!</p><p><b>[Press the space bar to continue]</b></p></div>","32","","","","","","","","","","","","","","","","","","","","","","",""
"","audio-keyboard-response","81","507768","0.0-50.0-2.0","""event"",""trial"",""time""
""fullscreenenter"",""0"",""14308""
","
","
","""event"",""trial"",""time""
""fullscreenenter"",""0"",""14308""
","
","7249.5999999940395","run_exp/static/audio/clip_22_q3.m4a","50","","","","","","","","","","","","","","","","","","","","","","",""
"","correct","82","510167","0.0-51.0-0.0","""event"",""trial"",""time""
""fullscreenenter"",""0"",""14308""
","
","
","""event"",""trial"",""time""
""fullscreenenter"",""0"",""14308""
","
","null","run_exp/static/audio/clip_18_correct.m4a","null","","","","","<div class='center'><p>That's correct!</p></div>","","","","","","","","","","","","","","","","","",""
"","html-keyboard-response","83","511424","0.0-51.0-1.0","""event"",""trial"",""time""
""fullscreenenter"",""0"",""14308""
","
","
","""event"",""trial"",""time""
""fullscreenenter"",""0"",""14308""
","
","1255.7000000178814","<div class='center'><p>That's correct!</p><p><b>[Press the space bar to continue]</b></p></div>","32","","","","","","","","","","","","","","","","","","","","","","",""
"","audio-keyboard-response","84","516502","0.0-51.0-2.0","""event"",""trial"",""time""
""fullscreenenter"",""0"",""14308""
","
","
","""event"",""trial"",""time""
""fullscreenenter"",""0"",""14308""
","
","5076.299999982119","run_exp/static/audio/clip_24_q4.m4a","49","","","","","","","","","","","","","","","","","","","","","","",""
"","correct","85","518946","0.0-52.0-0.0","""event"",""trial"",""time""
""fullscreenenter"",""0"",""14308""
","
","
","""event"",""trial"",""time""
""fullscreenenter"",""0"",""14308""
","
","null","run_exp/static/audio/clip_18_correct.m4a","null","","","","","<div class='center'><p>That's correct!</p></div>","","","","","","","","","","","","","","","","","",""
"","html-keyboard-response","86","520506","0.0-52.0-1.0","""event"",""trial"",""time""
""fullscreenenter"",""0"",""14308""
","
","
","""event"",""trial"",""time""
""fullscreenenter"",""0"",""14308""
","
","1557.9000000059605","<div class='center'><p>That's correct!</p><p><b>[Press the space bar to continue]</b></p></div>","32","","","","","","","","","","","","","","","","","","","","","","",""
"","q_all_corr","87","529028","0.0-53.0-0.0","""event"",""trial"",""time""
""fullscreenenter"",""0"",""14308""
","
","
","""event"",""trial"",""time""
""fullscreenenter"",""0"",""14308""
","
","null","run_exp/static/audio/clip_27_quiz_all_correct.m4a","null","","","","","<div class='center'><p>Good job! You’re now ready to move on to the real game! Remember this game will be difficult but don't get discouraged and try your best!</p></div>","","","","","","","","","","","","","","","","","",""
"","html-keyboard-response","88","530665","0.0-53.0-1.0","""event"",""trial"",""time""
""fullscreenenter"",""0"",""14308""
","
","
","""event"",""trial"",""time""
""fullscreenenter"",""0"",""14308""
","
","1634.7999999821186","<div class='center'><p>Good job! You’re now ready to move on to the real game! Remember this game will be difficult but don't get discouraged and try your best!</p><p><b>[Press the space bar to continue]</b></p></div>","32","","","","","","","","","","","","","","","","","","","","","","",""
"","do_welcome","89","534670","0.0-54.0-0.0","""event"",""trial"",""time""
""fullscreenenter"",""0"",""14308""
","
","
","""event"",""trial"",""time""
""fullscreenenter"",""0"",""14308""
","
","null","","","","","","","","null","","","","","","","","","","","","","","","","",""
"","do_trial","90","540115","0.0-55.0-0.0","""event"",""trial"",""time""
""fullscreenenter"",""0"",""14308""
","
","
","""event"",""trial"",""time""
""fullscreenenter"",""0"",""14308""
","
","883","","","","","","","","50","0,0,0","0","highway","0","probe-64","0.6","0.3","0.1","0","","","","","","","",""
"","html-keyboard-response","91","541135","0.0-55.0-1.0","""event"",""trial"",""time""
""fullscreenenter"",""0"",""14308""
","
","
","""event"",""trial"",""time""
""fullscreenenter"",""0"",""14308""
","
","null","<p></p>","null","","","","","","","","","","","","","","","","","","","","","","",""
"","do_trial","92","546179","0.0-56.0-0.0","""event"",""trial"",""time""
""fullscreenenter"",""0"",""14308""
","
","
","""event"",""trial"",""time""
""fullscreenenter"",""0"",""14308""
","
","484.59999999403954","","","","","","","","49","1,0,0","0","highway","1","probe-144","0.5992678932946945","0.2058819004095299","0.08762005447176531","1","","","","","","","",""
"","html-keyboard-response","93","547196","0.0-56.0-1.0","""event"",""trial"",""time""
""fullscreenenter"",""0"",""14308""
","
","
","""event"",""trial"",""time""
""fullscreenenter"",""0"",""14308""
","
","null","<p></p>","null","","","","","","","","","","","","","","","","","","","","","","",""
"","do_trial","94","552576","0.0-57.0-0.0","""event"",""trial"",""time""
""fullscreenenter"",""0"",""14308""
","
","
","""event"",""trial"",""time""
""fullscreenenter"",""0"",""14308""
","
","789.6999999880791","","","","","","","","51","1,0,0","0","highway","2","probe-176","0.5985386212227709","0.3406457626101539","0.1426927130141228","0","","","","","","","",""
"","html-keyboard-response","95","553592","0.0-57.0-1.0","""event"",""trial"",""time""
""fullscreenenter"",""0"",""14308""
","
","
","""event"",""trial"",""time""
""fullscreenenter"",""0"",""14308""
","
","null","<p></p>","null","","","","","","","","","","","","","","","","","","","","","","",""
"","do_trial","96","558552","0.0-58.0-0.0","""event"",""trial"",""time""
""fullscreenenter"",""0"",""14308""
","
","
","""event"",""trial"",""time""
""fullscreenenter"",""0"",""14308""
","
","407.09999999403954","","","","","","","","49","1,1,0","0","highway","3","probe-26","0.6247675277391764","0.25826217756353753","0.05004547579977743","1","","","","","","","",""
"","html-keyboard-response","97","559568","0.0-58.0-1.0","""event"",""trial"",""time""
""fullscreenenter"",""0"",""14308""
","
","
","""event"",""trial"",""time""
""fullscreenenter"",""0"",""14308""
","
","null","<p></p>","null","","","","","","","","","","","","","","","","","","","","","","",""
"","do_trial","98","564864","0.0-59.0-0.0","""event"",""trial"",""time""
""fullscreenenter"",""0"",""14308""
","
","
","""event"",""trial"",""time""
""fullscreenenter"",""0"",""14308""
","
","740.4000000059605","","","","","","","","50","1,0,0","0","highway","4","probe-46","0.5802230454952352","0.27449172003977906","0.06946381908485631","0","","","","","","","",""
"","html-keyboard-response","99","565881","0.0-59.0-1.0","""event"",""trial"",""time""
""fullscreenenter"",""0"",""14308""
","
","
","""event"",""trial"",""time""
""fullscreenenter"",""0"",""14308""
","
","null","<p></p>","null","","","","","","","","","","","","","","","","","","","","","","",""
"","do_trial","100","570976","0.0-60.0-0.0","""event"",""trial"",""time""
""fullscreenenter"",""0"",""14308""
","
","
","""event"",""trial"",""time""
""fullscreenenter"",""0"",""14308""
","
","513.4000000059605","","","","","","","","49","1,0,0","0","highway","5","probe-33","0.5231259064002043","0.20943025078219443","0.17657675364177336","1","","","","","","","",""
"","html-keyboard-response","101","571994","0.0-60.0-1.0","""event"",""trial"",""time""
""fullscreenenter"",""0"",""14308""
","
","
","""event"",""trial"",""time""
""fullscreenenter"",""0"",""14308""
","
","null","<p></p>","null","","","","","","","","","","","","","","","","","","","","","","",""
"","do_trial","102","577857","0.0-61.0-0.0","""event"",""trial"",""time""
""fullscreenenter"",""0"",""14308""
","
","
","""event"",""trial"",""time""
""fullscreenenter"",""0"",""14308""
","
","1273.199999988079","","","","","","","","49","1,0,0","0","highway","6","probe-159","0.6506932926461403","0.1832749655013887","0.13687958718589033","1","","","","","","","",""
"","html-keyboard-response","103","578875","0.0-61.0-1.0","""event"",""trial"",""time""
""fullscreenenter"",""0"",""14308""
","
","
","""event"",""trial"",""time""
""fullscreenenter"",""0"",""14308""
","
","null","<p></p>","null","","","","","","","","","","","","","","","","","","","","","","",""
"","do_trial","104","583870","0.0-62.0-0.0","""event"",""trial"",""time""
""fullscreenenter"",""0"",""14308""
","
","
","""event"",""trial"",""time""
""fullscreenenter"",""0"",""14308""
","
","424.19999998807907","","","","","","","","51","0,1,0","0","highway","7","probe-174","0.724691726577583","0.2367799460761344","0.14017814236253207","0","","","","","","","",""
"","html-keyboard-response","105","584887","0.0-62.0-1.0","""event"",""trial"",""time""
""fullscreenenter"",""0"",""14308""
","
","
","""event"",""trial"",""time""
""fullscreenenter"",""0"",""14308""
","
","null","<p></p>","null","","","","","","","","","","","","","","","","","","","","","","",""
"","do_trial","106","589967","0.0-63.0-0.0","""event"",""trial"",""time""
""fullscreenenter"",""0"",""14308""
","
","
","""event"",""trial"",""time""
""fullscreenenter"",""0"",""14308""
","
","504.40000000596046","","","","","","","","49","1,0,0","0","highway","8","probe-156","0.7845529390688702","0.2783641359483463","0.17540680869864855","1","","","","","","","",""
"","html-keyboard-response","107","590984","0.0-63.0-1.0","""event"",""trial"",""time""
""fullscreenenter"",""0"",""14308""
","
","
","""event"",""trial"",""time""
""fullscreenenter"",""0"",""14308""
","
","null","<p></p>","null","","","","","","","","","","","","","","","","","","","","","","",""
"","do_trial","108","596010","0.0-64.0-0.0","""event"",""trial"",""time""
""fullscreenenter"",""0"",""14308""
","
","
","""event"",""trial"",""time""
""fullscreenenter"",""0"",""14308""
","
","471.09999999403954","","","","","","","","49","0,0,1","0","highway","9","probe-188","0.6367235112155775","0.2924030894896167","0.2156706852995859","0","","","","","","","",""
"","html-keyboard-response","109","597027","0.0-64.0-1.0","""event"",""trial"",""time""
""fullscreenenter"",""0"",""14308""
","
","
","""event"",""trial"",""time""
""fullscreenenter"",""0"",""14308""
","
","null","<p></p>","null","","","","","","","","","","","","","","","","","","","","","","",""
"","do_trial","110","601953","0.0-65.0-0.0","""event"",""trial"",""time""
""fullscreenenter"",""0"",""14308""
","
","
","""event"",""trial"",""time""
""fullscreenenter"",""0"",""14308""
","
","363.5","","","","","","","","50","1,1,1","0","highway","10","probe-165","0.5473150472996626","0.2994850980698477","0.17415663307082224","1","","","","","","","",""
"","html-keyboard-response","111","602956","0.0-65.0-1.0","""event"",""trial"",""time""
""fullscreenenter"",""0"",""14308""
","
","
","""event"",""trial"",""time""
""fullscreenenter"",""0"",""14308""
","
","null","<p></p>","null","","","","","","","","","","","","","","","","","","","","","","",""
"","do_trial","112","607919","0.0-66.0-0.0","""event"",""trial"",""time""
""fullscreenenter"",""0"",""14308""
","
","
","""event"",""trial"",""time""
""fullscreenenter"",""0"",""14308""
","
","411.39999997615814","","","","","","","","50","1,0,0","0","highway","11","probe-66","0.5037443445047555","0.3788778667217351","0.15957500944039937","0","","","","","","","",""
"","html-keyboard-response","113","608937","0.0-66.0-1.0","""event"",""trial"",""time""
""fullscreenenter"",""0"",""14308""
","
","
","""event"",""trial"",""time""
""fullscreenenter"",""0"",""14308""
","
","null","<p></p>","null","","","","","","","","","","","","","","","","","","","","","","",""
"","do_trial","114","613864","0.0-67.0-0.0","""event"",""trial"",""time""
""fullscreenenter"",""0"",""14308""
","
","
","""event"",""trial"",""time""
""fullscreenenter"",""0"",""14308""
","
","347.30000001192093","","","","","","","","51","1,1,0","0","highway","12","probe-118","0.5335311748993443","0.4076890846453496","0.14963506972777674","0","","","","","","","",""
"","html-keyboard-response","115","614870","0.0-67.0-1.0","""event"",""trial"",""time""
""fullscreenenter"",""0"",""14308""
","
","
","""event"",""trial"",""time""
""fullscreenenter"",""0"",""14308""
","
","null","<p></p>","null","","","","","","","","","","","","","","","","","","","","","","",""
"","do_trial","116","619877","0.0-68.0-0.0","""event"",""trial"",""time""
""fullscreenenter"",""0"",""14308""
","
","
","""event"",""trial"",""time""
""fullscreenenter"",""0"",""14308""
","
","432.80000001192093","","","","","","","","49","0,0,0","0","highway","13","probe-114","0.693182156478185","0.44785167204218407","0.1483825857937445","0","","","","","","","",""
"","html-keyboard-response","117","620883","0.0-68.0-1.0","""event"",""trial"",""time""
""fullscreenenter"",""0"",""14308""
","
","
","""event"",""trial"",""time""
""fullscreenenter"",""0"",""14308""
","
","null","<p></p>","null","","","","","","","","","","","","","","","","","","","","","","",""
"","do_trial","118","625841","0.0-69.0-0.0","""event"",""trial"",""time""
""fullscreenenter"",""0"",""14308""
","
","
","""event"",""trial"",""time""
""fullscreenenter"",""0"",""14308""
","
","396.19999998807907","","","","","","","","50","1,0,0","0","highway","14","probe-177","0.5521956172932803","0.45698745450850636","0.13205961470389319","0","","","","","","","",""
"","html-keyboard-response","119","626843","0.0-69.0-1.0","""event"",""trial"",""time""
""fullscreenenter"",""0"",""14308""
","
","
","""event"",""trial"",""time""
""fullscreenenter"",""0"",""14308""
","
","null","<p></p>","null","","","","","","","","","","","","","","","","","","","","","","",""
"","do_trial","120","631717","0.0-70.0-0.0","""event"",""trial"",""time""
""fullscreenenter"",""0"",""14308""
","
","
","""event"",""trial"",""time""
""fullscreenenter"",""0"",""14308""
","
","327.59999999403954","","","","","","","","50","1,0,0","0","highway","15","probe-141","0.4816925593647175","0.39837008758830034","0.1321679105271518","0","","","","","","","",""
"","html-keyboard-response","121","632734","0.0-70.0-1.0","""event"",""trial"",""time""
""fullscreenenter"",""0"",""14308""
","
","
","""event"",""trial"",""time""
""fullscreenenter"",""0"",""14308""
","
","null","<p></p>","null","","","","","","","","","","","","","","","","","","","","","","",""
"","do_trial","122","637800","0.0-71.0-0.0","""event"",""trial"",""time""
""fullscreenenter"",""0"",""14308""
","
","
","""event"",""trial"",""time""
""fullscreenenter"",""0"",""14308""
","
","456.30000001192093","","","","","","","","51","1,1,0","0","highway","16","probe-184","0.6205591702679475","0.4868748669556083","0.21108494192315974","0","","","","","","","",""
"","html-keyboard-response","123","638816","0.0-71.0-1.0","""event"",""trial"",""time""
""fullscreenenter"",""0"",""14308""
","
","
","""event"",""trial"",""time""
""fullscreenenter"",""0"",""14308""
","
","null","<p></p>","null","","","","","","","","","","","","","","","","","","","","","","",""
"","do_trial","124","643666","0.0-72.0-0.0","""event"",""trial"",""time""
""fullscreenenter"",""0"",""14308""
","
","
","""event"",""trial"",""time""
""fullscreenenter"",""0"",""14308""
","
","256.19999998807907","","","","","","","","49","0,0,0","0","highway","17","probe-214","0.6631210137480729","0.41243595460525223","0.161054570401257","0","","","","","","","",""
"","html-keyboard-response","125","644684","0.0-72.0-1.0","""event"",""trial"",""time""
""fullscreenenter"",""0"",""14308""
","
","
","""event"",""trial"",""time""
""fullscreenenter"",""0"",""14308""
","
","null","<p></p>","null","","","","","","","","","","","","","","","","","","","","","","",""
"","do_trial","126","649625","0.0-73.0-0.0","""event"",""trial"",""time""
""fullscreenenter"",""0"",""14308""
","
","
","""event"",""trial"",""time""
""fullscreenenter"",""0"",""14308""
","
","392","","","","","","","","49","1,0,0","0","highway","18","probe-207","0.6660467110393883","0.39453874736216415","0.11799132403584044","1","","","","","","","",""
"","html-keyboard-response","127","650643","0.0-73.0-1.0","""event"",""trial"",""time""
""fullscreenenter"",""0"",""14308""
","
","
","""event"",""trial"",""time""
""fullscreenenter"",""0"",""14308""
","
","null","<p></p>","null","","","","","","","","","","","","","","","","","","","","","","",""
"","do_trial","128","655669","0.0-74.0-0.0","""event"",""trial"",""time""
""fullscreenenter"",""0"",""14308""
","
","
","""event"",""trial"",""time""
""fullscreenenter"",""0"",""14308""
","
","411.59999999403954","","","","","","","","49","1,0,1","0","highway","19","probe-126","0.5522965786671409","0.3249474928589387","0.1663453056437471","1","","","","","","","",""
"","html-keyboard-response","129","656687","0.0-74.0-1.0","""event"",""trial"",""time""
""fullscreenenter"",""0"",""14308""
","
","
","""event"",""trial"",""time""
""fullscreenenter"",""0"",""14308""
","
","null","<p></p>","null","","","","","","","","","","","","","","","","","","","","","","",""
"","do_trial","130","661753","0.0-75.0-0.0","""event"",""trial"",""time""
""fullscreenenter"",""0"",""14308""
","
","
","""event"",""trial"",""time""
""fullscreenenter"",""0"",""14308""
","
","513.7999999821186","","","","","","","","49","1,0,1","0","highway","20","probe-95","0.5444098483568768","0.40130816727413016","0.11182164544884234","1","","","","","","","",""
"","html-keyboard-response","131","662771","0.0-75.0-1.0","""event"",""trial"",""time""
""fullscreenenter"",""0"",""14308""
","
","
","""event"",""trial"",""time""
""fullscreenenter"",""0"",""14308""
","
","null","<p></p>","null","","","","","","","","","","","","","","","","","","","","","","",""
"","do_trial","132","667767","0.0-76.0-0.0","""event"",""trial"",""time""
""fullscreenenter"",""0"",""14308""
","
","
","""event"",""trial"",""time""
""fullscreenenter"",""0"",""14308""
","
","396.2999999821186","","","","","","","","49","0,1,1","0","highway","21","probe-49","0.49917807245346496","0.4438666921354235","0.07597796499629274","0","","","","","","","",""
"","html-keyboard-response","133","668769","0.0-76.0-1.0","""event"",""trial"",""time""
""fullscreenenter"",""0"",""14308""
","
","
","""event"",""trial"",""time""
""fullscreenenter"",""0"",""14308""
","
","null","<p></p>","null","","","","","","","","","","","","","","","","","","","","","","",""
"","do_trial","134","673763","0.0-77.0-0.0","""event"",""trial"",""time""
""fullscreenenter"",""0"",""14308""
","
","
","""event"",""trial"",""time""
""fullscreenenter"",""0"",""14308""
","
","446.5","","","","","","","","50","1,0,0","0","highway","22","probe-105","0.656800357518452","0.26502642925644426","0.13181246311916175","0","","","","","","","",""
"","html-keyboard-response","135","674781","0.0-77.0-1.0","""event"",""trial"",""time""
""fullscreenenter"",""0"",""14308""
","
","
","""event"",""trial"",""time""
""fullscreenenter"",""0"",""14308""
","
","null","<p></p>","null","","","","","","","","","","","","","","","","","","","","","","",""
"","do_trial","136","679659","0.0-78.0-0.0","""event"",""trial"",""time""
""fullscreenenter"",""0"",""14308""
","
","
","""event"",""trial"",""time""
""fullscreenenter"",""0"",""14308""
","
","315.7000000178814","","","","","","","","50","1,0,0","0","highway","23","probe-53","0.6122817039511866","0.3599281095046793","0.10118787050581811","0","","","","","","","",""
"","html-keyboard-response","137","680674","0.0-78.0-1.0","""event"",""trial"",""time""
""fullscreenenter"",""0"",""14308""
","
","
","""event"",""trial"",""time""
""fullscreenenter"",""0"",""14308""
","
","null","<p></p>","null","","","","","","","","","","","","","","","","","","","","","","",""
"","do_trial","138","685686","0.0-79.0-0.0","""event"",""trial"",""time""
""fullscreenenter"",""0"",""14308""
","
","
","""event"",""trial"",""time""
""fullscreenenter"",""0"",""14308""
","
","454.90000000596046","","","","","","","","50","1,0,1","0","highway","24","probe-175","0.6017141541529293","0.23215958442635248","0.07882322633326241","0","","","","","","","",""
"","html-keyboard-response","139","686704","0.0-79.0-1.0","""event"",""trial"",""time""
""fullscreenenter"",""0"",""14308""
","
","
","""event"",""trial"",""time""
""fullscreenenter"",""0"",""14308""
","
","null","<p></p>","null","","","","","","","","","","","","","","","","","","","","","","",""
"","do_trial","140","691600","0.0-80.0-0.0","""event"",""trial"",""time""
""fullscreenenter"",""0"",""14308""
","
","
","""event"",""trial"",""time""
""fullscreenenter"",""0"",""14308""
","
","336","","","","","","","","51","1,0,0","0","highway","25","probe-224","0.5493135618791984","0.18523527508310614","0.22253962927510937","0","","","","","","","",""
"","html-keyboard-response","141","692617","0.0-80.0-1.0","""event"",""trial"",""time""
""fullscreenenter"",""0"",""14308""
","
","
","""event"",""trial"",""time""
""fullscreenenter"",""0"",""14308""
","
","null","<p></p>","null","","","","","","","","","","","","","","","","","","","","","","",""
"","do_trial","142","697644","0.0-81.0-0.0","""event"",""trial"",""time""
""fullscreenenter"",""0"",""14308""
","
","
","""event"",""trial"",""time""
""fullscreenenter"",""0"",""14308""
","
","448.90000000596046","","","","","","","","51","0,0,0","0","highway","26","probe-163","0.6235863631955085","0.2706084559049112","0.11478539808643538","0","","","","","","","",""
"","html-keyboard-response","143","698662","0.0-81.0-1.0","""event"",""trial"",""time""
""fullscreenenter"",""0"",""14308""
","
","
","""event"",""trial"",""time""
""fullscreenenter"",""0"",""14308""
","
","null","<p></p>","null","","","","","","","","","","","","","","","","","","","","","","",""
"","do_trial","144","703603","0.0-82.0-0.0","""event"",""trial"",""time""
""fullscreenenter"",""0"",""14308""
","
","
","""event"",""trial"",""time""
""fullscreenenter"",""0"",""14308""
","
","393","","","","","","","","51","1,0,0","0","highway","27","probe-187","0.769981266541336","0.23562462779882132","0.12742846933238106","0","","","","","","","",""
"","html-keyboard-response","145","704607","0.0-82.0-1.0","""event"",""trial"",""time""
""fullscreenenter"",""0"",""14308""
","
","
","""event"",""trial"",""time""
""fullscreenenter"",""0"",""14308""
","
","null","<p></p>","null","","","","","","","","","","","","","","","","","","","","","","",""
"","do_trial","146","709719","0.0-83.0-0.0","""event"",""trial"",""time""
""fullscreenenter"",""0"",""14308""
","
","
","""event"",""trial"",""time""
""fullscreenenter"",""0"",""14308""
","
","505.59999999403954","","","","","","","","49","1,0,0","0","highway","28","probe-54","0.7862083028612413","0.1351133782478912","0.05955112067670071","1","","","","","","","",""
"","html-keyboard-response","147","710742","0.0-83.0-1.0","""event"",""trial"",""time""
""fullscreenenter"",""0"",""14308""
","
","
","""event"",""trial"",""time""
""fullscreenenter"",""0"",""14308""
","
","null","<p></p>","null","","","","","","","","","","","","","","","","","","","","","","",""
"","do_trial","148","715652","0.0-84.0-0.0","""event"",""trial"",""time""
""fullscreenenter"",""0"",""14308""
","
","
","""event"",""trial"",""time""
""fullscreenenter"",""0"",""14308""
","
","325.7000000178814","","","","","","","","49","1,1,0","0","highway","29","probe-216","0.7948024712914833","0.18225855732490348","0.07160175005588036","1","","","","","","","",""
"","html-keyboard-response","149","716670","0.0-84.0-1.0","""event"",""trial"",""time""
""fullscreenenter"",""0"",""14308""
","
","
","""event"",""trial"",""time""
""fullscreenenter"",""0"",""14308""
","
","null","<p></p>","null","","","","","","","","","","","","","","","","","","","","","","",""
"","do_bye","150","718188","0.0-85.0-0.0","""event"",""trial"",""time""
""fullscreenenter"",""0"",""14308""
","
","
","""event"",""trial"",""time""
""fullscreenenter"",""0"",""14308""
","
","null","","","","","","","","null","","","","","","","","","","","","","","","","",""
"","break","151","725536","0.0-85.0-1.0","""event"",""trial"",""time""
""fullscreenenter"",""0"",""14308""
","
","
","""event"",""trial"",""time""
""fullscreenenter"",""0"",""14308""
","
","7343.799999982119","<div class='center'><p>Time to take a quick break! You have 2 minutes to rest, but you can move on sooner if you'd like.</p><p> Press the <b>space bar</b> to continue.</p></div>","32","","","","","","","","","","","","","","","","","","","","","","",""
"","do_travel","152","734539","0.0-86.0-0.0","""event"",""trial"",""time""
""fullscreenenter"",""0"",""14308""
","
","
","""event"",""trial"",""time""
""fullscreenenter"",""0"",""14308""
","
","null","","","","","","","","null","","","","","","","","","","","","","","","","",""
"","do_welcome","153","738548","0.0-86.0-1.0","""event"",""trial"",""time""
""fullscreenenter"",""0"",""14308""
","
","
","""event"",""trial"",""time""
""fullscreenenter"",""0"",""14308""
","
","null","","","","","","","","null","","","","","","","","","","","","","","","","",""
"","do_trial","154","744523","0.0-87.0-0.0","""event"",""trial"",""time""
""fullscreenenter"",""0"",""14308""
","
","
","""event"",""trial"",""time""
""fullscreenenter"",""0"",""14308""
","
","1408.199999988079","","","","","","","","49","1,0,0","1","city","30","probe-211","1","0.23443833209789483","0.12096775521357951","1","","","","","","","",""
"","html-keyboard-response","155","745530","0.0-87.0-1.0","""event"",""trial"",""time""
""fullscreenenter"",""0"",""14308""
","
","
","""event"",""trial"",""time""
""fullscreenenter"",""0"",""14308""
","
","null","<p></p>","null","","","","","","","","","","","","","","","","","","","","","","",""
"","do_trial","156","750269","0.0-88.0-0.0","""event"",""trial"",""time""
""fullscreenenter"",""0"",""14308""
","
","
","""event"",""trial"",""time""
""fullscreenenter"",""0"",""14308""
","
","157.69999998807907","","","","","","","","49","1,1,1","1","city","31","probe-199","1","0.32510811859210426","0.20859506965751615","1","","","","","","","",""
"","html-keyboard-response","157","751276","0.0-88.0-1.0","""event"",""trial"",""time""
""fullscreenenter"",""0"",""14308""
","
","
","""event"",""trial"",""time""
""fullscreenenter"",""0"",""14308""
","
","null","<p></p>","null","","","","","","","","","","","","","","","","","","","","","","",""
"","do_trial","158","756250","0.0-89.0-0.0","""event"",""trial"",""time""
""fullscreenenter"",""0"",""14308""
","
","
","""event"",""trial"",""time""
""fullscreenenter"",""0"",""14308""
","
","381.59999999403954","","","","","","","","50","1,1,0","1","city","32","probe-34","1","0.5361576053627163","0.14410124261693746","1","","","","","","","",""
"","html-keyboard-response","159","757257","0.0-89.0-1.0","""event"",""trial"",""time""
""fullscreenenter"",""0"",""14308""
","
","
","""event"",""trial"",""time""
""fullscreenenter"",""0"",""14308""
","
","null","<p></p>","null","","","","","","","","","","","","","","","","","","","","","","",""
"","do_trial","160","762313","0.0-90.0-0.0","""event"",""trial"",""time""
""fullscreenenter"",""0"",""14308""
","
","
","""event"",""trial"",""time""
""fullscreenenter"",""0"",""14308""
","
","498.80000001192093","","","","","","","","51","0,1,1","1","city","33","probe-219","0.7642231686543629","0.567493688169736","0.12956270095295058","1","","","","","","","",""
"","html-keyboard-response","161","763332","0.0-90.0-1.0","""event"",""trial"",""time""
""fullscreenenter"",""0"",""14308""
","
","
","""event"",""trial"",""time""
""fullscreenenter"",""0"",""14308""
","
","null","<p></p>","null","","","","","","","","","","","","","","","","","","","","","","",""
"","do_trial","162","768321","0.0-91.0-0.0","""event"",""trial"",""time""
""fullscreenenter"",""0"",""14308""
","
","
","""event"",""trial"",""time""
""fullscreenenter"",""0"",""14308""
","
","397.09999999403954","","","","","","","","51","0,0,0","1","city","34","probe-99","0.6857013729185231","0.4524700529141736","0.08330144473340789","0","","","","","","","",""
"","html-keyboard-response","163","769328","0.0-91.0-1.0","""event"",""trial"",""time""
""fullscreenenter"",""0"",""14308""
","
","
","""event"",""trial"",""time""
""fullscreenenter"",""0"",""14308""
","
","null","<p></p>","null","","","","","","","","","","","","","","","","","","","","","","",""
"","do_trial","164","774286","0.0-92.0-0.0","""event"",""trial"",""time""
""fullscreenenter"",""0"",""14308""
","
","
","""event"",""trial"",""time""
""fullscreenenter"",""0"",""14308""
","
","360.2999999821186","","","","","","","","50","1,0,0","1","city","35","probe-142","0.6758274512315184","0.3895188627119773","0.09505723084393847","0","","","","","","","",""
"","html-keyboard-response","165","775293","0.0-92.0-1.0","""event"",""trial"",""time""
""fullscreenenter"",""0"",""14308""
","
","
","""event"",""trial"",""time""
""fullscreenenter"",""0"",""14308""
","
","null","<p></p>","null","","","","","","","","","","","","","","","","","","","","","","",""
"","do_trial","166","780298","0.0-93.0-0.0","""event"",""trial"",""time""
""fullscreenenter"",""0"",""14308""
","
","
","""event"",""trial"",""time""
""fullscreenenter"",""0"",""14308""
","
","393.10000002384186","","","","","","","","49","0,0,0","1","city","36","probe-148","0.5521196915533515","0.30869280053741227","0.12137067478076453","0","","","","","","","",""
"","html-keyboard-response","167","781305","0.0-93.0-1.0","""event"",""trial"",""time""
""fullscreenenter"",""0"",""14308""
","
","
","""event"",""trial"",""time""
""fullscreenenter"",""0"",""14308""
","
","null","<p></p>","null","","","","","","","","","","","","","","","","","","","","","","",""
"","do_trial","168","786294","0.0-94.0-0.0","""event"",""trial"",""time""
""fullscreenenter"",""0"",""14308""
","
","
","""event"",""trial"",""time""
""fullscreenenter"",""0"",""14308""
","
","438.40000000596046","","","","","","","","50","1,0,0","1","city","37","probe-191","0.6454619208900555","0.3819055674719238","0.09603772098257812","0","","","","","","","",""
"","html-keyboard-response","169","787317","0.0-94.0-1.0","""event"",""trial"",""time""
""fullscreenenter"",""0"",""14308""
","
","
","""event"",""trial"",""time""
""fullscreenenter"",""0"",""14308""
","
","null","<p></p>","null","","","","","","","","","","","","","","","","","","","","","","",""
"","do_trial","170","792338","0.0-95.0-0.0","""event"",""trial"",""time""
""fullscreenenter"",""0"",""14308""
","
","
","""event"",""trial"",""time""
""fullscreenenter"",""0"",""14308""
","
","425","","","","","","","","51","0,0,0","1","city","38","probe-92","0.5138582922599233","0.26645075981987","0.0675358029327201","0","","","","","","","",""
"","html-keyboard-response","171","793344","0.0-95.0-1.0","""event"",""trial"",""time""
""fullscreenenter"",""0"",""14308""
","
","
","""event"",""trial"",""time""
""fullscreenenter"",""0"",""14308""
","
","null","<p></p>","null","","","","","","","","","","","","","","","","","","","","","","",""
"","do_trial","172","798402","0.0-96.0-0.0","""event"",""trial"",""time""
""fullscreenenter"",""0"",""14308""
","
","
","""event"",""trial"",""time""
""fullscreenenter"",""0"",""14308""
","
","485.19999998807907","","","","","","","","51","1,1,0","1","city","39","probe-91","0.5822636208857047","0.19385267173041204","0.2041703906473054","0","","","","","","","",""
"","html-keyboard-response","173","799419","0.0-96.0-1.0","""event"",""trial"",""time""
""fullscreenenter"",""0"",""14308""
","
","
","""event"",""trial"",""time""
""fullscreenenter"",""0"",""14308""
","
","null","<p></p>","null","","","","","","","","","","","","","","","","","","","","","","",""
"","do_trial","174","804407","0.0-97.0-0.0","""event"",""trial"",""time""
""fullscreenenter"",""0"",""14308""
","
","
","""event"",""trial"",""time""
""fullscreenenter"",""0"",""14308""
","
","437.09999999403954","","","","","","","","51","1,0,0","1","city","40","probe-162","0.6457530458991767","0.25582508592755215","0.24592594985709643","0","","","","","","","",""
"","html-keyboard-response","175","805414","0.0-97.0-1.0","""event"",""trial"",""time""
""fullscreenenter"",""0"",""14308""
","
","
","""event"",""trial"",""time""
""fullscreenenter"",""0"",""14308""
","
","null","<p></p>","null","","","","","","","","","","","","","","","","","","","","","","",""
"","do_trial","176","810605","0.0-98.0-0.0","""event"",""trial"",""time""
""fullscreenenter"",""0"",""14308""
","
","
","""event"",""trial"",""time""
""fullscreenenter"",""0"",""14308""
","
","622.4000000059605","","","","","","","","51","1,0,1","1","city","41","probe-76","0.7200256688067903","0.20855390146843428","0.2643745242727691","1","","","","","","","",""
"","html-keyboard-response","177","811619","0.0-98.0-1.0","""event"",""trial"",""time""
""fullscreenenter"",""0"",""14308""
","
","
","""event"",""trial"",""time""
""fullscreenenter"",""0"",""14308""
","
","null","<p></p>","null","","","","","","","","","","","","","","","","","","","","","","",""
"","do_trial","178","816707","0.0-99.0-0.0","""event"",""trial"",""time""
""fullscreenenter"",""0"",""14308""
","
","
","""event"",""trial"",""time""
""fullscreenenter"",""0"",""14308""
","
","500.09999999403954","","","","","","","","51","1,0,1","1","city","42","probe-195","0.6181209290766182","0.42333023868414493","0.31233495042974396","1","","","","","","","",""
"","html-keyboard-response","179","817721","0.0-99.0-1.0","""event"",""trial"",""time""
""fullscreenenter"",""0"",""14308""
","
","
","""event"",""trial"",""time""
""fullscreenenter"",""0"",""14308""
","
","null","<p></p>","null","","","","","","","","","","","","","","","","","","","","","","",""
"","do_trial","180","823305","0.0-100.0-0.0","""event"",""trial"",""time""
""fullscreenenter"",""0"",""14308""
","
","
","""event"",""trial"",""time""
""fullscreenenter"",""0"",""14308""
","
","1021.8000000119209","","","","","","","","51","1,0,0","1","city","43","probe-213","0.419747690611616","0.5507721178364373","0.2573698219392926","0","","","","","","","",""
"","html-keyboard-response","181","824322","0.0-100.0-1.0","""event"",""trial"",""time""
""fullscreenenter"",""0"",""14308""
","
","
","""event"",""trial"",""time""
""fullscreenenter"",""0"",""14308""
","
","null","<p></p>","null","","","","","","","","","","","","","","","","","","","","","","",""
"","do_trial","182","829237","0.0-101.0-0.0","""event"",""trial"",""time""
""fullscreenenter"",""0"",""14308""
","
","
","""event"",""trial"",""time""
""fullscreenenter"",""0"",""14308""
","
","341.09999999403954","","","","","","","","50","0,1,0","1","city","44","probe-107","0.541236388462353","0.6718905948924716","0.21955618944097452","1","","","","","","","",""
"","html-keyboard-response","183","830254","0.0-101.0-1.0","""event"",""trial"",""time""
""fullscreenenter"",""0"",""14308""
","
","
","""event"",""trial"",""time""
""fullscreenenter"",""0"",""14308""
","
","null","<p></p>","null","","","","","","","","","","","","","","","","","","","","","","",""
"","do_trial","184","835236","0.0-102.0-0.0","""event"",""trial"",""time""
""fullscreenenter"",""0"",""14308""
","
","
","""event"",""trial"",""time""
""fullscreenenter"",""0"",""14308""
","
","366.69999998807907","","","","","","","","50","0,1,0","1","city","45","probe-192","0.41140781368804324","0.6261686946345095","0.10685101301727792","1","","","","","","","",""
"","html-keyboard-response","185","836254","0.0-102.0-1.0","""event"",""trial"",""time""
""fullscreenenter"",""0"",""14308""
","
","
","""event"",""trial"",""time""
""fullscreenenter"",""0"",""14308""
","
","null","<p></p>","null","","","","","","","","","","","","","","","","","","","","","","",""
"","do_trial","186","841334","0.0-103.0-0.0","""event"",""trial"",""time""
""fullscreenenter"",""0"",""14308""
","
","
","""event"",""trial"",""time""
""fullscreenenter"",""0"",""14308""
","
","512.8000000119209","","","","","","","","50","1,1,0","1","city","46","probe-108","0.24593335541913625","0.504376211367752","0.18261284007039869","1","","","","","","","",""
"","html-keyboard-response","187","842352","0.0-103.0-1.0","""event"",""trial"",""time""
""fullscreenenter"",""0"",""14308""
","
","
","""event"",""trial"",""time""
""fullscreenenter"",""0"",""14308""
","
","null","<p></p>","null","","","","","","","","","","","","","","","","","","","","","","",""
"","do_trial","188","847262","0.0-104.0-0.0","""event"",""trial"",""time""
""fullscreenenter"",""0"",""14308""
","
","
","""event"",""trial"",""time""
""fullscreenenter"",""0"",""14308""
","
","353.09999999403954","","","","","","","","50","0,1,0","1","city","47","probe-85","0.3322914214637136","0.43494521871569625","0.08129452952583029","1","","","","","","","",""
"","html-keyboard-response","189","848279","0.0-104.0-1.0","""event"",""trial"",""time""
""fullscreenenter"",""0"",""14308""
","
","
","""event"",""trial"",""time""
""fullscreenenter"",""0"",""14308""
","
","null","<p></p>","null","","","","","","","","","","","","","","","","","","","","","","",""
"","do_trial","190","853525","0.0-105.0-0.0","""event"",""trial"",""time""
""fullscreenenter"",""0"",""14308""
","
","
","""event"",""trial"",""time""
""fullscreenenter"",""0"",""14308""
","
","699.9000000059605","","","","","","","","50","0,1,0","1","city","48","probe-198","0.24008582275486742","0.6559247631476793","0.12729683474583475","1","","","","","","","",""
"","html-keyboard-response","191","854538","0.0-105.0-1.0","""event"",""trial"",""time""
""fullscreenenter"",""0"",""14308""
","
","
","""event"",""trial"",""time""
""fullscreenenter"",""0"",""14308""
","
","null","<p></p>","null","","","","","","","","","","","","","","","","","","","","","","",""
"","do_trial","192","859687","0.0-106.0-0.0","""event"",""trial"",""time""
""fullscreenenter"",""0"",""14308""
","
","
","""event"",""trial"",""time""
""fullscreenenter"",""0"",""14308""
","
","591.3000000119209","","","","","","","","50","0,0,0","1","city","49","probe-84","0.39743684157535536","0.7105461054297382","0.09093778901177352","0","","","","","","","",""
"","html-keyboard-response","193","860705","0.0-106.0-1.0","""event"",""trial"",""time""
""fullscreenenter"",""0"",""14308""
","
","
","""event"",""trial"",""time""
""fullscreenenter"",""0"",""14308""
","
","null","<p></p>","null","","","","","","","","","","","","","","","","","","","","","","",""
"","do_trial","194","865616","0.0-107.0-0.0","""event"",""trial"",""time""
""fullscreenenter"",""0"",""14308""
","
","
","""event"",""trial"",""time""
""fullscreenenter"",""0"",""14308""
","
","355.5","","","","","","","","49","1,1,0","1","city","50","probe-116","0.3676537199326732","0.6856596373183972","0.13866730451341766","1","","","","","","","",""
"","html-keyboard-response","195","866632","0.0-107.0-1.0","""event"",""trial"",""time""
""fullscreenenter"",""0"",""14308""
","
","
","""event"",""trial"",""time""
""fullscreenenter"",""0"",""14308""
","
","null","<p></p>","null","","","","","","","","","","","","","","","","","","","","","","",""
"","do_trial","196","871627","0.0-108.0-0.0","""event"",""trial"",""time""
""fullscreenenter"",""0"",""14308""
","
","
","""event"",""trial"",""time""
""fullscreenenter"",""0"",""14308""
","
","440.90000000596046","","","","","","","","49","0,1,0","1","city","51","probe-169","0.42633145936868505","0.6831089134713467","0.12239547465302295","0","","","","","","","",""
"","html-keyboard-response","197","872630","0.0-108.0-1.0","""event"",""trial"",""time""
""fullscreenenter"",""0"",""14308""
","
","
","""event"",""trial"",""time""
""fullscreenenter"",""0"",""14308""
","
","null","<p></p>","null","","","","","","","","","","","","","","","","","","","","","","",""
"","do_trial","198","877774","0.0-109.0-0.0","""event"",""trial"",""time""
""fullscreenenter"",""0"",""14308""
","
","
","""event"",""trial"",""time""
""fullscreenenter"",""0"",""14308""
","
","556.0999999940395","","","","","","","","49","0,1,1","1","city","52","probe-178","0.35808124875194997","0.6438921019269244","0.10492195858163117","0","","","","","","","",""
"","html-keyboard-response","199","878793","0.0-109.0-1.0","""event"",""trial"",""time""
""fullscreenenter"",""0"",""14308""
","
","
","""event"",""trial"",""time""
""fullscreenenter"",""0"",""14308""
","
","null","<p></p>","null","","","","","","","","","","","","","","","","","","","","","","",""
"","do_trial","200","884041","0.0-110.0-0.0","""event"",""trial"",""time""
""fullscreenenter"",""0"",""14308""
","
","
","""event"",""trial"",""time""
""fullscreenenter"",""0"",""14308""
","
","688.0999999940395","","","","","","","","49","0,1,1","1","city","53","probe-158","0.30573803525479115","0.569639398547819","0.12702280784823522","0","","","","","","","",""
"","html-keyboard-response","201","885058","0.0-110.0-1.0","""event"",""trial"",""time""
""fullscreenenter"",""0"",""14308""
","
","
","""event"",""trial"",""time""
""fullscreenenter"",""0"",""14308""
","
","null","<p></p>","null","","","","","","","","","","","","","","","","","","","","","","",""
"","do_trial","202","890156","0.0-111.0-0.0","""event"",""trial"",""time""
""fullscreenenter"",""0"",""14308""
","
","
","""event"",""trial"",""time""
""fullscreenenter"",""0"",""14308""
","
","543.9000000059605","","","","","","","","50","1,1,0","1","city","54","probe-25","0.24213846357529353","0.6192628517857485","0.10438875992530226","1","","","","","","","",""
"","html-keyboard-response","203","891174","0.0-111.0-1.0","""event"",""trial"",""time""
""fullscreenenter"",""0"",""14308""
","
","
","""event"",""trial"",""time""
""fullscreenenter"",""0"",""14308""
","
","null","<p></p>","null","","","","","","","","","","","","","","","","","","","","","","",""
"","do_trial","204","896272","0.0-112.0-0.0","""event"",""trial"",""time""
""fullscreenenter"",""0"",""14308""
","
","
","""event"",""trial"",""time""
""fullscreenenter"",""0"",""14308""
","
","530.1999999880791","","","","","","","","50","0,0,0","1","city","55","probe-189","0.3289114664149153","0.7445331151895465","0.10443500008192148","0","","","","","","","",""
"","html-keyboard-response","205","897291","0.0-112.0-1.0","""event"",""trial"",""time""
""fullscreenenter"",""0"",""14308""
","
","
","""event"",""trial"",""time""
""fullscreenenter"",""0"",""14308""
","
","null","<p></p>","null","","","","","","","","","","","","","","","","","","","","","","",""
"","do_trial","206","902302","0.0-113.0-0.0","""event"",""trial"",""time""
""fullscreenenter"",""0"",""14308""
","
","
","""event"",""trial"",""time""
""fullscreenenter"",""0"",""14308""
","
","451.80000001192093","","","","","","","","51","0,1,1","1","city","56","probe-60","0.322282293515911","0.5302092692400037","0.08144069715552504","1","","","","","","","",""
"","html-keyboard-response","207","903319","0.0-113.0-1.0","""event"",""trial"",""time""
""fullscreenenter"",""0"",""14308""
","
","
","""event"",""trial"",""time""
""fullscreenenter"",""0"",""14308""
","
","null","<p></p>","null","","","","","","","","","","","","","","","","","","","","","","",""
"","do_trial","208","908434","0.0-114.0-0.0","""event"",""trial"",""time""
""fullscreenenter"",""0"",""14308""
","
","
","""event"",""trial"",""time""
""fullscreenenter"",""0"",""14308""
","
","523.5","","","","","","","","51","0,1,0","1","city","57","probe-30","0.23986507805832932","0.3766154910904565","0.10874721355620831","0","","","","","","","",""
"","html-keyboard-response","209","909449","0.0-114.0-1.0","""event"",""trial"",""time""
""fullscreenenter"",""0"",""14308""
","
","
","""event"",""trial"",""time""
""fullscreenenter"",""0"",""14308""
","
","null","<p></p>","null","","","","","","","","","","","","","","","","","","","","","","",""
"","do_trial","210","914591","0.0-115.0-0.0","""event"",""trial"",""time""
""fullscreenenter"",""0"",""14308""
","
","
","""event"",""trial"",""time""
""fullscreenenter"",""0"",""14308""
","
","551.3000000119209","","","","","","","","51","0,1,0","1","city","58","probe-82","0.1421741858806051","0.5482215276495289","0.11066321407099515","0","","","","","","","",""
"","html-keyboard-response","211","915615","0.0-115.0-1.0","""event"",""trial"",""time""
""fullscreenenter"",""0"",""14308""
","
","
","""event"",""trial"",""time""
""fullscreenenter"",""0"",""14308""
","
","null","<p></p>","null","","","","","","","","","","","","","","","","","","","","","","",""
"","do_trial","212","920427","0.0-116.0-0.0","""event"",""trial"",""time""
""fullscreenenter"",""0"",""14308""
","
","
","""event"",""trial"",""time""
""fullscreenenter"",""0"",""14308""
","
","237.2000000178814","","","","","","","","51","0,1,0","1","city","59","probe-102","0.2353595693398768","0.4840862431339727","0.12775542626826705","0","","","","","","","",""
"","html-keyboard-response","213","921429","0.0-116.0-1.0","""event"",""trial"",""time""
""fullscreenenter"",""0"",""14308""
","
","
","""event"",""trial"",""time""
""fullscreenenter"",""0"",""14308""
","
","null","<p></p>","null","","","","","","","","","","","","","","","","","","","","","","",""
"","do_trial","214","926619","0.0-117.0-0.0","""event"",""trial"",""time""
""fullscreenenter"",""0"",""14308""
","
","
","""event"",""trial"",""time""
""fullscreenenter"",""0"",""14308""
","
","621.5","","","","","","","","50","0,0,0","1","city","60","probe-153","0.19154059568654422","0.4322738850538951","0.15328808879408437","0","","","","","","","",""
"","html-keyboard-response","215","927643","0.0-117.0-1.0","""event"",""trial"",""time""
""fullscreenenter"",""0"",""14308""
","
","
","""event"",""trial"",""time""
""fullscreenenter"",""0"",""14308""
","
","null","<p></p>","null","","","","","","","","","","","","","","","","","","","","","","",""
"","do_trial","216","933053","0.0-118.0-0.0","""event"",""trial"",""time""
""fullscreenenter"",""0"",""14308""
","
","
","""event"",""trial"",""time""
""fullscreenenter"",""0"",""14308""
","
","828.7000000178814","","","","","","","","49","0,1,1","1","city","61","probe-47","0.158429532485776","0.6452999461627588","0.20653143337812718","0","","","","","","","",""
"","html-keyboard-response","217","934056","0.0-118.0-1.0","""event"",""trial"",""time""
""fullscreenenter"",""0"",""14308""
","
","
","""event"",""trial"",""time""
""fullscreenenter"",""0"",""14308""
","
","null","<p></p>","null","","","","","","","","","","","","","","","","","","","","","","",""
"","do_trial","218","940147","0.0-119.0-0.0","""event"",""trial"",""time""
""fullscreenenter"",""0"",""14308""
","
","
","""event"",""trial"",""time""
""fullscreenenter"",""0"",""14308""
","
","null","","","","","","","","null","0,1,0","1","city","62","probe-215","0.3067963994847584","0.6087719070439718","0.1563640228838903","","","","","","","","",""
"","html-keyboard-response","219","941171","0.0-119.0-1.0","""event"",""trial"",""time""
""fullscreenenter"",""0"",""14308""
","
","
","""event"",""trial"",""time""
""fullscreenenter"",""0"",""14308""
","
","null","<p></p>","null","","","","","","","","","","","","","","","","","","","","","","",""
"","do_trial","220","946260","0.0-120.0-0.0","""event"",""trial"",""time""
""fullscreenenter"",""0"",""14308""
","
","
","""event"",""trial"",""time""
""fullscreenenter"",""0"",""14308""
","
","515.0999999940395","","","","","","","","50","0,1,0","1","city","63","probe-42","0.19040538766560502","0.5921250873363144","0.11292666822227146","1","","","","","","","",""
"","html-keyboard-response","221","947283","0.0-120.0-1.0","""event"",""trial"",""time""
""fullscreenenter"",""0"",""14308""
","
","
","""event"",""trial"",""time""
""fullscreenenter"",""0"",""14308""
","
","null","<p></p>","null","","","","","","","","","","","","","","","","","","","","","","",""
"","do_trial","222","952208","0.0-121.0-0.0","""event"",""trial"",""time""
""fullscreenenter"",""0"",""14308""
","
","
","""event"",""trial"",""time""
""fullscreenenter"",""0"",""14308""
","
","340.5","","","","","","","","50","0,0,0","1","city","64","probe-65","0.21320421616639057","0.5342193760449888","0.10242563046458897","0","","","","","","","",""
"","html-keyboard-response","223","953211","0.0-121.0-1.0","""event"",""trial"",""time""
""fullscreenenter"",""0"",""14308""
","
","
","""event"",""trial"",""time""
""fullscreenenter"",""0"",""14308""
","
","null","<p></p>","null","","","","","","","","","","","","","","","","","","","","","","",""
"","do_trial","224","958338","0.0-122.0-0.0","""event"",""trial"",""time""
""fullscreenenter"",""0"",""14308""
","
","
","""event"",""trial"",""time""
""fullscreenenter"",""0"",""14308""
","
","555.0999999940395","","","","","","","","51","0,0,0","1","city","65","probe-37","0.24957311618367467","0.5431156016145858","0.18428864809896947","0","","","","","","","",""
"","html-keyboard-response","225","959356","0.0-122.0-1.0","""event"",""trial"",""time""
""fullscreenenter"",""0"",""14308""
","
","
","""event"",""trial"",""time""
""fullscreenenter"",""0"",""14308""
","
","null","<p></p>","null","","","","","","","","","","","","","","","","","","","","","","",""
"","do_trial","226","964380","0.0-123.0-0.0","""event"",""trial"",""time""
""fullscreenenter"",""0"",""14308""
","
","
","""event"",""trial"",""time""
""fullscreenenter"",""0"",""14308""
","
","469.40000000596046","","","","","","","","49","1,1,1","1","city","66","probe-02","0.3566906036825686","0.5885782576154415","0.16560160002812574","1","","","","","","","",""
"","html-keyboard-response","227","965398","0.0-123.0-1.0","""event"",""trial"",""time""
""fullscreenenter"",""0"",""14308""
","
","
","""event"",""trial"",""time""
""fullscreenenter"",""0"",""14308""
","
","null","<p></p>","null","","","","","","","","","","","","","","","","","","","","","","",""
"","do_trial","228","970362","0.0-124.0-0.0","""event"",""trial"",""time""
""fullscreenenter"",""0"",""14308""
","
","
","""event"",""trial"",""time""
""fullscreenenter"",""0"",""14308""
","
","374.2000000178814","","","","","","","","49","1,0,1","1","city","67","probe-150","0.31543631893541596","0.4247977215180216","0.09755115890253736","1","","","","","","","",""
"","html-keyboard-response","229","971378","0.0-124.0-1.0","""event"",""trial"",""time""
""fullscreenenter"",""0"",""14308""
","
","
","""event"",""trial"",""time""
""fullscreenenter"",""0"",""14308""
","
","null","<p></p>","null","","","","","","","","","","","","","","","","","","","","","","",""
"","do_trial","230","976490","0.0-125.0-0.0","""event"",""trial"",""time""
""fullscreenenter"",""0"",""14308""
","
","
","""event"",""trial"",""time""
""fullscreenenter"",""0"",""14308""
","
","563.8999999761581","","","","","","","","49","0,1,0","1","city","68","probe-07","0.34987344006560867","0.5456909127645824","0.05952562010523422","0","","","","","","","",""
"","html-keyboard-response","231","977508","0.0-125.0-1.0","""event"",""trial"",""time""
""fullscreenenter"",""0"",""14308""
","
","
","""event"",""trial"",""time""
""fullscreenenter"",""0"",""14308""
","
","null","<p></p>","null","","","","","","","","","","","","","","","","","","","","","","",""
"","do_trial","232","983103","0.0-126.0-0.0","""event"",""trial"",""time""
""fullscreenenter"",""0"",""14308""
","
","
","""event"",""trial"",""time""
""fullscreenenter"",""0"",""14308""
","
","1039.4000000059605","","","","","","","","49","1,0,0","1","city","69","probe-111","0.3038828239586649","0.6501479980710247","0.11328608193493488","1","","","","","","","",""
"","html-keyboard-response","233","984121","0.0-126.0-1.0","""event"",""trial"",""time""
""fullscreenenter"",""0"",""14308""
","
","
","""event"",""trial"",""time""
""fullscreenenter"",""0"",""14308""
","
","null","<p></p>","null","","","","","","","","","","","","","","","","","","","","","","",""
"","do_bye","234","985640","0.0-127.0-0.0","""event"",""trial"",""time""
""fullscreenenter"",""0"",""14308""
","
","
","""event"",""trial"",""time""
""fullscreenenter"",""0"",""14308""
","
","null","","","","","","","","null","","","","","","","","","","","","","","","","",""
"","break","235","990956","0.0-127.0-1.0","""event"",""trial"",""time""
""fullscreenenter"",""0"",""14308""
","
","
","""event"",""trial"",""time""
""fullscreenenter"",""0"",""14308""
","
","5313.800000011921","<div class='center'><p>Time to take a quick break! You have 2 minutes to rest, but you can move on sooner if you'd like.</p><p> Press the <b>space bar</b> to continue.</p></div>","32","","","","","","","","","","","","","","","","","","","","","","",""
"","do_travel","236","999964","0.0-128.0-0.0","""event"",""trial"",""time""
""fullscreenenter"",""0"",""14308""
","
","
","""event"",""trial"",""time""
""fullscreenenter"",""0"",""14308""
","
","null","","","","","","","","null","","","","","","","","","","","","","","","","",""
"","do_welcome","237","1003980","0.0-128.0-1.0","""event"",""trial"",""time""
""fullscreenenter"",""0"",""14308""
","
","
","""event"",""trial"",""time""
""fullscreenenter"",""0"",""14308""
","
","null","","","","","","","","null","","","","","","","","","","","","","","","","",""
"","do_trial","238","1009843","0.0-129.0-0.0","""event"",""trial"",""time""
""fullscreenenter"",""0"",""14308""
","
","
","""event"",""trial"",""time""
""fullscreenenter"",""0"",""14308""
","
","1297.699999988079","","","","","","","","50","0,1,0","2","mountain","70","probe-226","0.3388385069439502","1","0.05242875489263699","1","","","","","","","",""
"","html-keyboard-response","239","1010863","0.0-129.0-1.0","""event"",""trial"",""time""
""fullscreenenter"",""0"",""14308""
","
","
","""event"",""trial"",""time""
""fullscreenenter"",""0"",""14308""
","
","null","<p></p>","null","","","","","","","","","","","","","","","","","","","","","","",""
"","do_trial","240","1016028","0.0-130.0-0.0","""event"",""trial"",""time""
""fullscreenenter"",""0"",""14308""
","
","
","""event"",""trial"",""time""
""fullscreenenter"",""0"",""14308""
","
","607.5999999940395","","","","","","","","50","1,1,0","2","mountain","71","probe-154","0.24961832019683783","1","0.054126356284127514","1","","","","","","","",""
"","html-keyboard-response","241","1017047","0.0-130.0-1.0","""event"",""trial"",""time""
""fullscreenenter"",""0"",""14308""
","
","
","""event"",""trial"",""time""
""fullscreenenter"",""0"",""14308""
","
","null","<p></p>","null","","","","","","","","","","","","","","","","","","","","","","",""
"","do_trial","242","1023117","0.0-131.0-0.0","""event"",""trial"",""time""
""fullscreenenter"",""0"",""14308""
","
","
","""event"",""trial"",""time""
""fullscreenenter"",""0"",""14308""
","
","null","","","","","","","","null","0,1,0","2","mountain","72","probe-131","0.30942653881510335","0.9233614898178921","0.084350647294354","","","","","","","","",""
"","html-keyboard-response","243","1024126","0.0-131.0-1.0","""event"",""trial"",""time""
""fullscreenenter"",""0"",""14308""
","
","
","""event"",""trial"",""time""
""fullscreenenter"",""0"",""14308""
","
","null","<p></p>","null","","","","","","","","","","","","","","","","","","","","","","",""
"","do_trial","244","1029253","0.0-132.0-0.0","""event"",""trial"",""time""
""fullscreenenter"",""0"",""14308""
","
","
","""event"",""trial"",""time""
""fullscreenenter"",""0"",""14308""
","
","577.6999999880791","","","","","","","","49","0,1,0","2","mountain","73","probe-06","0.17896970816649435","0.7362915279413759","0.13407313325879236","0","","","","","","","",""
"","html-keyboard-response","245","1030276","0.0-132.0-1.0","""event"",""trial"",""time""
""fullscreenenter"",""0"",""14308""
","
","
","""event"",""trial"",""time""
""fullscreenenter"",""0"",""14308""
","
","null","<p></p>","null","","","","","","","","","","","","","","","","","","","","","","",""
"","do_trial","246","1036752","0.0-133.0-0.0","""event"",""trial"",""time""
""fullscreenenter"",""0"",""14308""
","
","
","""event"",""trial"",""time""
""fullscreenenter"",""0"",""14308""
","
","1920.5","","","","","","","","51","0,1,0","2","mountain","74","probe-44","0.18117592557121195","0.6773105121545966","0.1520160586387227","0","","","","","","","",""
"","html-keyboard-response","247","1037757","0.0-133.0-1.0","""event"",""trial"",""time""
""fullscreenenter"",""0"",""14308""
","
","
","""event"",""trial"",""time""
""fullscreenenter"",""0"",""14308""
","
","null","<p></p>","null","","","","","","","","","","","","","","","","","","","","","","",""
"","do_trial","248","1042717","0.0-134.0-0.0","""event"",""trial"",""time""
""fullscreenenter"",""0"",""14308""
","
","
","""event"",""trial"",""time""
""fullscreenenter"",""0"",""14308""
","
","392.90000000596046","","","","","","","","50","1,1,0","2","mountain","75","probe-147","0.27811258555356533","0.6704199634542323","0.11344770282013254","1","","","","","","","",""
"","html-keyboard-response","249","1043735","0.0-134.0-1.0","""event"",""trial"",""time""
""fullscreenenter"",""0"",""14308""
","
","
","""event"",""trial"",""time""
""fullscreenenter"",""0"",""14308""
","
","null","<p></p>","null","","","","","","","","","","","","","","","","","","","","","","",""
"","do_trial","250","1048762","0.0-135.0-0.0","""event"",""trial"",""time""
""fullscreenenter"",""0"",""14308""
","
","
","""event"",""trial"",""time""
""fullscreenenter"",""0"",""14308""
","
","448.69999998807907","","","","","","","","50","0,1,0","2","mountain","76","probe-217","0.4112974237291704","0.636569832997946","0.05737610558193831","1","","","","","","","",""
"","html-keyboard-response","251","1049780","0.0-135.0-1.0","""event"",""trial"",""time""
""fullscreenenter"",""0"",""14308""
","
","
","""event"",""trial"",""time""
""fullscreenenter"",""0"",""14308""
","
","null","<p></p>","null","","","","","","","","","","","","","","","","","","","","","","",""
"","do_trial","252","1055028","0.0-136.0-0.0","""event"",""trial"",""time""
""fullscreenenter"",""0"",""14308""
","
","
","""event"",""trial"",""time""
""fullscreenenter"",""0"",""14308""
","
","700.3000000119209","","","","","","","","50","0,1,0","2","mountain","77","probe-28","0.3047207565309785","0.5731307863949916","0.09720614632597109","1","","","","","","","",""
"","html-keyboard-response","253","1056046","0.0-136.0-1.0","""event"",""trial"",""time""
""fullscreenenter"",""0"",""14308""
","
","
","""event"",""trial"",""time""
""fullscreenenter"",""0"",""14308""
","
","null","<p></p>","null","","","","","","","","","","","","","","","","","","","","","","",""
"","do_trial","254","1061390","0.0-137.0-0.0","""event"",""trial"",""time""
""fullscreenenter"",""0"",""14308""
","
","
","""event"",""trial"",""time""
""fullscreenenter"",""0"",""14308""
","
","782.7999999821186","","","","","","","","50","1,1,0","2","mountain","78","probe-137","0.19026023211756937","0.5282922262559072","0.0829376119539698","1","","","","","","","",""
"","html-keyboard-response","255","1062407","0.0-137.0-1.0","""event"",""trial"",""time""
""fullscreenenter"",""0"",""14308""
","
","
","""event"",""trial"",""time""
""fullscreenenter"",""0"",""14308""
","
","null","<p></p>","null","","","","","","","","","","","","","","","","","","","","","","",""
"","do_trial","256","1067702","0.0-138.0-0.0","""event"",""trial"",""time""
""fullscreenenter"",""0"",""14308""
","
","
","""event"",""trial"",""time""
""fullscreenenter"",""0"",""14308""
","
","696.0999999940395","","","","","","","","50","0,1,0","2","mountain","79","probe-209","0.24654561310646297","0.4806646222203007","0.09263158943857272","1","","","","","","","",""
"","html-keyboard-response","257","1068706","0.0-138.0-1.0","""event"",""trial"",""time""
""fullscreenenter"",""0"",""14308""
","
","
","""event"",""trial"",""time""
""fullscreenenter"",""0"",""14308""
","
","null","<p></p>","null","","","","","","","","","","","","","","","","","","","","","","",""
"","do_trial","258","1073654","0.0-139.0-0.0","""event"",""trial"",""time""
""fullscreenenter"",""0"",""14308""
","
","
","""event"",""trial"",""time""
""fullscreenenter"",""0"",""14308""
","
","388","","","","","","","","50","0,1,0","2","mountain","80","probe-170","0.1959839180137962","0.4676986510756344","0.1508602938512206","1","","","","","","","",""
"","html-keyboard-response","259","1074679","0.0-139.0-1.0","""event"",""trial"",""time""
""fullscreenenter"",""0"",""14308""
","
","
","""event"",""trial"",""time""
""fullscreenenter"",""0"",""14308""
","
","null","<p></p>","null","","","","","","","","","","","","","","","","","","","","","","",""
"","do_trial","260","1080668","0.0-140.0-0.0","""event"",""trial"",""time""
""fullscreenenter"",""0"",""14308""
","
","
","""event"",""trial"",""time""
