"success","trial_type","trial_index","time_elapsed","internal_node_id","rt","stimulus","key_press","subject_id","response","choice_outcomes","context_n","context_img_id","trial_n","probe_img_id","pR_red","pR_white","pR_black","outcome","contextArray_ind","validImageProbes","invalidImageProbes","pRew_Red","pRew_White","pRew_Black","availableForMemProbe","choice_blocks"
"true","fullscreen","0","3067","0.0-0.0","","","","","","","","","","","","","","","","","","","","","",""
"","pavlovia","1","3073","0.0-1.0","","","","","","","","","","","","","","","","","","","","","",""
"","html-keyboard-response","2","25064","0.0-2.0","21989","<div class='center'><p>Welcome! This is the first day of the experiment which will last ~30 minutes. In this experiment, you are the head captain of a pirate ship traveling around the world to different places. You will complete several different tasks during this experiment. Here is an overview of these tasks:</p><br><p>Day 1</p><p>1. Tutorial and quiz</p><p>2. Pick a pirate game in 6 different places</p><br><p>Day 2</p><p>3. Pick a pirate game and memory game</p><p>4. Final questions and payment</p><br><p>If you complete the entire experiment, you will receive $15 and a possible bonus payment.</p><p><b>[Press the space bar to begin the tutorial]</b></p></div>","32","60fe218f65aecf42f45aaecf","","","","","","","","","","","","","","","","","",""
"","html-keyboard-response","3","33795","0.0-3.0","8730.199999928474","<div class='center'><p>You’ll stop at these 6 islands on your journey. You'll be able to see them in the distance from your ship.</p><p><img src='run_exp/static/images/contexts/all_contexts.png' height='500'></p><p><b>[Press the space bar to continue]</b></p></div>","32","","","","","","","","","","","","","","","","","","",""
"","html-keyboard-response","4","48210","0.0-4.0","14413.600000023842","<div class='center'><p> The pirates on your ship will rob other ships as they leave island</p> These ships have just sold their things to the people living on the island, so they will have lots and lots of gold on them.</p><p><img src='run_exp/static/images/tutorial/ship_center.png' height='400'></p><p><b>[Press the space bar to continue]</b></p></div>","32","","","","","","","","","","","","","","","","","","",""
"","html-keyboard-response","5","60855","0.0-5.0","12643.299999952316","<div class='center'><p>As the head captain, you do not have to rob any ships yourself.</p><p>Another pirate will be doing the robbing for you. </p><p><img src='run_exp/static/images/tutorial/pirates_all_crop.png' height='200'></p><p>If they could rob the ship, then you will get a stack of gold coins like this:</p><p><img src='run_exp/static/images/tutorial/reward.png' height='150'></p><p> If they couldn't rob the ship, then you will get no gold coins and you'll see a big red x like this: </p><p><img src='run_exp/static/images/tutorial/reward_no.png' height='150'></p><p> How much bonus money you make is based on how many gold coins you collect.</p><p><b>[Press the space bar to continue]</b></p><div>","32","","","","","","","","","","","","","","","","","","",""
"","html-keyboard-response","6","120958","0.0-6.0","60100.90000009537","<div class='center'><p>Even the most skilled pirate can not rob EVERY ship.</p><p> Some ships will have very strong defenses against pirate attacks.</p><p> For example, blue beard, here, is very, very good at robbing ships.</p><p> You can press the <b>‘1’</b> button on the keyboard to choose him.</p><p> Try choosing him 10 times to see how often he can rob a ship. </p><p><img src='run_exp/static/images/tutorial/blue.png' height='500'></p></div>","49","","","","","","","","","","","","","","","","","","",""
"","html-keyboard-response","7","122466","0.0-7.0","null","<div class='center'><p><img src='run_exp/static/images/tutorial/blue_win.png' height='500'></p></div>","null","","","","","","","","","","","","","","","","","","",""
"","html-keyboard-response","8","123634","0.0-8.0","1166.5","<div class='center'><img src='run_exp/static/images/tutorial/blue.png' height='500'></p></div>","49","","","","","","","","","","","","","","","","","","",""
"","html-keyboard-response","9","125136","0.0-9.0","null","<div class='center'><p><img src='run_exp/static/images/tutorial/blue_win.png' height='500'></p></div>","null","","","","","","","","","","","","","","","","","","",""
"","html-keyboard-response","10","125559","0.0-10.0","422.2000000476837","<div class='center'><img src='run_exp/static/images/tutorial/blue.png' height='500'></p></div>","49","","","","","","","","","","","","","","","","","","",""
"","html-keyboard-response","11","127063","0.0-11.0","null","<div class='center'><p><img src='run_exp/static/images/tutorial/blue_win.png' height='500'></p></div>","null","","","","","","","","","","","","","","","","","","",""
"","html-keyboard-response","12","127406","0.0-12.0","342.5","<div class='center'><img src='run_exp/static/images/tutorial/blue.png' height='500'></p></div>","49","","","","","","","","","","","","","","","","","","",""
"","html-keyboard-response","13","128919","0.0-13.0","null","<div class='center'><p><img src='run_exp/static/images/tutorial/blue_no_win.png' height='500'></p></div>","null","","","","","","","","","","","","","","","","","","",""
"","html-keyboard-response","14","129333","0.0-14.0","412.60000002384186","<div class='center'><img src='run_exp/static/images/tutorial/blue.png' height='500'></p></div>","49","","","","","","","","","","","","","","","","","","",""
"","html-keyboard-response","15","130845","0.0-15.0","null","<div class='center'><p><img src='run_exp/static/images/tutorial/blue_win.png' height='500'></p></div>","null","","","","","","","","","","","","","","","","","","",""
"","html-keyboard-response","16","131655","0.0-16.0","809.2999999523163","<div class='center'><img src='run_exp/static/images/tutorial/blue.png' height='500'></p></div>","49","","","","","","","","","","","","","","","","","","",""
"","html-keyboard-response","17","133163","0.0-17.0","null","<div class='center'><p><img src='run_exp/static/images/tutorial/blue_win.png' height='500'></p></div>","null","","","","","","","","","","","","","","","","","","",""
"","html-keyboard-response","18","133671","0.0-18.0","506.39999997615814","<div class='center'><img src='run_exp/static/images/tutorial/blue.png' height='500'></p></div>","49","","","","","","","","","","","","","","","","","","",""
"","html-keyboard-response","19","135172","0.0-19.0","null","<div class='center'><p><img src='run_exp/static/images/tutorial/blue_win.png' height='500'></p></div>","null","","","","","","","","","","","","","","","","","","",""
"","html-keyboard-response","20","135534","0.0-20.0","361.10000002384186","<div class='center'><img src='run_exp/static/images/tutorial/blue.png' height='500'></p></div>","49","","","","","","","","","","","","","","","","","","",""
"","html-keyboard-response","21","137035","0.0-21.0","null","<div class='center'><p><img src='run_exp/static/images/tutorial/blue_no_win.png' height='500'></p></div>","null","","","","","","","","","","","","","","","","","","",""
"","html-keyboard-response","22","137487","0.0-22.0","450.90000009536743","<div class='center'><img src='run_exp/static/images/tutorial/blue.png' height='500'></p></div>","49","","","","","","","","","","","","","","","","","","",""
"","html-keyboard-response","23","139000","0.0-23.0","null","<div class='center'><p><img src='run_exp/static/images/tutorial/blue_win.png' height='500'></p></div>","null","","","","","","","","","","","","","","","","","","",""
"","html-keyboard-response","24","139080","0.0-24.0","79","<div class='center'><img src='run_exp/static/images/tutorial/blue.png' height='500'></p></div>","49","","","","","","","","","","","","","","","","","","",""
"","html-keyboard-response","25","140596","0.0-25.0","null","<div class='center'><p><img src='run_exp/static/images/tutorial/blue_win.png' height='500'></p></div>","null","","","","","","","","","","","","","","","","","","",""
"","html-keyboard-response","26","153211","0.0-26.0","12613.599999904633","<div class='center'><p> See, he could rob the ships most of the time but not every time. </p><p><b>[Press the space bar to continue]</b></p></div>","32","","","","","","","","","","","","","","","","","","",""
"","html-keyboard-response","27","165863","0.0-27.0","12650.5","<div class='center'><p>You will get to choose which of three pirates you want to rob the next ship. <p>Press the <b>‘1’</b> button on your keyboard to pick the pirate with the red beard.</p><p> Press <b>‘2’</b> to pick the pirate with the white beard.</p><p> Press <b>‘3’</b> to pick the pirate with the black beard.</p><p>Try picking a pirate now!</p><p><img src='run_exp/static/images/tutorial/all_pirates.png' height='500'></p></div>","51","","","","","","","","","","","","","","","","","","",""
"","html-keyboard-response","28","168185","0.0-28.0-0.0","2319.600000023842","<div class='center'><p>This pirate could rob the ship!</p><p><img src='run_exp/static/images/tutorial/black_win.png' height='500'></p><p><b>[Press the space bar to continue]</b></p></div>","32","","","","","","","","","","","","","","","","","","",""
"","html-keyboard-response","29","177828","0.0-28.0-1.0","9642","<div class='center'><p>Now try choosing another</p><p><img src='run_exp/static/images/tutorial/all_pirates.png' height='500'></p></div>","49","","","","","","","","","","","","","","","","","","",""
"","html-keyboard-response","30","182957","0.0-29.0-0.0","5128.200000047684","<div class='center'><p>This pirate could not rob the ship.</p><p><img src='run_exp/static/images/tutorial/red_no_win.png' height='500'></p><p><b>[Press the space bar to continue]</b></p></div>","32","","","","","","","","","","","","","","","","","","",""
"","html-keyboard-response","31","188825","0.0-30.0-0.0","5867.099999904633","<div class='center'><p>If you don’t make your choice fast enough, you’ll have to wait a few seconds before you can make another one. </p><p>You can’t collect more gold coins. You just have to sit and wait.</p><p><img src='run_exp/static/images/miscellaneous/hurry_up.png' height='500'></p><p><b>[Press the space bar to continue]</b></p></div>","32","","","","","","","","","","","","","","","","","","",""
"","html-keyboard-response","32","221353","0.0-30.0-1.0","32527.5","<div class='center'><p>Once you choose a pirate, you’ll be shown the ship they are robbing.</p><p>You will never rob the same ship twice.</p><p>Ships can be told apart from one another by the image on them.</p><p> Every time you see a ship, you will have to remember on which island you saw it.</p><p> Remembering correctly will help you win more bonus money!</p><p>A helpful strategy is to try to come up with a story of the object on the ship interacting with the current island scene.</p><p> For example, here, you could imagine a mug full of water in the desert. </p><p>For a ship with an apple on it on the forest island, you could imagine an apple falling from a tree in the forest.</p><p><img src='run_exp/static/images/tutorial/example_probe.png' height='500'></p><p><b>[Press the space bar to continue]</b></p></div>","32","","","","","","","","","","","","","","","","","","",""
"","html-keyboard-response","33","229293","0.0-30.0-2.0","7939.100000023842","<div class='center'><p>How good a pirate is at robbing ships will depend on the current island.</p><p> A pirate may have visited the island many times before and gained a lot of practice robbing ships there.</p><p>So, they're more likely to bring back gold coins than a pirate who has never visited this island before. </p><p><b>[Press the space bar to continue]</b></p></div>","32","","","","","","","","","","","","","","","","","","",""
"","html-keyboard-response","34","244459","0.0-30.0-3.0","15164.700000047684","<div class='center'><p>How good a pirate is at robbing ships can also change over the time spent on the island<p> Ships may hear from islanders about the pirates coming and will improve their protection against the attack. This may make it harder to rob them.</p><p> Ships may also become lazy and lower their protection. This may make it easier to rob them.</p><br><p>Things are always changing on the high seas! So, try your best to pay attention!</p><p><img src='run_exp/static/images/tutorial/contingency.png' height='500'></p><p><b>[Press the space bar to continue]</b></p></div>","32","","","","","","","","","","","","","","","","","","",""
"","html-keyboard-response","35","298771","0.0-30.0-4.0","54311.39999997616","<div class='center'><p>Let's go over the instructions quickly again.You have two important things to do: </p><b><p> 1. Pick the pirate who is the best at robbing ships on the current island.</p></b><b><p> 2. Remember on which island a ship was robbed.</p> </b><p>How much bonus money you make is based on both. </p><br><p>Let’s try a practice game. The game will start by showing you the pirates. First pick a pirate using the <b> 1, 2, 3 </b> buttons on your keyboard. When you are shown a ship, try to remember the island you’re on by making up a story.</p><p> You only have 3 seconds to pick a pirate, so please make a choice quickly! If you are too slow, you’ll have to wait a bit during the time out.</p><p> Don’t feel rushed, but please do try to make a choice every time.</p><p>This is just a practice game, so you’re not playing for money. </p><p> Good luck, remember press <b>'1'</b> to choose red beard, <b>'2'</b> to choose white beard, and <b>'3'</b> to choose black beard</p><p><b>[Press the space bar to begin the practice game]</b></p></div>","32","","","","","","","","","","","","","","","","","","",""
"","do_welcome","36","300285","0.0-30.0-5.0","null","","","","null","","","","","","","","","","","","","","","","",""
"","do_trial","37","305730","0.0-30.0-6.0","929.5","","","","51","1,0,0","","","","","","","","","","","","","","","",""
"","html-keyboard-response","38","306739","0.0-31.0-0.0","null","<p></p>","null","","","","","","","","","","","","","","","","","","",""
"","do_trial","39","313495","0.0-31.0-1.0","2235.4000000953674","","","","50","1,1,0","","","","","","","","","","","","","","","",""
"","html-keyboard-response","40","314498","0.0-32.0-0.0","null","<p></p>","null","","","","","","","","","","","","","","","","","","",""
"","do_trial","41","320718","0.0-32.0-1.0","1693.2999999523163","","","","51","1,0,1","","","","","","","","","","","","","","","",""
"","html-keyboard-response","42","321733","0.0-33.0-0.0","null","<p></p>","null","","","","","","","","","","","","","","","","","","",""
"","do_trial","43","329169","0.0-33.0-1.0","2924.5","","","","50","0,1,0","","","","","","","","","","","","","","","",""
"","html-keyboard-response","44","330171","0.0-34.0-0.0","null","<p></p>","null","","","","","","","","","","","","","","","","","","",""
"","do_trial","45","336276","0.0-34.0-1.0","1591.1000000238419","","","","51","1,0,0","","","","","","","","","","","","","","","",""
"","do_bye","46","337792","0.0-35.0-0.0","null","","","","null","","","","","","","","","","","","","","","","",""
"","do_travel","47","343807","0.0-35.0-1.0","null","","","","null","","","","","","","","","","","","","","","","",""
"","do_welcome","48","345323","0.0-35.0-2.0","null","","","","null","","","","","","","","","","","","","","","","",""
"","do_trial","49","351343","0.0-35.0-3.0","null","","","","null","1,0,0","","","","","","","","","","","","","","","",""
"","do_bye","50","352862","0.0-36.0-0.0","null","","","","null","","","","","","","","","","","","","","","","",""
"","do_travel","51","358866","0.0-36.0-1.0","null","","","","null","","","","","","","","","","","","","","","","",""
"","do_welcome","52","360379","0.0-36.0-2.0","null","","","","null","","","","","","","","","","","","","","","","",""
"","do_trial","53","365322","0.0-36.0-3.0","422.8000000715256","","","","50","1,0,0","","","","","","","","","","","","","","","",""
"","html-keyboard-response","54","366336","0.0-37.0-0.0","null","<p></p>","null","","","","","","","","","","","","","","","","","","",""
"","do_trial","55","373164","0.0-37.0-1.0","2315.7000000476837","","","","50","1,0,1","","","","","","","","","","","","","","","",""
"","html-keyboard-response","56","374175","0.0-38.0-0.0","null","<p></p>","null","","","","","","","","","","","","","","","","","","",""
"","do_trial","57","379228","0.0-38.0-1.0","530.8000000715256","","","","51","1,1,0","","","","","","","","","","","","","","","",""
"","html-keyboard-response","58","380232","0.0-39.0-0.0","null","<p></p>","null","","","","","","","","","","","","","","","","","","",""
"","do_trial","59","385353","0.0-39.0-1.0","614.3000000715256","","","","49","0,0,1","","","","","","","","","","","","","","","",""
"","html-keyboard-response","60","386369","0.0-40.0-0.0","null","<p></p>","null","","","","","","","","","","","","","","","","","","",""
"","do_trial","61","391696","0.0-40.0-1.0","805.5","","","","51","1,0,1","","","","","","","","","","","","","","","",""
"","html-keyboard-response","62","394311","0.0-41.0-0.0","2613.8000000715256","<div class='center'><p><img src='run_exp/static/images/tutorial/prac_best_pirate.png'  height='500'></p></div>","51","","","","","","","","","","","","","","","","","","",""
"","html-keyboard-response","63","396065","0.0-42.0-0.0","1752.3999999761581","<div class='center'><p>That's incorrect! Red beard was the best.</p><p><b>[Press the space bar to continue]</b></p></div>","32","","","","","","","","","","","","","","","","","","",""
"","html-keyboard-response","64","399070","0.0-42.0-1.0","3003.8000000715256","<div class='center'><p><img src='run_exp/static/images/tutorial/prac_source.png'  height='500'></p></div>","50","","","","","","","","","","","","","","","","","","",""
"","html-keyboard-response","65","400164","0.0-43.0-0.0","1093.5","<div class='center'><p>That's correct! You saw this ship on the cavern island.</p><p><b>[Press the space bar to continue]</b></p></div>","32","","","","","","","","","","","","","","","","","","",""
"","html-keyboard-response","66","429847","0.0-43.0-1.0","29681.5","<div class='center'><p>Good job on the practice game! Now, you will be asked you some true or false questions to make sure you really understand the rules of the game.</p><p> Press <b>'1'</b> on the keyboard for true and press <b>'2'</b> for false.</p><p><b>[Press the space bar to begin the quiz]</b></p></div>","32","","","","","","","","","","","","","","","","","","",""
"","html-keyboard-response","67","432429","0.0-43.0-2.0","2581","<div class='center'><p>You win bonus money by making choices as fast as possible.</p><p>Press 1 for true and press  2 for false.</p></div>","49","","","","","","","","","","","","","","","","","","",""
"","html-keyboard-response","68","434556","0.0-44.0-0.0","2125.5","<<div class='center'><p>That’s incorrect! You win bonus money by collecting as many gold coins as possible!</p><p><b>[press the space bar to continue with the quiz]</b></p></div>","32","","","","","","","","","","","","","","","","","","",""
"","html-keyboard-response","69","440493","0.0-44.0-1.0","5935.899999976158","<div class='center'><p>You press the <b>‘3’</b> button on the keyboard to choose the red bearded pirate. </p><p>Press 1 for true and press  2 for false.</p></div>","50","","","","","","","","","","","","","","","","","","",""
"","html-keyboard-response","70","441665","0.0-45.0-0.0","1167.5","<div class='center'><p>That's correct!</p> <p><b>[press the space bar to continue with the quiz]</b></p></div>","32","","","","","","","","","","","","","","","","","","",""
"","html-keyboard-response","71","445934","0.0-45.0-1.0","4268.399999976158","<div class='center'><p>The pirate who is the best at robbing ships on the first island will be the best on every other island.</p><p>Press 1 for true and press  2 for false.</p></div>","50","","","","","","","","","","","","","","","","","","",""
"","html-keyboard-response","72","446973","0.0-46.0-0.0","1038.2999999523163","<div class='center'><p>That's correct!</p> <p><b>[press the space bar to continue with the quiz]</b></p></div>","32","","","","","","","","","","","","","","","","","","",""
"","html-keyboard-response","73","450995","0.0-46.0-1.0","4020.899999976158","<div class='center'><p>You should remember the island where a pirate robbed a ship.</p><p>Press 1 for true and press  2 for false.</p></div>","49","","","","","","","","","","","","","","","","","","",""
"","html-keyboard-response","74","452118","0.0-47.0-0.0","1121.5","<div class='center'><p>That's correct!</p> <p><b>[press the space bar to continue with the quiz]</b></p></div>","32","","","","","","","","","","","","","","","","","","",""
"","html-keyboard-response","75","457716","0.0-48.0-0.0","5597.200000047684","<div class='center'><p>Oops, you missed some questions. Now that you’ve heard the correct answers. Try the quiz again! If you fail the quiz too many times, you won’t be able to do the experiment. </p> <p><br>[press the space bar to repeat the quiz]</br></p></div>","32","","","","","","","","","","","","","","","","","","",""
"","html-keyboard-response","76","459964","0.0-48.0-1.0","2247","<div class='center'><p>You win bonus money by making choices as fast as possible.</p><p>Press 1 for true and press  2 for false.</p></div>","50","","","","","","","","","","","","","","","","","","",""
"","html-keyboard-response","77","460871","0.0-49.0-0.0","906","<div class='center'><p>That's correct!</p> <p><b>[press the space bar to continue with the quiz]</b></p></div>","32","","","","","","","","","","","","","","","","","","",""
"","html-keyboard-response","78","463451","0.0-49.0-1.0","2579","<div class='center'><p>You press the <b>‘3’</b> button on the keyboard to choose the red bearded pirate. </p><p>Press 1 for true and press  2 for false.</p></div>","50","","","","","","","","","","","","","","","","","","",""
"","html-keyboard-response","79","463937","0.0-50.0-0.0","485.7000000476837","<div class='center'><p>That's correct!</p> <p><b>[press the space bar to continue with the quiz]</b></p></div>","32","","","","","","","","","","","","","","","","","","",""
"","html-keyboard-response","80","465754","0.0-50.0-1.0","1816.5","<div class='center'><p>The pirate who is the best at robbing ships on the first island will be the best on every other island.</p><p>Press 1 for true and press  2 for false.</p></div>","50","","","","","","","","","","","","","","","","","","",""
"","html-keyboard-response","81","466233","0.0-51.0-0.0","478.10000002384186","<div class='center'><p>That's correct!</p> <p><b>[press the space bar to continue with the quiz]</b></p></div>","32","","","","","","","","","","","","","","","","","","",""
"","html-keyboard-response","82","467527","0.0-51.0-1.0","1292.6999999284744","<div class='center'><p>You should remember the island where a pirate robbed a ship.</p><p>Press 1 for true and press  2 for false.</p></div>","49","","","","","","","","","","","","","","","","","","",""
"","html-keyboard-response","83","467990","0.0-52.0-0.0","449.5","<div class='center'><p>That's correct!</p> <p><b>[press the space bar to continue with the quiz]</b></p></div>","32","","","","","","","","","","","","","","","","","","",""
"","html-keyboard-response","84","469272","0.0-53.0-0.0","1281","<div class='center'><p>Good job! You’re now ready to move on to the real game!</p> <p><br>[press the space bar to begin!]</br></p></div>","32","","","","","","","","","","","","","","","","","","",""
"","do_welcome","85","470788","0.0-54.0-0.0","null","","","","null","","","","","","","","","","","","","","","","",""
"","do_trial","86","476285","0.0-55.0-0.0","919","","","","51","1,0,0","0","coast","0","probe-85","0.6","0.3","0.1","0","","","","","","","",""
"","html-keyboard-response","87","477299","0.0-55.0-1.0","null","<p></p>","null","","","","","","","","","","","","","","","","","","",""
"","do_trial","88","483257","0.0-56.0-0.0","1398.2000000476837","","","","51","1,0,0","0","coast","1","probe-144","0.7382357644718723","0.26589434034728404","0.1330956148122856","0","","","","","","","",""
"","html-keyboard-response","89","484264","0.0-56.0-1.0","null","<p></p>","null","","","","","","","","","","","","","","","","","","",""
"","do_trial","90","490570","0.0-57.0-0.0","1734.7999999523163","","","","49","0,0,0","0","coast","2","probe-160","0.6892472516169659","0.24205922613976286","0.08656540843657265","0","","","","","","","",""
"","html-keyboard-response","91","491574","0.0-57.0-1.0","null","<p></p>","null","","","","","","","","","","","","","","","","","","",""
"","do_trial","92","496503","0.0-58.0-0.0","358.10000002384186","","","","50","1,0,0","0","coast","3","probe-155","0.5877123306604282","0.21179221275755744","0.12864681184921348","0","","","","","","","",""
"","html-keyboard-response","93","497518","0.0-58.0-1.0","null","<p></p>","null","","","","","","","","","","","","","","","","","","",""
"","do_trial","94","502788","0.0-59.0-0.0","695.7000000476837","","","","51","1,0,0","0","coast","4","probe-113","0.5327724346420452","0.1441613216335843","0.23838197098453331","0","","","","","","","",""
"","html-keyboard-response","95","503800","0.0-59.0-1.0","null","<p></p>","null","","","","","","","","","","","","","","","","","","",""
"","do_trial","96","509130","0.0-60.0-0.0","751.3999999761581","","","","50","1,1,0","0","coast","5","probe-214","0.6118744640277621","0.19867845938924666","0.18995806663338935","1","","","","","","","",""
"","html-keyboard-response","97","510137","0.0-60.0-1.0","null","<p></p>","null","","","","","","","","","","","","","","","","","","",""
"","do_trial","98","515656","0.0-61.0-0.0","960.6999999284744","","","","50","1,0,1","0","coast","6","probe-29","0.5781571473779928","0.4329167847847778","0.1275674029098801","0","","","","","","","",""
"","html-keyboard-response","99","516665","0.0-61.0-1.0","null","<p></p>","null","","","","","","","","","","","","","","","","","","",""
"","do_trial","100","521908","0.0-62.0-0.0","663","","","","49","1,0,0","0","coast","7","probe-221","0.6519967311848102","0.43043596094370673","0.12687876163007364","1","","","","","","","",""
"","html-keyboard-response","101","522922","0.0-62.0-1.0","null","<p></p>","null","","","","","","","","","","","","","","","","","","",""
"","do_trial","102","528088","0.0-63.0-0.0","585.6000000238419","","","","49","0,0,0","0","coast","8","probe-39","0.73511560449344","0.21843405690223436","0.2020715982114458","0","","","","","","","",""
"","html-keyboard-response","103","529098","0.0-63.0-1.0","null","<p></p>","null","","","","","","","","","","","","","","","","","","",""
"","do_trial","104","534006","0.0-64.0-0.0","336.1999999284744","","","","50","1,1,0","0","coast","9","probe-59","0.6690934330646501","0.2377633174796274","0.08082164200751661","1","","","","","","","",""
"","html-keyboard-response","105","535014","0.0-64.0-1.0","null","<p></p>","null","","","","","","","","","","","","","","","","","","",""
"","do_trial","106","539875","0.0-65.0-0.0","280.89999997615814","","","","51","1,0,0","0","coast","10","probe-34","0.5908380221065103","0.3629814794933357","0.05010071279193788","0","","","","","","","",""
"","html-keyboard-response","107","540885","0.0-65.0-1.0","null","<p></p>","null","","","","","","","","","","","","","","","","","","",""
"","do_trial","108","546516","0.0-66.0-0.0","1055.1000000238419","","","","50","0,0,0","0","coast","11","probe-202","0.6301800198308279","0.37373633950636326","0.15905903540439414","0","","","","","","","",""
"","html-keyboard-response","109","547522","0.0-66.0-1.0","null","<p></p>","null","","","","","","","","","","","","","","","","","","",""
"","do_trial","110","552417","0.0-67.0-0.0","309.39999997615814","","","","49","1,0,0","0","coast","12","probe-195","0.5988212912852757","0.4517058331158001","0.07482305146034847","1","","","","","","","",""
"","html-keyboard-response","111","553421","0.0-67.0-1.0","null","<p></p>","null","","","","","","","","","","","","","","","","","","",""
"","do_trial","112","558343","0.0-68.0-0.0","344.39999997615814","","","","49","1,0,0","0","coast","13","probe-83","0.4448979639726555","0.4343697470682109","0.10568426405879741","1","","","","","","","",""
"","html-keyboard-response","113","559348","0.0-68.0-1.0","null","<p></p>","null","","","","","","","","","","","","","","","","","","",""
"","do_trial","114","564265","0.0-69.0-0.0","342.6999999284744","","","","49","1,0,0","0","coast","14","probe-62","0.5598066505376185","0.29397793155038954","0.10616444522311719","1","","","","","","","",""
"","html-keyboard-response","115","565267","0.0-69.0-1.0","null","<p></p>","null","","","","","","","","","","","","","","","","","","",""
"","do_trial","116","570037","0.0-70.0-0.0","211.60000002384186","","","","49","1,0,0","0","coast","15","probe-154","0.5690049148338645","0.23132108102725282","0.11554567413254682","1","","","","","","","",""
"","html-keyboard-response","117","571042","0.0-70.0-1.0","null","<p></p>","null","","","","","","","","","","","","","","","","","","",""
"","do_trial","118","576472","0.0-71.0-0.0","846.8999999761581","","","","49","0,0,0","0","coast","16","probe-78","0.5498044431630593","0.170497988958455","0.15610963743586426","0","","","","","","","",""
"","html-keyboard-response","119","577480","0.0-71.0-1.0","null","<p></p>","null","","","","","","","","","","","","","","","","","","",""
"","do_trial","120","582423","0.0-72.0-0.0","361.90000009536743","","","","49","1,1,0","0","coast","17","probe-98","0.6537525918827792","0.2632757136252481","0.050056475090536116","1","","","","","","","",""
"","html-keyboard-response","121","583429","0.0-72.0-1.0","null","<p></p>","null","","","","","","","","","","","","","","","","","","",""
"","do_trial","122","588430","0.0-73.0-0.0","421.89999997615814","","","","49","1,0,0","0","coast","18","probe-163","0.6991283639769149","0.22532428429253584","0.1088296717291558","1","","","","","","","",""
"","html-keyboard-response","123","589442","0.0-73.0-1.0","null","<p></p>","null","","","","","","","","","","","","","","","","","","",""
"","do_trial","124","594385","0.0-74.0-0.0","367.6999999284744","","","","49","1,0,1","0","coast","19","probe-72","0.7597849343103693","0.2360268192080931","0.09972810425817187","1","","","","","","","",""
"","html-keyboard-response","125","595392","0.0-74.0-1.0","null","<p></p>","null","","","","","","","","","","","","","","","","","","",""
"","do_trial","126","600287","0.0-75.0-0.0","320.39999997615814","","","","49","1,0,0","0","coast","20","probe-164","0.7610745474576658","0.24761981763049612","0.12320573294886428","1","","","","","","","",""
"","html-keyboard-response","127","601290","0.0-75.0-1.0","null","<p></p>","null","","","","","","","","","","","","","","","","","","",""
"","do_trial","128","606443","0.0-76.0-0.0","581.2999999523163","","","","49","0,1,0","0","coast","21","probe-116","0.6101819472665068","0.4320119862119216","0.24601118711149697","0","","","","","","","",""
"","html-keyboard-response","129","607458","0.0-76.0-1.0","null","<p></p>","null","","","","","","","","","","","","","","","","","","",""
"","do_trial","130","612655","0.0-77.0-0.0","615.2000000476837","","","","49","1,1,0","0","coast","22","probe-22","0.6097241282758574","0.48026675401137875","0.09490210895313464","1","","","","","","","",""
"","html-keyboard-response","131","613662","0.0-77.0-1.0","null","<p></p>","null","","","","","","","","","","","","","","","","","","",""
"","do_trial","132","618943","0.0-78.0-0.0","705.6000000238419","","","","49","0,0,0","0","coast","23","probe-157","0.6478852905008886","0.3077741465780359","0.16148979772814798","0","","","","","","","",""
"","html-keyboard-response","133","619948","0.0-78.0-1.0","null","<p></p>","null","","","","","","","","","","","","","","","","","","",""
"","do_trial","134","624818","0.0-79.0-0.0","317.7000000476837","","","","49","1,1,0","0","coast","24","probe-170","0.6594403434008096","0.29301196258869266","0.15021106240824617","1","","","","","","","",""
"","html-keyboard-response","135","625827","0.0-79.0-1.0","null","<p></p>","null","","","","","","","","","","","","","","","","","","",""
"","do_trial","136","630710","0.0-80.0-0.0","302.40000009536743","","","","49","1,0,0","0","coast","25","probe-92","0.6563548151268711","0.07880179533092058","0.18118567465678162","1","","","","","","","",""
"","html-keyboard-response","137","631720","0.0-80.0-1.0","null","<p></p>","null","","","","","","","","","","","","","","","","","","",""
"","do_trial","138","636625","0.0-81.0-0.0","330.2000000476837","","","","49","1,0,0","0","coast","26","probe-46","0.6051648138290137","0.09347391741164572","0.1979485533616551","1","","","","","","","",""
"","html-keyboard-response","139","637630","0.0-81.0-1.0","null","<p></p>","null","","","","","","","","","","","","","","","","","","",""
"","do_trial","140","642504","0.0-82.0-0.0","290.2000000476837","","","","49","0,0,0","0","coast","27","probe-115","0.7136512042550114","0.1400008172194591","0.15639324632418125","0","","","","","","","",""
"","html-keyboard-response","141","643506","0.0-82.0-1.0","null","<p></p>","null","","","","","","","","","","","","","","","","","","",""
"","do_trial","142","648425","0.0-83.0-0.0","354.7000000476837","","","","49","0,0,1","0","coast","28","probe-139","0.6196802184566425","0.15588062123019034","0.08450895428702872","0","","","","","","","",""
"","html-keyboard-response","143","649429","0.0-83.0-1.0","null","<p></p>","null","","","","","","","","","","","","","","","","","","",""
"","do_trial","144","654270","0.0-84.0-0.0","260.5","","","","49","1,0,0","0","coast","29","probe-88","0.6101305938431599","0.23386423737598297","0.11126513635331531","1","","","","","","","",""
"","html-keyboard-response","145","655277","0.0-84.0-1.0","null","<p></p>","null","","","","","","","","","","","","","","","","","","",""
"","do_bye","146","656790","0.0-85.0-0.0","null","","","","null","","","","","","","","","","","","","","","","",""
"","do_travel","147","662794","0.0-86.0-0.0","null","","","","null","","","","","","","","","","","","","","","","",""
"","do_welcome","148","664312","0.0-86.0-1.0","null","","","","null","","","","","","","","","","","","","","","","",""
"","do_trial","149","670210","0.0-87.0-0.0","1308.2999999523163","","","","51","1,1,0","1","mountain","30","probe-152","1","0.203103835155944","0.09288875759135826","0","","","","","","","",""
"","html-keyboard-response","150","671220","0.0-87.0-1.0","null","<p></p>","null","","","","","","","","","","","","","","","","","","",""
"","do_trial","151","677495","0.0-88.0-0.0","1709.6999999284744","","","","50","1,0,0","1","mountain","31","probe-111","1","0.2628662231469672","0.1749839433445078","0","","","","","","","",""
"","html-keyboard-response","152","678505","0.0-88.0-1.0","null","<p></p>","null","","","","","","","","","","","","","","","","","","",""
"","do_trial","153","684663","0.0-89.0-0.0","1582.1000000238419","","","","50","1,0,0","1","mountain","32","probe-110","1","0.28435872779102017","0.277621062719946","0","","","","","","","",""
"","html-keyboard-response","154","685665","0.0-89.0-1.0","null","<p></p>","null","","","","","","","","","","","","","","","","","","",""
"","do_trial","155","691038","0.0-90.0-0.0","797.6999999284744","","","","51","0,0,0","1","mountain","33","probe-229","0.8809838559233261","0.36323795839948986","0.12637113220097995","0","","","","","","","",""
"","html-keyboard-response","156","692042","0.0-90.0-1.0","null","<p></p>","null","","","","","","","","","","","","","","","","","","",""
"","do_trial","157","696921","0.0-91.0-0.0","309.7000000476837","","","","51","1,0,0","1","mountain","34","probe-77","0.6674792637322057","0.32912122192846915","0.14777034862829946","0","","","","","","","",""
"","html-keyboard-response","158","697930","0.0-91.0-1.0","null","<p></p>","null","","","","","","","","","","","","","","","","","","",""
"","do_trial","159","703372","0.0-92.0-0.0","864.5999999046326","","","","51","1,0,0","1","mountain","35","probe-130","0.6541809403866984","0.22377901986800353","0.08889783924364035","0","","","","","","","",""
"","html-keyboard-response","160","704373","0.0-92.0-1.0","null","<p></p>","null","","","","","","","","","","","","","","","","","","",""
"","do_trial","161","710510","0.0-93.0-0.0","1550.6000000238419","","","","49","1,1,0","1","mountain","36","probe-18","0.6796789075028694","0.3430368022622305","0.25371775897638366","1","","","","","","","",""
"","html-keyboard-response","162","711515","0.0-93.0-1.0","null","<p></p>","null","","","","","","","","","","","","","","","","","","",""
"","do_trial","163","716419","0.0-94.0-0.0","335.6999999284744","","","","49","0,0,1","1","mountain","37","probe-121","0.6353481594710424","0.35358715732701224","0.27066540817656554","0","","","","","","","",""
"","html-keyboard-response","164","717423","0.0-94.0-1.0","null","<p></p>","null","","","","","","","","","","","","","","","","","","",""
"","do_trial","165","722265","0.0-95.0-0.0","281.89999997615814","","","","49","0,1,0","1","mountain","38","probe-52","0.5203196672719576","0.2941363105241745","0.31451242066925317","0","","","","","","","",""
"","html-keyboard-response","166","723271","0.0-95.0-1.0","null","<p></p>","null","","","","","","","","","","","","","","","","","","",""
"","do_trial","167","728218","0.0-96.0-0.0","371.89999997615814","","","","50","1,0,0","1","mountain","39","probe-24","0.5242742204296189","0.26752210252653","0.2881781109351458","0","","","","","","","",""
"","html-keyboard-response","168","729230","0.0-96.0-1.0","null","<p></p>","null","","","","","","","","","","","","","","","","","","",""
"","do_trial","169","734133","0.0-97.0-0.0","322.6999999284744","","","","51","1,1,0","1","mountain","40","probe-104","0.44290261541748516","0.25627504186950256","0.23495535704842113","0","","","","","","","",""
"","html-keyboard-response","170","735141","0.0-97.0-1.0","null","<p></p>","null","","","","","","","","","","","","","","","","","","",""
"","do_trial","171","739941","0.0-98.0-0.0","235.19999992847443","","","","49","0,0,0","1","mountain","41","probe-06","0.4967371837687318","0.11393484664144075","0.20231419907301423","0","","","","","","","",""
"","html-keyboard-response","172","740947","0.0-98.0-1.0","null","<p></p>","null","","","","","","","","","","","","","","","","","","",""
"","do_trial","173","745930","0.0-99.0-0.0","400.2000000476837","","","","49","0,0,0","1","mountain","42","probe-65","0.44065726218635803","0.06716723639160811","0.470685975564899","0","","","","","","","",""
"","html-keyboard-response","174","746943","0.0-99.0-1.0","null","<p></p>","null","","","","","","","","","","","","","","","","","","",""
"","do_trial","175","751783","0.0-100.0-0.0","280.5","","","","50","1,0,1","1","mountain","43","probe-153","0.29896170105089737","0.2993841686930421","0.6247159268320648","0","","","","","","","",""
"","html-keyboard-response","176","752789","0.0-100.0-1.0","null","<p></p>","null","","","","","","","","","","","","","","","","","","",""
"","do_trial","177","757683","0.0-101.0-0.0","312.60000002384186","","","","51","1,0,0","1","mountain","44","probe-53","0.3538723764124007","0.12470950074257849","0.5650966040144529","0","","","","","","","",""
"","html-keyboard-response","178","758688","0.0-101.0-1.0","null","<p></p>","null","","","","","","","","","","","","","","","","","","",""
"","do_trial","179","763588","0.0-102.0-0.0","323.2999999523163","","","","49","1,1,1","1","mountain","45","probe-192","0.5106789203941547","0.21529413079905282","0.6946197615639909","1","","","","","","","",""
"","html-keyboard-response","180","764592","0.0-102.0-1.0","null","<p></p>","null","","","","","","","","","","","","","","","","","","",""
"","do_trial","181","769576","0.0-103.0-0.0","403.5","","","","49","0,0,0","1","mountain","46","probe-142","0.5531864284450644","0.16424314553622607","0.9332830025164538","0","","","","","","","",""
"","html-keyboard-response","182","770582","0.0-103.0-1.0","null","<p></p>","null","","","","","","","","","","","","","","","","","","",""
"","do_trial","183","777067","0.0-104.0-0.0","1900.1999999284744","","","","49","1,0,1","1","mountain","47","probe-70","0.6289466012014576","0.2034984172020952","0.7087980882876806","1","","","","","","","",""
"","html-keyboard-response","184","778071","0.0-104.0-1.0","null","<p></p>","null","","","","","","","","","","","","","","","","","","",""
"","do_trial","185","783019","0.0-105.0-0.0","347","","","","49","0,0,1","1","mountain","48","probe-198","0.5225629829570224","0.2025092473854213","0.7820908868372136","0","","","","","","","",""
"","html-keyboard-response","186","784026","0.0-105.0-1.0","null","<p></p>","null","","","","","","","","","","","","","","","","","","",""
"","do_trial","187","790689","0.0-106.0-0.0","2100.7000000476837","","","","49","0,0,1","1","mountain","49","probe-117","0.5609993114190882","0.16492922572799748","0.7143729493389408","0","","","","","","","",""
"","html-keyboard-response","188","791697","0.0-106.0-1.0","null","<p></p>","null","","","","","","","","","","","","","","","","","","",""
"","do_trial","189","796823","0.0-107.0-0.0","554.4000000953674","","","","50","1,0,1","1","mountain","50","probe-73","0.4986806810579607","0.12788671653464376","0.6215473131536513","0","","","","","","","",""
"","html-keyboard-response","190","797833","0.0-107.0-1.0","null","<p></p>","null","","","","","","","","","","","","","","","","","","",""
"","do_trial","191","802653","0.0-108.0-0.0","250.60000002384186","","","","49","1,0,1","1","mountain","51","probe-206","0.2835474548415776","0.13727304149931618","0.6723417378145904","1","","","","","","","",""
"","html-keyboard-response","192","803669","0.0-108.0-1.0","null","<p></p>","null","","","","","","","","","","","","","","","","","","",""
"","do_trial","193","808729","0.0-109.0-0.0","480.2000000476837","","","","49","0,0,0","1","mountain","52","probe-105","0.3414776251164961","0.10824577575437733","0.5142744053281275","0","","","","","","","",""
"","html-keyboard-response","194","809734","0.0-109.0-1.0","null","<p></p>","null","","","","","","","","","","","","","","","","","","",""
"","do_trial","195","814771","0.0-110.0-0.0","460","","","","51","0,0,1","1","mountain","53","probe-27","0.3979931818356087","0.05413442934841735","0.4762825888493014","1","","","","","","","",""
"","html-keyboard-response","196","815780","0.0-110.0-1.0","null","<p></p>","null","","","","","","","","","","","","","","","","","","",""
"","do_trial","197","820628","0.0-111.0-0.0","299.89999997615814","","","","51","1,0,1","1","mountain","54","probe-49","0.30453169398335816","0.061622755101941595","0.6163712382155658","1","","","","","","","",""
"","html-keyboard-response","198","821638","0.0-111.0-1.0","null","<p></p>","null","","","","","","","","","","","","","","","","","","",""
"","do_trial","199","826494","0.0-112.0-0.0","305.7999999523163","","","","51","0,0,0","1","mountain","55","probe-14","0.16045644407858398","0.107722863864985","0.6108167972450672","0","","","","","","","",""
"","html-keyboard-response","200","827510","0.0-112.0-1.0","null","<p></p>","null","","","","","","","","","","","","","","","","","","",""
"","do_trial","201","832331","0.0-113.0-0.0","264.5","","","","50","0,1,1","1","mountain","56","probe-172","0.24299327537580817","0.10674099895548328","0.5841098056274706","1","","","","","","","",""
"","html-keyboard-response","202","833346","0.0-113.0-1.0","null","<p></p>","null","","","","","","","","","","","","","","","","","","",""
"","do_trial","203","838266","0.0-114.0-0.0","351.7000000476837","","","","49","1,0,1","1","mountain","57","probe-82","0.36216098120362133","0.15841160271420265","0.6279215115454102","1","","","","","","","",""
"","html-keyboard-response","204","839276","0.0-114.0-1.0","null","<p></p>","null","","","","","","","","","","","","","","","","","","",""
"","do_trial","205","844259","0.0-115.0-0.0","405.89999997615814","","","","51","0,0,0","1","mountain","58","probe-127","0.43180304389549207","0.19858546465042368","0.6418242361628399","0","","","","","","","",""
"","html-keyboard-response","206","845274","0.0-115.0-1.0","null","<p></p>","null","","","","","","","","","","","","","","","","","","",""
"","do_trial","207","850166","0.0-116.0-0.0","319","","","","51","0,0,1","1","mountain","59","probe-108","0.35584201880600574","0.16798501862358614","0.5982276823459696","1","","","","","","","",""
"","html-keyboard-response","208","851172","0.0-116.0-1.0","null","<p></p>","null","","","","","","","","","","","","","","","","","","",""
"","do_trial","209","856321","0.0-117.0-0.0","572.5999999046326","","","","51","1,0,0","1","mountain","60","probe-103","0.36033877914447887","0.12741546333133397","0.551630597262054","0","","","","","","","",""
"","html-keyboard-response","210","857332","0.0-117.0-1.0","null","<p></p>","null","","","","","","","","","","","","","","","","","","",""
"","do_trial","211","862183","0.0-118.0-0.0","271.10000002384186","","","","49","1,0,1","1","mountain","61","probe-210","0.25739522212861976","0.16913234592152457","0.5350832686985428","1","","","","","","","",""
"","html-keyboard-response","212","863186","0.0-118.0-1.0","null","<p></p>","null","","","","","","","","","","","","","","","","","","",""
"","do_trial","213","868141","0.0-119.0-0.0","381","","","","50","0,0,1","1","mountain","62","probe-209","0.2684142837744217","0.21573875246943952","0.48011673861012","0","","","","","","","",""
"","html-keyboard-response","214","869147","0.0-119.0-1.0","null","<p></p>","null","","","","","","","","","","","","","","","","","","",""
"","do_trial","215","873995","0.0-120.0-0.0","269.39999997615814","","","","51","1,0,0","1","mountain","63","probe-01","0.4142063163242352","0.1266368609619823","0.4478138833301126","0","","","","","","","",""
"","html-keyboard-response","216","875008","0.0-120.0-1.0","null","<p></p>","null","","","","","","","","","","","","","","","","","","",""
"","do_trial","217","879928","0.0-121.0-0.0","335.09999990463257","","","","51","1,1,0","1","mountain","64","probe-147","0.311864602202816","0.21937770743038276","0.7344221280533195","0","","","","","","","",""
"","html-keyboard-response","218","880930","0.0-121.0-1.0","null","<p></p>","null","","","","","","","","","","","","","","","","","","",""
"","do_trial","219","886005","0.0-122.0-0.0","498.6999999284744","","","","50","0,0,0","1","mountain","65","probe-102","0.4140575737568052","0.0874060635358894","0.6614539184611301","0","","","","","","","",""
"","html-keyboard-response","220","887011","0.0-122.0-1.0","null","<p></p>","null","","","","","","","","","","","","","","","","","","",""
"","do_trial","221","891859","0.0-123.0-0.0","272.5","","","","49","0,1,0","1","mountain","66","probe-47","0.4756841894105081","0.0775161703983167","0.6782959922466641","0","","","","","","","",""
"","html-keyboard-response","222","892861","0.0-123.0-1.0","null","<p></p>","null","","","","","","","","","","","","","","","","","","",""
"","do_trial","223","898854","0.0-124.0-0.0","1427.7999999523163","","","","51","1,0,1","1","mountain","67","probe-54","0.3691174912779943","0.12919847711490223","0.7392469436408918","1","","","","","","","",""
"","html-keyboard-response","224","899864","0.0-124.0-1.0","null","<p></p>","null","","","","","","","","","","","","","","","","","","",""
"","do_trial","225","904737","0.0-125.0-0.0","297.60000002384186","","","","51","0,0,1","1","mountain","68","probe-101","0.3419391295024384","0.056234797642273134","0.7853577062392814","1","","","","","","","",""
"","html-keyboard-response","226","905746","0.0-125.0-1.0","null","<p></p>","null","","","","","","","","","","","","","","","","","","",""
"","do_trial","227","910608","0.0-126.0-0.0","280.5","","","","50","1,0,1","1","mountain","69","probe-13","0.4011498322907464","0.06967784807199343","0.8936359655688577","0","","","","","","","",""
"","html-keyboard-response","228","911622","0.0-126.0-1.0","null","<p></p>","null","","","","","","","","","","","","","","","","","","",""
"","do_bye","229","913139","0.0-127.0-0.0","null","","","","null","","","","","","","","","","","","","","","","",""
"","do_travel","230","919156","0.0-128.0-0.0","null","","","","null","","","","","","","","","","","","","","","","",""
"","do_welcome","231","920662","0.0-128.0-1.0","null","","","","null","","","","","","","","","","","","","","","","",""
"","do_trial","232","926934","0.0-129.0-0.0","1681.2000000476837","","","","50","1,0,1","2","forest","70","probe-151","0.3716726340070274","0.05496155819944495","1","0","","","","","","","",""
"","html-keyboard-response","233","927946","0.0-129.0-1.0","null","<p></p>","null","","","","","","","","","","","","","","","","","","",""
"","do_trial","234","933236","0.0-130.0-0.0","711.7000000476837","","","","51","0,0,1","2","forest","71","probe-175","0.205286781190623","0.06758230578644736","1","1","","","","","","","",""
"","html-keyboard-response","235","934239","0.0-130.0-1.0","null","<p></p>","null","","","","","","","","","","","","","","","","","","",""
"","do_trial","236","939115","0.0-131.0-0.0","307.60000002384186","","","","51","0,0,1","2","forest","72","probe-26","0.22367102056845994","0.115359384124061","0.7513486449159581","1","","","","","","","",""
"","html-keyboard-response","237","940125","0.0-131.0-1.0","null","<p></p>","null","","","","","","","","","","","","","","","","","","",""
"","do_trial","238","944991","0.0-132.0-0.0","285.89999997615814","","","","51","1,0,1","2","forest","73","probe-219","0.3616096458791667","0.21773224134913188","0.7235212717640528","1","","","","","","","",""
"","html-keyboard-response","239","945993","0.0-132.0-1.0","null","<p></p>","null","","","","","","","","","","","","","","","","","","",""
"","do_trial","240","951020","0.0-133.0-0.0","455.60000002384186","","","","51","0,0,1","2","forest","74","probe-165","0.37167471639908184","0.13131376625291144","0.7134924670252272","1","","","","","","","",""
"","html-keyboard-response","241","952030","0.0-133.0-1.0","null","<p></p>","null","","","","","","","","","","","","","","","","","","",""
"","do_trial","242","957000","0.0-134.0-0.0","390","","","","51","1,0,1","2","forest","75","probe-119","0.2803329491264293","0.15217974633481368","0.4529450907739346","1","","","","","","","",""
"","html-keyboard-response","243","958007","0.0-134.0-1.0","null","<p></p>","null","","","","","","","","","","","","","","","","","","",""
"","do_trial","244","962880","0.0-135.0-0.0","295","","","","51","0,0,0","2","forest","76","probe-128","0.23096939911317577","0.07660471023867267","0.5139412111276608","0","","","","","","","",""
"","html-keyboard-response","245","963885","0.0-135.0-1.0","null","<p></p>","null","","","","","","","","","","","","","","","","","","",""
"","do_trial","246","968773","0.0-136.0-0.0","319.89999997615814","","","","51","0,1,0","2","forest","77","probe-36","0.21442400226600428","0.13875270238763002","0.5359650367409844","0","","","","","","","",""
"","html-keyboard-response","247","969780","0.0-136.0-1.0","null","<p></p>","null","","","","","","","","","","","","","","","","","","",""
"","do_trial","248","974699","0.0-137.0-0.0","351.60000002384186","","","","51","1,0,1","2","forest","78","probe-55","0.3442075660796593","0.21568131351513672","0.6751916716504528","1","","","","","","","",""
"","html-keyboard-response","249","975714","0.0-137.0-1.0","null","<p></p>","null","","","","","","","","","","","","","","","","","","",""
"","do_trial","250","980566","0.0-138.0-0.0","265.1999999284744","","","","51","0,1,1","2","forest","79","probe-122","0.2564513521197074","0.14506274178258877","0.7215404008317928","1","","","","","","","",""
"","html-keyboard-response","251","981575","0.0-138.0-1.0","null","<p></p>","null","","","","","","","","","","","","","","","","","","",""
"","do_trial","252","986573","0.0-139.0-0.0","436.10000002384186","","","","51","0,0,1","2","forest","80","probe-180","0.24336028146607935","0.10294267814128474","0.6870135913282625","1","","","","","","","",""
"","html-keyboard-response","253","987582","0.0-139.0-1.0","null","<p></p>","null","","","","","","","","","","","","","","","","","","",""
"","do_trial","254","992504","0.0-140.0-0.0","361.39999997615814","","","","51","1,0,0","2","forest","81","probe-09","0.24086773636229744","0.22198155790942486","0.6301897722311164","0","","","","","","","",""
"","html-keyboard-response","255","993517","0.0-140.0-1.0","null","<p></p>","null","","","","","","","","","","","","","","","","","","",""
"","do_trial","256","998382","0.0-141.0-0.0","279.1999999284744","","","","51","0,0,1","2","forest","82","probe-205","0.41159088995039056","0.29511940770145245","0.3672823222955018","1","","","","","","","",""
"","html-keyboard-response","257","999387","0.0-141.0-1.0","null","<p></p>","null","","","","","","","","","","","","","","","","","","",""
"","do_trial","258","1004123","0.0-142.0-0.0","172.09999990463257","","","","51","1,0,0","2","forest","83","probe-91","0.4215667993481737","0.2918341173826665","0.35086466689142076","0","","","","","","","",""
"","html-keyboard-response","259","1005125","0.0-142.0-1.0","null","<p></p>","null","","","","","","","","","","","","","","","","","","",""
"","do_trial","260","1009691","0.0-143.0-0.0","0.19999992847442627","","","","51","1,1,0","2","forest","84","probe-137","0.5180775404950922","0.40442235874042753","0.19661072253021822","0","","","","","","","",""
"","html-keyboard-response","261","1010693","0.0-143.0-1.0","null","<p></p>","null","","","","","","","","","","","","","","","","","","",""
"","do_trial","262","1015507","0.0-144.0-0.0","252.29999995231628","","","","51","0,1,0","2","forest","85","probe-38","0.5809628358812428","0.48990365494071336","0.11026407909077804","0","","","","","","","",""
"","html-keyboard-response","263","1016514","0.0-144.0-1.0","null","<p></p>","null","","","","","","","","","","","","","","","","","","",""
"","do_trial","264","1021367","0.0-145.0-0.0","288.2000000476837","","","","50","1,1,0","2","forest","86","probe-32","0.8008437319218866","0.4237514557714892","0.13497012714864592","1","","","","","","","",""
"","html-keyboard-response","265","1022377","0.0-145.0-1.0","null","<p></p>","null","","","","","","","","","","","","","","","","","","",""
"","do_trial","266","1027183","0.0-146.0-0.0","238.30000007152557","","","","50","1,0,0","2","forest","87","probe-67","0.6384174334532979","0.3571524165206402","0.20644519535137865","0","","","","","","","",""
"","html-keyboard-response","267","1028201","0.0-146.0-1.0","null","<p></p>","null","","","","","","","","","","","","","","","","","","",""
"","do_trial","268","1033164","0.0-147.0-0.0","386.60000002384186","","","","49","1,1,0","2","forest","88","probe-194","0.6689500307880996","0.327308674324629","0.20484763224361288","1","","","","","","","",""
"","html-keyboard-response","269","1034172","0.0-147.0-1.0","null","<p></p>","null","","","","","","","","","","","","","","","","","","",""
"","do_trial","270","1039099","0.0-148.0-0.0","358.39999997615814","","","","49","0,0,0","2","forest","89","probe-225","0.49428545620552955","0.2546076640596081","0.2009861160322233","0","","","","","","","",""
"","html-keyboard-response","271","1040105","0.0-148.0-1.0","null","<p></p>","null","","","","","","","","","","","","","","","","","","",""
"","do_trial","272","1045480","0.0-149.0-0.0","776.1000000238419","","","","50","1,1,0","2","forest","90","probe-80","0.5048498843905501","0.1740255235239372","0.1417452683613062","1","","","","","","","",""
"","html-keyboard-response","273","1046488","0.0-149.0-1.0","null","<p></p>","null","","","","","","","","","","","","","","","","","","",""
"","do_trial","274","1051293","0.0-150.0-0.0","248","","","","51","0,1,0","2","forest","91","probe-200","0.5375080253709039","0.27921262245882217","0.13265724725098277","0","","","","","","","",""
"","html-keyboard-response","275","1052300","0.0-150.0-1.0","null","<p></p>","null","","","","","","","","","","","","","","","","","","",""
"","do_trial","276","1057127","0.0-151.0-0.0","243.60000002384186","","","","51","1,0,0","2","forest","92","probe-74","0.37284948140514756","0.2594082407497452","0.20503177163226013","0","","","","","","","",""
"","html-keyboard-response","277","1058134","0.0-151.0-1.0","null","<p></p>","null","","","","","","","","","","","","","","","","","","",""
"","do_trial","278","1062912","0.0-152.0-0.0","206.80000007152557","","","","49","1,0,1","2","forest","93","probe-48","0.3482553104049106","0.2369472516287906","0.08237564590847272","1","","","","","","","",""
"","html-keyboard-response","279","1063917","0.0-152.0-1.0","null","<p></p>","null","","","","","","","","","","","","","","","","","","",""
"","do_trial","280","1068778","0.0-153.0-0.0","272.5","","","","49","1,0,0","2","forest","94","probe-184","0.5233378210894122","0.2276431674759952","0.07663020798457107","1","","","","","","","",""
"","html-keyboard-response","281","1069789","0.0-153.0-1.0","null","<p></p>","null","","","","","","","","","","","","","","","","","","",""
"","do_trial","282","1074929","0.0-154.0-0.0","564.8999999761581","","","","50","0,1,0","2","forest","95","probe-216","0.39152704927919074","0.32580315461250775","0.2320742689501281","1","","","","","","","",""
"","html-keyboard-response","283","1075936","0.0-154.0-1.0","null","<p></p>","null","","","","","","","","","","","","","","","","","","",""
"","do_trial","284","1080805","0.0-155.0-0.0","288.89999997615814","","","","50","0,0,0","2","forest","96","probe-222","0.5855599290658142","0.20093118764175416","0.18406817907465475","0","","","","","","","",""
"","html-keyboard-response","285","1081814","0.0-155.0-1.0","null","<p></p>","null","","","","","","","","","","","","","","","","","","",""
"","do_trial","286","1086596","0.0-156.0-0.0","209.59999990463257","","","","51","1,0,1","2","forest","97","probe-51","0.5143723862075793","0.3224860865702015","0.2173957840857898","1","","","","","","","",""
"","html-keyboard-response","287","1087598","0.0-156.0-1.0","null","<p></p>","null","","","","","","","","","","","","","","","","","","",""
"","do_trial","288","1092777","0.0-157.0-0.0","595.3000000715256","","","","51","1,0,1","2","forest","98","probe-17","0.4800524415858734","0.4279612396275612","0.18672208917719155","1","","","","","","","",""
"","html-keyboard-response","289","1093785","0.0-157.0-1.0","null","<p></p>","null","","","","","","","","","","","","","","","","","","",""
"","do_trial","290","1098930","0.0-158.0-0.0","581.8000000715256","","","","51","1,0,0","2","forest","99","probe-96","0.5908291761041239","0.34543611853416006","0.09323676032124022","0","","","","","","","",""
"","html-keyboard-response","291","1099935","0.0-158.0-1.0","null","<p></p>","null","","","","","","","","","","","","","","","","","","",""
"","do_trial","292","1105054","0.0-159.0-0.0","535","","","","50","0,1,0","2","forest","100","probe-35","0.581742296206327","0.3062249006959241","0.09579172294866595","1","","","","","","","",""
"","html-keyboard-response","293","1106064","0.0-159.0-1.0","null","<p></p>","null","","","","","","","","","","","","","","","","","","",""
"","do_trial","294","1111058","0.0-160.0-0.0","427.2999999523163","","","","50","1,0,0","2","forest","101","probe-162","0.5871756965201073","0.2737676203640191","0.06227099157619612","0","","","","","","","",""
"","html-keyboard-response","295","1112073","0.0-160.0-1.0","null","<p></p>","null","","","","","","","","","","","","","","","","","","",""
"","do_trial","296","1116894","0.0-161.0-0.0","241.39999997615814","","","","49","1,0,0","2","forest","102","probe-16","0.5962349071978374","0.24251979453111677","0.17229659569514932","1","","","","","","","",""
"","html-keyboard-response","297","1117907","0.0-161.0-1.0","null","<p></p>","null","","","","","","","","","","","","","","","","","","",""
"","do_trial","298","1122742","0.0-162.0-0.0","268.60000002384186","","","","50","1,0,1","2","forest","103","probe-133","0.628370273753856","0.19337658667756408","0.14272702777333557","0","","","","","","","",""
"","html-keyboard-response","299","1123743","0.0-162.0-1.0","null","<p></p>","null","","","","","","","","","","","","","","","","","","",""
"","do_trial","300","1128554","0.0-163.0-0.0","230.10000002384186","","","","49","1,1,0","2","forest","104","probe-167","0.6430689536926033","0.2944738893500762","0.08821559755123615","1","","","","","","","",""
"","html-keyboard-response","301","1129557","0.0-163.0-1.0","null","<p></p>","null","","","","","","","","","","","","","","","","","","",""
"","do_trial","302","1134420","0.0-164.0-0.0","298.7000000476837","","","","49","0,0,0","2","forest","105","probe-112","0.6946151784662437","0.47290545802162487","0.14708340684036206","0","","","","","","","",""
"","html-keyboard-response","303","1135428","0.0-164.0-1.0","null","<p></p>","null","","","","","","","","","","","","","","","","","","",""
"","do_trial","304","1140245","0.0-165.0-0.0","225.20000004768372","","","","50","0,1,1","2","forest","106","probe-181","0.679619791299481","0.5328053224805386","0.18646765692202139","1","","","","","","","",""
"","html-keyboard-response","305","1141250","0.0-165.0-1.0","null","<p></p>","null","","","","","","","","","","","","","","","","","","",""
"","do_trial","306","1146104","0.0-166.0-0.0","269.89999997615814","","","","50","1,0,0","2","forest","107","probe-146","0.576141554104941","0.4456556539086484","0.11860601577839539","0","","","","","","","",""
"","html-keyboard-response","307","1147108","0.0-166.0-1.0","null","<p></p>","null","","","","","","","","","","","","","","","","","","",""
"","do_trial","308","1151905","0.0-167.0-0.0","228.70000004768372","","","","50","0,1,0","2","forest","108","probe-187","0.5890127162376273","0.2766927245414044","0.06649282200226032","1","","","","","","","",""
"","html-keyboard-response","309","1152910","0.0-167.0-1.0","null","<p></p>","null","","","","","","","","","","","","","","","","","","",""
"","do_trial","310","1158024","0.0-168.0-0.0","534.3999999761581","","","","51","0,0,0","2","forest","109","probe-107","0.4869053403622244","0.3016866729290173","0.214395000074907","0","","","","","","","",""
"","html-keyboard-response","311","1159035","0.0-168.0-1.0","null","<p></p>","null","","","","","","","","","","","","","","","","","","",""
"","do_bye","312","1160549","0.0-169.0-0.0","null","","","","null","","","","","","","","","","","","","","","","",""
"","do_travel","313","1166559","0.0-170.0-0.0","null","","","","null","","","","","","","","","","","","","","","","",""
"","do_welcome","314","1168075","0.0-170.0-1.0","null","","","","null","","","","","","","","","","","","","","","","",""
"","do_trial","315","1174157","0.0-171.0-0.0","null","","","","null","1,0,0","3","countryside","110","probe-99","1","0.3119072379058933","0.16227601981340514","","","","","","","","",""
"","html-keyboard-response","316","1175165","0.0-171.0-1.0","null","<p></p>","null","","","","","","","","","","","","","","","","","","",""
"","do_trial","317","1180351","0.0-172.0-0.0","613.8999999761581","","","","51","1,0,0","3","countryside","111","probe-03","1","0.21576495604607362","0.24036578434265438","0","","","","","","","",""
"","html-keyboard-response","318","1181353","0.0-172.0-1.0","null","<p></p>","null","","","","","","","","","","","","","","","","","","",""
"","do_trial","319","1186324","0.0-173.0-0.0","399.60000002384186","","","","50","0,1,0","3","countryside","112","probe-84","0.8049368418935073","0.28372139734101764","0.2581234288633565","1","","","","","","","",""
"","html-keyboard-response","320","1187340","0.0-173.0-1.0","null","<p></p>","null","","","","","","","","","","","","","","","","","","",""
"","do_trial","321","1192231","0.0-174.0-0.0","305.7000000476837","","","","50","0,0,0","3","countryside","113","probe-134","0.6687991418152517","0.33018130026066184","0.1658276547364505","0","","","","","","","",""
"","html-keyboard-response","322","1193234","0.0-174.0-1.0","null","<p></p>","null","","","","","","","","","","","","","","","","","","",""
"","do_trial","323","1198072","0.0-175.0-0.0","264.40000009536743","","","","50","1,0,0","3","countryside","114","probe-140","0.530425903289573","0.31227433463730747","0.14087638675136263","0","","","","","","","",""
"","html-keyboard-response","324","1199074","0.0-175.0-1.0","null","<p></p>","null","","","","","","","","","","","","","","","","","","",""
"","do_trial","325","1204233","0.0-176.0-0.0","568.5","","","","51","0,0,0","3","countryside","115","probe-69","0.4851590313699113","0.20797970076550013","0.26662181577338856","0","","","","","","","",""
"","html-keyboard-response","326","1205249","0.0-176.0-1.0","null","<p></p>","null","","","","","","","","","","","","","","","","","","",""
"","do_trial","327","1209902","0.0-177.0-0.0","78.89999997615814","","","","49","1,0,0","3","countryside","116","probe-177","0.5447733510590012","0.15571056798622374","0.20636165425814704","1","","","","","","","",""
"","html-keyboard-response","328","1210911","0.0-177.0-1.0","null","<p></p>","null","","","","","","","","","","","","","","","","","","",""
"","do_trial","329","1215591","0.0-178.0-0.0","97.19999992847443","","","","49","1,0,0","3","countryside","117","probe-30","0.6019074642177177","0.24233350307842982","0.13163491500883445","1","","","","","","","",""
"","html-keyboard-response","330","1216601","0.0-178.0-1.0","null","<p></p>","null","","","","","","","","","","","","","","","","","","",""
"","do_trial","331","1221259","0.0-179.0-0.0","90.79999995231628","","","","49","1,0,0","3","countryside","118","probe-33","0.625349383282964","0.12659415316995323","0.2646650944483239","1","","","","","","","",""
"","html-keyboard-response","332","1222271","0.0-179.0-1.0","null","<p></p>","null","","","","","","","","","","","","","","","","","","",""
"","do_trial","333","1226967","0.0-180.0-0.0","128","","","","49","1,0,1","3","countryside","119","probe-124","0.4566392776208361","0.20426046523006997","0.18677682197048384","1","","","","","","","",""
"","html-keyboard-response","334","1227978","0.0-180.0-1.0","null","<p></p>","null","","","","","","","","","","","","","","","","","","",""
"","do_trial","335","1232552","0.0-181.0-0.0","0.40000009536743164","","","","49","0,0,0","3","countryside","120","probe-208","0.3293130424369418","0.16952154533394068","0.09861742883190885","0","","","","","","","",""
"","html-keyboard-response","336","1233560","0.0-181.0-1.0","null","<p></p>","null","","","","","","","","","","","","","","","","","","",""
"","do_trial","337","1238134","0.0-182.0-0.0","0.20000004768371582","","","","49","1,0,0","3","countryside","121","probe-197","0.19310388627003833","0.19741458537083398","0.13532860681021291","1","","","","","","","",""
"","html-keyboard-response","338","1239138","0.0-182.0-1.0","null","<p></p>","null","","","","","","","","","","","","","","","","","","",""
"","do_trial","339","1243720","0.0-183.0-0.0","0.20000004768371582","","","","49","0,0,0","3","countryside","122","probe-41","0.16613695756229152","0.281425348497706","0.28138069247433084","0","","","","","","","",""
"","html-keyboard-response","340","1244729","0.0-183.0-1.0","null","<p></p>","null","","","","","","","","","","","","","","","","","","",""
"","do_trial","341","1249314","0.0-184.0-0.0","15.100000023841858","","","","49","0,0,1","3","countryside","123","probe-100","0.10088332889720061","0.4147502493301349","0.24361595901533875","0","","","","","","","",""
"","html-keyboard-response","342","1250317","0.0-184.0-1.0","null","<p></p>","null","","","","","","","","","","","","","","","","","","",""
"","do_trial","343","1254956","0.0-185.0-0.0","84.29999995231628","","","","49","0,1,0","3","countryside","124","probe-141","0.05319294571375578","0.43003729449650857","0.3049090659269859","0","","","","","","","",""
"","html-keyboard-response","344","1255963","0.0-185.0-1.0","null","<p></p>","null","","","","","","","","","","","","","","","","","","",""
"","do_trial","345","1260663","0.0-186.0-0.0","118","","","","49","0,0,0","3","countryside","125","probe-61","0.08970687494605512","0.47635671177510686","0.2662293310079017","0","","","","","","","",""
"","html-keyboard-response","346","1261670","0.0-186.0-1.0","null","<p></p>","null","","","","","","","","","","","","","","","","","","",""
"","do_trial","347","1266342","0.0-187.0-0.0","87.69999992847443","","","","49","0,1,0","3","countryside","126","probe-171","0.0765347522345219","0.5212254243726748","0.3190309136475515","0","","","","","","","",""
"","html-keyboard-response","348","1267350","0.0-187.0-1.0","null","<p></p>","null","","","","","","","","","","","","","","","","","","",""
"","do_trial","349","1272138","0.0-188.0-0.0","207.5","","","","49","0,0,0","3","countryside","127","probe-56","0.1241018598822737","0.6043586130466562","0.20324206608333867","0","","","","","","","",""
"","html-keyboard-response","350","1273142","0.0-188.0-1.0","null","<p></p>","null","","","","","","","","","","","","","","","","","","",""
"","do_trial","351","1277967","0.0-189.0-0.0","259.2000000476837","","","","50","0,0,0","3","countryside","128","probe-63","0.1009394443791578","0.5475588043645384","0.21953798702245667","0","","","","","","","",""
"","html-keyboard-response","352","1278970","0.0-189.0-1.0","null","<p></p>","null","","","","","","","","","","","","","","","","","","",""
"","do_trial","353","1283790","0.0-190.0-0.0","251.80000007152557","","","","50","0,0,1","3","countryside","129","probe-182","0.12843919097149245","0.6278109410349496","0.36039907542458904","0","","","","","","","",""
"","html-keyboard-response","354","1284799","0.0-190.0-1.0","null","<p></p>","null","","","","","","","","","","","","","","","","","","",""
"","do_trial","355","1289829","0.0-191.0-0.0","452.7999999523163","","","","51","0,0,1","3","countryside","130","probe-213","0.2324535186350344","0.5896082325228897","0.2712301826677335","1","","","","","","","",""
"","html-keyboard-response","356","1290835","0.0-191.0-1.0","null","<p></p>","null","","","","","","","","","","","","","","","","","","",""
"","do_trial","357","1295855","0.0-192.0-0.0","445.60000002384186","","","","51","1,1,0","3","countryside","131","probe-66","0.11910520342837135","0.5690596834840693","0.15679790286232254","0","","","","","","","",""
"","html-keyboard-response","358","1296861","0.0-192.0-1.0","null","<p></p>","null","","","","","","","","","","","","","","","","","","",""
"","do_trial","359","1301723","0.0-193.0-0.0","289.5","","","","49","0,1,0","3","countryside","132","probe-68","0.10918687059286689","0.7469358054765692","0.15110177604884775","0","","","","","","","",""
"","html-keyboard-response","360","1302728","0.0-193.0-1.0","null","<p></p>","null","","","","","","","","","","","","","","","","","","",""
"","do_trial","361","1307630","0.0-194.0-0.0","337.5","","","","49","0,1,0","3","countryside","133","probe-120","0.09242683080830055","0.7292804764159412","0.1500498586867678","0","","","","","","","",""
"","html-keyboard-response","362","1308642","0.0-194.0-1.0","null","<p></p>","null","","","","","","","","","","","","","","","","","","",""
"","do_trial","363","1313774","0.0-195.0-0.0","570.0999999046326","","","","51","0,1,0","3","countryside","134","probe-189","0.07538460903431063","0.7884261066131462","0.2232979775767066","0","","","","","","","",""
"","html-keyboard-response","364","1314778","0.0-195.0-1.0","null","<p></p>","null","","","","","","","","","","","","","","","","","","",""
"","do_trial","365","1319660","0.0-196.0-0.0","303.60000002384186","","","","49","1,1,0","3","countryside","135","probe-42","0.11393641958303993","0.6709166657454578","0.2529348472239812","1","","","","","","","",""
"","html-keyboard-response","366","1320670","0.0-196.0-1.0","null","<p></p>","null","","","","","","","","","","","","","","","","","","",""
"","do_trial","367","1325588","0.0-197.0-0.0","343.60000002384186","","","","51","0,1,0","3","countryside","136","probe-174","0.20219607682660787","0.6265968005637824","0.2563882087558834","0","","","","","","","",""
"","html-keyboard-response","368","1326602","0.0-197.0-1.0","null","<p></p>","null","","","","","","","","","","","","","","","","","","",""
"","do_trial","369","1331422","0.0-198.0-0.0","249.39999997615814","","","","49","0,0,0","3","countryside","137","probe-150","0.223714474984425","0.4768116480171524","0.25128195856819724","0","","","","","","","",""
"","html-keyboard-response","370","1332431","0.0-198.0-1.0","null","<p></p>","null","","","","","","","","","","","","","","","","","","",""
"","do_trial","371","1337302","0.0-199.0-0.0","302.10000002384186","","","","49","1,1,0","3","countryside","138","probe-21","0.2360500192929497","0.4995241351112599","0.35379182481153876","1","","","","","","","",""
"","html-keyboard-response","372","1338312","0.0-199.0-1.0","null","<p></p>","null","","","","","","","","","","","","","","","","","","",""
"","do_trial","373","1343357","0.0-200.0-0.0","470.6999999284744","","","","49","1,1,1","3","countryside","139","probe-02","0.15253872685285746","0.6397311669623721","0.2525531409349684","1","","","","","","","",""
"","html-keyboard-response","374","1344372","0.0-200.0-1.0","null","<p></p>","null","","","","","","","","","","","","","","","","","","",""
"","do_trial","375","1349349","0.0-201.0-0.0","405","","","","49","0,1,0","3","countryside","140","probe-28","0.21901213689177432","0.48349849381616133","0.2583067008063386","0","","","","","","","",""
"","html-keyboard-response","376","1350359","0.0-201.0-1.0","null","<p></p>","null","","","","","","","","","","","","","","","","","","",""
"","do_trial","377","1355222","0.0-202.0-0.0","292.39999997615814","","","","49","0,0,0","3","countryside","141","probe-44","0.16810481729053592","0.5355929449191745","0.3221077369136677","0","","","","","","","",""
"","html-keyboard-response","378","1356227","0.0-202.0-1.0","null","<p></p>","null","","","","","","","","","","","","","","","","","","",""
"","do_trial","379","1361436","0.0-203.0-0.0","641.3999999761581","","","","49","0,0,0","3","countryside","142","probe-97","0.1984387774709446","0.6253992154397868","0.41086499493652784","0","","","","","","","",""
"","html-keyboard-response","380","1362447","0.0-203.0-1.0","null","<p></p>","null","","","","","","","","","","","","","","","","","","",""
"","do_trial","381","1367337","0.0-204.0-0.0","310","","","","51","0,1,1","3","countryside","143","probe-201","0.10381338660177107","0.6878708255914316","0.37744480838703115","1","","","","","","","",""
"","html-keyboard-response","382","1368353","0.0-204.0-1.0","null","<p></p>","null","","","","","","","","","","","","","","","","","","",""
"","do_trial","383","1373364","0.0-205.0-0.0","426.2000000476837","","","","51","0,1,1","3","countryside","144","probe-173","0.16286472878737293","0.7090254496448125","0.278135482660624","1","","","","","","","",""
"","html-keyboard-response","384","1374365","0.0-205.0-1.0","null","<p></p>","null","","","","","","","","","","","","","","","","","","",""
"","do_trial","385","1379845","0.0-206.0-0.0","896.5","","","","51","0,1,1","3","countryside","145","probe-149","0.189633975976974","0.7147918289965897","0.3482298558523453","1","","","","","","","",""
"","html-keyboard-response","386","1380852","0.0-206.0-1.0","null","<p></p>","null","","","","","","","","","","","","","","","","","","",""
"","do_trial","387","1385713","0.0-207.0-0.0","288.10000002384186","","","","51","1,1,0","3","countryside","146","probe-43","0.21919679825847532","0.6639710698226263","0.29594571706427436","0","","","","","","","",""
"","html-keyboard-response","388","1386727","0.0-207.0-1.0","null","<p></p>","null","","","","","","","","","","","","","","","","","","",""
"","do_trial","389","1391663","0.0-208.0-0.0","367.2999999523163","","","","51","0,1,1","3","countryside","147","probe-07","0.06574300825830799","0.631291436045993","0.33653336245604804","1","","","","","","","",""
"","html-keyboard-response","390","1392666","0.0-208.0-1.0","null","<p></p>","null","","","","","","","","","","","","","","","","","","",""
"","do_trial","391","1397539","0.0-209.0-0.0","297.3000000715256","","","","51","0,1,0","3","countryside","148","probe-196","0.1492317719937239","0.5625307132675187","0.44996467814642116","0","","","","","","","",""
"","html-keyboard-response","392","1398547","0.0-209.0-1.0","null","<p></p>","null","","","","","","","","","","","","","","","","","","",""
"","do_trial","393","1403346","0.0-210.0-0.0","229.10000002384186","","","","51","0,0,1","3","countryside","149","probe-207","0.12278502931722572","0.587963412575575","0.47799019925437547","1","","","","","","","",""
"","html-keyboard-response","394","1404353","0.0-210.0-1.0","null","<p></p>","null","","","","","","","","","","","","","","","","","","",""
"","do_bye","395","1405866","0.0-211.0-0.0","null","","","","null","","","","","","","","","","","","","","","","",""
"","do_travel","396","1411871","0.0-212.0-0.0","null","","","","null","","","","","","","","","","","","","","","","",""
"","do_welcome","397","1413380","0.0-212.0-1.0","null","","","","null","","","","","","","","","","","","","","","","",""
"","do_trial","398","1420863","0.0-213.0-0.0","2910.8000000715256","","","","51","0,1,1","4","highway","150","probe-161","0.22227326885182636","1","0.5056971949093928","1","","","","","","","",""
"","html-keyboard-response","399","1421872","0.0-213.0-1.0","null","<p></p>","null","","","","","","","","","","","","","","","","","","",""
"","do_trial","400","1426860","0.0-214.0-0.0","429.2999999523163","","","","51","0,1,1","4","highway","151","probe-220","0.1931890964576912","1","0.2774338834148111","1","","","","","","","",""
"","html-keyboard-response","401","1427870","0.0-214.0-1.0","null","<p></p>","null","","","","","","","","","","","","","","","","","","",""
"","do_trial","402","1432813","0.0-215.0-0.0","368","","","","51","0,1,0","4","highway","152","probe-125","0.1784033592818981","0.843384376608537","0.31074193254650156","0","","","","","","","",""
"","html-keyboard-response","403","1433828","0.0-215.0-1.0","null","<p></p>","null","","","","","","","","","","","","","","","","","","",""
"","do_trial","404","1438652","0.0-216.0-0.0","260","","","","50","0,1,1","4","highway","153","probe-179","0.10863511501428347","0.7114488683598547","0.46829375901039266","1","","","","","","","",""
"","html-keyboard-response","405","1439653","0.0-216.0-1.0","null","<p></p>","null","","","","","","","","","","","","","","","","","","",""
"","do_trial","406","1444536","0.0-217.0-0.0","306.5","","","","50","0,1,0","4","highway","154","probe-168","0.12056175390111473","0.7616709708042743","0.4332082094295789","1","","","","","","","",""
"","html-keyboard-response","407","1445544","0.0-217.0-1.0","null","<p></p>","null","","","","","","","","","","","","","","","","","","",""
"","do_trial","408","1450357","0.0-218.0-0.0","247.29999995231628","","","","50","0,1,0","4","highway","155","probe-193","0.13817059585940625","0.6263651462139788","0.20694828495219422","1","","","","","","","",""
"","html-keyboard-response","409","1451368","0.0-218.0-1.0","null","<p></p>","null","","","","","","","","","","","","","","","","","","",""
"","do_trial","410","1456218","0.0-219.0-0.0","277.1999999284744","","","","50","1,1,0","4","highway","156","probe-90","0.12349899717712366","0.5451759073942042","0.25121211966423557","1","","","","","","","",""
"","html-keyboard-response","411","1457234","0.0-219.0-1.0","null","<p></p>","null","","","","","","","","","","","","","","","","","","",""
"","do_trial","412","1462202","0.0-220.0-0.0","395.60000002384186","","","","50","0,1,1","4","highway","157","probe-166","0.15994789984683522","0.5385021991654316","0.31056180480022766","1","","","","","","","",""
"","html-keyboard-response","413","1463219","0.0-220.0-1.0","null","<p></p>","null","","","","","","","","","","","","","","","","","","",""
"","do_trial","414","1468262","0.0-221.0-0.0","464.5","","","","50","1,1,0","4","highway","158","probe-60","0.37329937111432526","0.4932112468666271","0.23925969608936967","1","","","","","","","",""
"","html-keyboard-response","415","1469265","0.0-221.0-1.0","null","<p></p>","null","","","","","","","","","","","","","","","","","","",""
"","do_trial","416","1474473","0.0-222.0-0.0","642.2999999523163","","","","50","1,0,0","4","highway","159","probe-25","0.28277494347825904","0.5113734203790249","0.2793246021040624","0","","","","","","","",""
"","html-keyboard-response","417","1475490","0.0-222.0-1.0","null","<p></p>","null","","","","","","","","","","","","","","","","","","",""
"","do_trial","418","1480288","0.0-223.0-0.0","222.70000004768372","","","","50","1,0,1","4","highway","160","probe-109","0.38222413053050314","0.3916133521087324","0.3302512283577816","0","","","","","","","",""
"","html-keyboard-response","419","1481296","0.0-223.0-1.0","null","<p></p>","null","","","","","","","","","","","","","","","","","","",""
"","do_trial","420","1485991","0.0-224.0-0.0","114.69999992847443","","","","49","0,0,0","4","highway","161","probe-145","0.21353464985956397","0.40978206217987656","0.3138393831958459","0","","","","","","","",""
"","html-keyboard-response","421","1487001","0.0-224.0-1.0","null","<p></p>","null","","","","","","","","","","","","","","","","","","",""
"","do_trial","422","1491980","0.0-225.0-0.0","401.7999999523163","","","","51","1,0,1","4","highway","162","probe-129","0.271332069029257","0.14078696405280808","0.49253635858280703","1","","","","","","","",""
"","html-keyboard-response","423","1492987","0.0-225.0-1.0","null","<p></p>","null","","","","","","","","","","","","","","","","","","",""
"","do_trial","424","1497863","0.0-226.0-0.0","307.2999999523163","","","","50","1,1,0","4","highway","163","probe-64","0.15692134603325852","0.056722315534963555","0.5610910862512813","1","","","","","","","",""
"","html-keyboard-response","425","1498877","0.0-226.0-1.0","null","<p></p>","null","","","","","","","","","","","","","","","","","","",""
"","do_trial","426","1503769","0.0-227.0-0.0","318.6999999284744","","","","50","1,0,1","4","highway","164","probe-15","0.21543974772559357","0.08779309357348096","0.6755319866772582","0","","","","","","","",""
"","html-keyboard-response","427","1504771","0.0-227.0-1.0","null","<p></p>","null","","","","","","","","","","","","","","","","","","",""
"","do_trial","428","1509703","0.0-228.0-0.0","365.7000000476837","","","","51","0,0,1","4","highway","165","probe-190","0.11573284473474249","0.19376543123304024","0.6095133366238149","1","","","","","","","",""
"","html-keyboard-response","429","1510710","0.0-228.0-1.0","null","<p></p>","null","","","","","","","","","","","","","","","","","","",""
"","do_trial","430","1516614","0.0-229.0-0.0","1323.0999999046326","","","","51","1,0,0","4","highway","166","probe-05","0.2168913872467737","0.08079820492407296","0.6564472389523737","0","","","","","","","",""
"","html-keyboard-response","431","1517617","0.0-229.0-1.0","null","<p></p>","null","","","","","","","","","","","","","","","","","","",""
"","do_trial","432","1522454","0.0-230.0-0.0","260.5","","","","50","0,1,1","4","highway","167","probe-50","0.31607700823836776","0.10866595002027757","0.5257872306094679","1","","","","","","","",""
"","html-keyboard-response","433","1523464","0.0-230.0-1.0","null","<p></p>","null","","","","","","","","","","","","","","","","","","",""
"","do_trial","434","1528791","0.0-231.0-0.0","748.7000000476837","","","","50","0,0,1","4","highway","168","probe-136","0.2701700137573748","0.07288589066496766","0.5629491426956568","0","","","","","","","",""
"","html-keyboard-response","435","1529800","0.0-231.0-1.0","null","<p></p>","null","","","","","","","","","","","","","","","","","","",""
"","do_trial","436","1534654","0.0-232.0-0.0","275.89999997615814","","","","50","1,0,1","4","highway","169","probe-86","0.17137989279319704","0.1569386047041268","0.5498586789527555","0","","","","","","","",""
"","html-keyboard-response","437","1535657","0.0-232.0-1.0","null","<p></p>","null","","","","","","","","","","","","","","","","","","",""
"","do_trial","438","1540259","0.0-233.0-0.0","34.800000071525574","","","","51","0,0,1","4","highway","170","probe-93","0.2226591345253435","0.2189186512549135","0.5673378830591291","1","","","","","","","",""
"","html-keyboard-response","439","1541266","0.0-233.0-1.0","null","<p></p>","null","","","","","","","","","","","","","","","","","","",""
"","do_trial","440","1546172","0.0-234.0-0.0","332.6999999284744","","","","50","0,0,1","4","highway","171","probe-199","0.19595141693952084","0.23177705377101945","0.5095030588322544","0","","","","","","","",""
"","html-keyboard-response","441","1547188","0.0-234.0-1.0","null","<p></p>","null","","","","","","","","","","","","","","","","","","",""
"","do_trial","442","1552005","0.0-235.0-0.0","240.5","","","","50","0,0,0","4","highway","172","probe-188","0.19376083956471227","0.2698490753545906","0.6877210582658339","0","","","","","","","",""
"","html-keyboard-response","443","1553014","0.0-235.0-1.0","null","<p></p>","null","","","","","","","","","","","","","","","","","","",""
"","do_trial","444","1557629","0.0-236.0-0.0","21.300000071525574","","","","51","0,0,1","4","highway","173","probe-131","0.17928145658637654","0.2183787143923488","0.6496914460977712","1","","","","","","","",""
"","html-keyboard-response","445","1558638","0.0-236.0-1.0","null","<p></p>","null","","","","","","","","","","","","","","","","","","",""
"","do_trial","446","1563664","0.0-237.0-0.0","439.2000000476837","","","","51","0,0,1","4","highway","174","probe-169","0.23326882424505704","0.1211349945375006","0.5450529736856312","1","","","","","","","",""
"","html-keyboard-response","447","1564665","0.0-237.0-1.0","null","<p></p>","null","","","","","","","","","","","","","","","","","","",""
"","do_trial","448","1569575","0.0-238.0-0.0","333.2999999523163","","","","51","0,1,1","4","highway","175","probe-37","0.0840956994610821","0.153172952473887","0.4614835635606345","1","","","","","","","",""
"","html-keyboard-response","449","1570579","0.0-238.0-1.0","null","<p></p>","null","","","","","","","","","","","","","","","","","","",""
"","do_trial","450","1575156","0.0-239.0-0.0","0.19999992847442627","","","","51","1,0,0","4","highway","176","probe-94","0.22591859333022687","0.0664413326279921","0.493082079898498","0","","","","","","","",""
"","html-keyboard-response","451","1576159","0.0-239.0-1.0","null","<p></p>","null","","","","","","","","","","","","","","","","","","",""
"","do_trial","452","1580985","0.0-240.0-0.0","249.89999997615814","","","","51","1,1,0","4","highway","177","probe-20","0.3126321586422304","0.1547488996766703","0.5043516059928745","0","","","","","","","",""
"","html-keyboard-response","453","1581995","0.0-240.0-1.0","null","<p></p>","null","","","","","","","","","","","","","","","","","","",""
"","do_trial","454","1586822","0.0-241.0-0.0","260.7000000476837","","","","50","1,0,0","4","highway","178","probe-224","0.32832811341392926","0.16540601024999305","0.39843681613071824","0","","","","","","","",""
"","html-keyboard-response","455","1587824","0.0-241.0-1.0","null","<p></p>","null","","","","","","","","","","","","","","","","","","",""
"","do_trial","456","1592988","0.0-242.0-0.0","601","","","","50","0,0,0","4","highway","179","probe-191","0.23010437993521393","0.053445021084382864","0.4638150582035116","0","","","","","","","",""
"","html-keyboard-response","457","1593994","0.0-242.0-1.0","null","<p></p>","null","","","","","","","","","","","","","","","","","","",""
"","do_trial","458","1598777","0.0-243.0-0.0","214.10000002384186","","","","51","1,0,0","4","highway","180","probe-79","0.2388725103626055","0.08557980477826449","0.45560409116893824","0","","","","","","","",""
"","html-keyboard-response","459","1599783","0.0-243.0-1.0","null","<p></p>","null","","","","","","","","","","","","","","","","","","",""
"","do_trial","460","1605108","0.0-244.0-0.0","755","","","","51","0,1,1","4","highway","181","probe-204","0.24020705447401924","0.10454270445294515","0.5287414313967053","1","","","","","","","",""
"","html-keyboard-response","461","1606113","0.0-244.0-1.0","null","<p></p>","null","","","","","","","","","","","","","","","","","","",""
"","do_trial","462","1611024","0.0-245.0-0.0","335.5","","","","51","0,0,0","4","highway","182","probe-45","0.21799633387805833","0.10697306316046383","0.38799930920083264","0","","","","","","","",""
"","html-keyboard-response","463","1612030","0.0-245.0-1.0","null","<p></p>","null","","","","","","","","","","","","","","","","","","",""
"","do_trial","464","1616898","0.0-246.0-0.0","305","","","","50","1,0,1","4","highway","183","probe-218","0.360476609902688","0.10829930844263087","0.499375834253314","0","","","","","","","",""
"","html-keyboard-response","465","1617906","0.0-246.0-1.0","null","<p></p>","null","","","","","","","","","","","","","","","","","","",""
"","do_trial","466","1623112","0.0-247.0-0.0","611.5","","","","51","0,0,1","4","highway","184","probe-186","0.3498558579256252","0.22248372906990324","0.690943084461251","1","","","","","","","",""
"","html-keyboard-response","467","1624122","0.0-247.0-1.0","null","<p></p>","null","","","","","","","","","","","","","","","","","","",""
"","do_trial","468","1628866","0.0-248.0-0.0","166.5","","","","51","0,0,1","4","highway","185","probe-212","0.3248441676483779","0.37691530006077534","0.7532126089182255","1","","","","","","","",""
"","html-keyboard-response","469","1629882","0.0-248.0-1.0","null","<p></p>","null","","","","","","","","","","","","","","","","","","",""
"","do_trial","470","1634939","0.0-249.0-0.0","489.2000000476837","","","","51","0,1,1","4","highway","186","probe-40","0.27118318190353413","0.20174122855556037","0.5994529906073073","1","","","","","","","",""
"","html-keyboard-response","471","1635945","0.0-249.0-1.0","null","<p></p>","null","","","","","","","","","","","","","","","","","","",""
"","do_trial","472","1641135","0.0-250.0-0.0","622.6000000238419","","","","51","0,0,1","4","highway","187","probe-08","0.3177665855470932","0.1994173826274348","0.5595583645375752","1","","","","","","","",""
"","html-keyboard-response","473","1642140","0.0-250.0-1.0","null","<p></p>","null","","","","","","","","","","","","","","","","","","",""
"","do_trial","474","1647253","0.0-251.0-0.0","538.7999999523163","","","","51","0,0,1","4","highway","188","probe-148","0.2604281866566423","0.06314279177976098","0.55601316978896","1","","","","","","","",""
"","html-keyboard-response","475","1648270","0.0-251.0-1.0","null","<p></p>","null","","","","","","","","","","","","","","","","","","",""
"","do_trial","476","1653129","0.0-252.0-0.0","286.10000002384186","","","","51","0,0,1","4","highway","189","probe-11","0.29494964714265026","0.08718884368194378","0.76389263812225","1","","","","","","","",""
"","html-keyboard-response","477","1654132","0.0-252.0-1.0","null","<p></p>","null","","","","","","","","","","","","","","","","","","",""
"","do_bye","478","1655647","0.0-253.0-0.0","null","","","","null","","","","","","","","","","","","","","","","",""
"","do_travel","479","1661662","0.0-254.0-0.0","null","","","","null","","","","","","","","","","","","","","","","",""
"","do_welcome","480","1663182","0.0-254.0-1.0","null","","","","null","","","","","","","","","","","","","","","","",""
"","do_trial","481","1668588","0.0-255.0-0.0","836.3999999761581","","","","51","1,0,1","5","city","190","probe-138","0.3144116687761429","0.11329633694903114","1","1","","","","","","","",""
"","html-keyboard-response","482","1669595","0.0-255.0-1.0","null","<p></p>","null","","","","","","","","","","","","","","","","","","",""
"","do_trial","483","1674407","0.0-256.0-0.0","236.19999992847443","","","","51","0,1,1","5","city","191","probe-135","0.1977245887272513","0.15845388074318023","1","1","","","","","","","",""
"","html-keyboard-response","484","1675413","0.0-256.0-1.0","null","<p></p>","null","","","","","","","","","","","","","","","","","","",""
"","do_trial","485","1680546","0.0-257.0-0.0","555.5","","","","51","1,1,1","5","city","192","probe-223","0.3794467684670962","0.11520870010858668","0.8634097807031872","1","","","","","","","",""
"","html-keyboard-response","486","1681550","0.0-257.0-1.0","null","<p></p>","null","","","","","","","","","","","","","","","","","","",""
"","do_trial","487","1686407","0.0-258.0-0.0","282.39999997615814","","","","51","0,0,1","5","city","193","probe-106","0.4602489900177682","0.09812447173035382","0.883193103213985","1","","","","","","","",""
"","html-keyboard-response","488","1687418","0.0-258.0-1.0","null","<p></p>","null","","","","","","","","","","","","","","","","","","",""
"","do_trial","489","1692720","0.0-259.0-0.0","745.7000000476837","","","","51","0,0,0","5","city","194","probe-176","0.4073663701750083","0.08170790099123297","0.7510054000614993","0","","","","","","","",""
"","html-keyboard-response","490","1693726","0.0-259.0-1.0","null","<p></p>","null","","","","","","","","","","","","","","","","","","",""
"","do_trial","491","1698680","0.0-260.0-0.0","374.10000002384186","","","","51","0,0,1","5","city","195","probe-04","0.4025992480519577","0.15879359189837436","0.7959246498125321","1","","","","","","","",""
"","html-keyboard-response","492","1699685","0.0-260.0-1.0","null","<p></p>","null","","","","","","","","","","","","","","","","","","",""
"","do_trial","493","1704565","0.0-261.0-0.0","298.39999997615814","","","","51","0,1,1","5","city","196","probe-81","0.40297257072996673","0.11378353349375323","0.798330719419379","1","","","","","","","",""
"","html-keyboard-response","494","1705582","0.0-261.0-1.0","null","<p></p>","null","","","","","","","","","","","","","","","","","","",""
"","do_trial","495","1710466","0.0-262.0-0.0","307.1999999284744","","","","51","0,0,1","5","city","197","probe-215","0.3434801878465315","0.08525074278899102","0.7335106838376239","1","","","","","","","",""
"","html-keyboard-response","496","1711472","0.0-262.0-1.0","null","<p></p>","null","","","","","","","","","","","","","","","","","","",""
"","do_trial","497","1716393","0.0-263.0-0.0","333.90000009536743","","","","51","0,0,1","5","city","198","probe-156","0.25143004497475024","0.113185357374643","0.7008147884161909","1","","","","","","","",""
"","html-keyboard-response","498","1717407","0.0-263.0-1.0","null","<p></p>","null","","","","","","","","","","","","","","","","","","",""
"","do_trial","499","1722370","0.0-264.0-0.0","382.90000009536743","","","","51","0,0,1","5","city","199","probe-19","0.11687716517724737","0.05312990429907523","0.6224899668401499","1","","","","","","","",""
"","html-keyboard-response","500","1723386","0.0-264.0-1.0","null","<p></p>","null","","","","","","","","","","","","","","","","","","",""
"","do_trial","501","1728250","0.0-265.0-0.0","293.89999997615814","","","","51","0,0,0","5","city","200","probe-178","0.13183616667038484","0.09396768977889279","0.5490202365809771","0","","","","","","","",""
"","html-keyboard-response","502","1729257","0.0-265.0-1.0","null","<p></p>","null","","","","","","","","","","","","","","","","","","",""
"","do_trial","503","1734290","0.0-266.0-0.0","454.5","","","","51","0,0,1","5","city","201","probe-31","0.1452810956540183","0.11040560870062287","0.5136037039483148","1","","","","","","","",""
"","html-keyboard-response","504","1735306","0.0-266.0-1.0","null","<p></p>","null","","","","","","","","","","","","","","","","","","",""
"","do_trial","505","1740227","0.0-267.0-0.0","341.2999999523163","","","","51","1,0,0","5","city","202","probe-203","0.34465436531594945","0.21076464368832984","0.3807527296805748","0","","","","","","","",""
"","html-keyboard-response","506","1741237","0.0-267.0-1.0","null","<p></p>","null","","","","","","","","","","","","","","","","","","",""
"","do_trial","507","1746189","0.0-268.0-0.0","386.6999999284744","","","","51","0,1,1","5","city","203","probe-12","0.36828778204262486","0.2408182817987486","0.23172847327205567","1","","","","","","","",""
"","html-keyboard-response","508","1747191","0.0-268.0-1.0","null","<p></p>","null","","","","","","","","","","","","","","","","","","",""
"","do_trial","509","1752095","0.0-269.0-0.0","339.39999997615814","","","","51","1,0,0","5","city","204","probe-10","0.468175986673872","0.4311361775457766","0.1747596620827299","0","","","","","","","",""
"","html-keyboard-response","510","1753103","0.0-269.0-1.0","null","<p></p>","null","","","","","","","","","","","","","","","","","","",""
"","do_trial","511","1758153","0.0-270.0-0.0","467.5","","","","51","0,1,0","5","city","205","probe-71","0.5470166576321731","0.3453020949162228","0.0861836586933439","0","","","","","","","",""
"","html-keyboard-response","512","1759158","0.0-270.0-1.0","null","<p></p>","null","","","","","","","","","","","","","","","","","","",""
"","do_trial","513","1764809","0.0-271.0-0.0","1068.7000000476837","","","","51","1,1,0","5","city","206","probe-76","0.6730103836551453","0.33311242178687706","0.05069482592706086","0","","","","","","","",""
"","html-keyboard-response","514","1765813","0.0-271.0-1.0","null","<p></p>","null","","","","","","","","","","","","","","","","","","",""
"","do_trial","515","1770899","0.0-272.0-0.0","522.6000000238419","","","","51","1,1,0","5","city","207","probe-183","0.7284104866398471","0.27544601071152935","0.20334463589182178","0","","","","","","","",""
"","html-keyboard-response","516","1771912","0.0-272.0-1.0","null","<p></p>","null","","","","","","","","","","","","","","","","","","",""
"","do_trial","517","1776808","0.0-273.0-0.0","329.89999997615814","","","","51","0,0,1","5","city","208","probe-57","0.4964681760630218","0.3288080710554823","0.07920843661280151","1","","","","","","","",""
"","html-keyboard-response","518","1777825","0.0-273.0-1.0","null","<p></p>","null","","","","","","","","","","","","","","","","","","",""
"","do_trial","519","1782966","0.0-274.0-0.0","563.6000000238419","","","","51","1,0,0","5","city","209","probe-159","0.6768418764509256","0.2915942024590353","0.11117624364956843","0","","","","","","","",""
"","html-keyboard-response","520","1783973","0.0-274.0-1.0","null","<p></p>","null","","","","","","","","","","","","","","","","","","",""
"","do_trial","521","1788918","0.0-275.0-0.0","372","","","","50","1,0,0","5","city","210","probe-118","0.740025671683883","0.13189302502610858","0.15323540301870406","0","","","","","","","",""
"","html-keyboard-response","522","1789930","0.0-275.0-1.0","null","<p></p>","null","","","","","","","","","","","","","","","","","","",""
"","do_trial","523","1794747","0.0-276.0-0.0","245.70000004768372","","","","50","0,0,0","5","city","211","probe-75","0.5592648992049887","0.2636987355028183","0.07357986646335872","0","","","","","","","",""
"","html-keyboard-response","524","1795752","0.0-276.0-1.0","null","<p></p>","null","","","","","","","","","","","","","","","","","","",""
"","do_trial","525","1800573","0.0-277.0-0.0","267.39999997615814","","","","49","0,1,0","5","city","212","probe-211","0.6219985156493474","0.31386172363086745","0.07574481207460104","0","","","","","","","",""
