"success","trial_type","trial_index","time_elapsed","internal_node_id","interactions","blur_events","focus_events","fullscreenenter_events","fullscreenexit_events","rt","stimulus","key_press","subject_id","participant_id","age","gender","prompt","response","choice_outcomes","context_n","context_img_id","trial_n","probe_img_id","pR_red","pR_white","pR_black","outcome","contextArray_ind","validImageProbes","invalidImageProbes","pRew_Red","pRew_White","pRew_Black","availableForMemProbe","choice_blocks"
"true","fullscreen","0","3981","0.0-0.0","""event"",""trial"",""time""
""fullscreenenter"",""0"",""3028""
","
","
","""event"",""trial"",""time""
""fullscreenenter"",""0"",""3028""
","
","","","","","","","","","","","","","","","","","","","","","","","","","",""
"","pavlovia","1","3992","0.0-1.0","""event"",""trial"",""time""
""fullscreenenter"",""0"",""3028""
","
","
","""event"",""trial"",""time""
""fullscreenenter"",""0"",""3028""
","
","","","","","","","","","","","","","","","","","","","","","","","","","",""
"","instruc1","2","49120","0.0-2.0","""event"",""trial"",""time""
""fullscreenenter"",""0"",""3028""
","
","
","""event"",""trial"",""time""
""fullscreenenter"",""0"",""3028""
","
","null","run_exp/static/audio/clip_1_welcome.m4a","null","253","124","12","Male","<div class='center'><p>Welcome! This is the first part of the study. It will last ~30 minutes. In part 1 and part 2 of the study, you are the head captain of a pirate ship traveling around the world to different islands. You will play a few different games throughout these two parts. Here is an overview of them:</p><br><p>Part 1 (today)</p><p>1. Instructions, practice game, and quiz</p><p>2. Pick a pirate game on 6 different islands</p><br><p>Part 2 (tomorrow)</p><p>3. Pick a pirate game and memory game</p><p>4. Where did you see this ship? </p></div>","","","","","","","","","","","","","","","","","",""
"","html-keyboard-response","3","50593","0.0-3.0","""event"",""trial"",""time""
""fullscreenenter"",""0"",""3028""
","
","
","""event"",""trial"",""time""
""fullscreenenter"",""0"",""3028""
","
","1468","<div class='center'><p>Welcome! This is the first part of the study. It will last ~30 minutes. In part 1 and part 2 of the study, you are the head captain of a pirate ship traveling around the world to different islands. You will play a few different games throughout these two parts. Here is an overview of them:</p><br><p>Part 1 (today)</p><p>1. Instructions, practice game, and quiz</p><p>2. Pick a pirate game on 6 different islands</p><br><p>Part 2 (tomorrow)</p><p>3. Pick a pirate game and memory game</p><p>4. Where did you see this ship? </p><p><b>[Press the space bar to continue]</b></p></div>","32","","","","","","","","","","","","","","","","","","","","","","",""
"","instruc2","4","55939","0.0-4.0","""event"",""trial"",""time""
""fullscreenenter"",""0"",""3028""
","
","
","""event"",""trial"",""time""
""fullscreenenter"",""0"",""3028""
","
","null","run_exp/static/audio/clip_2_different_places.m4a","null","","","","","<div class='center'><p>Today, you’ll visit these 6 islands on your journey. You'll be able to see these islands from your ship.</p><p><img src='run_exp/static/images/contexts/all_contexts.png' height='500'></p></div>","","","","","","","","","","","","","","","","","",""
"","html-keyboard-response","5","57205","0.0-5.0","""event"",""trial"",""time""
""fullscreenenter"",""0"",""3028""
","
","
","""event"",""trial"",""time""
""fullscreenenter"",""0"",""3028""
","
","1258.9000000059605","<div class='center'><p>Today, you’ll visit these 6 islands on your journey. You'll be able to see these islands from your ship.</p><p><img src='run_exp/static/images/contexts/all_contexts.png' height='500'></p><p><b>[Press the space bar to continue]</b></p></div>","32","","","","","","","","","","","","","","","","","","","","","","",""
"","instruc3","6","66919","0.0-6.0","""event"",""trial"",""time""
""fullscreenenter"",""0"",""3028""
","
","
","""event"",""trial"",""time""
""fullscreenenter"",""0"",""3028""
","
","null","run_exp/static/audio/clip_3_goal_of_game_1.m4a","null","","","","","<div class='center'><p> The pirates on your ship will rob other ships as they leave the island.</p> These ships have just sold their goods to the islanders, so they will be filled with lots and lots of gold.</p><p><img src='run_exp/static/images/tutorial/ship_center.png' height='400'></p></div>","","","","","","","","","","","","","","","","","",""
"","html-keyboard-response","7","68729","0.0-7.0","""event"",""trial"",""time""
""fullscreenenter"",""0"",""3028""
","
","
","""event"",""trial"",""time""
""fullscreenenter"",""0"",""3028""
","
","1803.800000011921","<div class='center'><p> The pirates on your ship will rob other ships as they leave the island.</p> These ships have just sold their goods to the islanders, so they will be filled with lots and lots of gold.</p><p><img src='run_exp/static/images/tutorial/ship_center.png' height='400'></p><p><b>[Press the space bar to continue]</b></p></div>","32","","","","","","","","","","","","","","","","","","","","","","",""
"","instruc4","8","96739","0.0-8.0","""event"",""trial"",""time""
""fullscreenenter"",""0"",""3028""
","
","
","""event"",""trial"",""time""
""fullscreenenter"",""0"",""3028""
","
","null","run_exp/static/audio/clip_4_goal_of_game_2.m4a","null","","","","","<div class='center'><p>As the head captain, you do not have to rob any ships yourself. Another pirate will be doing the robbing for you. First, you will choose a pirate to rob the next ship.</p><p><img src='run_exp/static/images/tutorial/pirates_all_crop.png' height='200'></p><p>Then, you'll see if the pirate successfully robbed the ship of their gold. If they were successful, then you'll get a stack of gold coins like this:</p><p><img src='run_exp/static/images/tutorial/reward.png' height='150'></p><p> If they were <b>not</b> successful, then you'll get no gold coins, and you'll see a big red x like this: </p><p><img src='run_exp/static/images/tutorial/reward_no.png' height='150'></p><p> How much bonus money you make is based on how many gold coins you collect.</p><div>","","","","","","","","","","","","","","","","","",""
"","html-keyboard-response","9","98672","0.0-9.0","""event"",""trial"",""time""
""fullscreenenter"",""0"",""3028""
","
","
","""event"",""trial"",""time""
""fullscreenenter"",""0"",""3028""
","
","1928","<div class='center'><p>As the head captain, you do not have to rob any ships yourself. Another pirate will be doing the robbing for you. First, you will choose a pirate to rob the next ship.</p><p><img src='run_exp/static/images/tutorial/pirates_all_crop.png' height='200'></p><p>Then, you'll see if the pirate successfully robbed the ship of their gold. If they were successful, then you'll get a stack of gold coins like this:</p><p><img src='run_exp/static/images/tutorial/reward.png' height='150'></p><p> If they were <b>not</b> successful, then you'll get no gold coins, and you'll see a big red x like this: </p><p><img src='run_exp/static/images/tutorial/reward_no.png' height='150'></p><p> How much bonus money you make is based on how many gold coins you collect.</p<p><b>[Press the space bar to continue]</b></p></div>","32","","","","","","","","","","","","","","","","","","","","","","",""
"","instruc5","10","119603","0.0-10.0","""event"",""trial"",""time""
""fullscreenenter"",""0"",""3028""
","
","
","""event"",""trial"",""time""
""fullscreenenter"",""0"",""3028""
","
","20923.5","run_exp/static/audio/clip_5_probabilistic.m4a","49","","","","","<div class='center'><p>Even the most skilled pirate can not rob EVERY ship.</p><p> Some ships will have very strong protections against pirate attacks.</p><p> Blue beard, here, is very, very good at robbing ships, but he won't be successful every time he tries to rob one.</p><p> You can press the <b>‘1’</b> key on the keyboard to choose him.</p><p> Try choosing him 10 times to see how often he succeeds at robbing a ship. </p><p><img src='run_exp/static/images/tutorial/blue.png' height='500'></p></div>","","","","","","","","","","","","","","","","","",""
"","html-keyboard-response","11","121120","0.0-11.0","""event"",""trial"",""time""
""fullscreenenter"",""0"",""3028""
","
","
","""event"",""trial"",""time""
""fullscreenenter"",""0"",""3028""
","
","null","<div class='center'><p><img src='run_exp/static/images/tutorial/blue_win.png' height='500'></p></div>","null","","","","","","","","","","","","","","","","","","","","","","",""
"","html-keyboard-response","12","122776","0.0-12.0","""event"",""trial"",""time""
""fullscreenenter"",""0"",""3028""
","
","
","""event"",""trial"",""time""
""fullscreenenter"",""0"",""3028""
","
","1652.1000000238419","<div class='center'><img src='run_exp/static/images/tutorial/blue.png' height='500'></p></div>","49","","","","","","","","","","","","","","","","","","","","","","",""
"","html-keyboard-response","13","124293","0.0-13.0","""event"",""trial"",""time""
""fullscreenenter"",""0"",""3028""
","
","
","""event"",""trial"",""time""
""fullscreenenter"",""0"",""3028""
","
","null","<div class='center'><p><img src='run_exp/static/images/tutorial/blue_win.png' height='500'></p></div>","null","","","","","","","","","","","","","","","","","","","","","","",""
"","html-keyboard-response","14","124933","0.0-14.0","""event"",""trial"",""time""
""fullscreenenter"",""0"",""3028""
","
","
","""event"",""trial"",""time""
""fullscreenenter"",""0"",""3028""
","
","637.6999999880791","<div class='center'><img src='run_exp/static/images/tutorial/blue.png' height='500'></p></div>","49","","","","","","","","","","","","","","","","","","","","","","",""
"","html-keyboard-response","15","126449","0.0-15.0","""event"",""trial"",""time""
""fullscreenenter"",""0"",""3028""
","
","
","""event"",""trial"",""time""
""fullscreenenter"",""0"",""3028""
","
","null","<div class='center'><p><img src='run_exp/static/images/tutorial/blue_win.png' height='500'></p></div>","null","","","","","","","","","","","","","","","","","","","","","","",""
"","html-keyboard-response","16","126951","0.0-16.0","""event"",""trial"",""time""
""fullscreenenter"",""0"",""3028""
","
","
","""event"",""trial"",""time""
""fullscreenenter"",""0"",""3028""
","
","499.69999998807907","<div class='center'><img src='run_exp/static/images/tutorial/blue.png' height='500'></p></div>","49","","","","","","","","","","","","","","","","","","","","","","",""
"","html-keyboard-response","17","128468","0.0-17.0","""event"",""trial"",""time""
""fullscreenenter"",""0"",""3028""
","
","
","""event"",""trial"",""time""
""fullscreenenter"",""0"",""3028""
","
","null","<div class='center'><p><img src='run_exp/static/images/tutorial/blue_no_win.png' height='500'></p></div>","null","","","","","","","","","","","","","","","","","","","","","","",""
"","html-keyboard-response","18","129078","0.0-18.0","""event"",""trial"",""time""
""fullscreenenter"",""0"",""3028""
","
","
","""event"",""trial"",""time""
""fullscreenenter"",""0"",""3028""
","
","606.8000000119209","<div class='center'><img src='run_exp/static/images/tutorial/blue.png' height='500'></p></div>","49","","","","","","","","","","","","","","","","","","","","","","",""
"","html-keyboard-response","19","130584","0.0-19.0","""event"",""trial"",""time""
""fullscreenenter"",""0"",""3028""
","
","
","""event"",""trial"",""time""
""fullscreenenter"",""0"",""3028""
","
","null","<div class='center'><p><img src='run_exp/static/images/tutorial/blue_win.png' height='500'></p></div>","null","","","","","","","","","","","","","","","","","","","","","","",""
"","html-keyboard-response","20","131118","0.0-20.0","""event"",""trial"",""time""
""fullscreenenter"",""0"",""3028""
","
","
","""event"",""trial"",""time""
""fullscreenenter"",""0"",""3028""
","
","530.7000000178814","<div class='center'><img src='run_exp/static/images/tutorial/blue.png' height='500'></p></div>","49","","","","","","","","","","","","","","","","","","","","","","",""
"","html-keyboard-response","21","132626","0.0-21.0","""event"",""trial"",""time""
""fullscreenenter"",""0"",""3028""
","
","
","""event"",""trial"",""time""
""fullscreenenter"",""0"",""3028""
","
","null","<div class='center'><p><img src='run_exp/static/images/tutorial/blue_win.png' height='500'></p></div>","null","","","","","","","","","","","","","","","","","","","","","","",""
"","html-keyboard-response","22","133208","0.0-22.0","""event"",""trial"",""time""
""fullscreenenter"",""0"",""3028""
","
","
","""event"",""trial"",""time""
""fullscreenenter"",""0"",""3028""
","
","579.4000000059605","<div class='center'><img src='run_exp/static/images/tutorial/blue.png' height='500'></p></div>","49","","","","","","","","","","","","","","","","","","","","","","",""
"","html-keyboard-response","23","134731","0.0-23.0","""event"",""trial"",""time""
""fullscreenenter"",""0"",""3028""
","
","
","""event"",""trial"",""time""
""fullscreenenter"",""0"",""3028""
","
","null","<div class='center'><p><img src='run_exp/static/images/tutorial/blue_win.png' height='500'></p></div>","null","","","","","","","","","","","","","","","","","","","","","","",""
"","html-keyboard-response","24","135282","0.0-24.0","""event"",""trial"",""time""
""fullscreenenter"",""0"",""3028""
","
","
","""event"",""trial"",""time""
""fullscreenenter"",""0"",""3028""
","
","548.1999999880791","<div class='center'><img src='run_exp/static/images/tutorial/blue.png' height='500'></p></div>","49","","","","","","","","","","","","","","","","","","","","","","",""
"","html-keyboard-response","25","136794","0.0-25.0","""event"",""trial"",""time""
""fullscreenenter"",""0"",""3028""
","
","
","""event"",""trial"",""time""
""fullscreenenter"",""0"",""3028""
","
","null","<div class='center'><p><img src='run_exp/static/images/tutorial/blue_no_win.png' height='500'></p></div>","null","","","","","","","","","","","","","","","","","","","","","","",""
"","html-keyboard-response","26","137360","0.0-26.0","""event"",""trial"",""time""
""fullscreenenter"",""0"",""3028""
","
","
","""event"",""trial"",""time""
""fullscreenenter"",""0"",""3028""
","
","563.4000000059605","<div class='center'><img src='run_exp/static/images/tutorial/blue.png' height='500'></p></div>","49","","","","","","","","","","","","","","","","","","","","","","",""
"","html-keyboard-response","27","138865","0.0-27.0","""event"",""trial"",""time""
""fullscreenenter"",""0"",""3028""
","
","
","""event"",""trial"",""time""
""fullscreenenter"",""0"",""3028""
","
","null","<div class='center'><p><img src='run_exp/static/images/tutorial/blue_win.png' height='500'></p></div>","null","","","","","","","","","","","","","","","","","","","","","","",""
"","html-keyboard-response","28","139455","0.0-28.0","""event"",""trial"",""time""
""fullscreenenter"",""0"",""3028""
","
","
","""event"",""trial"",""time""
""fullscreenenter"",""0"",""3028""
","
","588.1999999880791","<div class='center'><img src='run_exp/static/images/tutorial/blue.png' height='500'></p></div>","49","","","","","","","","","","","","","","","","","","","","","","",""
"","html-keyboard-response","29","140961","0.0-29.0","""event"",""trial"",""time""
""fullscreenenter"",""0"",""3028""
","
","
","""event"",""trial"",""time""
""fullscreenenter"",""0"",""3028""
","
","null","<div class='center'><p><img src='run_exp/static/images/tutorial/blue_win.png' height='500'></p></div>","null","","","","","","","","","","","","","","","","","","","","","","",""
"","instruc6","30","146452","0.0-30.0","""event"",""trial"",""time""
""fullscreenenter"",""0"",""3028""
","
","
","""event"",""trial"",""time""
""fullscreenenter"",""0"",""3028""
","
","null","run_exp/static/audio/clip_6_blue_beard_outcome.m4a","null","","","","","<div class='center'><p> See, he succeeded in robbing the ships most of the time but not every time. </p></div>","","","","","","","","","","","","","","","","","",""
"","html-keyboard-response","31","147775","0.0-31.0","""event"",""trial"",""time""
""fullscreenenter"",""0"",""3028""
","
","
","""event"",""trial"",""time""
""fullscreenenter"",""0"",""3028""
","
","1315","<div class='center'><p> See, he succeeded in robbing the ships most of the time but not every time. </p><p><b>[Press the space bar to continue]</b></p></div>","32","","","","","","","","","","","","","","","","","","","","","","",""
"","audio-keyboard-response","32","163803","0.0-32.0","""event"",""trial"",""time""
""fullscreenenter"",""0"",""3028""
","
","
","""event"",""trial"",""time""
""fullscreenenter"",""0"",""3028""
","
","16021.200000017881","run_exp/static/audio/clip_7_pick_pirate.m4a","50","","","","","","","","","","","","","","","","","","","","","","",""
"","audio-keyboard-response","33","168166","0.0-33.0-0.0","""event"",""trial"",""time""
""fullscreenenter"",""0"",""3028""
","
","
","""event"",""trial"",""time""
""fullscreenenter"",""0"",""3028""
","
","4353.9000000059605","run_exp/static/audio/clip_8_chosen_pirate_win.m4a","32","","","","","","","","","","","","","","","","","","","","","","",""
"","audio-keyboard-response","34","170461","0.0-33.0-1.0","""event"",""trial"",""time""
""fullscreenenter"",""0"",""3028""
","
","
","""event"",""trial"",""time""
""fullscreenenter"",""0"",""3028""
","
","2289.7000000178814","run_exp/static/audio/clip_9_pick_a_pirate_again.m4a","51","","","","","","","","","","","","","","","","","","","","","","",""
"","audio-keyboard-response","35","170550","0.0-34.0-0.0","""event"",""trial"",""time""
""fullscreenenter"",""0"",""3028""
","
","
","""event"",""trial"",""time""
""fullscreenenter"",""0"",""3028""
","
","86.59999999403954","run_exp/static/audio/clip_10_chosen_pirate_loss.m4a","32","","","","","","","","","","","","","","","","","","","","","","",""
"","instruc9","36","176032","0.0-35.0-0.0","""event"",""trial"",""time""
""fullscreenenter"",""0"",""3028""
","
","
","""event"",""trial"",""time""
""fullscreenenter"",""0"",""3028""
","
","null","run_exp/static/audio/clip_11_time_out.m4a","null","","","","","<div class='center'><p>If you don’t make your choice fast enough, you’ll have to wait a few seconds before you can make another one. </p><p><img src='run_exp/static/images/miscellaneous/hurry_up.png' height='500'></p></div>","","","","","","","","","","","","","","","","","",""
"","html-keyboard-response","37","177277","0.0-35.0-1.0","""event"",""trial"",""time""
""fullscreenenter"",""0"",""3028""
","
","
","""event"",""trial"",""time""
""fullscreenenter"",""0"",""3028""
","
","1234.5","<div class='center'><p>If you don’t make your choice fast enough, you’ll have to wait a few seconds before you can make another one. </p><p><img src='run_exp/static/images/miscellaneous/hurry_up.png' height='500'></p><p><b>[Press the space bar to continue]</b></p></div>","32","","","","","","","","","","","","","","","","","","","","","","",""
"","instruc10","38","216396","0.0-35.0-2.0","""event"",""trial"",""time""
""fullscreenenter"",""0"",""3028""
","
","
","""event"",""trial"",""time""
""fullscreenenter"",""0"",""3028""
","
","null","run_exp/static/audio/clip_12_probe.m4a","null","","","","","<div class='center'><p>Once you've chosen a pirate, you’ll be shown the ship they are robbing. You will never rob the same ship twice. Ships can be told apart from one another by the image on them. These are the goods that they sell. See, this ship has a travel mug on it. </p><p> You’ll have to remember which island you saw each ship on. You will win more gold coins and hence more bonus money if you remember correctly! To help you remember, you can imagine a story. For example, here, you could imagine a mug full of water in the desert. Or, as another example, if on the forest island, your pirate robbed a ship with an apple on it, you could imagine an apple falling from a tree in the forest. </p><p><img src='run_exp/static/images/tutorial/example_probe.png' height='500'></p></div>","","","","","","","","","","","","","","","","","",""
"","html-keyboard-response","39","219254","0.0-35.0-3.0","""event"",""trial"",""time""
""fullscreenenter"",""0"",""3028""
","
","
","""event"",""trial"",""time""
""fullscreenenter"",""0"",""3028""
","
","2851.7000000178814","<div class='center'><p>Once you've chosen a pirate, you’ll be shown the ship they are robbing. You will never rob the same ship twice. Ships can be told apart from one another by the image on them. These are the goods that they sell. See, this ship has a travel mug on it. </p><p> You’ll have to remember which island you saw each ship on. You will win more gold coins and hence more bonus money if you remember correctly! To help you remember, you can imagine a story. For example, here, you could imagine a mug full of water in the desert. Or, as another example, if on the forest island, your pirate robbed a ship with an apple on it, you could imagine an apple falling from a tree in the forest. </p><p><img src='run_exp/static/images/tutorial/example_probe.png' height='500'></p><p><b>[Press the space bar to continue]</b></p></div>","32","","","","","","","","","","","","","","","","","","","","","","",""
"","instruc11","40","235693","0.0-35.0-4.0","""event"",""trial"",""time""
""fullscreenenter"",""0"",""3028""
","
","
","""event"",""trial"",""time""
""fullscreenenter"",""0"",""3028""
","
","null","run_exp/static/audio/clip_13_changepoint.m4a","null","","","","","<div class='center'><p>How successful a pirate is at robbing ships will depend on the island you’re on.</p><p> A pirate may have visited this island many times before and gained a lot of practice robbing ships there.</p><p>So, they’re more likely to be successful than a pirate who has never visited the island before.</p></div>","","","","","","","","","","","","","","","","","",""
"","html-keyboard-response","41","236463","0.0-35.0-5.0","""event"",""trial"",""time""
""fullscreenenter"",""0"",""3028""
","
","
","""event"",""trial"",""time""
""fullscreenenter"",""0"",""3028""
","
","767.5","<div class='center'><p>How successful a pirate is at robbing ships will depend on the island you’re on.</p><p> A pirate may have visited this island many times before and gained a lot of practice robbing ships there.</p><p>So, they’re more likely to be successful than a pirate who has never visited the island before.</p><p><b>[Press the space bar to continue]</b></p></div>","32","","","","","","","","","","","","","","","","","","","","","","",""
"","instruc12","42","277569","0.0-35.0-6.0","""event"",""trial"",""time""
""fullscreenenter"",""0"",""3028""
","
","
","""event"",""trial"",""time""
""fullscreenenter"",""0"",""3028""
","
","null","run_exp/static/audio/clip_14_drift.m4a","null","","","","","<div class='center'><p>How successful a pirate is at robbing ships can also change over the time spent on the island. </p><p> Ships may hear from islanders about the pirates coming and will improve their protections against the attack. This may make it harder to rob them.</p><p> Ships may also become lazy and weaken the strength of their protections. This may make it easier to rob them.</p><br><p>Things are always changing on the high seas! So, try your best to pay attention!</p><p><img src='run_exp/static/images/tutorial/contingency.png' height='500'></p></div>","","","","","","","","","","","","","","","","","",""
"","html-keyboard-response","43","291244","0.0-35.0-7.0","""event"",""trial"",""time""
""fullscreenenter"",""0"",""3028""
","
","
","""event"",""trial"",""time""
""fullscreenenter"",""0"",""3028""
","
","13670.800000011921","<div class='center'><p>How successful a pirate is at robbing ships can also change over the time spent on the island. </p><p> Ships may hear from islanders about the pirates coming and will improve their protections against the attack. This may make it harder to rob them.</p><p> Ships may also become lazy and weaken the strength of their protections. This may make it easier to rob them.</p><br><p>Things are always changing on the high seas! So, try your best to pay attention!</p><p><img src='run_exp/static/images/tutorial/contingency.png' height='500'></p><p><b>[Press the space bar to continue]</b></p></div>","32","","","","","","","","","","","","","","","","","","","","","","",""
"","instruc13","44","326439","0.0-35.0-8.0","""event"",""trial"",""time""
""fullscreenenter"",""0"",""3028""
","
","
","""event"",""trial"",""time""
""fullscreenenter"",""0"",""3028""
","
","null","run_exp/static/audio/clip_15_summary.m4a","null","","","","","<div class='center'><p>Let's go over the instructions quickly again. You have two important things to do: </p><b><p> 1. Pick the pirate who is the best at robbing ships on the current island. </p></b><b><p> 2. Remember on which island a ship was robbed.</p> </b><p>The amount of bonus money you can win depends on both.</p><p><br><p>Let’s try a practice game. The game will start by showing you the pirates. First, pick a pirate using the <b> 1, 2, 3 </b> keys on your keyboard. When you are shown a ship, try to remember which island you’re on by making up a story.</p><p>This is just a practice game, so you’re not playing for money. </p><p> Good luck! This game will be very difficult but try your best!</p></div>","","","","","","","","","","","","","","","","","",""
"","html-keyboard-response","45","328162","0.0-35.0-9.0","""event"",""trial"",""time""
""fullscreenenter"",""0"",""3028""
","
","
","""event"",""trial"",""time""
""fullscreenenter"",""0"",""3028""
","
","1717.699999988079","<div class='center'><p>Let's go over the instructions quickly again. You have two important things to do: </p><b><p> 1. Pick the pirate who is the best at robbing ships on the current island. </p></b><b><p> 2. Remember on which island a ship was robbed.</p> </b><p>The amount of bonus money you can win depends on both.</p><p><br><p>Let’s try a practice game. The game will start by showing you the pirates. First, pick a pirate using the <b> 1, 2, 3 </b> keys on your keyboard. When you are shown a ship, try to remember which island you’re on by making up a story.</p><p>This is just a practice game, so you’re not playing for money. </p><p> Good luck! This game will be very difficult but try your best!</p><p><b>[Press the space bar to continue]</b></p></div>","32","","","","","","","","","","","","","","","","","","","","","","",""
"","do_welcome","46","332183","0.0-35.0-10.0","""event"",""trial"",""time""
""fullscreenenter"",""0"",""3028""
","
","
","""event"",""trial"",""time""
""fullscreenenter"",""0"",""3028""
","
","null","","","","","","","","null","","","","","","","","","","","","","","","","",""
"","do_trial","47","338277","0.0-35.0-11.0","""event"",""trial"",""time""
""fullscreenenter"",""0"",""3028""
","
","
","""event"",""trial"",""time""
""fullscreenenter"",""0"",""3028""
","
","1578.800000011921","","","","","","","","49","1,0,0","","","","","","","","","","","","","","","",""
"","html-keyboard-response","48","339287","0.0-36.0-0.0","""event"",""trial"",""time""
""fullscreenenter"",""0"",""3028""
","
","
","""event"",""trial"",""time""
""fullscreenenter"",""0"",""3028""
","
","null","<p></p>","null","","","","","","","","","","","","","","","","","","","","","","",""
"","do_trial","49","344700","0.0-36.0-1.0","""event"",""trial"",""time""
""fullscreenenter"",""0"",""3028""
","
","
","""event"",""trial"",""time""
""fullscreenenter"",""0"",""3028""
","
","878.2000000178814","","","","","","","","49","1,1,0","","","","","","","","","","","","","","","",""
"","html-keyboard-response","50","345717","0.0-37.0-0.0","""event"",""trial"",""time""
""fullscreenenter"",""0"",""3028""
","
","
","""event"",""trial"",""time""
""fullscreenenter"",""0"",""3028""
","
","null","<p></p>","null","","","","","","","","","","","","","","","","","","","","","","",""
"","do_trial","51","351522","0.0-37.0-1.0","""event"",""trial"",""time""
""fullscreenenter"",""0"",""3028""
","
","
","""event"",""trial"",""time""
""fullscreenenter"",""0"",""3028""
","
","1278.4000000059605","","","","","","","","50","1,0,1","","","","","","","","","","","","","","","",""
"","html-keyboard-response","52","352527","0.0-38.0-0.0","""event"",""trial"",""time""
""fullscreenenter"",""0"",""3028""
","
","
","""event"",""trial"",""time""
""fullscreenenter"",""0"",""3028""
","
","null","<p></p>","null","","","","","","","","","","","","","","","","","","","","","","",""
"","do_trial","53","357847","0.0-38.0-1.0","""event"",""trial"",""time""
""fullscreenenter"",""0"",""3028""
","
","
","""event"",""trial"",""time""
""fullscreenenter"",""0"",""3028""
","
","803.9000000059605","","","","","","","","51","0,1,0","","","","","","","","","","","","","","","",""
"","html-keyboard-response","54","358863","0.0-39.0-0.0","""event"",""trial"",""time""
""fullscreenenter"",""0"",""3028""
","
","
","""event"",""trial"",""time""
""fullscreenenter"",""0"",""3028""
","
","null","<p></p>","null","","","","","","","","","","","","","","","","","","","","","","",""
"","do_trial","55","364067","0.0-39.0-1.0","""event"",""trial"",""time""
""fullscreenenter"",""0"",""3028""
","
","
","""event"",""trial"",""time""
""fullscreenenter"",""0"",""3028""
","
","676.9000000059605","","","","","","","","49","1,0,0","","","","","","","","","","","","","","","",""
"","do_bye","56","365582","0.0-40.0-0.0","""event"",""trial"",""time""
""fullscreenenter"",""0"",""3028""
","
","
","""event"",""trial"",""time""
""fullscreenenter"",""0"",""3028""
","
","null","","","","","","","","null","","","","","","","","","","","","","","","","",""
"","do_travel","57","374605","0.0-40.0-1.0","""event"",""trial"",""time""
""fullscreenenter"",""0"",""3028""
","
","
","""event"",""trial"",""time""
""fullscreenenter"",""0"",""3028""
","
","null","","","","","","","","null","","","","","","","","","","","","","","","","",""
"","do_welcome","58","378644","0.0-40.0-2.0","""event"",""trial"",""time""
""fullscreenenter"",""0"",""3028""
","
","
","""event"",""trial"",""time""
""fullscreenenter"",""0"",""3028""
","
","null","","","","","","","","null","","","","","","","","","","","","","","","","",""
"","do_trial","59","383919","0.0-40.0-3.0","""event"",""trial"",""time""
""fullscreenenter"",""0"",""3028""
","
","
","""event"",""trial"",""time""
""fullscreenenter"",""0"",""3028""
","
","742.4000000059605","","","","","","","","49","1,0,0","","","","","","","","","","","","","","","",""
"","html-keyboard-response","60","384934","0.0-41.0-0.0","""event"",""trial"",""time""
""fullscreenenter"",""0"",""3028""
","
","
","""event"",""trial"",""time""
""fullscreenenter"",""0"",""3028""
","
","null","<p></p>","null","","","","","","","","","","","","","","","","","","","","","","",""
"","do_trial","61","389994","0.0-41.0-1.0","""event"",""trial"",""time""
""fullscreenenter"",""0"",""3028""
","
","
","""event"",""trial"",""time""
""fullscreenenter"",""0"",""3028""
","
","527.0999999940395","","","","","","","","49","1,0,1","","","","","","","","","","","","","","","",""
"","html-keyboard-response","62","391006","0.0-42.0-0.0","""event"",""trial"",""time""
""fullscreenenter"",""0"",""3028""
","
","
","""event"",""trial"",""time""
""fullscreenenter"",""0"",""3028""
","
","null","<p></p>","null","","","","","","","","","","","","","","","","","","","","","","",""
"","do_trial","63","396191","0.0-42.0-1.0","""event"",""trial"",""time""
""fullscreenenter"",""0"",""3028""
","
","
","""event"",""trial"",""time""
""fullscreenenter"",""0"",""3028""
","
","652.5","","","","","","","","49","1,1,0","","","","","","","","","","","","","","","",""
"","html-keyboard-response","64","397206","0.0-43.0-0.0","""event"",""trial"",""time""
""fullscreenenter"",""0"",""3028""
","
","
","""event"",""trial"",""time""
""fullscreenenter"",""0"",""3028""
","
","null","<p></p>","null","","","","","","","","","","","","","","","","","","","","","","",""
"","do_trial","65","404044","0.0-43.0-1.0","""event"",""trial"",""time""
""fullscreenenter"",""0"",""3028""
","
","
","""event"",""trial"",""time""
""fullscreenenter"",""0"",""3028""
","
","2307","","","","","","","","49","0,0,1","","","","","","","","","","","","","","","",""
"","html-keyboard-response","66","405061","0.0-44.0-0.0","""event"",""trial"",""time""
""fullscreenenter"",""0"",""3028""
","
","
","""event"",""trial"",""time""
""fullscreenenter"",""0"",""3028""
","
","null","<p></p>","null","","","","","","","","","","","","","","","","","","","","","","",""
"","do_trial","67","410112","0.0-44.0-1.0","""event"",""trial"",""time""
""fullscreenenter"",""0"",""3028""
","
","
","""event"",""trial"",""time""
""fullscreenenter"",""0"",""3028""
","
","513","","","","","","","","49","1,0,1","","","","","","","","","","","","","","","",""
"","html-keyboard-response","68","412848","0.0-45.0-0.0","""event"",""trial"",""time""
""fullscreenenter"",""0"",""3028""
","
","
","""event"",""trial"",""time""
""fullscreenenter"",""0"",""3028""
","
","2730.7999999821186","<div class='center'><p><img src='run_exp/static/images/tutorial/prac_best_pirate.png'  height='500'></p></div>","49","","","","","","","","","","","","","","","","","","","","","","",""
"","html-keyboard-response","69","415127","0.0-46.0-0.0","""event"",""trial"",""time""
""fullscreenenter"",""0"",""3028""
","
","
","""event"",""trial"",""time""
""fullscreenenter"",""0"",""3028""
","
","2276","<div class='center'><p>That's correct! Red beard was the best.</p><p><b>[Press the space bar to continue]</b></p></div>","32","","","","","","","","","","","","","","","","","","","","","","",""
"","html-keyboard-response","70","419010","0.0-46.0-1.0","""event"",""trial"",""time""
""fullscreenenter"",""0"",""3028""
","
","
","""event"",""trial"",""time""
""fullscreenenter"",""0"",""3028""
","
","3880.7999999821186","<div class='center'><p><img src='run_exp/static/images/tutorial/prac_source.png'  height='500'></p></div>","50","","","","","","","","","","","","","","","","","","","","","","",""
"","html-keyboard-response","71","421105","0.0-47.0-0.0","""event"",""trial"",""time""
""fullscreenenter"",""0"",""3028""
","
","
","""event"",""trial"",""time""
""fullscreenenter"",""0"",""3028""
","
","2092.0999999940395","<div class='center'><p>That's correct! You saw this ship on the cavern island.</p><p><b>[Press the space bar to continue]</b></p></div>","32","","","","","","","","","","","","","","","","","","","","","","",""
"","quiz_beginning","72","432562","0.0-47.0-1.0","""event"",""trial"",""time""
""fullscreenenter"",""0"",""3028""
","
","
","""event"",""trial"",""time""
""fullscreenenter"",""0"",""3028""
","
","null","run_exp/static/audio/clip_16_quiz_intro.m4a","null","","","","","<div class='center'><p>Good job on the practice game! Now, you will be asked some true or false questions to make sure you really understand the rules of the game.</p><p> Press <b>'1'</b> on the keyboard for true and press <b>'2'</b> for false.</p></div>","","","","","","","","","","","","","","","","","",""
"","audio-keyboard-response","73","436941","0.0-47.0-2.0","""event"",""trial"",""time""
""fullscreenenter"",""0"",""3028""
","
","
","""event"",""trial"",""time""
""fullscreenenter"",""0"",""3028""
","
","4367.300000011921","run_exp/static/audio/clip_17_q1.m4a","50","","","","","","","","","","","","","","","","","","","","","","",""
"","q1_err","74","441863","0.0-48.0-0.0","""event"",""trial"",""time""
""fullscreenenter"",""0"",""3028""
","
","
","""event"",""trial"",""time""
""fullscreenenter"",""0"",""3028""
","
","null","run_exp/static/audio/clip_19_wrong_q1.m4a","null","","","","","<div class='center'><p>That’s incorrect. You win bonus money by collecting gold coins.</p></div>","","","","","","","","","","","","","","","","","",""
"","html-keyboard-response","75","443438","0.0-48.0-1.0","""event"",""trial"",""time""
""fullscreenenter"",""0"",""3028""
","
","
","""event"",""trial"",""time""
""fullscreenenter"",""0"",""3028""
","
","1573.199999988079","<div class='center'><p>That’s incorrect. You win bonus money by collecting gold coins.</p><p><b>[Press the space bar to continue]</b></p></div>","32","","","","","","","","","","","","","","","","","","","","","","",""
"","audio-keyboard-response","76","450842","0.0-48.0-2.0","""event"",""trial"",""time""
""fullscreenenter"",""0"",""3028""
","
","
","""event"",""trial"",""time""
""fullscreenenter"",""0"",""3028""
","
","7397.9000000059605","run_exp/static/audio/clip_20_q2.m4a","50","","","","","","","","","","","","","","","","","","","","","","",""
"","correct","77","453279","0.0-49.0-0.0","""event"",""trial"",""time""
""fullscreenenter"",""0"",""3028""
","
","
","""event"",""trial"",""time""
""fullscreenenter"",""0"",""3028""
","
","null","run_exp/static/audio/clip_18_correct.m4a","null","","","","","<div class='center'><p>That's correct!</p></div>","","","","","","","","","","","","","","","","","",""
"","html-keyboard-response","78","454475","0.0-49.0-1.0","""event"",""trial"",""time""
""fullscreenenter"",""0"",""3028""
","
","
","""event"",""trial"",""time""
""fullscreenenter"",""0"",""3028""
","
","1194.4000000059605","<div class='center'><p>That's correct!</p><p><b>[Press the space bar to continue]</b></p></div>","32","","","","","","","","","","","","","","","","","","","","","","",""
"","audio-keyboard-response","79","459844","0.0-49.0-2.0","""event"",""trial"",""time""
""fullscreenenter"",""0"",""3028""
","
","
","""event"",""trial"",""time""
""fullscreenenter"",""0"",""3028""
","
","5360.5999999940395","run_exp/static/audio/clip_22_q3.m4a","50","","","","","","","","","","","","","","","","","","","","","","",""
"","correct","80","462263","0.0-50.0-0.0","""event"",""trial"",""time""
""fullscreenenter"",""0"",""3028""
","
","
","""event"",""trial"",""time""
""fullscreenenter"",""0"",""3028""
","
","null","run_exp/static/audio/clip_18_correct.m4a","null","","","","","<div class='center'><p>That's correct!</p></div>","","","","","","","","","","","","","","","","","",""
"","html-keyboard-response","81","462975","0.0-50.0-1.0","""event"",""trial"",""time""
""fullscreenenter"",""0"",""3028""
","
","
","""event"",""trial"",""time""
""fullscreenenter"",""0"",""3028""
","
","710.1999999880791","<div class='center'><p>That's correct!</p><p><b>[Press the space bar to continue]</b></p></div>","32","","","","","","","","","","","","","","","","","","","","","","",""
"","audio-keyboard-response","82","468571","0.0-50.0-2.0","""event"",""trial"",""time""
""fullscreenenter"",""0"",""3028""
","
","
","""event"",""trial"",""time""
""fullscreenenter"",""0"",""3028""
","
","5591.4000000059605","run_exp/static/audio/clip_24_q4.m4a","49","","","","","","","","","","","","","","","","","","","","","","",""
"","correct","83","470982","0.0-51.0-0.0","""event"",""trial"",""time""
""fullscreenenter"",""0"",""3028""
","
","
","""event"",""trial"",""time""
""fullscreenenter"",""0"",""3028""
","
","null","run_exp/static/audio/clip_18_correct.m4a","null","","","","","<div class='center'><p>That's correct!</p></div>","","","","","","","","","","","","","","","","","",""
"","html-keyboard-response","84","472308","0.0-51.0-1.0","""event"",""trial"",""time""
""fullscreenenter"",""0"",""3028""
","
","
","""event"",""trial"",""time""
""fullscreenenter"",""0"",""3028""
","
","1323.699999988079","<div class='center'><p>That's correct!</p><p><b>[Press the space bar to continue]</b></p></div>","32","","","","","","","","","","","","","","","","","","","","","","",""
"","q_all_err","85","478522","0.0-52.0-0.0","""event"",""trial"",""time""
""fullscreenenter"",""0"",""3028""
","
","
","""event"",""trial"",""time""
""fullscreenenter"",""0"",""3028""
","
","null","run_exp/static/audio/clip_26_quiz_redo.m4a","null","","","","","<div class='center'><p>Oops, you missed some questions. Now that you’ve heard the correct answers. Try the quiz again! </p></div>","","","","","","","","","","","","","","","","","",""
"","html-keyboard-response","86","479491","0.0-52.0-1.0","""event"",""trial"",""time""
""fullscreenenter"",""0"",""3028""
","
","
","""event"",""trial"",""time""
""fullscreenenter"",""0"",""3028""
","
","963.2999999821186","<div class='center'><p>Oops, you missed some questions. Now that you’ve heard the correct answers. Try the quiz again! </p><p><b>[Press the space bar to continue]</b></p></div>","32","","","","","","","","","","","","","","","","","","","","","","",""
"","audio-keyboard-response","87","482217","0.0-52.0-2.0","""event"",""trial"",""time""
""fullscreenenter"",""0"",""3028""
","
","
","""event"",""trial"",""time""
""fullscreenenter"",""0"",""3028""
","
","2719.7000000178814","run_exp/static/audio/clip_17_q1.m4a","49","","","","","","","","","","","","","","","","","","","","","","",""
"","correct","88","484622","0.0-53.0-0.0","""event"",""trial"",""time""
""fullscreenenter"",""0"",""3028""
","
","
","""event"",""trial"",""time""
""fullscreenenter"",""0"",""3028""
","
","null","run_exp/static/audio/clip_18_correct.m4a","null","","","","","<div class='center'><p>That's correct!</p></div>","","","","","","","","","","","","","","","","","",""
"","html-keyboard-response","89","485263","0.0-53.0-1.0","""event"",""trial"",""time""
""fullscreenenter"",""0"",""3028""
","
","
","""event"",""trial"",""time""
""fullscreenenter"",""0"",""3028""
","
","638.8000000119209","<div class='center'><p>That's correct!</p><p><b>[Press the space bar to continue]</b></p></div>","32","","","","","","","","","","","","","","","","","","","","","","",""
"","audio-keyboard-response","90","491665","0.0-53.0-2.0","""event"",""trial"",""time""
""fullscreenenter"",""0"",""3028""
","
","
","""event"",""trial"",""time""
""fullscreenenter"",""0"",""3028""
","
","6392.299999982119","run_exp/static/audio/clip_20_q2.m4a","50","","","","","","","","","","","","","","","","","","","","","","",""
"","correct","91","494082","0.0-54.0-0.0","""event"",""trial"",""time""
""fullscreenenter"",""0"",""3028""
","
","
","""event"",""trial"",""time""
""fullscreenenter"",""0"",""3028""
","
","null","run_exp/static/audio/clip_18_correct.m4a","null","","","","","<div class='center'><p>That's correct!</p></div>","","","","","","","","","","","","","","","","","",""
"","html-keyboard-response","92","494661","0.0-54.0-1.0","""event"",""trial"",""time""
""fullscreenenter"",""0"",""3028""
","
","
","""event"",""trial"",""time""
""fullscreenenter"",""0"",""3028""
","
","577.5","<div class='center'><p>That's correct!</p><p><b>[Press the space bar to continue]</b></p></div>","32","","","","","","","","","","","","","","","","","","","","","","",""
"","audio-keyboard-response","93","496957","0.0-54.0-2.0","""event"",""trial"",""time""
""fullscreenenter"",""0"",""3028""
","
","
","""event"",""trial"",""time""
""fullscreenenter"",""0"",""3028""
","
","2290.0999999940395","run_exp/static/audio/clip_22_q3.m4a","50","","","","","","","","","","","","","","","","","","","","","","",""
"","correct","94","499362","0.0-55.0-0.0","""event"",""trial"",""time""
""fullscreenenter"",""0"",""3028""
","
","
","""event"",""trial"",""time""
""fullscreenenter"",""0"",""3028""
","
","null","run_exp/static/audio/clip_18_correct.m4a","null","","","","","<div class='center'><p>That's correct!</p></div>","","","","","","","","","","","","","","","","","",""
"","html-keyboard-response","95","499456","0.0-55.0-1.0","""event"",""trial"",""time""
""fullscreenenter"",""0"",""3028""
","
","
","""event"",""trial"",""time""
""fullscreenenter"",""0"",""3028""
","
","91.5","<div class='center'><p>That's correct!</p><p><b>[Press the space bar to continue]</b></p></div>","32","","","","","","","","","","","","","","","","","","","","","","",""
"","audio-keyboard-response","96","501794","0.0-55.0-2.0","""event"",""trial"",""time""
""fullscreenenter"",""0"",""3028""
","
","
","""event"",""trial"",""time""
""fullscreenenter"",""0"",""3028""
","
","2333.399999976158","run_exp/static/audio/clip_24_q4.m4a","49","","","","","","","","","","","","","","","","","","","","","","",""
"","correct","97","504281","0.0-56.0-0.0","""event"",""trial"",""time""
""fullscreenenter"",""0"",""3028""
","
","
","""event"",""trial"",""time""
""fullscreenenter"",""0"",""3028""
","
","null","run_exp/static/audio/clip_18_correct.m4a","null","","","","","<div class='center'><p>That's correct!</p></div>","","","","","","","","","","","","","","","","","",""
"","html-keyboard-response","98","504955","0.0-56.0-1.0","""event"",""trial"",""time""
""fullscreenenter"",""0"",""3028""
","
","
","""event"",""trial"",""time""
""fullscreenenter"",""0"",""3028""
","
","670.9000000059605","<div class='center'><p>That's correct!</p><p><b>[Press the space bar to continue]</b></p></div>","32","","","","","","","","","","","","","","","","","","","","","","",""
"","q_all_corr","99","513464","0.0-57.0-0.0","""event"",""trial"",""time""
""fullscreenenter"",""0"",""3028""
","
","
","""event"",""trial"",""time""
""fullscreenenter"",""0"",""3028""
","
","null","run_exp/static/audio/clip_27_quiz_all_correct.m4a","null","","","","","<div class='center'><p>Good job! You’re now ready to move on to the real game! Remember this game will be difficult but don't get discouraged and try your best!</p></div>","","","","","","","","","","","","","","","","","",""
"","html-keyboard-response","100","514227","0.0-57.0-1.0","""event"",""trial"",""time""
""fullscreenenter"",""0"",""3028""
","
","
","""event"",""trial"",""time""
""fullscreenenter"",""0"",""3028""
","
","757.2000000178814","<div class='center'><p>Good job! You’re now ready to move on to the real game! Remember this game will be difficult but don't get discouraged and try your best!</p><p><b>[Press the space bar to continue]</b></p></div>","32","","","","","","","","","","","","","","","","","","","","","","",""
"","do_welcome","101","518249","0.0-58.0-0.0","""event"",""trial"",""time""
""fullscreenenter"",""0"",""3028""
","
","
","""event"",""trial"",""time""
""fullscreenenter"",""0"",""3028""
","
","null","","","","","","","","null","","","","","","","","","","","","","","","","",""
"","do_trial","102","524148","0.0-59.0-0.0","""event"",""trial"",""time""
""fullscreenenter"",""0"",""3028""
","
","
","""event"",""trial"",""time""
""fullscreenenter"",""0"",""3028""
","
","1296.199999988079","","","","","","","","49","0,1,1","0","forest","0","probe-137","0.6","0.3","0.1","0","","","","","","","",""
"","html-keyboard-response","103","525168","0.0-59.0-1.0","""event"",""trial"",""time""
""fullscreenenter"",""0"",""3028""
","
","
","""event"",""trial"",""time""
""fullscreenenter"",""0"",""3028""
","
","null","<p></p>","null","","","","","","","","","","","","","","","","","","","","","","",""
"","do_trial","104","530251","0.0-60.0-0.0","""event"",""trial"",""time""
""fullscreenenter"",""0"",""3028""
","
","
","""event"",""trial"",""time""
""fullscreenenter"",""0"",""3028""
","
","465.7000000178814","","","","","","","","50","1,1,0","0","forest","1","probe-165","0.7936392917311358","0.22989317951882954","0.05891733067294902","1","","","","","","","",""
"","html-keyboard-response","105","531255","0.0-60.0-1.0","""event"",""trial"",""time""
""fullscreenenter"",""0"",""3028""
","
","
","""event"",""trial"",""time""
""fullscreenenter"",""0"",""3028""
","
","null","<p></p>","null","","","","","","","","","","","","","","","","","","","","","","",""
"","do_trial","106","536551","0.0-61.0-0.0","""event"",""trial"",""time""
""fullscreenenter"",""0"",""3028""
","
","
","""event"",""trial"",""time""
""fullscreenenter"",""0"",""3028""
","
","696.9000000059605","","","","","","","","50","1,0,0","0","forest","2","probe-56","0.6550383972724239","0.2875848654029866","0.08528288514684156","0","","","","","","","",""
"","html-keyboard-response","107","537564","0.0-61.0-1.0","""event"",""trial"",""time""
""fullscreenenter"",""0"",""3028""
","
","
","""event"",""trial"",""time""
""fullscreenenter"",""0"",""3028""
","
","null","<p></p>","null","","","","","","","","","","","","","","","","","","","","","","",""
"","do_trial","108","542687","0.0-62.0-0.0","""event"",""trial"",""time""
""fullscreenenter"",""0"",""3028""
","
","
","""event"",""trial"",""time""
""fullscreenenter"",""0"",""3028""
","
","523.5999999940395","","","","","","","","51","1,1,0","0","forest","3","probe-154","0.6053766003773686","0.29534302095201015","0.06420369644854412","0","","","","","","","",""
"","html-keyboard-response","109","543700","0.0-62.0-1.0","""event"",""trial"",""time""
""fullscreenenter"",""0"",""3028""
","
","
","""event"",""trial"",""time""
""fullscreenenter"",""0"",""3028""
","
","null","<p></p>","null","","","","","","","","","","","","","","","","","","","","","","",""
"","do_trial","110","548817","0.0-63.0-0.0","""event"",""trial"",""time""
""fullscreenenter"",""0"",""3028""
","
","
","""event"",""trial"",""time""
""fullscreenenter"",""0"",""3028""
","
","514.3000000119209","","","","","","","","50","1,0,0","0","forest","4","probe-69","0.7070774368810233","0.25937008227910485","0.07752334281438476","0","","","","","","","",""
"","html-keyboard-response","111","549834","0.0-63.0-1.0","""event"",""trial"",""time""
""fullscreenenter"",""0"",""3028""
","
","
","""event"",""trial"",""time""
""fullscreenenter"",""0"",""3028""
","
","null","<p></p>","null","","","","","","","","","","","","","","","","","","","","","","",""
"","do_trial","112","555573","0.0-64.0-0.0","""event"",""trial"",""time""
""fullscreenenter"",""0"",""3028""
","
","
","""event"",""trial"",""time""
""fullscreenenter"",""0"",""3028""
","
","1137.800000011921","","","","","","","","51","1,1,0","0","forest","5","probe-18","0.660163289318068","0.19059793189250002","0.1834035391205432","0","","","","","","","",""
"","html-keyboard-response","113","556587","0.0-64.0-1.0","""event"",""trial"",""time""
""fullscreenenter"",""0"",""3028""
","
","
","""event"",""trial"",""time""
""fullscreenenter"",""0"",""3028""
","
","null","<p></p>","null","","","","","","","","","","","","","","","","","","","","","","",""
"","do_trial","114","561856","0.0-65.0-0.0","""event"",""trial"",""time""
""fullscreenenter"",""0"",""3028""
","
","
","""event"",""trial"",""time""
""fullscreenenter"",""0"",""3028""
","
","671.6000000238419","","","","","","","","49","0,0,0","0","forest","6","probe-22","0.6944585235210782","0.2041040297798142","0.14504967627167564","0","","","","","","","",""
"","html-keyboard-response","115","562871","0.0-65.0-1.0","""event"",""trial"",""time""
""fullscreenenter"",""0"",""3028""
","
","
","""event"",""trial"",""time""
""fullscreenenter"",""0"",""3028""
","
","null","<p></p>","null","","","","","","","","","","","","","","","","","","","","","","",""
"","do_trial","116","567976","0.0-66.0-0.0","""event"",""trial"",""time""
""fullscreenenter"",""0"",""3028""
","
","
","""event"",""trial"",""time""
""fullscreenenter"",""0"",""3028""
","
","487","","","","","","","","50","0,0,0","0","forest","7","probe-63","0.5859907670699669","0.23435705503057402","0.06082418481376472","0","","","","","","","",""
"","html-keyboard-response","117","568991","0.0-66.0-1.0","""event"",""trial"",""time""
""fullscreenenter"",""0"",""3028""
","
","
","""event"",""trial"",""time""
""fullscreenenter"",""0"",""3028""
","
","null","<p></p>","null","","","","","","","","","","","","","","","","","","","","","","",""
"","do_trial","118","574228","0.0-67.0-0.0","""event"",""trial"",""time""
""fullscreenenter"",""0"",""3028""
","
","
","""event"",""trial"",""time""
""fullscreenenter"",""0"",""3028""
","
","652.9000000059605","","","","","","","","50","1,0,0","0","forest","8","probe-150","0.706033280756545","0.11723229035607016","0.06941851344645071","0","","","","","","","",""
"","html-keyboard-response","119","575245","0.0-67.0-1.0","""event"",""trial"",""time""
""fullscreenenter"",""0"",""3028""
","
","
","""event"",""trial"",""time""
""fullscreenenter"",""0"",""3028""
","
","null","<p></p>","null","","","","","","","","","","","","","","","","","","","","","","",""
"","do_trial","120","580412","0.0-68.0-0.0","""event"",""trial"",""time""
""fullscreenenter"",""0"",""3028""
","
","
","""event"",""trial"",""time""
""fullscreenenter"",""0"",""3028""
","
","561.5999999940395","","","","","","","","49","1,1,0","0","forest","9","probe-106","0.6795526010999785","0.1615054140359061","0.2110509594312559","1","","","","","","","",""
"","html-keyboard-response","121","581429","0.0-68.0-1.0","""event"",""trial"",""time""
""fullscreenenter"",""0"",""3028""
","
","
","""event"",""trial"",""time""
""fullscreenenter"",""0"",""3028""
","
","null","<p></p>","null","","","","","","","","","","","","","","","","","","","","","","",""
"","do_trial","122","586682","0.0-69.0-0.0","""event"",""trial"",""time""
""fullscreenenter"",""0"",""3028""
","
","
","""event"",""trial"",""time""
""fullscreenenter"",""0"",""3028""
","
","652.3000000119209","","","","","","","","49","0,0,0","0","forest","10","probe-60","0.634131474527027","0.26370327892464324","0.14723067899364947","0","","","","","","","",""
"","html-keyboard-response","123","587698","0.0-69.0-1.0","""event"",""trial"",""time""
""fullscreenenter"",""0"",""3028""
","
","
","""event"",""trial"",""time""
""fullscreenenter"",""0"",""3028""
","
","null","<p></p>","null","","","","","","","","","","","","","","","","","","","","","","",""
"","do_trial","124","592885","0.0-70.0-0.0","""event"",""trial"",""time""
""fullscreenenter"",""0"",""3028""
","
","
","""event"",""trial"",""time""
""fullscreenenter"",""0"",""3028""
","
","582.7999999821186","","","","","","","","49","0,1,0","0","forest","11","probe-216","0.5896383134369444","0.3460962834102447","0.10624400337181779","0","","","","","","","",""
"","html-keyboard-response","125","593899","0.0-70.0-1.0","""event"",""trial"",""time""
""fullscreenenter"",""0"",""3028""
","
","
","""event"",""trial"",""time""
""fullscreenenter"",""0"",""3028""
","
","null","<p></p>","null","","","","","","","","","","","","","","","","","","","","","","",""
"","do_trial","126","599188","0.0-71.0-0.0","""event"",""trial"",""time""
""fullscreenenter"",""0"",""3028""
","
","
","""event"",""trial"",""time""
""fullscreenenter"",""0"",""3028""
","
","674.5","","","","","","","","51","1,0,0","0","forest","12","probe-115","0.7086275544197678","0.35156886593543063","0.13400877785857457","0","","","","","","","",""
"","html-keyboard-response","127","600199","0.0-71.0-1.0","""event"",""trial"",""time""
""fullscreenenter"",""0"",""3028""
","
","
","""event"",""trial"",""time""
""fullscreenenter"",""0"",""3028""
","
","null","<p></p>","null","","","","","","","","","","","","","","","","","","","","","","",""
"","do_trial","128","605821","0.0-72.0-0.0","""event"",""trial"",""time""
""fullscreenenter"",""0"",""3028""
","
","
","""event"",""trial"",""time""
""fullscreenenter"",""0"",""3028""
","
","1015.3000000119209","","","","","","","","51","1,0,0","0","forest","13","probe-214","0.5953533128374063","0.3061173347208308","0.12470292350942191","0","","","","","","","",""
"","html-keyboard-response","129","606837","0.0-72.0-1.0","""event"",""trial"",""time""
""fullscreenenter"",""0"",""3028""
","
","
","""event"",""trial"",""time""
""fullscreenenter"",""0"",""3028""
","
","null","<p></p>","null","","","","","","","","","","","","","","","","","","","","","","",""
"","do_trial","130","611970","0.0-73.0-0.0","""event"",""trial"",""time""
""fullscreenenter"",""0"",""3028""
","
","
","""event"",""trial"",""time""
""fullscreenenter"",""0"",""3028""
","
","551.5","","","","","","","","49","1,0,0","0","forest","14","probe-184","0.6635076298827373","0.10828555478491414","0.13284734561800238","1","","","","","","","",""
"","html-keyboard-response","131","612987","0.0-73.0-1.0","""event"",""trial"",""time""
""fullscreenenter"",""0"",""3028""
","
","
","""event"",""trial"",""time""
""fullscreenenter"",""0"",""3028""
","
","null","<p></p>","null","","","","","","","","","","","","","","","","","","","","","","",""
"","do_trial","132","618259","0.0-74.0-0.0","""event"",""trial"",""time""
""fullscreenenter"",""0"",""3028""
","
","
","""event"",""trial"",""time""
""fullscreenenter"",""0"",""3028""
","
","677.7999999821186","","","","","","","","49","1,0,0","0","forest","15","probe-181","0.6926399495052598","0.12807108392611766","0.07005925536835378","1","","","","","","","",""
"","html-keyboard-response","133","619272","0.0-74.0-1.0","""event"",""trial"",""time""
""fullscreenenter"",""0"",""3028""
","
","
","""event"",""trial"",""time""
""fullscreenenter"",""0"",""3028""
","
","null","<p></p>","null","","","","","","","","","","","","","","","","","","","","","","",""
"","do_trial","134","625359","0.0-75.0-0.0","""event"",""trial"",""time""
""fullscreenenter"",""0"",""3028""
","
","
","""event"",""trial"",""time""
""fullscreenenter"",""0"",""3028""
","
","null","","","","","","","","null","0,1,0","0","forest","16","probe-112","0.49336200241605727","0.05934686466882146","0.16936782407592177","","","","","","","","",""
"","html-keyboard-response","135","626371","0.0-75.0-1.0","""event"",""trial"",""time""
""fullscreenenter"",""0"",""3028""
","
","
","""event"",""trial"",""time""
""fullscreenenter"",""0"",""3028""
","
","null","<p></p>","null","","","","","","","","","","","","","","","","","","","","","","",""
"","do_trial","136","631863","0.0-76.0-0.0","""event"",""trial"",""time""
""fullscreenenter"",""0"",""3028""
","
","
","""event"",""trial"",""time""
""fullscreenenter"",""0"",""3028""
","
","891.0999999940395","","","","","","","","49","1,0,0","0","forest","17","probe-228","0.5792133365451297","0.05325653692631042","0.11123857535917131","1","","","","","","","",""
"","html-keyboard-response","137","632877","0.0-76.0-1.0","""event"",""trial"",""time""
""fullscreenenter"",""0"",""3028""
","
","
","""event"",""trial"",""time""
""fullscreenenter"",""0"",""3028""
","
","null","<p></p>","null","","","","","","","","","","","","","","","","","","","","","","",""
"","do_trial","138","637598","0.0-77.0-0.0","""event"",""trial"",""time""
""fullscreenenter"",""0"",""3028""
","
","
","""event"",""trial"",""time""
""fullscreenenter"",""0"",""3028""
","
","128.90000000596046","","","","","","","","49","0,0,1","0","forest","18","probe-49","0.7308018700263474","0.12213170215596719","0.12403219472005304","0","","","","","","","",""
"","html-keyboard-response","139","638614","0.0-77.0-1.0","""event"",""trial"",""time""
""fullscreenenter"",""0"",""3028""
","
","
","""event"",""trial"",""time""
""fullscreenenter"",""0"",""3028""
","
","null","<p></p>","null","","","","","","","","","","","","","","","","","","","","","","",""
"","do_trial","140","643399","0.0-78.0-0.0","""event"",""trial"",""time""
""fullscreenenter"",""0"",""3028""
","
","
","""event"",""trial"",""time""
""fullscreenenter"",""0"",""3028""
","
","187.40000000596046","","","","","","","","49","1,0,0","0","forest","19","probe-144","0.719410009443126","0.0996927160331987","0.14401076726166603","1","","","","","","","",""
"","html-keyboard-response","141","644411","0.0-78.0-1.0","""event"",""trial"",""time""
""fullscreenenter"",""0"",""3028""
","
","
","""event"",""trial"",""time""
""fullscreenenter"",""0"",""3028""
","
","null","<p></p>","null","","","","","","","","","","","","","","","","","","","","","","",""
"","do_trial","142","649452","0.0-79.0-0.0","""event"",""trial"",""time""
""fullscreenenter"",""0"",""3028""
","
","
","""event"",""trial"",""time""
""fullscreenenter"",""0"",""3028""
","
","452.30000001192093","","","","","","","","49","1,0,1","0","forest","20","probe-100","0.6380746625473543","0.2976015286455022","0.15129484906642465","1","","","","","","","",""
"","html-keyboard-response","143","650465","0.0-79.0-1.0","""event"",""trial"",""time""
""fullscreenenter"",""0"",""3028""
","
","
","""event"",""trial"",""time""
""fullscreenenter"",""0"",""3028""
","
","null","<p></p>","null","","","","","","","","","","","","","","","","","","","","","","",""
"","do_trial","144","657670","0.0-80.0-0.0","""event"",""trial"",""time""
""fullscreenenter"",""0"",""3028""
","
","
","""event"",""trial"",""time""
""fullscreenenter"",""0"",""3028""
","
","2609","","","","","","","","49","0,0,1","0","forest","21","probe-104","0.5323702618761782","0.22486664276158141","0.13408303907861588","0","","","","","","","",""
"","html-keyboard-response","145","658685","0.0-80.0-1.0","""event"",""trial"",""time""
""fullscreenenter"",""0"",""3028""
","
","
","""event"",""trial"",""time""
""fullscreenenter"",""0"",""3028""
","
","null","<p></p>","null","","","","","","","","","","","","","","","","","","","","","","",""
"","do_trial","146","663736","0.0-81.0-0.0","""event"",""trial"",""time""
""fullscreenenter"",""0"",""3028""
","
","
","""event"",""trial"",""time""
""fullscreenenter"",""0"",""3028""
","
","462.2999999821186","","","","","","","","49","0,0,0","0","forest","22","probe-146","0.4736840841546994","0.21252762022318647","0.2105978192395601","0","","","","","","","",""
"","html-keyboard-response","147","664752","0.0-81.0-1.0","""event"",""trial"",""time""
""fullscreenenter"",""0"",""3028""
","
","
","""event"",""trial"",""time""
""fullscreenenter"",""0"",""3028""
","
","null","<p></p>","null","","","","","","","","","","","","","","","","","","","","","","",""
"","do_trial","148","670907","0.0-82.0-0.0","""event"",""trial"",""time""
""fullscreenenter"",""0"",""3028""
","
","
","""event"",""trial"",""time""
""fullscreenenter"",""0"",""3028""
","
","1563.800000011921","","","","","","","","49","1,0,1","0","forest","23","probe-96","0.474664507581079","0.2660415240749703","0.2266116083749272","1","","","","","","","",""
"","html-keyboard-response","149","671920","0.0-82.0-1.0","""event"",""trial"",""time""
""fullscreenenter"",""0"",""3028""
","
","
","""event"",""trial"",""time""
""fullscreenenter"",""0"",""3028""
","
","null","<p></p>","null","","","","","","","","","","","","","","","","","","","","","","",""
"","do_trial","150","677009","0.0-83.0-0.0","""event"",""trial"",""time""
""fullscreenenter"",""0"",""3028""
","
","
","""event"",""trial"",""time""
""fullscreenenter"",""0"",""3028""
","
","499.5","","","","","","","","49","0,0,1","0","forest","24","probe-135","0.4119127600844464","0.08832827990323719","0.16871236251672211","0","","","","","","","",""
"","html-keyboard-response","151","678025","0.0-83.0-1.0","""event"",""trial"",""time""
""fullscreenenter"",""0"",""3028""
","
","
","""event"",""trial"",""time""
""fullscreenenter"",""0"",""3028""
","
","null","<p></p>","null","","","","","","","","","","","","","","","","","","","","","","",""
"","do_trial","152","682827","0.0-84.0-0.0","""event"",""trial"",""time""
""fullscreenenter"",""0"",""3028""
","
","
","""event"",""trial"",""time""
""fullscreenenter"",""0"",""3028""
","
","202","","","","","","","","49","1,1,0","0","forest","25","probe-155","0.4424561693490284","0.3726002369962946","0.10674825872682625","1","","","","","","","",""
"","html-keyboard-response","153","683841","0.0-84.0-1.0","""event"",""trial"",""time""
""fullscreenenter"",""0"",""3028""
","
","
","""event"",""trial"",""time""
""fullscreenenter"",""0"",""3028""
","
","null","<p></p>","null","","","","","","","","","","","","","","","","","","","","","","",""
"","do_trial","154","689049","0.0-85.0-0.0","""event"",""trial"",""time""
""fullscreenenter"",""0"",""3028""
","
","
","""event"",""trial"",""time""
""fullscreenenter"",""0"",""3028""
","
","604.4000000059605","","","","","","","","49","0,1,0","0","forest","26","probe-215","0.5170744943278126","0.3054986991639334","0.22167965296075423","0","","","","","","","",""
"","html-keyboard-response","155","690060","0.0-85.0-1.0","""event"",""trial"",""time""
""fullscreenenter"",""0"",""3028""
","
","
","""event"",""trial"",""time""
""fullscreenenter"",""0"",""3028""
","
","null","<p></p>","null","","","","","","","","","","","","","","","","","","","","","","",""
"","do_trial","156","697297","0.0-86.0-0.0","""event"",""trial"",""time""
""fullscreenenter"",""0"",""3028""
","
","
","""event"",""trial"",""time""
""fullscreenenter"",""0"",""3028""
","
","2648.0999999940395","","","","","","","","49","1,1,0","0","forest","27","probe-99","0.5351008218856426","0.48622925121423377","0.34412132578656185","1","","","","","","","",""
"","html-keyboard-response","157","698308","0.0-86.0-1.0","""event"",""trial"",""time""
""fullscreenenter"",""0"",""3028""
","
","
","""event"",""trial"",""time""
""fullscreenenter"",""0"",""3028""
","
","null","<p></p>","null","","","","","","","","","","","","","","","","","","","","","","",""
"","do_trial","158","703316","0.0-87.0-0.0","""event"",""trial"",""time""
""fullscreenenter"",""0"",""3028""
","
","
","""event"",""trial"",""time""
""fullscreenenter"",""0"",""3028""
","
","419.19999998807907","","","","","","","","49","1,1,1","0","forest","28","probe-42","0.6734577618583919","0.4715017912067302","0.2620324275757038","1","","","","","","","",""
"","html-keyboard-response","159","704332","0.0-87.0-1.0","""event"",""trial"",""time""
""fullscreenenter"",""0"",""3028""
","
","
","""event"",""trial"",""time""
""fullscreenenter"",""0"",""3028""
","
","null","<p></p>","null","","","","","","","","","","","","","","","","","","","","","","",""
"","do_trial","160","709150","0.0-88.0-0.0","""event"",""trial"",""time""
""fullscreenenter"",""0"",""3028""
","
","
","""event"",""trial"",""time""
""fullscreenenter"",""0"",""3028""
","
","219.7000000178814","","","","","","","","49","1,1,0","0","forest","29","probe-87","0.5809469686725183","0.295132080696335","0.27872652565301853","1","","","","","","","",""
"","html-keyboard-response","161","710166","0.0-88.0-1.0","""event"",""trial"",""time""
""fullscreenenter"",""0"",""3028""
","
","
","""event"",""trial"",""time""
""fullscreenenter"",""0"",""3028""
","
","null","<p></p>","null","","","","","","","","","","","","","","","","","","","","","","",""
"","do_bye","162","711684","0.0-89.0-0.0","""event"",""trial"",""time""
""fullscreenenter"",""0"",""3028""
","
","
","""event"",""trial"",""time""
""fullscreenenter"",""0"",""3028""
","
","null","","","","","","","","null","","","","","","","","","","","","","","","","",""
"","break","163","716254","0.0-89.0-1.0","""event"",""trial"",""time""
""fullscreenenter"",""0"",""3028""
","
","
","""event"",""trial"",""time""
""fullscreenenter"",""0"",""3028""
","
","4566.899999976158","<div class='center'><p>Time to take a quick break! You have 2 minutes to rest, but you can move on sooner if you'd like.</p><p> Press the <b>space bar</b> to continue.</p></div>","32","","","","","","","","","","","","","","","","","","","","","","",""
"","do_travel","164","725269","0.0-90.0-0.0","""event"",""trial"",""time""
""fullscreenenter"",""0"",""3028""
","
","
","""event"",""trial"",""time""
""fullscreenenter"",""0"",""3028""
","
","null","","","","","","","","null","","","","","","","","","","","","","","","","",""
"","do_welcome","165","729299","0.0-90.0-1.0","""event"",""trial"",""time""
""fullscreenenter"",""0"",""3028""
","
","
","""event"",""trial"",""time""
""fullscreenenter"",""0"",""3028""
","
","null","","","","","","","","null","","","","","","","","","","","","","","","","",""
"","do_trial","166","735940","0.0-91.0-0.0","""event"",""trial"",""time""
""fullscreenenter"",""0"",""3028""
","
","
","""event"",""trial"",""time""
""fullscreenenter"",""0"",""3028""
","
","2035.0999999940395","","","","","","","","49","1,0,0","1","city","30","probe-166","1","0.3013338979831078","0.2853511676771394","1","","","","","","","",""
"","html-keyboard-response","167","736949","0.0-91.0-1.0","""event"",""trial"",""time""
""fullscreenenter"",""0"",""3028""
","
","
","""event"",""trial"",""time""
""fullscreenenter"",""0"",""3028""
","
","null","<p></p>","null","","","","","","","","","","","","","","","","","","","","","","",""
"","do_trial","168","742141","0.0-92.0-0.0","""event"",""trial"",""time""
""fullscreenenter"",""0"",""3028""
","
","
","""event"",""trial"",""time""
""fullscreenenter"",""0"",""3028""
","
","591.3999999761581","","","","","","","","49","1,1,1","1","city","31","probe-121","1","0.30014447816591305","0.3501508008429833","1","","","","","","","",""
"","html-keyboard-response","169","743158","0.0-92.0-1.0","""event"",""trial"",""time""
""fullscreenenter"",""0"",""3028""
","
","
","""event"",""trial"",""time""
""fullscreenenter"",""0"",""3028""
","
","null","<p></p>","null","","","","","","","","","","","","","","","","","","","","","","",""
"","do_trial","170","748364","0.0-93.0-0.0","""event"",""trial"",""time""
""fullscreenenter"",""0"",""3028""
","
","
","""event"",""trial"",""time""
""fullscreenenter"",""0"",""3028""
","
","613.1999999880791","","","","","","","","49","1,0,0","1","city","32","probe-119","1","0.4265012994990685","0.20963016057752845","1","","","","","","","",""
"","html-keyboard-response","171","749394","0.0-93.0-1.0","""event"",""trial"",""time""
""fullscreenenter"",""0"",""3028""
","
","
","""event"",""trial"",""time""
""fullscreenenter"",""0"",""3028""
","
","null","<p></p>","null","","","","","","","","","","","","","","","","","","","","","","",""
"","do_trial","172","754866","0.0-94.0-0.0","""event"",""trial"",""time""
""fullscreenenter"",""0"",""3028""
","
","
","""event"",""trial"",""time""
""fullscreenenter"",""0"",""3028""
","
","884.5","","","","","","","","49","1,0,0","1","city","33","probe-209","0.8225368816530416","0.2590336566145121","0.21684914183093645","1","","","","","","","",""
"","html-keyboard-response","173","755893","0.0-94.0-1.0","""event"",""trial"",""time""
""fullscreenenter"",""0"",""3028""
","
","
","""event"",""trial"",""time""
""fullscreenenter"",""0"",""3028""
","
","null","<p></p>","null","","","","","","","","","","","","","","","","","","","","","","",""
"","do_trial","174","761233","0.0-95.0-0.0","""event"",""trial"",""time""
""fullscreenenter"",""0"",""3028""
","
","
","""event"",""trial"",""time""
""fullscreenenter"",""0"",""3028""
","
","757.2999999821186","","","","","","","","49","0,1,0","1","city","34","probe-33","0.6171212884010432","0.26873612971626154","0.0902648198699347","0","","","","","","","",""
"","html-keyboard-response","175","762249","0.0-95.0-1.0","""event"",""trial"",""time""
""fullscreenenter"",""0"",""3028""
","
","
","""event"",""trial"",""time""
""fullscreenenter"",""0"",""3028""
","
","null","<p></p>","null","","","","","","","","","","","","","","","","","","","","","","",""
"","do_trial","176","767633","0.0-96.0-0.0","""event"",""trial"",""time""
""fullscreenenter"",""0"",""3028""
","
","
","""event"",""trial"",""time""
""fullscreenenter"",""0"",""3028""
","
","776.5","","","","","","","","49","0,1,0","1","city","35","probe-46","0.6280262044544559","0.4490632495776755","0.1799743078691737","0","","","","","","","",""
"","html-keyboard-response","177","768647","0.0-96.0-1.0","""event"",""trial"",""time""
""fullscreenenter"",""0"",""3028""
","
","
","""event"",""trial"",""time""
""fullscreenenter"",""0"",""3028""
","
","null","<p></p>","null","","","","","","","","","","","","","","","","","","","","","","",""
"","do_trial","178","773985","0.0-97.0-0.0","""event"",""trial"",""time""
""fullscreenenter"",""0"",""3028""
","
","
","""event"",""trial"",""time""
""fullscreenenter"",""0"",""3028""
","
","737.5999999940395","","","","","","","","49","0,1,0","1","city","36","probe-39","0.5759465801560981","0.4341583311906771","0.1388320801153598","0","","","","","","","",""
"","html-keyboard-response","179","775001","0.0-97.0-1.0","""event"",""trial"",""time""
""fullscreenenter"",""0"",""3028""
","
","
","""event"",""trial"",""time""
""fullscreenenter"",""0"",""3028""
","
","null","<p></p>","null","","","","","","","","","","","","","","","","","","","","","","",""
"","do_trial","180","780306","0.0-98.0-0.0","""event"",""trial"",""time""
""fullscreenenter"",""0"",""3028""
","
","
","""event"",""trial"",""time""
""fullscreenenter"",""0"",""3028""
","
","701.7999999821186","","","","","","","","49","0,1,0","1","city","37","probe-185","0.6626912061727386","0.5014266551671999","0.08270700109484139","0","","","","","","","",""
"","html-keyboard-response","181","781319","0.0-98.0-1.0","""event"",""trial"",""time""
""fullscreenenter"",""0"",""3028""
","
","
","""event"",""trial"",""time""
""fullscreenenter"",""0"",""3028""
","
","null","<p></p>","null","","","","","","","","","","","","","","","","","","","","","","",""
"","do_trial","182","785973","0.0-99.0-0.0","""event"",""trial"",""time""
""fullscreenenter"",""0"",""3028""
","
","
","""event"",""trial"",""time""
""fullscreenenter"",""0"",""3028""
","
","66.09999999403954","","","","","","","","49","1,0,0","1","city","38","probe-95","0.684153282601609","0.2729306397205844","0.13684842812410417","1","","","","","","","",""
"","html-keyboard-response","183","786985","0.0-99.0-1.0","""event"",""trial"",""time""
""fullscreenenter"",""0"",""3028""
","
","
","""event"",""trial"",""time""
""fullscreenenter"",""0"",""3028""
","
","null","<p></p>","null","","","","","","","","","","","","","","","","","","","","","","",""
"","do_trial","184","791625","0.0-100.0-0.0","""event"",""trial"",""time""
""fullscreenenter"",""0"",""3028""
","
","
","""event"",""trial"",""time""
""fullscreenenter"",""0"",""3028""
","
","50.099999994039536","","","","","","","","49","1,1,0","1","city","39","probe-201","0.6162477690899258","0.40055616448906867","0.17801934036078265","1","","","","","","","",""
"","html-keyboard-response","185","792640","0.0-100.0-1.0","""event"",""trial"",""time""
""fullscreenenter"",""0"",""3028""
","
","
","""event"",""trial"",""time""
""fullscreenenter"",""0"",""3028""
","
","null","<p></p>","null","","","","","","","","","","","","","","","","","","","","","","",""
"","do_trial","186","798328","0.0-101.0-0.0","""event"",""trial"",""time""
""fullscreenenter"",""0"",""3028""
","
","
","""event"",""trial"",""time""
""fullscreenenter"",""0"",""3028""
","
","1082.9000000059605","","","","","","","","49","1,1,1","1","city","40","probe-230","0.5604692230456194","0.3307296028285204","0.28883380241301526","1","","","","","","","",""
"","html-keyboard-response","187","799339","0.0-101.0-1.0","""event"",""trial"",""time""
""fullscreenenter"",""0"",""3028""
","
","
","""event"",""trial"",""time""
""fullscreenenter"",""0"",""3028""
","
","null","<p></p>","null","","","","","","","","","","","","","","","","","","","","","","",""
"","do_trial","188","804680","0.0-102.0-0.0","""event"",""trial"",""time""
""fullscreenenter"",""0"",""3028""
","
","
","""event"",""trial"",""time""
""fullscreenenter"",""0"",""3028""
","
","715.2000000178814","","","","","","","","49","0,0,1","1","city","41","probe-75","0.5301822261332704","0.31795942197227317","0.3101607792264912","0","","","","","","","",""
"","html-keyboard-response","189","805692","0.0-102.0-1.0","""event"",""trial"",""time""
""fullscreenenter"",""0"",""3028""
","
","
","""event"",""trial"",""time""
""fullscreenenter"",""0"",""3028""
","
","null","<p></p>","null","","","","","","","","","","","","","","","","","","","","","","",""
"","do_trial","190","810397","0.0-103.0-0.0","""event"",""trial"",""time""
""fullscreenenter"",""0"",""3028""
","
","
","""event"",""trial"",""time""
""fullscreenenter"",""0"",""3028""
","
","108.40000000596046","","","","","","","","49","1,1,0","1","city","42","probe-177","0.34876675261410284","0.23630858908173522","0.28116164672948635","1","","","","","","","",""
"","html-keyboard-response","191","811410","0.0-103.0-1.0","""event"",""trial"",""time""
""fullscreenenter"",""0"",""3028""
","
","
","""event"",""trial"",""time""
""fullscreenenter"",""0"",""3028""
","
","null","<p></p>","null","","","","","","","","","","","","","","","","","","","","","","",""
"","do_trial","192","816533","0.0-104.0-0.0","""event"",""trial"",""time""
""fullscreenenter"",""0"",""3028""
","
","
","""event"",""trial"",""time""
""fullscreenenter"",""0"",""3028""
","
","523.1999999880791","","","","","","","","49","0,0,1","1","city","43","probe-32","0.3788789509911161","0.20127203125041984","0.38301666453792393","0","","","","","","","",""
"","html-keyboard-response","193","817546","0.0-104.0-1.0","""event"",""trial"",""time""
""fullscreenenter"",""0"",""3028""
","
","
","""event"",""trial"",""time""
""fullscreenenter"",""0"",""3028""
","
","null","<p></p>","null","","","","","","","","","","","","","","","","","","","","","","",""
"","do_trial","194","822602","0.0-105.0-0.0","""event"",""trial"",""time""
""fullscreenenter"",""0"",""3028""
","
","
","""event"",""trial"",""time""
""fullscreenenter"",""0"",""3028""
","
","450.09999999403954","","","","","","","","49","0,0,0","1","city","44","probe-123","0.36334884996505173","0.23736260402805318","0.4090858525167992","0","","","","","","","",""
"","html-keyboard-response","195","823612","0.0-105.0-1.0","""event"",""trial"",""time""
""fullscreenenter"",""0"",""3028""
","
","
","""event"",""trial"",""time""
""fullscreenenter"",""0"",""3028""
","
","null","<p></p>","null","","","","","","","","","","","","","","","","","","","","","","",""
"","do_trial","196","828718","0.0-106.0-0.0","""event"",""trial"",""time""
""fullscreenenter"",""0"",""3028""
","
","
","""event"",""trial"",""time""
""fullscreenenter"",""0"",""3028""
","
","517.1999999880791","","","","","","","","50","1,0,0","1","city","45","probe-40","0.38968452777973933","0.21298040951900132","0.4963182654560097","0","","","","","","","",""
"","html-keyboard-response","197","829732","0.0-106.0-1.0","""event"",""trial"",""time""
""fullscreenenter"",""0"",""3028""
","
","
","""event"",""trial"",""time""
""fullscreenenter"",""0"",""3028""
","
","null","<p></p>","null","","","","","","","","","","","","","","","","","","","","","","",""
"","do_trial","198","834821","0.0-107.0-0.0","""event"",""trial"",""time""
""fullscreenenter"",""0"",""3028""
","
","
","""event"",""trial"",""time""
""fullscreenenter"",""0"",""3028""
","
","495.30000001192093","","","","","","","","51","1,0,1","1","city","46","probe-206","0.4908504510532978","0.07692902087899262","0.461320896893606","1","","","","","","","",""
"","html-keyboard-response","199","835835","0.0-107.0-1.0","""event"",""trial"",""time""
""fullscreenenter"",""0"",""3028""
","
","
","""event"",""trial"",""time""
""fullscreenenter"",""0"",""3028""
","
","null","<p></p>","null","","","","","","","","","","","","","","","","","","","","","","",""
"","do_trial","200","840890","0.0-108.0-0.0","""event"",""trial"",""time""
""fullscreenenter"",""0"",""3028""
","
","
","""event"",""trial"",""time""
""fullscreenenter"",""0"",""3028""
","
","456.69999998807907","","","","","","","","51","1,0,0","1","city","47","probe-223","0.3816627104416863","0.14621988833307362","0.4729634424539362","0","","","","","","","",""
"","html-keyboard-response","201","841902","0.0-108.0-1.0","""event"",""trial"",""time""
""fullscreenenter"",""0"",""3028""
","
","
","""event"",""trial"",""time""
""fullscreenenter"",""0"",""3028""
","
","null","<p></p>","null","","","","","","","","","","","","","","","","","","","","","","",""
"","do_trial","202","846991","0.0-109.0-0.0","""event"",""trial"",""time""
""fullscreenenter"",""0"",""3028""
","
","
","""event"",""trial"",""time""
""fullscreenenter"",""0"",""3028""
","
","483","","","","","","","","49","1,0,1","1","city","48","probe-117","0.3480790027458774","0.09188809104664798","0.43635049610976046","1","","","","","","","",""
"","html-keyboard-response","203","848004","0.0-109.0-1.0","""event"",""trial"",""time""
""fullscreenenter"",""0"",""3028""
","
","
","""event"",""trial"",""time""
""fullscreenenter"",""0"",""3028""
","
","null","<p></p>","null","","","","","","","","","","","","","","","","","","","","","","",""
"","do_trial","204","853457","0.0-110.0-0.0","""event"",""trial"",""time""
""fullscreenenter"",""0"",""3028""
","
","
","""event"",""trial"",""time""
""fullscreenenter"",""0"",""3028""
","
","854.5","","","","","","","","49","1,0,0","1","city","49","probe-85","0.3855466916802653","0.134530767432139","0.4519001360383351","1","","","","","","","",""
"","html-keyboard-response","205","854471","0.0-110.0-1.0","""event"",""trial"",""time""
""fullscreenenter"",""0"",""3028""
","
","
","""event"",""trial"",""time""
""fullscreenenter"",""0"",""3028""
","
","null","<p></p>","null","","","","","","","","","","","","","","","","","","","","","","",""
"","do_trial","206","859896","0.0-111.0-0.0","""event"",""trial"",""time""
""fullscreenenter"",""0"",""3028""
","
","
","""event"",""trial"",""time""
""fullscreenenter"",""0"",""3028""
","
","832.0999999940395","","","","","","","","49","0,0,0","1","city","50","probe-34","0.3594953555558604","0.06816626542905546","0.4328851456759668","0","","","","","","","",""
"","html-keyboard-response","207","860907","0.0-111.0-1.0","""event"",""trial"",""time""
""fullscreenenter"",""0"",""3028""
","
","
","""event"",""trial"",""time""
""fullscreenenter"",""0"",""3028""
","
","null","<p></p>","null","","","","","","","","","","","","","","","","","","","","","","",""
"","do_trial","208","866129","0.0-112.0-0.0","""event"",""trial"",""time""
""fullscreenenter"",""0"",""3028""
","
","
","""event"",""trial"",""time""
""fullscreenenter"",""0"",""3028""
","
","622.9000000059605","","","","","","","","49","0,0,0","1","city","51","probe-143","0.25460210777939574","0.09682041638964824","0.4554207556817995","0","","","","","","","",""
"","html-keyboard-response","209","867143","0.0-112.0-1.0","""event"",""trial"",""time""
""fullscreenenter"",""0"",""3028""
","
","
","""event"",""trial"",""time""
""fullscreenenter"",""0"",""3028""
","
","null","<p></p>","null","","","","","","","","","","","","","","","","","","","","","","",""
"","do_trial","210","873933","0.0-113.0-0.0","""event"",""trial"",""time""
""fullscreenenter"",""0"",""3028""
","
","
","""event"",""trial"",""time""
""fullscreenenter"",""0"",""3028""
","
","2175.5","","","","","","","","49","1,0,1","1","city","52","probe-171","0.34205523461779125","0.177909234275327","0.5773346792166575","1","","","","","","","",""
"","html-keyboard-response","211","874946","0.0-113.0-1.0","""event"",""trial"",""time""
""fullscreenenter"",""0"",""3028""
","
","
","""event"",""trial"",""time""
""fullscreenenter"",""0"",""3028""
","
","null","<p></p>","null","","","","","","","","","","","","","","","","","","","","","","",""
"","do_trial","212","880918","0.0-114.0-0.0","""event"",""trial"",""time""
""fullscreenenter"",""0"",""3028""
","
","
","""event"",""trial"",""time""
""fullscreenenter"",""0"",""3028""
","
","1372.4000000059605","","","","","","","","49","1,0,1","1","city","53","probe-80","0.31725622292426203","0.24742020430201359","0.6335157247919923","1","","","","","","","",""
"","html-keyboard-response","213","881932","0.0-114.0-1.0","""event"",""trial"",""time""
""fullscreenenter"",""0"",""3028""
","
","
","""event"",""trial"",""time""
""fullscreenenter"",""0"",""3028""
","
","null","<p></p>","null","","","","","","","","","","","","","","","","","","","","","","",""
"","do_trial","214","888200","0.0-115.0-0.0","""event"",""trial"",""time""
""fullscreenenter"",""0"",""3028""
","
","
","""event"",""trial"",""time""
""fullscreenenter"",""0"",""3028""
","
","1665.8999999761581","","","","","","","","49","0,0,1","1","city","54","probe-189","0.15482547024866908","0.21914590000670292","0.5863149846292677","0","","","","","","","",""
"","html-keyboard-response","215","889216","0.0-115.0-1.0","""event"",""trial"",""time""
""fullscreenenter"",""0"",""3028""
","
","
","""event"",""trial"",""time""
""fullscreenenter"",""0"",""3028""
","
","null","<p></p>","null","","","","","","","","","","","","","","","","","","","","","","",""
"","do_trial","216","895036","0.0-116.0-0.0","""event"",""trial"",""time""
""fullscreenenter"",""0"",""3028""
","
","
","""event"",""trial"",""time""
""fullscreenenter"",""0"",""3028""
","
","1237.2999999821186","","","","","","","","49","0,1,0","1","city","55","probe-54","0.16938587625811058","0.12555489082863422","0.8033158705631792","0","","","","","","","",""
"","html-keyboard-response","217","896049","0.0-116.0-1.0","""event"",""trial"",""time""
""fullscreenenter"",""0"",""3028""
","
","
","""event"",""trial"",""time""
""fullscreenenter"",""0"",""3028""
","
","null","<p></p>","null","","","","","","","","","","","","","","","","","","","","","","",""
"","do_trial","218","901024","0.0-117.0-0.0","""event"",""trial"",""time""
""fullscreenenter"",""0"",""3028""
","
","
","""event"",""trial"",""time""
""fullscreenenter"",""0"",""3028""
","
","376.59999999403954","","","","","","","","49","0,0,1","1","city","56","probe-109","0.16798712869239688","0.09134647171590234","0.8203447366018338","0","","","","","","","",""
"","html-keyboard-response","219","902036","0.0-117.0-1.0","""event"",""trial"",""time""
""fullscreenenter"",""0"",""3028""
","
","
","""event"",""trial"",""time""
""fullscreenenter"",""0"",""3028""
","
","null","<p></p>","null","","","","","","","","","","","","","","","","","","","","","","",""
"","do_trial","220","907641","0.0-118.0-0.0","""event"",""trial"",""time""
""fullscreenenter"",""0"",""3028""
","
","
","""event"",""trial"",""time""
""fullscreenenter"",""0"",""3028""
","
","987.9000000059605","","","","","","","","49","0,0,1","1","city","57","probe-229","0.3123212312345463","0.10916420411895761","0.73169370685708","0","","","","","","","",""
"","html-keyboard-response","221","908657","0.0-118.0-1.0","""event"",""trial"",""time""
""fullscreenenter"",""0"",""3028""
","
","
","""event"",""trial"",""time""
""fullscreenenter"",""0"",""3028""
","
","null","<p></p>","null","","","","","","","","","","","","","","","","","","","","","","",""
"","do_trial","222","913709","0.0-119.0-0.0","""event"",""trial"",""time""
""fullscreenenter"",""0"",""3028""
","
","
","""event"",""trial"",""time""
""fullscreenenter"",""0"",""3028""
","
","466.7999999821186","","","","","","","","50","0,0,1","1","city","58","probe-45","0.2937367375511092","0.12436901098764865","0.7736480397549326","0","","","","","","","",""
"","html-keyboard-response","223","914723","0.0-119.0-1.0","""event"",""trial"",""time""
""fullscreenenter"",""0"",""3028""
","
","
","""event"",""trial"",""time""
""fullscreenenter"",""0"",""3028""
","
","null","<p></p>","null","","","","","","","","","","","","","","","","","","","","","","",""
"","do_trial","224","919845","0.0-120.0-0.0","""event"",""trial"",""time""
""fullscreenenter"",""0"",""3028""
","
","
","""event"",""trial"",""time""
""fullscreenenter"",""0"",""3028""
","
","514.1000000238419","","","","","","","","51","0,0,1","1","city","59","probe-122","0.5043535726849382","0.33247725227811203","0.7397570303564899","1","","","","","","","",""
"","html-keyboard-response","225","920859","0.0-120.0-1.0","""event"",""trial"",""time""
""fullscreenenter"",""0"",""3028""
","
","
","""event"",""trial"",""time""
""fullscreenenter"",""0"",""3028""
","
","null","<p></p>","null","","","","","","","","","","","","","","","","","","","","","","",""
"","do_trial","226","926129","0.0-121.0-0.0","""event"",""trial"",""time""
""fullscreenenter"",""0"",""3028""
","
","
","""event"",""trial"",""time""
""fullscreenenter"",""0"",""3028""
","
","665.2999999821186","","","","","","","","51","1,0,1","1","city","60","probe-44","0.33721213823516144","0.15990372436962788","0.8597569958908704","1","","","","","","","",""
"","html-keyboard-response","227","927143","0.0-121.0-1.0","""event"",""trial"",""time""
""fullscreenenter"",""0"",""3028""
","
","
","""event"",""trial"",""time""
""fullscreenenter"",""0"",""3028""
","
","null","<p></p>","null","","","","","","","","","","","","","","","","","","","","","","",""
"","do_trial","228","932581","0.0-122.0-0.0","""event"",""trial"",""time""
""fullscreenenter"",""0"",""3028""
","
","
","""event"",""trial"",""time""
""fullscreenenter"",""0"",""3028""
","
","828.0999999940395","","","","","","","","51","1,0,1","1","city","61","probe-67","0.2694859219094927","0.0606463192052013","0.9113985270775379","1","","","","","","","",""
"","html-keyboard-response","229","933594","0.0-122.0-1.0","""event"",""trial"",""time""
""fullscreenenter"",""0"",""3028""
","
","
","""event"",""trial"",""time""
""fullscreenenter"",""0"",""3028""
","
","null","<p></p>","null","","","","","","","","","","","","","","","","","","","","","","",""
"","do_trial","230","938781","0.0-123.0-0.0","""event"",""trial"",""time""
""fullscreenenter"",""0"",""3028""
","
","
","""event"",""trial"",""time""
""fullscreenenter"",""0"",""3028""
","
","575.1999999880791","","","","","","","","51","1,0,1","1","city","62","probe-222","0.29279066338630433","0.16767676042566607","0.7596633443906643","1","","","","","","","",""
"","html-keyboard-response","231","939796","0.0-123.0-1.0","""event"",""trial"",""time""
""fullscreenenter"",""0"",""3028""
","
","
","""event"",""trial"",""time""
""fullscreenenter"",""0"",""3028""
","
","null","<p></p>","null","","","","","","","","","","","","","","","","","","","","","","",""
"","do_trial","232","945252","0.0-124.0-0.0","""event"",""trial"",""time""
""fullscreenenter"",""0"",""3028""
","
","
","""event"",""trial"",""time""
""fullscreenenter"",""0"",""3028""
","
","865.6999999880791","","","","","","","","51","0,0,1","1","city","63","probe-211","0.44024724729679415","0.17528081266276377","0.7599453870803519","1","","","","","","","",""
"","html-keyboard-response","233","946265","0.0-124.0-1.0","""event"",""trial"",""time""
""fullscreenenter"",""0"",""3028""
","
","
","""event"",""trial"",""time""
""fullscreenenter"",""0"",""3028""
","
","null","<p></p>","null","","","","","","","","","","","","","","","","","","","","","","",""
"","do_trial","234","951456","0.0-125.0-0.0","""event"",""trial"",""time""
""fullscreenenter"",""0"",""3028""
","
","
","""event"",""trial"",""time""
""fullscreenenter"",""0"",""3028""
","
","598.4000000059605","","","","","","","","51","1,0,1","1","city","64","probe-164","0.4004198265650655","0.05331089288660934","0.8279256754274379","1","","","","","","","",""
"","html-keyboard-response","235","952468","0.0-125.0-1.0","""event"",""trial"",""time""
""fullscreenenter"",""0"",""3028""
","
","
","""event"",""trial"",""time""
""fullscreenenter"",""0"",""3028""
","
","null","<p></p>","null","","","","","","","","","","","","","","","","","","","","","","",""
"","do_trial","236","957606","0.0-126.0-0.0","""event"",""trial"",""time""
""fullscreenenter"",""0"",""3028""
","
","
","""event"",""trial"",""time""
""fullscreenenter"",""0"",""3028""
","
","534.6999999880791","","","","","","","","51","1,0,1","1","city","65","probe-86","0.4891383516255183","0.06285709671393395","0.7325494083310622","1","","","","","","","",""
"","html-keyboard-response","237","958619","0.0-126.0-1.0","""event"",""trial"",""time""
""fullscreenenter"",""0"",""3028""
","
","
","""event"",""trial"",""time""
""fullscreenenter"",""0"",""3028""
","
","null","<p></p>","null","","","","","","","","","","","","","","","","","","","","","","",""
"","do_trial","238","963840","0.0-127.0-0.0","""event"",""trial"",""time""
""fullscreenenter"",""0"",""3028""
","
","
","""event"",""trial"",""time""
""fullscreenenter"",""0"",""3028""
","
","623.2999999821186","","","","","","","","51","1,0,1","1","city","66","probe-175","0.4095929779993267","0.1913112127558889","0.7018792364144609","1","","","","","","","",""
"","html-keyboard-response","239","964853","0.0-127.0-1.0","""event"",""trial"",""time""
""fullscreenenter"",""0"",""3028""
","
","
","""event"",""trial"",""time""
""fullscreenenter"",""0"",""3028""
","
","null","<p></p>","null","","","","","","","","","","","","","","","","","","","","","","",""
"","do_trial","240","972424","0.0-128.0-0.0","""event"",""trial"",""time""
""fullscreenenter"",""0"",""3028""
","
","
","""event"",""trial"",""time""
""fullscreenenter"",""0"",""3028""
","
","2961.2000000178814","","","","","","","","51","1,0,1","1","city","67","probe-197","0.3622311626797168","0.0792349550484632","0.6526915402685778","1","","","","","","","",""
"","html-keyboard-response","241","973437","0.0-128.0-1.0","""event"",""trial"",""time""
""fullscreenenter"",""0"",""3028""
","
","
","""event"",""trial"",""time""
""fullscreenenter"",""0"",""3028""
","
","null","<p></p>","null","","","","","","","","","","","","","","","","","","","","","","",""
"","do_trial","242","980129","0.0-129.0-0.0","""event"",""trial"",""time""
""fullscreenenter"",""0"",""3028""
","
","
","""event"",""trial"",""time""
""fullscreenenter"",""0"",""3028""
","
","2107.2999999821186","","","","","","","","51","0,1,0","1","city","68","probe-152","0.4000942596880593","0.22241016993742463","0.647074092324762","0","","","","","","","",""
"","html-keyboard-response","243","981145","0.0-129.0-1.0","""event"",""trial"",""time""
""fullscreenenter"",""0"",""3028""
","
","
","""event"",""trial"",""time""
""fullscreenenter"",""0"",""3028""
","
","null","<p></p>","null","","","","","","","","","","","","","","","","","","","","","","",""
"","do_trial","244","986398","0.0-130.0-0.0","""event"",""trial"",""time""
""fullscreenenter"",""0"",""3028""
","
","
","""event"",""trial"",""time""
""fullscreenenter"",""0"",""3028""
","
","662.6999999880791","","","","","","","","51","1,0,1","1","city","69","probe-66","0.38274749770025096","0.0682964106083168","0.5982640638908568","1","","","","","","","",""
"","html-keyboard-response","245","987412","0.0-130.0-1.0","""event"",""trial"",""time""
""fullscreenenter"",""0"",""3028""
","
","
","""event"",""trial"",""time""
""fullscreenenter"",""0"",""3028""
","
","null","<p></p>","null","","","","","","","","","","","","","","","","","","","","","","",""
"","do_bye","246","988928","0.0-131.0-0.0","""event"",""trial"",""time""
""fullscreenenter"",""0"",""3028""
","
","
","""event"",""trial"",""time""
""fullscreenenter"",""0"",""3028""
","
","null","","","","","","","","null","","","","","","","","","","","","","","","","",""
"","break","247","990253","0.0-131.0-1.0","""event"",""trial"",""time""
""fullscreenenter"",""0"",""3028""
","
","
","""event"",""trial"",""time""
""fullscreenenter"",""0"",""3028""
","
","1322","<div class='center'><p>Time to take a quick break! You have 2 minutes to rest, but you can move on sooner if you'd like.</p><p> Press the <b>space bar</b> to continue.</p></div>","32","","","","","","","","","","","","","","","","","","","","","","",""
"","do_travel","248","999266","0.0-132.0-0.0","""event"",""trial"",""time""
""fullscreenenter"",""0"",""3028""
","
","
","""event"",""trial"",""time""
""fullscreenenter"",""0"",""3028""
","
","null","","","","","","","","null","","","","","","","","","","","","","","","","",""
"","do_welcome","249","1003296","0.0-132.0-1.0","""event"",""trial"",""time""
""fullscreenenter"",""0"",""3028""
","
","
","""event"",""trial"",""time""
""fullscreenenter"",""0"",""3028""
","
","null","","","","","","","","null","","","","","","","","","","","","","","","","",""
"","do_trial","250","1009620","0.0-133.0-0.0","""event"",""trial"",""time""
""fullscreenenter"",""0"",""3028""
","
","
","""event"",""trial"",""time""
""fullscreenenter"",""0"",""3028""
","
","1718","","","","","","","","49","1,0,1","2","highway","70","probe-74","0.28127368361668625","0.09765065358748555","1","1","","","","","","","",""
"","html-keyboard-response","251","1010635","0.0-133.0-1.0","""event"",""trial"",""time""
""fullscreenenter"",""0"",""3028""
","
","
","""event"",""trial"",""time""
""fullscreenenter"",""0"",""3028""
","
","null","<p></p>","null","","","","","","","","","","","","","","","","","","","","","","",""
"","do_trial","252","1015911","0.0-134.0-0.0","""event"",""trial"",""time""
""fullscreenenter"",""0"",""3028""
","
","
","""event"",""trial"",""time""
""fullscreenenter"",""0"",""3028""
","
","664.5","","","","","","","","49","0,0,1","2","highway","71","probe-158","0.24562370386887739","0.07822572931674421","1","0","","","","","","","",""
"","html-keyboard-response","253","1016928","0.0-134.0-1.0","""event"",""trial"",""time""
""fullscreenenter"",""0"",""3028""
","
","
","""event"",""trial"",""time""
""fullscreenenter"",""0"",""3028""
","
","null","<p></p>","null","","","","","","","","","","","","","","","","","","","","","","",""
"","do_trial","254","1021991","0.0-135.0-0.0","""event"",""trial"",""time""
""fullscreenenter"",""0"",""3028""
","
","
","""event"",""trial"",""time""
""fullscreenenter"",""0"",""3028""
","
","467.90000000596046","","","","","","","","49","0,0,1","2","highway","72","probe-72","0.32817181658634503","0.18302333754420752","0.8970658737454262","0","","","","","","","",""
"","html-keyboard-response","255","1023003","0.0-135.0-1.0","""event"",""trial"",""time""
""fullscreenenter"",""0"",""3028""
","
","
","""event"",""trial"",""time""
""fullscreenenter"",""0"",""3028""
","
","null","<p></p>","null","","","","","","","","","","","","","","","","","","","","","","",""
"","do_trial","256","1028041","0.0-136.0-0.0","""event"",""trial"",""time""
""fullscreenenter"",""0"",""3028""
","
","
","""event"",""trial"",""time""
""fullscreenenter"",""0"",""3028""
","
","453.80000001192093","","","","","","","","50","1,0,1","2","highway","73","probe-17","0.5679149907244689","0.1725405502471346","0.8596429009522076","0","","","","","","","",""
"","html-keyboard-response","257","1029054","0.0-136.0-1.0","""event"",""trial"",""time""
""fullscreenenter"",""0"",""3028""
","
","
","""event"",""trial"",""time""
""fullscreenenter"",""0"",""3028""
","
","null","<p></p>","null","","","","","","","","","","","","","","","","","","","","","","",""
"","do_trial","258","1034195","0.0-137.0-0.0","""event"",""trial"",""time""
""fullscreenenter"",""0"",""3028""
","
","
","""event"",""trial"",""time""
""fullscreenenter"",""0"",""3028""
","
","554.8000000119209","","","","","","","","51","1,0,1","2","highway","74","probe-77","0.5587473544670476","0.07455474760143334","0.7666305654838752","1","","","","","","","",""
"","html-keyboard-response","259","1035207","0.0-137.0-1.0","""event"",""trial"",""time""
""fullscreenenter"",""0"",""3028""
","
","
","""event"",""trial"",""time""
""fullscreenenter"",""0"",""3028""
","
