"success","trial_type","trial_index","time_elapsed","internal_node_id","interactions","blur_events","focus_events","fullscreenenter_events","fullscreenexit_events","rt","stimulus","key_press","subject_id","participant_id","age","gender","prompt","response","choice_outcomes","context_n","context_img_id","trial_n","probe_img_id","pR_red","pR_white","pR_black","outcome","contextArray_ind","validImageProbes","invalidImageProbes","pRew_Red","pRew_White","pRew_Black","availableForMemProbe","choice_blocks"
"true","fullscreen","0","8909","0.0-0.0","""event"",""trial"",""time""
""blur"",""0"",""0""
""focus"",""0"",""7746""
""fullscreenenter"",""0"",""7917""
","""event"",""trial"",""time""
""blur"",""0"",""0""
","""event"",""trial"",""time""
""focus"",""0"",""7746""
","""event"",""trial"",""time""
""fullscreenenter"",""0"",""7917""
","
","","","","","","","","","","","","","","","","","","","","","","","","","",""
"","pavlovia","1","8919","0.0-1.0","""event"",""trial"",""time""
""blur"",""0"",""0""
""focus"",""0"",""7746""
""fullscreenenter"",""0"",""7917""
","""event"",""trial"",""time""
""blur"",""0"",""0""
","""event"",""trial"",""time""
""focus"",""0"",""7746""
","""event"",""trial"",""time""
""fullscreenenter"",""0"",""7917""
","
","","","","","","","","","","","","","","","","","","","","","","","","","",""
"","instruc1","2","54057","0.0-2.0","""event"",""trial"",""time""
""blur"",""0"",""0""
""focus"",""0"",""7746""
""fullscreenenter"",""0"",""7917""
","""event"",""trial"",""time""
""blur"",""0"",""0""
","""event"",""trial"",""time""
""focus"",""0"",""7746""
","""event"",""trial"",""time""
""fullscreenenter"",""0"",""7917""
","
","null","run_exp/static/audio/clip_1_welcome.m4a","null","239","547","10","Female","<div class='center'><p>Welcome! This is the first part of the study. It will last ~30 minutes. In part 1 and part 2 of the study, you are the head captain of a pirate ship traveling around the world to different islands. You will play a few different games throughout these two parts. Here is an overview of them:</p><br><p>Part 1 (today)</p><p>1. Instructions, practice game, and quiz</p><p>2. Pick a pirate game on 6 different islands</p><br><p>Part 2 (tomorrow)</p><p>3. Pick a pirate game and memory game</p><p>4. Where did you see this ship? </p></div>","","","","","","","","","","","","","","","","","",""
"","html-keyboard-response","3","85287","0.0-3.0","""event"",""trial"",""time""
""blur"",""0"",""0""
""focus"",""0"",""7746""
""fullscreenenter"",""0"",""7917""
","""event"",""trial"",""time""
""blur"",""0"",""0""
","""event"",""trial"",""time""
""focus"",""0"",""7746""
","""event"",""trial"",""time""
""fullscreenenter"",""0"",""7917""
","
","31224.299999952316","<div class='center'><p>Welcome! This is the first part of the study. It will last ~30 minutes. In part 1 and part 2 of the study, you are the head captain of a pirate ship traveling around the world to different islands. You will play a few different games throughout these two parts. Here is an overview of them:</p><br><p>Part 1 (today)</p><p>1. Instructions, practice game, and quiz</p><p>2. Pick a pirate game on 6 different islands</p><br><p>Part 2 (tomorrow)</p><p>3. Pick a pirate game and memory game</p><p>4. Where did you see this ship? </p><p><b>[Press the space bar to continue]</b></p></div>","32","","","","","","","","","","","","","","","","","","","","","","",""
"","instruc2","4","90619","0.0-4.0","""event"",""trial"",""time""
""blur"",""0"",""0""
""focus"",""0"",""7746""
""fullscreenenter"",""0"",""7917""
","""event"",""trial"",""time""
""blur"",""0"",""0""
","""event"",""trial"",""time""
""focus"",""0"",""7746""
","""event"",""trial"",""time""
""fullscreenenter"",""0"",""7917""
","
","null","run_exp/static/audio/clip_2_different_places.m4a","null","","","","","<div class='center'><p>Today, you’ll visit these 6 islands on your journey. You'll be able to see these islands from your ship.</p><p><img src='run_exp/static/images/contexts/all_contexts.png' height='500'></p></div>","","","","","","","","","","","","","","","","","",""
"","html-keyboard-response","5","106092","0.0-5.0","""event"",""trial"",""time""
""blur"",""0"",""0""
""focus"",""0"",""7746""
""fullscreenenter"",""0"",""7917""
","""event"",""trial"",""time""
""blur"",""0"",""0""
","""event"",""trial"",""time""
""focus"",""0"",""7746""
","""event"",""trial"",""time""
""fullscreenenter"",""0"",""7917""
","
","15470.200000047684","<div class='center'><p>Today, you’ll visit these 6 islands on your journey. You'll be able to see these islands from your ship.</p><p><img src='run_exp/static/images/contexts/all_contexts.png' height='500'></p><p><b>[Press the space bar to continue]</b></p></div>","32","","","","","","","","","","","","","","","","","","","","","","",""
"","instruc3","6","115812","0.0-6.0","""event"",""trial"",""time""
""blur"",""0"",""0""
""focus"",""0"",""7746""
""fullscreenenter"",""0"",""7917""
","""event"",""trial"",""time""
""blur"",""0"",""0""
","""event"",""trial"",""time""
""focus"",""0"",""7746""
","""event"",""trial"",""time""
""fullscreenenter"",""0"",""7917""
","
","null","run_exp/static/audio/clip_3_goal_of_game_1.m4a","null","","","","","<div class='center'><p> The pirates on your ship will rob other ships as they leave the island.</p> These ships have just sold their goods to the islanders, so they will be filled with lots and lots of gold.</p><p><img src='run_exp/static/images/tutorial/ship_center.png' height='400'></p></div>","","","","","","","","","","","","","","","","","",""
"","html-keyboard-response","7","121019","0.0-7.0","""event"",""trial"",""time""
""blur"",""0"",""0""
""focus"",""0"",""7746""
""fullscreenenter"",""0"",""7917""
","""event"",""trial"",""time""
""blur"",""0"",""0""
","""event"",""trial"",""time""
""focus"",""0"",""7746""
","""event"",""trial"",""time""
""fullscreenenter"",""0"",""7917""
","
","5203.199999928474","<div class='center'><p> The pirates on your ship will rob other ships as they leave the island.</p> These ships have just sold their goods to the islanders, so they will be filled with lots and lots of gold.</p><p><img src='run_exp/static/images/tutorial/ship_center.png' height='400'></p><p><b>[Press the space bar to continue]</b></p></div>","32","","","","","","","","","","","","","","","","","","","","","","",""
"","instruc4","8","149032","0.0-8.0","""event"",""trial"",""time""
""blur"",""0"",""0""
""focus"",""0"",""7746""
""fullscreenenter"",""0"",""7917""
","""event"",""trial"",""time""
""blur"",""0"",""0""
","""event"",""trial"",""time""
""focus"",""0"",""7746""
","""event"",""trial"",""time""
""fullscreenenter"",""0"",""7917""
","
","null","run_exp/static/audio/clip_4_goal_of_game_2.m4a","null","","","","","<div class='center'><p>As the head captain, you do not have to rob any ships yourself. Another pirate will be doing the robbing for you. First, you will choose a pirate to rob the next ship.</p><p><img src='run_exp/static/images/tutorial/pirates_all_crop.png' height='200'></p><p>Then, you'll see if the pirate successfully robbed the ship of their gold. If they were successful, then you'll get a stack of gold coins like this:</p><p><img src='run_exp/static/images/tutorial/reward.png' height='150'></p><p> If they were <b>not</b> successful, then you'll get no gold coins, and you'll see a big red x like this: </p><p><img src='run_exp/static/images/tutorial/reward_no.png' height='150'></p><p> How much bonus money you make is based on how many gold coins you collect.</p><div>","","","","","","","","","","","","","","","","","",""
"","html-keyboard-response","9","150836","0.0-9.0","""event"",""trial"",""time""
""blur"",""0"",""0""
""focus"",""0"",""7746""
""fullscreenenter"",""0"",""7917""
","""event"",""trial"",""time""
""blur"",""0"",""0""
","""event"",""trial"",""time""
""focus"",""0"",""7746""
","""event"",""trial"",""time""
""fullscreenenter"",""0"",""7917""
","
","1799.1999999284744","<div class='center'><p>As the head captain, you do not have to rob any ships yourself. Another pirate will be doing the robbing for you. First, you will choose a pirate to rob the next ship.</p><p><img src='run_exp/static/images/tutorial/pirates_all_crop.png' height='200'></p><p>Then, you'll see if the pirate successfully robbed the ship of their gold. If they were successful, then you'll get a stack of gold coins like this:</p><p><img src='run_exp/static/images/tutorial/reward.png' height='150'></p><p> If they were <b>not</b> successful, then you'll get no gold coins, and you'll see a big red x like this: </p><p><img src='run_exp/static/images/tutorial/reward_no.png' height='150'></p><p> How much bonus money you make is based on how many gold coins you collect.</p<p><b>[Press the space bar to continue]</b></p></div>","32","","","","","","","","","","","","","","","","","","","","","","",""
"","instruc5","10","171804","0.0-10.0","""event"",""trial"",""time""
""blur"",""0"",""0""
""focus"",""0"",""7746""
""fullscreenenter"",""0"",""7917""
","""event"",""trial"",""time""
""blur"",""0"",""0""
","""event"",""trial"",""time""
""focus"",""0"",""7746""
","""event"",""trial"",""time""
""fullscreenenter"",""0"",""7917""
","
","20964","run_exp/static/audio/clip_5_probabilistic.m4a","49","","","","","<div class='center'><p>Even the most skilled pirate can not rob EVERY ship.</p><p> Some ships will have very strong protections against pirate attacks.</p><p> Blue beard, here, is very, very good at robbing ships, but he won't be successful every time he tries to rob one.</p><p> You can press the <b>‘1’</b> key on the keyboard to choose him.</p><p> Try choosing him 10 times to see how often he succeeds at robbing a ship. </p><p><img src='run_exp/static/images/tutorial/blue.png' height='500'></p></div>","","","","","","","","","","","","","","","","","",""
"","html-keyboard-response","11","173318","0.0-11.0","""event"",""trial"",""time""
""blur"",""0"",""0""
""focus"",""0"",""7746""
""fullscreenenter"",""0"",""7917""
","""event"",""trial"",""time""
""blur"",""0"",""0""
","""event"",""trial"",""time""
""focus"",""0"",""7746""
","""event"",""trial"",""time""
""fullscreenenter"",""0"",""7917""
","
","null","<div class='center'><p><img src='run_exp/static/images/tutorial/blue_win.png' height='500'></p></div>","null","","","","","","","","","","","","","","","","","","","","","","",""
"","html-keyboard-response","12","174826","0.0-12.0","""event"",""trial"",""time""
""blur"",""0"",""0""
""focus"",""0"",""7746""
""fullscreenenter"",""0"",""7917""
","""event"",""trial"",""time""
""blur"",""0"",""0""
","""event"",""trial"",""time""
""focus"",""0"",""7746""
","""event"",""trial"",""time""
""fullscreenenter"",""0"",""7917""
","
","1505.8000000715256","<div class='center'><img src='run_exp/static/images/tutorial/blue.png' height='500'></p></div>","49","","","","","","","","","","","","","","","","","","","","","","",""
"","html-keyboard-response","13","176333","0.0-13.0","""event"",""trial"",""time""
""blur"",""0"",""0""
""focus"",""0"",""7746""
""fullscreenenter"",""0"",""7917""
","""event"",""trial"",""time""
""blur"",""0"",""0""
","""event"",""trial"",""time""
""focus"",""0"",""7746""
","""event"",""trial"",""time""
""fullscreenenter"",""0"",""7917""
","
","null","<div class='center'><p><img src='run_exp/static/images/tutorial/blue_win.png' height='500'></p></div>","null","","","","","","","","","","","","","","","","","","","","","","",""
"","html-keyboard-response","14","176939","0.0-14.0","""event"",""trial"",""time""
""blur"",""0"",""0""
""focus"",""0"",""7746""
""fullscreenenter"",""0"",""7917""
","""event"",""trial"",""time""
""blur"",""0"",""0""
","""event"",""trial"",""time""
""focus"",""0"",""7746""
","""event"",""trial"",""time""
""fullscreenenter"",""0"",""7917""
","
","604","<div class='center'><img src='run_exp/static/images/tutorial/blue.png' height='500'></p></div>","49","","","","","","","","","","","","","","","","","","","","","","",""
"","html-keyboard-response","15","178446","0.0-15.0","""event"",""trial"",""time""
""blur"",""0"",""0""
""focus"",""0"",""7746""
""fullscreenenter"",""0"",""7917""
","""event"",""trial"",""time""
""blur"",""0"",""0""
","""event"",""trial"",""time""
""focus"",""0"",""7746""
","""event"",""trial"",""time""
""fullscreenenter"",""0"",""7917""
","
","null","<div class='center'><p><img src='run_exp/static/images/tutorial/blue_win.png' height='500'></p></div>","null","","","","","","","","","","","","","","","","","","","","","","",""
"","html-keyboard-response","16","178715","0.0-16.0","""event"",""trial"",""time""
""blur"",""0"",""0""
""focus"",""0"",""7746""
""fullscreenenter"",""0"",""7917""
","""event"",""trial"",""time""
""blur"",""0"",""0""
","""event"",""trial"",""time""
""focus"",""0"",""7746""
","""event"",""trial"",""time""
""fullscreenenter"",""0"",""7917""
","
","267.10000002384186","<div class='center'><img src='run_exp/static/images/tutorial/blue.png' height='500'></p></div>","49","","","","","","","","","","","","","","","","","","","","","","",""
"","html-keyboard-response","17","180229","0.0-17.0","""event"",""trial"",""time""
""blur"",""0"",""0""
""focus"",""0"",""7746""
""fullscreenenter"",""0"",""7917""
","""event"",""trial"",""time""
""blur"",""0"",""0""
","""event"",""trial"",""time""
""focus"",""0"",""7746""
","""event"",""trial"",""time""
""fullscreenenter"",""0"",""7917""
","
","null","<div class='center'><p><img src='run_exp/static/images/tutorial/blue_no_win.png' height='500'></p></div>","null","","","","","","","","","","","","","","","","","","","","","","",""
"","html-keyboard-response","18","180571","0.0-18.0","""event"",""trial"",""time""
""blur"",""0"",""0""
""focus"",""0"",""7746""
""fullscreenenter"",""0"",""7917""
","""event"",""trial"",""time""
""blur"",""0"",""0""
","""event"",""trial"",""time""
""focus"",""0"",""7746""
","""event"",""trial"",""time""
""fullscreenenter"",""0"",""7917""
","
","339.7999999523163","<div class='center'><img src='run_exp/static/images/tutorial/blue.png' height='500'></p></div>","49","","","","","","","","","","","","","","","","","","","","","","",""
"","html-keyboard-response","19","182087","0.0-19.0","""event"",""trial"",""time""
""blur"",""0"",""0""
""focus"",""0"",""7746""
""fullscreenenter"",""0"",""7917""
","""event"",""trial"",""time""
""blur"",""0"",""0""
","""event"",""trial"",""time""
""focus"",""0"",""7746""
","""event"",""trial"",""time""
""fullscreenenter"",""0"",""7917""
","
","null","<div class='center'><p><img src='run_exp/static/images/tutorial/blue_win.png' height='500'></p></div>","null","","","","","","","","","","","","","","","","","","","","","","",""
"","html-keyboard-response","20","182379","0.0-20.0","""event"",""trial"",""time""
""blur"",""0"",""0""
""focus"",""0"",""7746""
""fullscreenenter"",""0"",""7917""
","""event"",""trial"",""time""
""blur"",""0"",""0""
","""event"",""trial"",""time""
""focus"",""0"",""7746""
","""event"",""trial"",""time""
""fullscreenenter"",""0"",""7917""
","
","290.6999999284744","<div class='center'><img src='run_exp/static/images/tutorial/blue.png' height='500'></p></div>","49","","","","","","","","","","","","","","","","","","","","","","",""
"","html-keyboard-response","21","183887","0.0-21.0","""event"",""trial"",""time""
""blur"",""0"",""0""
""focus"",""0"",""7746""
""fullscreenenter"",""0"",""7917""
","""event"",""trial"",""time""
""blur"",""0"",""0""
","""event"",""trial"",""time""
""focus"",""0"",""7746""
","""event"",""trial"",""time""
""fullscreenenter"",""0"",""7917""
","
","null","<div class='center'><p><img src='run_exp/static/images/tutorial/blue_win.png' height='500'></p></div>","null","","","","","","","","","","","","","","","","","","","","","","",""
"","html-keyboard-response","22","184171","0.0-22.0","""event"",""trial"",""time""
""blur"",""0"",""0""
""focus"",""0"",""7746""
""fullscreenenter"",""0"",""7917""
","""event"",""trial"",""time""
""blur"",""0"",""0""
","""event"",""trial"",""time""
""focus"",""0"",""7746""
","""event"",""trial"",""time""
""fullscreenenter"",""0"",""7917""
","
","281.60000002384186","<div class='center'><img src='run_exp/static/images/tutorial/blue.png' height='500'></p></div>","49","","","","","","","","","","","","","","","","","","","","","","",""
"","html-keyboard-response","23","185681","0.0-23.0","""event"",""trial"",""time""
""blur"",""0"",""0""
""focus"",""0"",""7746""
""fullscreenenter"",""0"",""7917""
","""event"",""trial"",""time""
""blur"",""0"",""0""
","""event"",""trial"",""time""
""focus"",""0"",""7746""
","""event"",""trial"",""time""
""fullscreenenter"",""0"",""7917""
","
","null","<div class='center'><p><img src='run_exp/static/images/tutorial/blue_win.png' height='500'></p></div>","null","","","","","","","","","","","","","","","","","","","","","","",""
"","html-keyboard-response","24","186203","0.0-24.0","""event"",""trial"",""time""
""blur"",""0"",""0""
""focus"",""0"",""7746""
""fullscreenenter"",""0"",""7917""
","""event"",""trial"",""time""
""blur"",""0"",""0""
","""event"",""trial"",""time""
""focus"",""0"",""7746""
","""event"",""trial"",""time""
""fullscreenenter"",""0"",""7917""
","
","519.5","<div class='center'><img src='run_exp/static/images/tutorial/blue.png' height='500'></p></div>","49","","","","","","","","","","","","","","","","","","","","","","",""
"","html-keyboard-response","25","187704","0.0-25.0","""event"",""trial"",""time""
""blur"",""0"",""0""
""focus"",""0"",""7746""
""fullscreenenter"",""0"",""7917""
","""event"",""trial"",""time""
""blur"",""0"",""0""
","""event"",""trial"",""time""
""focus"",""0"",""7746""
","""event"",""trial"",""time""
""fullscreenenter"",""0"",""7917""
","
","null","<div class='center'><p><img src='run_exp/static/images/tutorial/blue_no_win.png' height='500'></p></div>","null","","","","","","","","","","","","","","","","","","","","","","",""
"","html-keyboard-response","26","188115","0.0-26.0","""event"",""trial"",""time""
""blur"",""0"",""0""
""focus"",""0"",""7746""
""fullscreenenter"",""0"",""7917""
","""event"",""trial"",""time""
""blur"",""0"",""0""
","""event"",""trial"",""time""
""focus"",""0"",""7746""
","""event"",""trial"",""time""
""fullscreenenter"",""0"",""7917""
","
","407.7000000476837","<div class='center'><img src='run_exp/static/images/tutorial/blue.png' height='500'></p></div>","49","","","","","","","","","","","","","","","","","","","","","","",""
"","html-keyboard-response","27","189617","0.0-27.0","""event"",""trial"",""time""
""blur"",""0"",""0""
""focus"",""0"",""7746""
""fullscreenenter"",""0"",""7917""
","""event"",""trial"",""time""
""blur"",""0"",""0""
","""event"",""trial"",""time""
""focus"",""0"",""7746""
","""event"",""trial"",""time""
""fullscreenenter"",""0"",""7917""
","
","null","<div class='center'><p><img src='run_exp/static/images/tutorial/blue_win.png' height='500'></p></div>","null","","","","","","","","","","","","","","","","","","","","","","",""
"","html-keyboard-response","28","190107","0.0-28.0","""event"",""trial"",""time""
""blur"",""0"",""0""
""focus"",""0"",""7746""
""fullscreenenter"",""0"",""7917""
","""event"",""trial"",""time""
""blur"",""0"",""0""
","""event"",""trial"",""time""
""focus"",""0"",""7746""
","""event"",""trial"",""time""
""fullscreenenter"",""0"",""7917""
","
","488","<div class='center'><img src='run_exp/static/images/tutorial/blue.png' height='500'></p></div>","49","","","","","","","","","","","","","","","","","","","","","","",""
"","html-keyboard-response","29","191613","0.0-29.0","""event"",""trial"",""time""
""blur"",""0"",""0""
""focus"",""0"",""7746""
""fullscreenenter"",""0"",""7917""
","""event"",""trial"",""time""
""blur"",""0"",""0""
","""event"",""trial"",""time""
""focus"",""0"",""7746""
","""event"",""trial"",""time""
""fullscreenenter"",""0"",""7917""
","
","null","<div class='center'><p><img src='run_exp/static/images/tutorial/blue_win.png' height='500'></p></div>","null","","","","","","","","","","","","","","","","","","","","","","",""
"","instruc6","30","197059","0.0-30.0","""event"",""trial"",""time""
""blur"",""0"",""0""
""focus"",""0"",""7746""
""fullscreenenter"",""0"",""7917""
","""event"",""trial"",""time""
""blur"",""0"",""0""
","""event"",""trial"",""time""
""focus"",""0"",""7746""
","""event"",""trial"",""time""
""fullscreenenter"",""0"",""7917""
","
","null","run_exp/static/audio/clip_6_blue_beard_outcome.m4a","null","","","","","<div class='center'><p> See, he succeeded in robbing the ships most of the time but not every time. </p></div>","","","","","","","","","","","","","","","","","",""
"","html-keyboard-response","31","198308","0.0-31.0","""event"",""trial"",""time""
""blur"",""0"",""0""
""focus"",""0"",""7746""
""fullscreenenter"",""0"",""7917""
","""event"",""trial"",""time""
""blur"",""0"",""0""
","""event"",""trial"",""time""
""focus"",""0"",""7746""
","""event"",""trial"",""time""
""fullscreenenter"",""0"",""7917""
","
","1244","<div class='center'><p> See, he succeeded in robbing the ships most of the time but not every time. </p><p><b>[Press the space bar to continue]</b></p></div>","32","","","","","","","","","","","","","","","","","","","","","","",""
"","audio-keyboard-response","32","207395","0.0-32.0","""event"",""trial"",""time""
""blur"",""0"",""0""
""focus"",""0"",""7746""
""fullscreenenter"",""0"",""7917""
","""event"",""trial"",""time""
""blur"",""0"",""0""
","""event"",""trial"",""time""
""focus"",""0"",""7746""
","""event"",""trial"",""time""
""fullscreenenter"",""0"",""7917""
","
","9083.899999976158","run_exp/static/audio/clip_7_pick_pirate.m4a","50","","","","","","","","","","","","","","","","","","","","","","",""
"","audio-keyboard-response","33","211996","0.0-33.0-0.0","""event"",""trial"",""time""
""blur"",""0"",""0""
""focus"",""0"",""7746""
""fullscreenenter"",""0"",""7917""
","""event"",""trial"",""time""
""blur"",""0"",""0""
","""event"",""trial"",""time""
""focus"",""0"",""7746""
","""event"",""trial"",""time""
""fullscreenenter"",""0"",""7917""
","
","4593.899999976158","run_exp/static/audio/clip_8_chosen_pirate_win.m4a","32","","","","","","","","","","","","","","","","","","","","","","",""
"","audio-keyboard-response","34","213132","0.0-33.0-1.0","""event"",""trial"",""time""
""blur"",""0"",""0""
""focus"",""0"",""7746""
""fullscreenenter"",""0"",""7917""
","""event"",""trial"",""time""
""blur"",""0"",""0""
","""event"",""trial"",""time""
""focus"",""0"",""7746""
","""event"",""trial"",""time""
""fullscreenenter"",""0"",""7917""
","
","1132.1000000238419","run_exp/static/audio/clip_9_pick_a_pirate_again.m4a","49","","","","","","","","","","","","","","","","","","","","","","",""
"","audio-keyboard-response","35","217204","0.0-34.0-0.0","""event"",""trial"",""time""
""blur"",""0"",""0""
""focus"",""0"",""7746""
""fullscreenenter"",""0"",""7917""
","""event"",""trial"",""time""
""blur"",""0"",""0""
","""event"",""trial"",""time""
""focus"",""0"",""7746""
","""event"",""trial"",""time""
""fullscreenenter"",""0"",""7917""
","
","4066.7000000476837","run_exp/static/audio/clip_10_chosen_pirate_loss.m4a","32","","","","","","","","","","","","","","","","","","","","","","",""
"","instruc9","36","222719","0.0-35.0-0.0","""event"",""trial"",""time""
""blur"",""0"",""0""
""focus"",""0"",""7746""
""fullscreenenter"",""0"",""7917""
","""event"",""trial"",""time""
""blur"",""0"",""0""
","""event"",""trial"",""time""
""focus"",""0"",""7746""
","""event"",""trial"",""time""
""fullscreenenter"",""0"",""7917""
","
","null","run_exp/static/audio/clip_11_time_out.m4a","null","","","","","<div class='center'><p>If you don’t make your choice fast enough, you’ll have to wait a few seconds before you can make another one. </p><p><img src='run_exp/static/images/miscellaneous/hurry_up.png' height='500'></p></div>","","","","","","","","","","","","","","","","","",""
"","html-keyboard-response","37","224096","0.0-35.0-1.0","""event"",""trial"",""time""
""blur"",""0"",""0""
""focus"",""0"",""7746""
""fullscreenenter"",""0"",""7917""
","""event"",""trial"",""time""
""blur"",""0"",""0""
","""event"",""trial"",""time""
""focus"",""0"",""7746""
","""event"",""trial"",""time""
""fullscreenenter"",""0"",""7917""
","
","1374.2000000476837","<div class='center'><p>If you don’t make your choice fast enough, you’ll have to wait a few seconds before you can make another one. </p><p><img src='run_exp/static/images/miscellaneous/hurry_up.png' height='500'></p><p><b>[Press the space bar to continue]</b></p></div>","32","","","","","","","","","","","","","","","","","","","","","","",""
"","instruc10","38","263239","0.0-35.0-2.0","""event"",""trial"",""time""
""blur"",""0"",""0""
""focus"",""0"",""7746""
""fullscreenenter"",""0"",""7917""
","""event"",""trial"",""time""
""blur"",""0"",""0""
","""event"",""trial"",""time""
""focus"",""0"",""7746""
","""event"",""trial"",""time""
""fullscreenenter"",""0"",""7917""
","
","null","run_exp/static/audio/clip_12_probe.m4a","null","","","","","<div class='center'><p>Once you've chosen a pirate, you’ll be shown the ship they are robbing. You will never rob the same ship twice. Ships can be told apart from one another by the image on them. These are the goods that they sell. See, this ship has a travel mug on it. </p><p> You’ll have to remember which island you saw each ship on. You will win more gold coins and hence more bonus money if you remember correctly! To help you remember, you can imagine a story. For example, here, you could imagine a mug full of water in the desert. Or, as another example, if on the forest island, your pirate robbed a ship with an apple on it, you could imagine an apple falling from a tree in the forest. </p><p><img src='run_exp/static/images/tutorial/example_probe.png' height='500'></p></div>","","","","","","","","","","","","","","","","","",""
"","html-keyboard-response","39","264563","0.0-35.0-3.0","""event"",""trial"",""time""
""blur"",""0"",""0""
""focus"",""0"",""7746""
""fullscreenenter"",""0"",""7917""
","""event"",""trial"",""time""
""blur"",""0"",""0""
","""event"",""trial"",""time""
""focus"",""0"",""7746""
","""event"",""trial"",""time""
""fullscreenenter"",""0"",""7917""
","
","1320.8999999761581","<div class='center'><p>Once you've chosen a pirate, you’ll be shown the ship they are robbing. You will never rob the same ship twice. Ships can be told apart from one another by the image on them. These are the goods that they sell. See, this ship has a travel mug on it. </p><p> You’ll have to remember which island you saw each ship on. You will win more gold coins and hence more bonus money if you remember correctly! To help you remember, you can imagine a story. For example, here, you could imagine a mug full of water in the desert. Or, as another example, if on the forest island, your pirate robbed a ship with an apple on it, you could imagine an apple falling from a tree in the forest. </p><p><img src='run_exp/static/images/tutorial/example_probe.png' height='500'></p><p><b>[Press the space bar to continue]</b></p></div>","32","","","","","","","","","","","","","","","","","","","","","","",""
"","instruc11","40","280999","0.0-35.0-4.0","""event"",""trial"",""time""
""blur"",""0"",""0""
""focus"",""0"",""7746""
""fullscreenenter"",""0"",""7917""
","""event"",""trial"",""time""
""blur"",""0"",""0""
","""event"",""trial"",""time""
""focus"",""0"",""7746""
","""event"",""trial"",""time""
""fullscreenenter"",""0"",""7917""
","
","null","run_exp/static/audio/clip_13_changepoint.m4a","null","","","","","<div class='center'><p>How successful a pirate is at robbing ships will depend on the island you’re on.</p><p> A pirate may have visited this island many times before and gained a lot of practice robbing ships there.</p><p>So, they’re more likely to be successful than a pirate who has never visited the island before.</p></div>","","","","","","","","","","","","","","","","","",""
"","html-keyboard-response","41","281707","0.0-35.0-5.0","""event"",""trial"",""time""
""blur"",""0"",""0""
""focus"",""0"",""7746""
""fullscreenenter"",""0"",""7917""
","""event"",""trial"",""time""
""blur"",""0"",""0""
","""event"",""trial"",""time""
""focus"",""0"",""7746""
","""event"",""trial"",""time""
""fullscreenenter"",""0"",""7917""
","
","705.6000000238419","<div class='center'><p>How successful a pirate is at robbing ships will depend on the island you’re on.</p><p> A pirate may have visited this island many times before and gained a lot of practice robbing ships there.</p><p>So, they’re more likely to be successful than a pirate who has never visited the island before.</p><p><b>[Press the space bar to continue]</b></p></div>","32","","","","","","","","","","","","","","","","","","","","","","",""
"","instruc12","42","322819","0.0-35.0-6.0","""event"",""trial"",""time""
""blur"",""0"",""0""
""focus"",""0"",""7746""
""fullscreenenter"",""0"",""7917""
","""event"",""trial"",""time""
""blur"",""0"",""0""
","""event"",""trial"",""time""
""focus"",""0"",""7746""
","""event"",""trial"",""time""
""fullscreenenter"",""0"",""7917""
","
","null","run_exp/static/audio/clip_14_drift.m4a","null","","","","","<div class='center'><p>How successful a pirate is at robbing ships can also change over the time spent on the island. </p><p> Ships may hear from islanders about the pirates coming and will improve their protections against the attack. This may make it harder to rob them.</p><p> Ships may also become lazy and weaken the strength of their protections. This may make it easier to rob them.</p><br><p>Things are always changing on the high seas! So, try your best to pay attention!</p><p><img src='run_exp/static/images/tutorial/contingency.png' height='500'></p></div>","","","","","","","","","","","","","","","","","",""
"","html-keyboard-response","43","327227","0.0-35.0-7.0","""event"",""trial"",""time""
""blur"",""0"",""0""
""focus"",""0"",""7746""
""fullscreenenter"",""0"",""7917""
","""event"",""trial"",""time""
""blur"",""0"",""0""
","""event"",""trial"",""time""
""focus"",""0"",""7746""
","""event"",""trial"",""time""
""fullscreenenter"",""0"",""7917""
","
","4405","<div class='center'><p>How successful a pirate is at robbing ships can also change over the time spent on the island. </p><p> Ships may hear from islanders about the pirates coming and will improve their protections against the attack. This may make it harder to rob them.</p><p> Ships may also become lazy and weaken the strength of their protections. This may make it easier to rob them.</p><br><p>Things are always changing on the high seas! So, try your best to pay attention!</p><p><img src='run_exp/static/images/tutorial/contingency.png' height='500'></p><p><b>[Press the space bar to continue]</b></p></div>","32","","","","","","","","","","","","","","","","","","","","","","",""
"","instruc13","44","362437","0.0-35.0-8.0","""event"",""trial"",""time""
""blur"",""0"",""0""
""focus"",""0"",""7746""
""fullscreenenter"",""0"",""7917""
","""event"",""trial"",""time""
""blur"",""0"",""0""
","""event"",""trial"",""time""
""focus"",""0"",""7746""
","""event"",""trial"",""time""
""fullscreenenter"",""0"",""7917""
","
","null","run_exp/static/audio/clip_15_summary.m4a","null","","","","","<div class='center'><p>Let's go over the instructions quickly again. You have two important things to do: </p><b><p> 1. Pick the pirate who is the best at robbing ships on the current island. </p></b><b><p> 2. Remember on which island a ship was robbed.</p> </b><p>The amount of bonus money you can win depends on both.</p><p><br><p>Let’s try a practice game. The game will start by showing you the pirates. First, pick a pirate using the <b> 1, 2, 3 </b> keys on your keyboard. When you are shown a ship, try to remember which island you’re on by making up a story.</p><p>This is just a practice game, so you’re not playing for money. </p><p> Good luck! This game will be very difficult but try your best!</p></div>","","","","","","","","","","","","","","","","","",""
"","html-keyboard-response","45","363131","0.0-35.0-9.0","""event"",""trial"",""time""
""blur"",""0"",""0""
""focus"",""0"",""7746""
""fullscreenenter"",""0"",""7917""
","""event"",""trial"",""time""
""blur"",""0"",""0""
","""event"",""trial"",""time""
""focus"",""0"",""7746""
","""event"",""trial"",""time""
""fullscreenenter"",""0"",""7917""
","
","692.3999999761581","<div class='center'><p>Let's go over the instructions quickly again. You have two important things to do: </p><b><p> 1. Pick the pirate who is the best at robbing ships on the current island. </p></b><b><p> 2. Remember on which island a ship was robbed.</p> </b><p>The amount of bonus money you can win depends on both.</p><p><br><p>Let’s try a practice game. The game will start by showing you the pirates. First, pick a pirate using the <b> 1, 2, 3 </b> keys on your keyboard. When you are shown a ship, try to remember which island you’re on by making up a story.</p><p>This is just a practice game, so you’re not playing for money. </p><p> Good luck! This game will be very difficult but try your best!</p><p><b>[Press the space bar to continue]</b></p></div>","32","","","","","","","","","","","","","","","","","","","","","","",""
"","do_welcome","46","367161","0.0-35.0-10.0","""event"",""trial"",""time""
""blur"",""0"",""0""
""focus"",""0"",""7746""
""fullscreenenter"",""0"",""7917""
","""event"",""trial"",""time""
""blur"",""0"",""0""
","""event"",""trial"",""time""
""focus"",""0"",""7746""
","""event"",""trial"",""time""
""fullscreenenter"",""0"",""7917""
","
","null","","","","","","","","null","","","","","","","","","","","","","","","","",""
"","do_trial","47","373193","0.0-35.0-11.0","""event"",""trial"",""time""
""blur"",""0"",""0""
""focus"",""0"",""7746""
""fullscreenenter"",""0"",""7917""
","""event"",""trial"",""time""
""blur"",""0"",""0""
","""event"",""trial"",""time""
""focus"",""0"",""7746""
","""event"",""trial"",""time""
""fullscreenenter"",""0"",""7917""
","
","null","","","","","","","","null","1,0,0","","","","","","","","","","","","","","","",""
"","html-keyboard-response","48","374199","0.0-36.0-0.0","""event"",""trial"",""time""
""blur"",""0"",""0""
""focus"",""0"",""7746""
""fullscreenenter"",""0"",""7917""
","""event"",""trial"",""time""
""blur"",""0"",""0""
","""event"",""trial"",""time""
""focus"",""0"",""7746""
","""event"",""trial"",""time""
""fullscreenenter"",""0"",""7917""
","
","null","<p></p>","null","","","","","","","","","","","","","","","","","","","","","","",""
"","do_trial","49","379146","0.0-36.0-1.0","""event"",""trial"",""time""
""blur"",""0"",""0""
""focus"",""0"",""7746""
""fullscreenenter"",""0"",""7917""
","""event"",""trial"",""time""
""blur"",""0"",""0""
","""event"",""trial"",""time""
""focus"",""0"",""7746""
","""event"",""trial"",""time""
""fullscreenenter"",""0"",""7917""
","
","430.2000000476837","","","","","","","","50","1,0,0","","","","","","","","","","","","","","","",""
"","html-keyboard-response","50","380149","0.0-37.0-0.0","""event"",""trial"",""time""
""blur"",""0"",""0""
""focus"",""0"",""7746""
""fullscreenenter"",""0"",""7917""
","""event"",""trial"",""time""
""blur"",""0"",""0""
","""event"",""trial"",""time""
""focus"",""0"",""7746""
","""event"",""trial"",""time""
""fullscreenenter"",""0"",""7917""
","
","null","<p></p>","null","","","","","","","","","","","","","","","","","","","","","","",""
"","do_trial","51","385023","0.0-37.0-1.0","""event"",""trial"",""time""
""blur"",""0"",""0""
""focus"",""0"",""7746""
""fullscreenenter"",""0"",""7917""
","""event"",""trial"",""time""
""blur"",""0"",""0""
","""event"",""trial"",""time""
""focus"",""0"",""7746""
","""event"",""trial"",""time""
""fullscreenenter"",""0"",""7917""
","
","351.60000002384186","","","","","","","","51","1,1,0","","","","","","","","","","","","","","","",""
"","html-keyboard-response","52","386031","0.0-38.0-0.0","""event"",""trial"",""time""
""blur"",""0"",""0""
""focus"",""0"",""7746""
""fullscreenenter"",""0"",""7917""
","""event"",""trial"",""time""
""blur"",""0"",""0""
","""event"",""trial"",""time""
""focus"",""0"",""7746""
","""event"",""trial"",""time""
""fullscreenenter"",""0"",""7917""
","
","null","<p></p>","null","","","","","","","","","","","","","","","","","","","","","","",""
"","do_trial","53","391638","0.0-38.0-1.0","""event"",""trial"",""time""
""blur"",""0"",""0""
""focus"",""0"",""7746""
""fullscreenenter"",""0"",""7917""
","""event"",""trial"",""time""
""blur"",""0"",""0""
","""event"",""trial"",""time""
""focus"",""0"",""7746""
","""event"",""trial"",""time""
""fullscreenenter"",""0"",""7917""
","
","1081.7999999523163","","","","","","","","49","1,0,1","","","","","","","","","","","","","","","",""
"","html-keyboard-response","54","392642","0.0-39.0-0.0","""event"",""trial"",""time""
""blur"",""0"",""0""
""focus"",""0"",""7746""
""fullscreenenter"",""0"",""7917""
","""event"",""trial"",""time""
""blur"",""0"",""0""
","""event"",""trial"",""time""
""focus"",""0"",""7746""
","""event"",""trial"",""time""
""fullscreenenter"",""0"",""7917""
","
","null","<p></p>","null","","","","","","","","","","","","","","","","","","","","","","",""
"","do_trial","55","397550","0.0-39.0-1.0","""event"",""trial"",""time""
""blur"",""0"",""0""
""focus"",""0"",""7746""
""fullscreenenter"",""0"",""7917""
","""event"",""trial"",""time""
""blur"",""0"",""0""
","""event"",""trial"",""time""
""focus"",""0"",""7746""
","""event"",""trial"",""time""
""fullscreenenter"",""0"",""7917""
","
","391.5","","","","","","","","49","0,1,0","","","","","","","","","","","","","","","",""
"","html-keyboard-response","56","398565","0.0-40.0-0.0","""event"",""trial"",""time""
""blur"",""0"",""0""
""focus"",""0"",""7746""
""fullscreenenter"",""0"",""7917""
","""event"",""trial"",""time""
""blur"",""0"",""0""
","""event"",""trial"",""time""
""focus"",""0"",""7746""
","""event"",""trial"",""time""
""fullscreenenter"",""0"",""7917""
","
","null","<p></p>","null","","","","","","","","","","","","","","","","","","","","","","",""
"","do_trial","57","403424","0.0-40.0-1.0","""event"",""trial"",""time""
""blur"",""0"",""0""
""focus"",""0"",""7746""
""fullscreenenter"",""0"",""7917""
","""event"",""trial"",""time""
""blur"",""0"",""0""
","""event"",""trial"",""time""
""focus"",""0"",""7746""
","""event"",""trial"",""time""
""fullscreenenter"",""0"",""7917""
","
","344","","","","","","","","49","1,0,0","","","","","","","","","","","","","","","",""
"","do_bye","58","404940","0.0-41.0-0.0","""event"",""trial"",""time""
""blur"",""0"",""0""
""focus"",""0"",""7746""
""fullscreenenter"",""0"",""7917""
","""event"",""trial"",""time""
""blur"",""0"",""0""
","""event"",""trial"",""time""
""focus"",""0"",""7746""
","""event"",""trial"",""time""
""fullscreenenter"",""0"",""7917""
","
","null","","","","","","","","null","","","","","","","","","","","","","","","","",""
"","do_travel","59","413951","0.0-41.0-1.0","""event"",""trial"",""time""
""blur"",""0"",""0""
""focus"",""0"",""7746""
""fullscreenenter"",""0"",""7917""
","""event"",""trial"",""time""
""blur"",""0"",""0""
","""event"",""trial"",""time""
""focus"",""0"",""7746""
","""event"",""trial"",""time""
""fullscreenenter"",""0"",""7917""
","
","null","","","","","","","","null","","","","","","","","","","","","","","","","",""
"","do_welcome","60","417967","0.0-41.0-2.0","""event"",""trial"",""time""
""blur"",""0"",""0""
""focus"",""0"",""7746""
""fullscreenenter"",""0"",""7917""
","""event"",""trial"",""time""
""blur"",""0"",""0""
","""event"",""trial"",""time""
""focus"",""0"",""7746""
","""event"",""trial"",""time""
""fullscreenenter"",""0"",""7917""
","
","null","","","","","","","","null","","","","","","","","","","","","","","","","",""
"","do_trial","61","423491","0.0-41.0-3.0","""event"",""trial"",""time""
""blur"",""0"",""0""
""focus"",""0"",""7746""
""fullscreenenter"",""0"",""7917""
","""event"",""trial"",""time""
""blur"",""0"",""0""
","""event"",""trial"",""time""
""focus"",""0"",""7746""
","""event"",""trial"",""time""
""fullscreenenter"",""0"",""7917""
","
","1006.3999999761581","","","","","","","","51","1,0,0","","","","","","","","","","","","","","","",""
"","html-keyboard-response","62","424495","0.0-42.0-0.0","""event"",""trial"",""time""
""blur"",""0"",""0""
""focus"",""0"",""7746""
""fullscreenenter"",""0"",""7917""
","""event"",""trial"",""time""
""blur"",""0"",""0""
","""event"",""trial"",""time""
""focus"",""0"",""7746""
","""event"",""trial"",""time""
""fullscreenenter"",""0"",""7917""
","
","null","<p></p>","null","","","","","","","","","","","","","","","","","","","","","","",""
"","do_trial","63","429347","0.0-42.0-1.0","""event"",""trial"",""time""
""blur"",""0"",""0""
""focus"",""0"",""7746""
""fullscreenenter"",""0"",""7917""
","""event"",""trial"",""time""
""blur"",""0"",""0""
","""event"",""trial"",""time""
""focus"",""0"",""7746""
","""event"",""trial"",""time""
""fullscreenenter"",""0"",""7917""
","
","332.3000000715256","","","","","","","","50","1,0,1","","","","","","","","","","","","","","","",""
"","html-keyboard-response","64","430353","0.0-43.0-0.0","""event"",""trial"",""time""
""blur"",""0"",""0""
""focus"",""0"",""7746""
""fullscreenenter"",""0"",""7917""
","""event"",""trial"",""time""
""blur"",""0"",""0""
","""event"",""trial"",""time""
""focus"",""0"",""7746""
","""event"",""trial"",""time""
""fullscreenenter"",""0"",""7917""
","
","null","<p></p>","null","","","","","","","","","","","","","","","","","","","","","","",""
"","do_trial","65","435355","0.0-43.0-1.0","""event"",""trial"",""time""
""blur"",""0"",""0""
""focus"",""0"",""7746""
""fullscreenenter"",""0"",""7917""
","""event"",""trial"",""time""
""blur"",""0"",""0""
","""event"",""trial"",""time""
""focus"",""0"",""7746""
","""event"",""trial"",""time""
""fullscreenenter"",""0"",""7917""
","
","483.5","","","","","","","","49","1,1,0","","","","","","","","","","","","","","","",""
"","html-keyboard-response","66","436371","0.0-44.0-0.0","""event"",""trial"",""time""
""blur"",""0"",""0""
""focus"",""0"",""7746""
""fullscreenenter"",""0"",""7917""
","""event"",""trial"",""time""
""blur"",""0"",""0""
","""event"",""trial"",""time""
""focus"",""0"",""7746""
","""event"",""trial"",""time""
""fullscreenenter"",""0"",""7917""
","
","null","<p></p>","null","","","","","","","","","","","","","","","","","","","","","","",""
"","do_trial","67","441194","0.0-44.0-1.0","""event"",""trial"",""time""
""blur"",""0"",""0""
""focus"",""0"",""7746""
""fullscreenenter"",""0"",""7917""
","""event"",""trial"",""time""
""blur"",""0"",""0""
","""event"",""trial"",""time""
""focus"",""0"",""7746""
","""event"",""trial"",""time""
""fullscreenenter"",""0"",""7917""
","
","294.40000009536743","","","","","","","","49","0,0,1","","","","","","","","","","","","","","","",""
"","html-keyboard-response","68","442209","0.0-45.0-0.0","""event"",""trial"",""time""
""blur"",""0"",""0""
""focus"",""0"",""7746""
""fullscreenenter"",""0"",""7917""
","""event"",""trial"",""time""
""blur"",""0"",""0""
","""event"",""trial"",""time""
""focus"",""0"",""7746""
","""event"",""trial"",""time""
""fullscreenenter"",""0"",""7917""
","
","null","<p></p>","null","","","","","","","","","","","","","","","","","","","","","","",""
"","do_trial","69","447157","0.0-45.0-1.0","""event"",""trial"",""time""
""blur"",""0"",""0""
""focus"",""0"",""7746""
""fullscreenenter"",""0"",""7917""
","""event"",""trial"",""time""
""blur"",""0"",""0""
","""event"",""trial"",""time""
""focus"",""0"",""7746""
","""event"",""trial"",""time""
""fullscreenenter"",""0"",""7917""
","
","420.89999997615814","","","","","","","","49","1,0,1","","","","","","","","","","","","","","","",""
"","html-keyboard-response","70","449913","0.0-46.0-0.0","""event"",""trial"",""time""
""blur"",""0"",""0""
""focus"",""0"",""7746""
""fullscreenenter"",""0"",""7917""
","""event"",""trial"",""time""
""blur"",""0"",""0""
","""event"",""trial"",""time""
""focus"",""0"",""7746""
","""event"",""trial"",""time""
""fullscreenenter"",""0"",""7917""
","
","2752.7999999523163","<div class='center'><p><img src='run_exp/static/images/tutorial/prac_best_pirate.png'  height='500'></p></div>","49","","","","","","","","","","","","","","","","","","","","","","",""
"","html-keyboard-response","71","452210","0.0-47.0-0.0","""event"",""trial"",""time""
""blur"",""0"",""0""
""focus"",""0"",""7746""
""fullscreenenter"",""0"",""7917""
","""event"",""trial"",""time""
""blur"",""0"",""0""
","""event"",""trial"",""time""
""focus"",""0"",""7746""
","""event"",""trial"",""time""
""fullscreenenter"",""0"",""7917""
","
","2293.899999976158","<div class='center'><p>That's correct! Red beard was the best.</p><p><b>[Press the space bar to continue]</b></p></div>","32","","","","","","","","","","","","","","","","","","","","","","",""
"","html-keyboard-response","72","457859","0.0-47.0-1.0","""event"",""trial"",""time""
""blur"",""0"",""0""
""focus"",""0"",""7746""
""fullscreenenter"",""0"",""7917""
","""event"",""trial"",""time""
""blur"",""0"",""0""
","""event"",""trial"",""time""
""focus"",""0"",""7746""
","""event"",""trial"",""time""
""fullscreenenter"",""0"",""7917""
","
","5647.600000023842","<div class='center'><p><img src='run_exp/static/images/tutorial/prac_source.png'  height='500'></p></div>","50","","","","","","","","","","","","","","","","","","","","","","",""
"","html-keyboard-response","73","459290","0.0-48.0-0.0","""event"",""trial"",""time""
""blur"",""0"",""0""
""focus"",""0"",""7746""
""fullscreenenter"",""0"",""7917""
","""event"",""trial"",""time""
""blur"",""0"",""0""
","""event"",""trial"",""time""
""focus"",""0"",""7746""
","""event"",""trial"",""time""
""fullscreenenter"",""0"",""7917""
","
","1428.1000000238419","<div class='center'><p>That's correct! You saw this ship on the cavern island.</p><p><b>[Press the space bar to continue]</b></p></div>","32","","","","","","","","","","","","","","","","","","","","","","",""
"","quiz_beginning","74","470525","0.0-48.0-1.0","""event"",""trial"",""time""
""blur"",""0"",""0""
""focus"",""0"",""7746""
""fullscreenenter"",""0"",""7917""
","""event"",""trial"",""time""
""blur"",""0"",""0""
","""event"",""trial"",""time""
""focus"",""0"",""7746""
","""event"",""trial"",""time""
""fullscreenenter"",""0"",""7917""
","
","null","run_exp/static/audio/clip_16_quiz_intro.m4a","null","","","","","<div class='center'><p>Good job on the practice game! Now, you will be asked some true or false questions to make sure you really understand the rules of the game.</p><p> Press <b>'1'</b> on the keyboard for true and press <b>'2'</b> for false.</p></div>","","","","","","","","","","","","","","","","","",""
"","audio-keyboard-response","75","476011","0.0-48.0-2.0","""event"",""trial"",""time""
""blur"",""0"",""0""
""focus"",""0"",""7746""
""fullscreenenter"",""0"",""7917""
","""event"",""trial"",""time""
""blur"",""0"",""0""
","""event"",""trial"",""time""
""focus"",""0"",""7746""
","""event"",""trial"",""time""
""fullscreenenter"",""0"",""7917""
","
","5482","run_exp/static/audio/clip_17_q1.m4a","49","","","","","","","","","","","","","","","","","","","","","","",""
"","correct","76","478446","0.0-49.0-0.0","""event"",""trial"",""time""
""blur"",""0"",""0""
""focus"",""0"",""7746""
""fullscreenenter"",""0"",""7917""
","""event"",""trial"",""time""
""blur"",""0"",""0""
","""event"",""trial"",""time""
""focus"",""0"",""7746""
","""event"",""trial"",""time""
""fullscreenenter"",""0"",""7917""
","
","null","run_exp/static/audio/clip_18_correct.m4a","null","","","","","<div class='center'><p>That's correct!</p></div>","","","","","","","","","","","","","","","","","",""
"","html-keyboard-response","77","480266","0.0-49.0-1.0","""event"",""trial"",""time""
""blur"",""0"",""0""
""focus"",""0"",""7746""
""fullscreenenter"",""0"",""7917""
","""event"",""trial"",""time""
""blur"",""0"",""0""
","""event"",""trial"",""time""
""focus"",""0"",""7746""
","""event"",""trial"",""time""
""fullscreenenter"",""0"",""7917""
","
","1818.1999999284744","<div class='center'><p>That's correct!</p><p><b>[Press the space bar to continue]</b></p></div>","32","","","","","","","","","","","","","","","","","","","","","","",""
"","audio-keyboard-response","78","486690","0.0-49.0-2.0","""event"",""trial"",""time""
""blur"",""0"",""0""
""focus"",""0"",""7746""
""fullscreenenter"",""0"",""7917""
","""event"",""trial"",""time""
""blur"",""0"",""0""
","""event"",""trial"",""time""
""focus"",""0"",""7746""
","""event"",""trial"",""time""
""fullscreenenter"",""0"",""7917""
","
","6421.700000047684","run_exp/static/audio/clip_20_q2.m4a","50","","","","","","","","","","","","","","","","","","","","","","",""
"","correct","79","489085","0.0-50.0-0.0","""event"",""trial"",""time""
""blur"",""0"",""0""
""focus"",""0"",""7746""
""fullscreenenter"",""0"",""7917""
","""event"",""trial"",""time""
""blur"",""0"",""0""
","""event"",""trial"",""time""
""focus"",""0"",""7746""
","""event"",""trial"",""time""
""fullscreenenter"",""0"",""7917""
","
","null","run_exp/static/audio/clip_18_correct.m4a","null","","","","","<div class='center'><p>That's correct!</p></div>","","","","","","","","","","","","","","","","","",""
"","html-keyboard-response","80","490634","0.0-50.0-1.0","""event"",""trial"",""time""
""blur"",""0"",""0""
""focus"",""0"",""7746""
""fullscreenenter"",""0"",""7917""
","""event"",""trial"",""time""
""blur"",""0"",""0""
","""event"",""trial"",""time""
""focus"",""0"",""7746""
","""event"",""trial"",""time""
""fullscreenenter"",""0"",""7917""
","
","1547","<div class='center'><p>That's correct!</p><p><b>[Press the space bar to continue]</b></p></div>","32","","","","","","","","","","","","","","","","","","","","","","",""
"","audio-keyboard-response","81","494618","0.0-50.0-2.0","""event"",""trial"",""time""
""blur"",""0"",""0""
""focus"",""0"",""7746""
""fullscreenenter"",""0"",""7917""
","""event"",""trial"",""time""
""blur"",""0"",""0""
","""event"",""trial"",""time""
""focus"",""0"",""7746""
","""event"",""trial"",""time""
""fullscreenenter"",""0"",""7917""
","
","3981.100000023842","run_exp/static/audio/clip_22_q3.m4a","50","","","","","","","","","","","","","","","","","","","","","","",""
"","correct","82","497025","0.0-51.0-0.0","""event"",""trial"",""time""
""blur"",""0"",""0""
""focus"",""0"",""7746""
""fullscreenenter"",""0"",""7917""
","""event"",""trial"",""time""
""blur"",""0"",""0""
","""event"",""trial"",""time""
""focus"",""0"",""7746""
","""event"",""trial"",""time""
""fullscreenenter"",""0"",""7917""
","
","null","run_exp/static/audio/clip_18_correct.m4a","null","","","","","<div class='center'><p>That's correct!</p></div>","","","","","","","","","","","","","","","","","",""
"","html-keyboard-response","83","498387","0.0-51.0-1.0","""event"",""trial"",""time""
""blur"",""0"",""0""
""focus"",""0"",""7746""
""fullscreenenter"",""0"",""7917""
","""event"",""trial"",""time""
""blur"",""0"",""0""
","""event"",""trial"",""time""
""focus"",""0"",""7746""
","""event"",""trial"",""time""
""fullscreenenter"",""0"",""7917""
","
","1359.3000000715256","<div class='center'><p>That's correct!</p><p><b>[Press the space bar to continue]</b></p></div>","32","","","","","","","","","","","","","","","","","","","","","","",""
"","audio-keyboard-response","84","503842","0.0-51.0-2.0","""event"",""trial"",""time""
""blur"",""0"",""0""
""focus"",""0"",""7746""
""fullscreenenter"",""0"",""7917""
","""event"",""trial"",""time""
""blur"",""0"",""0""
","""event"",""trial"",""time""
""focus"",""0"",""7746""
","""event"",""trial"",""time""
""fullscreenenter"",""0"",""7917""
","
","5452.899999976158","run_exp/static/audio/clip_24_q4.m4a","50","","","","","","","","","","","","","","","","","","","","","","",""
"","q4_err","85","513946","0.0-52.0-0.0","""event"",""trial"",""time""
""blur"",""0"",""0""
""focus"",""0"",""7746""
""fullscreenenter"",""0"",""7917""
","""event"",""trial"",""time""
""blur"",""0"",""0""
","""event"",""trial"",""time""
""focus"",""0"",""7746""
","""event"",""trial"",""time""
""fullscreenenter"",""0"",""7917""
","
","null","run_exp/static/audio/clip_25_wrong_q4.m4a","null","","","","","<div class='center'><p>That’s incorrect. You should remember the island where a pirate robbed a ship. To help you remember, you can make up a story associating the object on the ship with the island.</p></div>","","","","","","","","","","","","","","","","","",""
"","html-keyboard-response","86","515299","0.0-52.0-1.0","""event"",""trial"",""time""
""blur"",""0"",""0""
""focus"",""0"",""7746""
""fullscreenenter"",""0"",""7917""
","""event"",""trial"",""time""
""blur"",""0"",""0""
","""event"",""trial"",""time""
""focus"",""0"",""7746""
","""event"",""trial"",""time""
""fullscreenenter"",""0"",""7917""
","
","1347.5","<div class='center'><p>That’s incorrect. You should remember the island where a pirate robbed a ship. To help you remember, you can make up a story associating the object on the ship with the island.</p><p><b>[Press the space bar to continue]</b></p></div>","32","","","","","","","","","","","","","","","","","","","","","","",""
"","q_all_err","87","521506","0.0-53.0-0.0","""event"",""trial"",""time""
""blur"",""0"",""0""
""focus"",""0"",""7746""
""fullscreenenter"",""0"",""7917""
","""event"",""trial"",""time""
""blur"",""0"",""0""
","""event"",""trial"",""time""
""focus"",""0"",""7746""
","""event"",""trial"",""time""
""fullscreenenter"",""0"",""7917""
","
","null","run_exp/static/audio/clip_26_quiz_redo.m4a","null","","","","","<div class='center'><p>Oops, you missed some questions. Now that you’ve heard the correct answers. Try the quiz again! </p></div>","","","","","","","","","","","","","","","","","",""
"","html-keyboard-response","88","522363","0.0-53.0-1.0","""event"",""trial"",""time""
""blur"",""0"",""0""
""focus"",""0"",""7746""
""fullscreenenter"",""0"",""7917""
","""event"",""trial"",""time""
""blur"",""0"",""0""
","""event"",""trial"",""time""
""focus"",""0"",""7746""
","""event"",""trial"",""time""
""fullscreenenter"",""0"",""7917""
","
","854.8999999761581","<div class='center'><p>Oops, you missed some questions. Now that you’ve heard the correct answers. Try the quiz again! </p><p><b>[Press the space bar to continue]</b></p></div>","32","","","","","","","","","","","","","","","","","","","","","","",""
"","audio-keyboard-response","89","526498","0.0-53.0-2.0","""event"",""trial"",""time""
""blur"",""0"",""0""
""focus"",""0"",""7746""
""fullscreenenter"",""0"",""7917""
","""event"",""trial"",""time""
""blur"",""0"",""0""
","""event"",""trial"",""time""
""focus"",""0"",""7746""
","""event"",""trial"",""time""
""fullscreenenter"",""0"",""7917""
","
","4132.700000047684","run_exp/static/audio/clip_17_q1.m4a","49","","","","","","","","","","","","","","","","","","","","","","",""
"","correct","90","528926","0.0-54.0-0.0","""event"",""trial"",""time""
""blur"",""0"",""0""
""focus"",""0"",""7746""
""fullscreenenter"",""0"",""7917""
","""event"",""trial"",""time""
""blur"",""0"",""0""
","""event"",""trial"",""time""
""focus"",""0"",""7746""
","""event"",""trial"",""time""
""fullscreenenter"",""0"",""7917""
","
","null","run_exp/static/audio/clip_18_correct.m4a","null","","","","","<div class='center'><p>That's correct!</p></div>","","","","","","","","","","","","","","","","","",""
"","html-keyboard-response","91","530266","0.0-54.0-1.0","""event"",""trial"",""time""
""blur"",""0"",""0""
""focus"",""0"",""7746""
""fullscreenenter"",""0"",""7917""
","""event"",""trial"",""time""
""blur"",""0"",""0""
","""event"",""trial"",""time""
""focus"",""0"",""7746""
","""event"",""trial"",""time""
""fullscreenenter"",""0"",""7917""
","
","1339","<div class='center'><p>That's correct!</p><p><b>[Press the space bar to continue]</b></p></div>","32","","","","","","","","","","","","","","","","","","","","","","",""
"","audio-keyboard-response","92","533036","0.0-54.0-2.0","""event"",""trial"",""time""
""blur"",""0"",""0""
""focus"",""0"",""7746""
""fullscreenenter"",""0"",""7917""
","""event"",""trial"",""time""
""blur"",""0"",""0""
","""event"",""trial"",""time""
""focus"",""0"",""7746""
","""event"",""trial"",""time""
""fullscreenenter"",""0"",""7917""
","
","2767.2000000476837","run_exp/static/audio/clip_20_q2.m4a","50","","","","","","","","","","","","","","","","","","","","","","",""
"","correct","93","535426","0.0-55.0-0.0","""event"",""trial"",""time""
""blur"",""0"",""0""
""focus"",""0"",""7746""
""fullscreenenter"",""0"",""7917""
","""event"",""trial"",""time""
""blur"",""0"",""0""
","""event"",""trial"",""time""
""focus"",""0"",""7746""
","""event"",""trial"",""time""
""fullscreenenter"",""0"",""7917""
","
","null","run_exp/static/audio/clip_18_correct.m4a","null","","","","","<div class='center'><p>That's correct!</p></div>","","","","","","","","","","","","","","","","","",""
"","html-keyboard-response","94","535930","0.0-55.0-1.0","""event"",""trial"",""time""
""blur"",""0"",""0""
""focus"",""0"",""7746""
""fullscreenenter"",""0"",""7917""
","""event"",""trial"",""time""
""blur"",""0"",""0""
","""event"",""trial"",""time""
""focus"",""0"",""7746""
","""event"",""trial"",""time""
""fullscreenenter"",""0"",""7917""
","
","502.7999999523163","<div class='center'><p>That's correct!</p><p><b>[Press the space bar to continue]</b></p></div>","32","","","","","","","","","","","","","","","","","","","","","","",""
"","audio-keyboard-response","95","538394","0.0-55.0-2.0","""event"",""trial"",""time""
""blur"",""0"",""0""
""focus"",""0"",""7746""
""fullscreenenter"",""0"",""7917""
","""event"",""trial"",""time""
""blur"",""0"",""0""
","""event"",""trial"",""time""
""focus"",""0"",""7746""
","""event"",""trial"",""time""
""fullscreenenter"",""0"",""7917""
","
","2461.399999976158","run_exp/static/audio/clip_22_q3.m4a","50","","","","","","","","","","","","","","","","","","","","","","",""
"","correct","96","540785","0.0-56.0-0.0","""event"",""trial"",""time""
""blur"",""0"",""0""
""focus"",""0"",""7746""
""fullscreenenter"",""0"",""7917""
","""event"",""trial"",""time""
""blur"",""0"",""0""
","""event"",""trial"",""time""
""focus"",""0"",""7746""
","""event"",""trial"",""time""
""fullscreenenter"",""0"",""7917""
","
","null","run_exp/static/audio/clip_18_correct.m4a","null","","","","","<div class='center'><p>That's correct!</p></div>","","","","","","","","","","","","","","","","","",""
"","html-keyboard-response","97","541666","0.0-56.0-1.0","""event"",""trial"",""time""
""blur"",""0"",""0""
""focus"",""0"",""7746""
""fullscreenenter"",""0"",""7917""
","""event"",""trial"",""time""
""blur"",""0"",""0""
","""event"",""trial"",""time""
""focus"",""0"",""7746""
","""event"",""trial"",""time""
""fullscreenenter"",""0"",""7917""
","
","878.8999999761581","<div class='center'><p>That's correct!</p><p><b>[Press the space bar to continue]</b></p></div>","32","","","","","","","","","","","","","","","","","","","","","","",""
"","audio-keyboard-response","98","545523","0.0-56.0-2.0","""event"",""trial"",""time""
""blur"",""0"",""0""
""focus"",""0"",""7746""
""fullscreenenter"",""0"",""7917""
","""event"",""trial"",""time""
""blur"",""0"",""0""
","""event"",""trial"",""time""
""focus"",""0"",""7746""
","""event"",""trial"",""time""
""fullscreenenter"",""0"",""7917""
","
","3854.399999976158","run_exp/static/audio/clip_24_q4.m4a","49","","","","","","","","","","","","","","","","","","","","","","",""
"","correct","99","548006","0.0-57.0-0.0","""event"",""trial"",""time""
""blur"",""0"",""0""
""focus"",""0"",""7746""
""fullscreenenter"",""0"",""7917""
","""event"",""trial"",""time""
""blur"",""0"",""0""
","""event"",""trial"",""time""
""focus"",""0"",""7746""
","""event"",""trial"",""time""
""fullscreenenter"",""0"",""7917""
","
","null","run_exp/static/audio/clip_18_correct.m4a","null","","","","","<div class='center'><p>That's correct!</p></div>","","","","","","","","","","","","","","","","","",""
"","html-keyboard-response","100","548843","0.0-57.0-1.0","""event"",""trial"",""time""
""blur"",""0"",""0""
""focus"",""0"",""7746""
""fullscreenenter"",""0"",""7917""
","""event"",""trial"",""time""
""blur"",""0"",""0""
","""event"",""trial"",""time""
""focus"",""0"",""7746""
","""event"",""trial"",""time""
""fullscreenenter"",""0"",""7917""
","
","834.6000000238419","<div class='center'><p>That's correct!</p><p><b>[Press the space bar to continue]</b></p></div>","32","","","","","","","","","","","","","","","","","","","","","","",""
"","q_all_corr","101","557347","0.0-58.0-0.0","""event"",""trial"",""time""
""blur"",""0"",""0""
""focus"",""0"",""7746""
""fullscreenenter"",""0"",""7917""
","""event"",""trial"",""time""
""blur"",""0"",""0""
","""event"",""trial"",""time""
""focus"",""0"",""7746""
","""event"",""trial"",""time""
""fullscreenenter"",""0"",""7917""
","
","null","run_exp/static/audio/clip_27_quiz_all_correct.m4a","null","","","","","<div class='center'><p>Good job! You’re now ready to move on to the real game! Remember this game will be difficult but don't get discouraged and try your best!</p></div>","","","","","","","","","","","","","","","","","",""
"","html-keyboard-response","102","558555","0.0-58.0-1.0","""event"",""trial"",""time""
""blur"",""0"",""0""
""focus"",""0"",""7746""
""fullscreenenter"",""0"",""7917""
","""event"",""trial"",""time""
""blur"",""0"",""0""
","""event"",""trial"",""time""
""focus"",""0"",""7746""
","""event"",""trial"",""time""
""fullscreenenter"",""0"",""7917""
","
","1205.9000000953674","<div class='center'><p>Good job! You’re now ready to move on to the real game! Remember this game will be difficult but don't get discouraged and try your best!</p><p><b>[Press the space bar to continue]</b></p></div>","32","","","","","","","","","","","","","","","","","","","","","","",""
"","do_welcome","103","562588","0.0-59.0-0.0","""event"",""trial"",""time""
""blur"",""0"",""0""
""focus"",""0"",""7746""
""fullscreenenter"",""0"",""7917""
","""event"",""trial"",""time""
""blur"",""0"",""0""
","""event"",""trial"",""time""
""focus"",""0"",""7746""
","""event"",""trial"",""time""
""fullscreenenter"",""0"",""7917""
","
","null","","","","","","","","null","","","","","","","","","","","","","","","","",""
"","do_trial","104","568004","0.0-60.0-0.0","""event"",""trial"",""time""
""blur"",""0"",""0""
""focus"",""0"",""7746""
""fullscreenenter"",""0"",""7917""
","""event"",""trial"",""time""
""blur"",""0"",""0""
","""event"",""trial"",""time""
""focus"",""0"",""7746""
","""event"",""trial"",""time""
""fullscreenenter"",""0"",""7917""
","
","846.2000000476837","","","","","","","","49","1,0,0","0","countryside","0","probe-40","0.6","0.3","0.1","1","","","","","","","",""
"","html-keyboard-response","105","569022","0.0-60.0-1.0","""event"",""trial"",""time""
""blur"",""0"",""0""
""focus"",""0"",""7746""
""fullscreenenter"",""0"",""7917""
","""event"",""trial"",""time""
""blur"",""0"",""0""
","""event"",""trial"",""time""
""focus"",""0"",""7746""
","""event"",""trial"",""time""
""fullscreenenter"",""0"",""7917""
","
","null","<p></p>","null","","","","","","","","","","","","","","","","","","","","","","",""
"","do_trial","106","574140","0.0-61.0-0.0","""event"",""trial"",""time""
""blur"",""0"",""0""
""focus"",""0"",""7746""
""fullscreenenter"",""0"",""7917""
","""event"",""trial"",""time""
""blur"",""0"",""0""
","""event"",""trial"",""time""
""focus"",""0"",""7746""
","""event"",""trial"",""time""
""fullscreenenter"",""0"",""7917""
","
","519.2000000476837","","","","","","","","50","0,1,0","0","countryside","1","probe-191","0.6665585865022798","0.3310292265123084","0.055938381217519435","1","","","","","","","",""
"","html-keyboard-response","107","575147","0.0-61.0-1.0","""event"",""trial"",""time""
""blur"",""0"",""0""
""focus"",""0"",""7746""
""fullscreenenter"",""0"",""7917""
","""event"",""trial"",""time""
""blur"",""0"",""0""
","""event"",""trial"",""time""
""focus"",""0"",""7746""
","""event"",""trial"",""time""
""fullscreenenter"",""0"",""7917""
","
","null","<p></p>","null","","","","","","","","","","","","","","","","","","","","","","",""
"","do_trial","108","580073","0.0-62.0-0.0","""event"",""trial"",""time""
""blur"",""0"",""0""
""focus"",""0"",""7746""
""fullscreenenter"",""0"",""7917""
","""event"",""trial"",""time""
""blur"",""0"",""0""
","""event"",""trial"",""time""
""focus"",""0"",""7746""
","""event"",""trial"",""time""
""fullscreenenter"",""0"",""7917""
","
","362.2999999523163","","","","","","","","51","1,1,0","0","countryside","2","probe-34","0.7291252917434143","0.30037277544127755","0.17921589131037738","0","","","","","","","",""
"","html-keyboard-response","109","581083","0.0-62.0-1.0","""event"",""trial"",""time""
""blur"",""0"",""0""
""focus"",""0"",""7746""
""fullscreenenter"",""0"",""7917""
","""event"",""trial"",""time""
""blur"",""0"",""0""
","""event"",""trial"",""time""
""focus"",""0"",""7746""
","""event"",""trial"",""time""
""fullscreenenter"",""0"",""7917""
","
","null","<p></p>","null","","","","","","","","","","","","","","","","","","","","","","",""
"","do_trial","110","586040","0.0-63.0-0.0","""event"",""trial"",""time""
""blur"",""0"",""0""
""focus"",""0"",""7746""
""fullscreenenter"",""0"",""7917""
","""event"",""trial"",""time""
""blur"",""0"",""0""
","""event"",""trial"",""time""
""focus"",""0"",""7746""
","""event"",""trial"",""time""
""fullscreenenter"",""0"",""7917""
","
","360","","","","","","","","49","0,0,0","0","countryside","3","probe-229","0.7037916954357075","0.2584984370276012","0.2544983585962386","0","","","","","","","",""
"","html-keyboard-response","111","587050","0.0-63.0-1.0","""event"",""trial"",""time""
""blur"",""0"",""0""
""focus"",""0"",""7746""
""fullscreenenter"",""0"",""7917""
","""event"",""trial"",""time""
""blur"",""0"",""0""
","""event"",""trial"",""time""
""focus"",""0"",""7746""
","""event"",""trial"",""time""
""fullscreenenter"",""0"",""7917""
","
","null","<p></p>","null","","","","","","","","","","","","","","","","","","","","","","",""
"","do_trial","112","592256","0.0-64.0-0.0","""event"",""trial"",""time""
""blur"",""0"",""0""
""focus"",""0"",""7746""
""fullscreenenter"",""0"",""7917""
","""event"",""trial"",""time""
""blur"",""0"",""0""
","""event"",""trial"",""time""
""focus"",""0"",""7746""
","""event"",""trial"",""time""
""fullscreenenter"",""0"",""7917""
","
","589.7999999523163","","","","","","","","50","1,1,0","0","countryside","4","probe-15","0.6671418174461272","0.23055557253754416","0.13757619556641873","1","","","","","","","",""
"","html-keyboard-response","113","593262","0.0-64.0-1.0","""event"",""trial"",""time""
""blur"",""0"",""0""
""focus"",""0"",""7746""
""fullscreenenter"",""0"",""7917""
","""event"",""trial"",""time""
""blur"",""0"",""0""
","""event"",""trial"",""time""
""focus"",""0"",""7746""
","""event"",""trial"",""time""
""fullscreenenter"",""0"",""7917""
","
","null","<p></p>","null","","","","","","","","","","","","","","","","","","","","","","",""
"","do_trial","114","598112","0.0-65.0-0.0","""event"",""trial"",""time""
""blur"",""0"",""0""
""focus"",""0"",""7746""
""fullscreenenter"",""0"",""7917""
","""event"",""trial"",""time""
""blur"",""0"",""0""
","""event"",""trial"",""time""
""focus"",""0"",""7746""
","""event"",""trial"",""time""
""fullscreenenter"",""0"",""7917""
","
","264.39999997615814","","","","","","","","50","1,0,1","0","countryside","5","probe-221","0.6095319106591132","0.3314403925399907","0.056373990339688325","0","","","","","","","",""
"","html-keyboard-response","115","599122","0.0-65.0-1.0","""event"",""trial"",""time""
""blur"",""0"",""0""
""focus"",""0"",""7746""
""fullscreenenter"",""0"",""7917""
","""event"",""trial"",""time""
""blur"",""0"",""0""
","""event"",""trial"",""time""
""focus"",""0"",""7746""
","""event"",""trial"",""time""
""fullscreenenter"",""0"",""7917""
","
","null","<p></p>","null","","","","","","","","","","","","","","","","","","","","","","",""
"","do_trial","116","604047","0.0-66.0-0.0","""event"",""trial"",""time""
""blur"",""0"",""0""
""focus"",""0"",""7746""
""fullscreenenter"",""0"",""7917""
","""event"",""trial"",""time""
""blur"",""0"",""0""
","""event"",""trial"",""time""
""focus"",""0"",""7746""
","""event"",""trial"",""time""
""fullscreenenter"",""0"",""7917""
","
","320.6999999284744","","","","","","","","50","0,1,0","0","countryside","6","probe-205","0.6263696813098905","0.394997389551136","0.05443145460208772","1","","","","","","","",""
"","html-keyboard-response","117","605056","0.0-66.0-1.0","""event"",""trial"",""time""
""blur"",""0"",""0""
""focus"",""0"",""7746""
""fullscreenenter"",""0"",""7917""
","""event"",""trial"",""time""
""blur"",""0"",""0""
","""event"",""trial"",""time""
""focus"",""0"",""7746""
","""event"",""trial"",""time""
""fullscreenenter"",""0"",""7917""
","
","null","<p></p>","null","","","","","","","","","","","","","","","","","","","","","","",""
"","do_trial","118","610008","0.0-67.0-0.0","""event"",""trial"",""time""
""blur"",""0"",""0""
""focus"",""0"",""7746""
""fullscreenenter"",""0"",""7917""
","""event"",""trial"",""time""
""blur"",""0"",""0""
","""event"",""trial"",""time""
""focus"",""0"",""7746""
","""event"",""trial"",""time""
""fullscreenenter"",""0"",""7917""
","
","314.90000009536743","","","","","","","","50","1,1,0","0","countryside","7","probe-184","0.5904312605964792","0.2617535118287859","0.15953370134002998","1","","","","","","","",""
"","html-keyboard-response","119","611013","0.0-67.0-1.0","""event"",""trial"",""time""
""blur"",""0"",""0""
""focus"",""0"",""7746""
""fullscreenenter"",""0"",""7917""
","""event"",""trial"",""time""
""blur"",""0"",""0""
","""event"",""trial"",""time""
""focus"",""0"",""7746""
","""event"",""trial"",""time""
""fullscreenenter"",""0"",""7917""
","
","null","<p></p>","null","","","","","","","","","","","","","","","","","","","","","","",""
"","do_trial","120","616871","0.0-68.0-0.0","""event"",""trial"",""time""
""blur"",""0"",""0""
""focus"",""0"",""7746""
""fullscreenenter"",""0"",""7917""
","""event"",""trial"",""time""
""blur"",""0"",""0""
","""event"",""trial"",""time""
""focus"",""0"",""7746""
","""event"",""trial"",""time""
""fullscreenenter"",""0"",""7917""
","
","1226.1000000238419","","","","","","","","50","1,0,0","0","countryside","8","probe-146","0.6397700384281195","0.3729097872502722","0.06987885527646977","0","","","","","","","",""
"","html-keyboard-response","121","617882","0.0-68.0-1.0","""event"",""trial"",""time""
""blur"",""0"",""0""
""focus"",""0"",""7746""
""fullscreenenter"",""0"",""7917""
","""event"",""trial"",""time""
""blur"",""0"",""0""
","""event"",""trial"",""time""
""focus"",""0"",""7746""
","""event"",""trial"",""time""
""fullscreenenter"",""0"",""7917""
","
","null","<p></p>","null","","","","","","","","","","","","","","","","","","","","","","",""
"","do_trial","122","622482","0.0-69.0-0.0","""event"",""trial"",""time""
""blur"",""0"",""0""
""focus"",""0"",""7746""
""fullscreenenter"",""0"",""7917""
","""event"",""trial"",""time""
""blur"",""0"",""0""
","""event"",""trial"",""time""
""focus"",""0"",""7746""
","""event"",""trial"",""time""
""fullscreenenter"",""0"",""7917""
","
","0.10000002384185791","","","","","","","","50","0,1,0","0","countryside","9","probe-198","0.5559534188237021","0.4118852570183102","0.1140123388688509","1","","","","","","","",""
"","html-keyboard-response","123","623488","0.0-69.0-1.0","""event"",""trial"",""time""
""blur"",""0"",""0""
""focus"",""0"",""7746""
""fullscreenenter"",""0"",""7917""
","""event"",""trial"",""time""
""blur"",""0"",""0""
","""event"",""trial"",""time""
""focus"",""0"",""7746""
","""event"",""trial"",""time""
""fullscreenenter"",""0"",""7917""
","
","null","<p></p>","null","","","","","","","","","","","","","","","","","","","","","","",""
"","do_trial","124","628403","0.0-70.0-0.0","""event"",""trial"",""time""
""blur"",""0"",""0""
""focus"",""0"",""7746""
""fullscreenenter"",""0"",""7917""
","""event"",""trial"",""time""
""blur"",""0"",""0""
","""event"",""trial"",""time""
""focus"",""0"",""7746""
","""event"",""trial"",""time""
""fullscreenenter"",""0"",""7917""
","
","326.60000002384186","","","","","","","","50","0,0,0","0","countryside","10","probe-69","0.6391681236233827","0.4062383158330662","0.1945487536799734","0","","","","","","","",""
"","html-keyboard-response","125","629414","0.0-70.0-1.0","""event"",""trial"",""time""
""blur"",""0"",""0""
""focus"",""0"",""7746""
""fullscreenenter"",""0"",""7917""
","""event"",""trial"",""time""
""blur"",""0"",""0""
","""event"",""trial"",""time""
""focus"",""0"",""7746""
","""event"",""trial"",""time""
""fullscreenenter"",""0"",""7917""
","
","null","<p></p>","null","","","","","","","","","","","","","","","","","","","","","","",""
"","do_trial","126","634436","0.0-71.0-0.0","""event"",""trial"",""time""
""blur"",""0"",""0""
""focus"",""0"",""7746""
""fullscreenenter"",""0"",""7917""
","""event"",""trial"",""time""
""blur"",""0"",""0""
","""event"",""trial"",""time""
""focus"",""0"",""7746""
","""event"",""trial"",""time""
""fullscreenenter"",""0"",""7917""
","
","406.59999990463257","","","","","","","","49","0,0,0","0","countryside","11","probe-144","0.5753896218453969","0.42773950352573564","0.09509567308379743","0","","","","","","","",""
"","html-keyboard-response","127","635448","0.0-71.0-1.0","""event"",""trial"",""time""
""blur"",""0"",""0""
""focus"",""0"",""7746""
""fullscreenenter"",""0"",""7917""
","""event"",""trial"",""time""
""blur"",""0"",""0""
","""event"",""trial"",""time""
""focus"",""0"",""7746""
","""event"",""trial"",""time""
""fullscreenenter"",""0"",""7917""
","
","null","<p></p>","null","","","","","","","","","","","","","","","","","","","","","","",""
"","do_trial","128","640396","0.0-72.0-0.0","""event"",""trial"",""time""
""blur"",""0"",""0""
""focus"",""0"",""7746""
""fullscreenenter"",""0"",""7917""
","""event"",""trial"",""time""
""blur"",""0"",""0""
","""event"",""trial"",""time""
""focus"",""0"",""7746""
","""event"",""trial"",""time""
""fullscreenenter"",""0"",""7917""
","
","338.2999999523163","","","","","","","","50","1,1,1","0","countryside","12","probe-22","0.4499075889199689","0.5626995396344786","0.09545434348010715","1","","","","","","","",""
"","html-keyboard-response","129","641404","0.0-72.0-1.0","""event"",""trial"",""time""
""blur"",""0"",""0""
""focus"",""0"",""7746""
""fullscreenenter"",""0"",""7917""
","""event"",""trial"",""time""
""blur"",""0"",""0""
","""event"",""trial"",""time""
""focus"",""0"",""7746""
","""event"",""trial"",""time""
""fullscreenenter"",""0"",""7917""
","
","null","<p></p>","null","","","","","","","","","","","","","","","","","","","","","","",""
"","do_trial","130","646248","0.0-73.0-0.0","""event"",""trial"",""time""
""blur"",""0"",""0""
""focus"",""0"",""7746""
""fullscreenenter"",""0"",""7917""
","""event"",""trial"",""time""
""blur"",""0"",""0""
","""event"",""trial"",""time""
""focus"",""0"",""7746""
","""event"",""trial"",""time""
""fullscreenenter"",""0"",""7917""
","
","248.79999995231628","","","","","","","","50","0,1,0","0","countryside","13","probe-30","0.5515214685885476","0.4906384978746143","0.09586251641880895","1","","","","","","","",""
"","html-keyboard-response","131","647258","0.0-73.0-1.0","""event"",""trial"",""time""
""blur"",""0"",""0""
""focus"",""0"",""7746""
""fullscreenenter"",""0"",""7917""
","""event"",""trial"",""time""
""blur"",""0"",""0""
","""event"",""trial"",""time""
""focus"",""0"",""7746""
","""event"",""trial"",""time""
""fullscreenenter"",""0"",""7917""
","
","null","<p></p>","null","","","","","","","","","","","","","","","","","","","","","","",""
"","do_trial","132","652490","0.0-74.0-0.0","""event"",""trial"",""time""
""blur"",""0"",""0""
""focus"",""0"",""7746""
""fullscreenenter"",""0"",""7917""
","""event"",""trial"",""time""
""blur"",""0"",""0""
","""event"",""trial"",""time""
""focus"",""0"",""7746""
","""event"",""trial"",""time""
""fullscreenenter"",""0"",""7917""
","
","609.2999999523163","","","","","","","","50","0,0,0","0","countryside","14","probe-98","0.48192986893939255","0.36480717831065673","0.15497548284582496","0","","","","","","","",""
"","html-keyboard-response","133","653499","0.0-74.0-1.0","""event"",""trial"",""time""
""blur"",""0"",""0""
""focus"",""0"",""7746""
""fullscreenenter"",""0"",""7917""
","""event"",""trial"",""time""
""blur"",""0"",""0""
","""event"",""trial"",""time""
""focus"",""0"",""7746""
","""event"",""trial"",""time""
""fullscreenenter"",""0"",""7917""
","
","null","<p></p>","null","","","","","","","","","","","","","","","","","","","","","","",""
"","do_trial","134","658391","0.0-75.0-0.0","""event"",""trial"",""time""
""blur"",""0"",""0""
""focus"",""0"",""7746""
""fullscreenenter"",""0"",""7917""
","""event"",""trial"",""time""
""blur"",""0"",""0""
","""event"",""trial"",""time""
""focus"",""0"",""7746""
","""event"",""trial"",""time""
""fullscreenenter"",""0"",""7917""
","
","279.60000002384186","","","","","","","","50","0,0,0","0","countryside","15","probe-74","0.5637120820654282","0.10855522517562108","0.14219924473617826","0","","","","","","","",""
"","html-keyboard-response","135","659407","0.0-75.0-1.0","""event"",""trial"",""time""
""blur"",""0"",""0""
""focus"",""0"",""7746""
""fullscreenenter"",""0"",""7917""
","""event"",""trial"",""time""
""blur"",""0"",""0""
","""event"",""trial"",""time""
""focus"",""0"",""7746""
","""event"",""trial"",""time""
""fullscreenenter"",""0"",""7917""
","
","null","<p></p>","null","","","","","","","","","","","","","","","","","","","","","","",""
"","do_trial","136","664499","0.0-76.0-0.0","""event"",""trial"",""time""
""blur"",""0"",""0""
""focus"",""0"",""7746""
""fullscreenenter"",""0"",""7917""
","""event"",""trial"",""time""
""blur"",""0"",""0""
","""event"",""trial"",""time""
""focus"",""0"",""7746""
","""event"",""trial"",""time""
""fullscreenenter"",""0"",""7917""
","
","489.7000000476837","","","","","","","","50","1,0,0","0","countryside","16","probe-132","0.46285247076173824","0.1573196652186321","0.15355885206327174","0","","","","","","","",""
"","html-keyboard-response","137","665502","0.0-76.0-1.0","""event"",""trial"",""time""
""blur"",""0"",""0""
""focus"",""0"",""7746""
""fullscreenenter"",""0"",""7917""
","""event"",""trial"",""time""
""blur"",""0"",""0""
","""event"",""trial"",""time""
""focus"",""0"",""7746""
","""event"",""trial"",""time""
""fullscreenenter"",""0"",""7917""
","
","null","<p></p>","null","","","","","","","","","","","","","","","","","","","","","","",""
"","do_trial","138","670498","0.0-77.0-0.0","""event"",""trial"",""time""
""blur"",""0"",""0""
""focus"",""0"",""7746""
""fullscreenenter"",""0"",""7917""
","""event"",""trial"",""time""
""blur"",""0"",""0""
","""event"",""trial"",""time""
""focus"",""0"",""7746""
","""event"",""trial"",""time""
""fullscreenenter"",""0"",""7917""
","
","382.2999999523163","","","","","","","","51","1,0,0","0","countryside","17","probe-215","0.7207001437841443","0.2537586209015372","0.09146685220184553","0","","","","","","","",""
"","html-keyboard-response","139","671506","0.0-77.0-1.0","""event"",""trial"",""time""
""blur"",""0"",""0""
""focus"",""0"",""7746""
""fullscreenenter"",""0"",""7917""
","""event"",""trial"",""time""
""blur"",""0"",""0""
","""event"",""trial"",""time""
""focus"",""0"",""7746""
","""event"",""trial"",""time""
""fullscreenenter"",""0"",""7917""
","
","null","<p></p>","null","","","","","","","","","","","","","","","","","","","","","","",""
"","do_trial","140","676474","0.0-78.0-0.0","""event"",""trial"",""time""
""blur"",""0"",""0""
""focus"",""0"",""7746""
""fullscreenenter"",""0"",""7917""
","""event"",""trial"",""time""
""blur"",""0"",""0""
","""event"",""trial"",""time""
""focus"",""0"",""7746""
","""event"",""trial"",""time""
""fullscreenenter"",""0"",""7917""
","
","370.09999990463257","","","","","","","","50","0,1,0","0","countryside","18","probe-43","0.6307959187754396","0.25455604984614616","0.11367026202528395","1","","","","","","","",""
"","html-keyboard-response","141","677480","0.0-78.0-1.0","""event"",""trial"",""time""
""blur"",""0"",""0""
""focus"",""0"",""7746""
""fullscreenenter"",""0"",""7917""
","""event"",""trial"",""time""
""blur"",""0"",""0""
","""event"",""trial"",""time""
""focus"",""0"",""7746""
","""event"",""trial"",""time""
""fullscreenenter"",""0"",""7917""
","
","null","<p></p>","null","","","","","","","","","","","","","","","","","","","","","","",""
"","do_trial","142","682442","0.0-79.0-0.0","""event"",""trial"",""time""
""blur"",""0"",""0""
""focus"",""0"",""7746""
""fullscreenenter"",""0"",""7917""
","""event"",""trial"",""time""
""blur"",""0"",""0""
","""event"",""trial"",""time""
""focus"",""0"",""7746""
","""event"",""trial"",""time""
""fullscreenenter"",""0"",""7917""
","
","375.10000002384186","","","","","","","","50","0,0,0","0","countryside","19","probe-71","0.5763138687101382","0.11618855258966324","0.07839107455479509","0","","","","","","","",""
"","html-keyboard-response","143","683453","0.0-79.0-1.0","""event"",""trial"",""time""
""blur"",""0"",""0""
""focus"",""0"",""7746""
""fullscreenenter"",""0"",""7917""
","""event"",""trial"",""time""
""blur"",""0"",""0""
","""event"",""trial"",""time""
""focus"",""0"",""7746""
","""event"",""trial"",""time""
""fullscreenenter"",""0"",""7917""
","
","null","<p></p>","null","","","","","","","","","","","","","","","","","","","","","","",""
"","do_trial","144","688552","0.0-80.0-0.0","""event"",""trial"",""time""
""blur"",""0"",""0""
""focus"",""0"",""7746""
""fullscreenenter"",""0"",""7917""
","""event"",""trial"",""time""
""blur"",""0"",""0""
","""event"",""trial"",""time""
""focus"",""0"",""7746""
","""event"",""trial"",""time""
""fullscreenenter"",""0"",""7917""
","
","513.7000000476837","","","","","","","","50","0,1,0","0","countryside","20","probe-116","0.5557269576387676","0.098828818061867","0.09630170830133988","1","","","","","","","",""
"","html-keyboard-response","145","689564","0.0-80.0-1.0","""event"",""trial"",""time""
""blur"",""0"",""0""
""focus"",""0"",""7746""
""fullscreenenter"",""0"",""7917""
","""event"",""trial"",""time""
""blur"",""0"",""0""
","""event"",""trial"",""time""
""focus"",""0"",""7746""
","""event"",""trial"",""time""
""fullscreenenter"",""0"",""7917""
","
","null","<p></p>","null","","","","","","","","","","","","","","","","","","","","","","",""
"","do_trial","146","694432","0.0-81.0-0.0","""event"",""trial"",""time""
""blur"",""0"",""0""
""focus"",""0"",""7746""
""fullscreenenter"",""0"",""7917""
","""event"",""trial"",""time""
""blur"",""0"",""0""
","""event"",""trial"",""time""
""focus"",""0"",""7746""
","""event"",""trial"",""time""
""fullscreenenter"",""0"",""7917""
","
","300.2000000476837","","","","","","","","50","1,0,0","0","countryside","21","probe-222","0.5069605505749847","0.1519495358229161","0.15115381476417145","0","","","","","","","",""
"","html-keyboard-response","147","695441","0.0-81.0-1.0","""event"",""trial"",""time""
""blur"",""0"",""0""
""focus"",""0"",""7746""
""fullscreenenter"",""0"",""7917""
","""event"",""trial"",""time""
""blur"",""0"",""0""
","""event"",""trial"",""time""
""focus"",""0"",""7746""
","""event"",""trial"",""time""
""fullscreenenter"",""0"",""7917""
","
","null","<p></p>","null","","","","","","","","","","","","","","","","","","","","","","",""
"","do_trial","148","700538","0.0-82.0-0.0","""event"",""trial"",""time""
""blur"",""0"",""0""
""focus"",""0"",""7746""
""fullscreenenter"",""0"",""7917""
","""event"",""trial"",""time""
""blur"",""0"",""0""
","""event"",""trial"",""time""
""focus"",""0"",""7746""
","""event"",""trial"",""time""
""fullscreenenter"",""0"",""7917""
","
","455.89999997615814","","","","","","","","50","1,0,0","0","countryside","22","probe-142","0.584564124706932","0.12183996853545483","0.06781157845328503","0","","","","","","","",""
"","html-keyboard-response","149","701546","0.0-82.0-1.0","""event"",""trial"",""time""
""blur"",""0"",""0""
""focus"",""0"",""7746""
""fullscreenenter"",""0"",""7917""
","""event"",""trial"",""time""
""blur"",""0"",""0""
","""event"",""trial"",""time""
""focus"",""0"",""7746""
","""event"",""trial"",""time""
""fullscreenenter"",""0"",""7917""
","
","null","<p></p>","null","","","","","","","","","","","","","","","","","","","","","","",""
"","do_trial","150","706644","0.0-83.0-0.0","""event"",""trial"",""time""
""blur"",""0"",""0""
""focus"",""0"",""7746""
""fullscreenenter"",""0"",""7917""
","""event"",""trial"",""time""
""blur"",""0"",""0""
","""event"",""trial"",""time""
""focus"",""0"",""7746""
","""event"",""trial"",""time""
""fullscreenenter"",""0"",""7917""
","
","511.10000002384186","","","","","","","","50","0,0,0","0","countryside","23","probe-145","0.6559101961144882","0.07164727135679871","0.05925160576234898","0","","","","","","","",""
"","html-keyboard-response","151","707651","0.0-83.0-1.0","""event"",""trial"",""time""
""blur"",""0"",""0""
""focus"",""0"",""7746""
""fullscreenenter"",""0"",""7917""
","""event"",""trial"",""time""
""blur"",""0"",""0""
","""event"",""trial"",""time""
""focus"",""0"",""7746""
","""event"",""trial"",""time""
""fullscreenenter"",""0"",""7917""
","
","null","<p></p>","null","","","","","","","","","","","","","","","","","","","","","","",""
"","do_trial","152","712689","0.0-84.0-0.0","""event"",""trial"",""time""
""blur"",""0"",""0""
""focus"",""0"",""7746""
""fullscreenenter"",""0"",""7917""
","""event"",""trial"",""time""
""blur"",""0"",""0""
","""event"",""trial"",""time""
""focus"",""0"",""7746""
","""event"",""trial"",""time""
""fullscreenenter"",""0"",""7917""
","
","453.3000000715256","","","","","","","","49","1,1,0","0","countryside","24","probe-24","0.638223977481064","0.17002653343270438","0.063575669193867","1","","","","","","","",""
"","html-keyboard-response","153","713694","0.0-84.0-1.0","""event"",""trial"",""time""
""blur"",""0"",""0""
""focus"",""0"",""7746""
""fullscreenenter"",""0"",""7917""
","""event"",""trial"",""time""
""blur"",""0"",""0""
","""event"",""trial"",""time""
""focus"",""0"",""7746""
","""event"",""trial"",""time""
""fullscreenenter"",""0"",""7917""
","
","null","<p></p>","null","","","","","","","","","","","","","","","","","","","","","","",""
"","do_trial","154","719176","0.0-85.0-0.0","""event"",""trial"",""time""
""blur"",""0"",""0""
""focus"",""0"",""7746""
""fullscreenenter"",""0"",""7917""
","""event"",""trial"",""time""
""blur"",""0"",""0""
","""event"",""trial"",""time""
""focus"",""0"",""7746""
","""event"",""trial"",""time""
""fullscreenenter"",""0"",""7917""
","
","889.2000000476837","","","","","","","","49","1,1,0","0","countryside","25","probe-20","0.616074982421681","0.2775743264726938","0.058908285292519305","1","","","","","","","",""
"","html-keyboard-response","155","720187","0.0-85.0-1.0","""event"",""trial"",""time""
""blur"",""0"",""0""
""focus"",""0"",""7746""
""fullscreenenter"",""0"",""7917""
","""event"",""trial"",""time""
""blur"",""0"",""0""
","""event"",""trial"",""time""
""focus"",""0"",""7746""
","""event"",""trial"",""time""
""fullscreenenter"",""0"",""7917""
","
","null","<p></p>","null","","","","","","","","","","","","","","","","","","","","","","",""
"","do_trial","156","725185","0.0-86.0-0.0","""event"",""trial"",""time""
""blur"",""0"",""0""
""focus"",""0"",""7746""
""fullscreenenter"",""0"",""7917""
","""event"",""trial"",""time""
""blur"",""0"",""0""
","""event"",""trial"",""time""
""focus"",""0"",""7746""
","""event"",""trial"",""time""
""fullscreenenter"",""0"",""7917""
","
","396.1999999284744","","","","","","","","49","1,1,0","0","countryside","26","probe-174","0.6597802920407502","0.29490733725979495","0.14957867045477888","1","","","","","","","",""
"","html-keyboard-response","157","726196","0.0-86.0-1.0","""event"",""trial"",""time""
""blur"",""0"",""0""
""focus"",""0"",""7746""
""fullscreenenter"",""0"",""7917""
","""event"",""trial"",""time""
""blur"",""0"",""0""
","""event"",""trial"",""time""
""focus"",""0"",""7746""
","""event"",""trial"",""time""
""fullscreenenter"",""0"",""7917""
","
","null","<p></p>","null","","","","","","","","","","","","","","","","","","","","","","",""
"","do_trial","158","731385","0.0-87.0-0.0","""event"",""trial"",""time""
""blur"",""0"",""0""
""focus"",""0"",""7746""
""fullscreenenter"",""0"",""7917""
","""event"",""trial"",""time""
""blur"",""0"",""0""
","""event"",""trial"",""time""
""focus"",""0"",""7746""
","""event"",""trial"",""time""
""fullscreenenter"",""0"",""7917""
","
","532.1000000238419","","","","","","","","49","0,0,0","0","countryside","27","probe-150","0.6381529417092096","0.15866895406139847","0.28780256187633724","0","","","","","","","",""
"","html-keyboard-response","159","732393","0.0-87.0-1.0","""event"",""trial"",""time""
""blur"",""0"",""0""
""focus"",""0"",""7746""
""fullscreenenter"",""0"",""7917""
","""event"",""trial"",""time""
""blur"",""0"",""0""
","""event"",""trial"",""time""
""focus"",""0"",""7746""
","""event"",""trial"",""time""
""fullscreenenter"",""0"",""7917""
","
","null","<p></p>","null","","","","","","","","","","","","","","","","","","","","","","",""
"","do_trial","160","737700","0.0-88.0-0.0","""event"",""trial"",""time""
""blur"",""0"",""0""
""focus"",""0"",""7746""
""fullscreenenter"",""0"",""7917""
","""event"",""trial"",""time""
""blur"",""0"",""0""
","""event"",""trial"",""time""
""focus"",""0"",""7746""
","""event"",""trial"",""time""
""fullscreenenter"",""0"",""7917""
","
","657.7000000476837","","","","","","","","49","1,0,0","0","countryside","28","probe-176","0.6905483534133223","0.06319971258845641","0.3304057216084367","1","","","","","","","",""
"","html-keyboard-response","161","738708","0.0-88.0-1.0","""event"",""trial"",""time""
""blur"",""0"",""0""
""focus"",""0"",""7746""
""fullscreenenter"",""0"",""7917""
","""event"",""trial"",""time""
""blur"",""0"",""0""
","""event"",""trial"",""time""
""focus"",""0"",""7746""
","""event"",""trial"",""time""
""fullscreenenter"",""0"",""7917""
","
","null","<p></p>","null","","","","","","","","","","","","","","","","","","","","","","",""
"","do_trial","162","743799","0.0-89.0-0.0","""event"",""trial"",""time""
""blur"",""0"",""0""
""focus"",""0"",""7746""
""fullscreenenter"",""0"",""7917""
","""event"",""trial"",""time""
""blur"",""0"",""0""
","""event"",""trial"",""time""
""focus"",""0"",""7746""
","""event"",""trial"",""time""
""fullscreenenter"",""0"",""7917""
","
","489.7999999523163","","","","","","","","49","0,0,0","0","countryside","29","probe-26","0.764502270812359","0.14903773877147886","0.3115989996178321","0","","","","","","","",""
"","html-keyboard-response","163","744811","0.0-89.0-1.0","""event"",""trial"",""time""
""blur"",""0"",""0""
""focus"",""0"",""7746""
""fullscreenenter"",""0"",""7917""
","""event"",""trial"",""time""
""blur"",""0"",""0""
","""event"",""trial"",""time""
""focus"",""0"",""7746""
","""event"",""trial"",""time""
""fullscreenenter"",""0"",""7917""
","
","null","<p></p>","null","","","","","","","","","","","","","","","","","","","","","","",""
"","do_bye","164","746332","0.0-90.0-0.0","""event"",""trial"",""time""
""blur"",""0"",""0""
""focus"",""0"",""7746""
""fullscreenenter"",""0"",""7917""
","""event"",""trial"",""time""
""blur"",""0"",""0""
","""event"",""trial"",""time""
""focus"",""0"",""7746""
","""event"",""trial"",""time""
""fullscreenenter"",""0"",""7917""
","
","null","","","","","","","","null","","","","","","","","","","","","","","","","",""
"","break","165","751481","0.0-90.0-1.0","""event"",""trial"",""time""
""blur"",""0"",""0""
""focus"",""0"",""7746""
""fullscreenenter"",""0"",""7917""
","""event"",""trial"",""time""
""blur"",""0"",""0""
","""event"",""trial"",""time""
""focus"",""0"",""7746""
","""event"",""trial"",""time""
""fullscreenenter"",""0"",""7917""
","
","5147.199999928474","<div class='center'><p>Time to take a quick break! You have 2 minutes to rest, but you can move on sooner if you'd like.</p><p> Press the <b>space bar</b> to continue.</p></div>","32","","","","","","","","","","","","","","","","","","","","","","",""
"","do_travel","166","760498","0.0-91.0-0.0","""event"",""trial"",""time""
""blur"",""0"",""0""
""focus"",""0"",""7746""
""fullscreenenter"",""0"",""7917""
","""event"",""trial"",""time""
""blur"",""0"",""0""
","""event"",""trial"",""time""
""focus"",""0"",""7746""
","""event"",""trial"",""time""
""fullscreenenter"",""0"",""7917""
","
","null","","","","","","","","null","","","","","","","","","","","","","","","","",""
"","do_welcome","167","764522","0.0-91.0-1.0","""event"",""trial"",""time""
""blur"",""0"",""0""
""focus"",""0"",""7746""
""fullscreenenter"",""0"",""7917""
","""event"",""trial"",""time""
""blur"",""0"",""0""
","""event"",""trial"",""time""
""focus"",""0"",""7746""
","""event"",""trial"",""time""
""fullscreenenter"",""0"",""7917""
","
","null","","","","","","","","null","","","","","","","","","","","","","","","","",""
"","do_trial","168","770273","0.0-92.0-0.0","""event"",""trial"",""time""
""blur"",""0"",""0""
""focus"",""0"",""7746""
""fullscreenenter"",""0"",""7917""
","""event"",""trial"",""time""
""blur"",""0"",""0""
","""event"",""trial"",""time""
""focus"",""0"",""7746""
","""event"",""trial"",""time""
""fullscreenenter"",""0"",""7917""
","
","1146.8999999761581","","","","","","","","50","1,0,0","1","mountain","30","probe-84","1","0.16186092686439907","0.2838519325806146","0","","","","","","","",""
"","html-keyboard-response","169","771281","0.0-92.0-1.0","""event"",""trial"",""time""
""blur"",""0"",""0""
""focus"",""0"",""7746""
""fullscreenenter"",""0"",""7917""
","""event"",""trial"",""time""
""blur"",""0"",""0""
","""event"",""trial"",""time""
""focus"",""0"",""7746""
","""event"",""trial"",""time""
""fullscreenenter"",""0"",""7917""
","
","null","<p></p>","null","","","","","","","","","","","","","","","","","","","","","","",""
"","do_trial","170","776260","0.0-93.0-0.0","""event"",""trial"",""time""
""blur"",""0"",""0""
""focus"",""0"",""7746""
""fullscreenenter"",""0"",""7917""
","""event"",""trial"",""time""
""blur"",""0"",""0""
","""event"",""trial"",""time""
""focus"",""0"",""7746""
","""event"",""trial"",""time""
""fullscreenenter"",""0"",""7917""
","
","350.60000002384186","","","","","","","","49","1,0,1","1","mountain","31","probe-85","1","0.22485694804039408","0.11790797582672954","1","","","","","","","",""
"","html-keyboard-response","171","777270","0.0-93.0-1.0","""event"",""trial"",""time""
""blur"",""0"",""0""
""focus"",""0"",""7746""
""fullscreenenter"",""0"",""7917""
","""event"",""trial"",""time""
""blur"",""0"",""0""
","""event"",""trial"",""time""
""focus"",""0"",""7746""
","""event"",""trial"",""time""
""fullscreenenter"",""0"",""7917""
","
","null","<p></p>","null","","","","","","","","","","","","","","","","","","","","","","",""
"","do_trial","172","782462","0.0-94.0-0.0","""event"",""trial"",""time""
""blur"",""0"",""0""
""focus"",""0"",""7746""
""fullscreenenter"",""0"",""7917""
","""event"",""trial"",""time""
""blur"",""0"",""0""
","""event"",""trial"",""time""
""focus"",""0"",""7746""
","""event"",""trial"",""time""
""fullscreenenter"",""0"",""7917""
","
","587.5","","","","","","","","51","1,0,0","1","mountain","32","probe-207","1","0.19757255892717557","0.09351942661051667","0","","","","","","","",""
"","html-keyboard-response","173","783466","0.0-94.0-1.0","""event"",""trial"",""time""
""blur"",""0"",""0""
""focus"",""0"",""7746""
""fullscreenenter"",""0"",""7917""
","""event"",""trial"",""time""
""blur"",""0"",""0""
","""event"",""trial"",""time""
""focus"",""0"",""7746""
","""event"",""trial"",""time""
""fullscreenenter"",""0"",""7917""
","
","null","<p></p>","null","","","","","","","","","","","","","","","","","","","","","","",""
"","do_trial","174","788311","0.0-95.0-0.0","""event"",""trial"",""time""
""blur"",""0"",""0""
""focus"",""0"",""7746""
""fullscreenenter"",""0"",""7917""
","""event"",""trial"",""time""
""blur"",""0"",""0""
","""event"",""trial"",""time""
""focus"",""0"",""7746""
","""event"",""trial"",""time""
""fullscreenenter"",""0"",""7917""
","
","306.39999997615814","","","","","","","","49","1,0,1","1","mountain","33","probe-218","0.8746349331725183","0.21863414387573918","0.05375553411732347","1","","","","","","","",""
"","html-keyboard-response","175","789318","0.0-95.0-1.0","""event"",""trial"",""time""
""blur"",""0"",""0""
""focus"",""0"",""7746""
""fullscreenenter"",""0"",""7917""
","""event"",""trial"",""time""
""blur"",""0"",""0""
","""event"",""trial"",""time""
""focus"",""0"",""7746""
","""event"",""trial"",""time""
""fullscreenenter"",""0"",""7917""
","
","null","<p></p>","null","","","","","","","","","","","","","","","","","","","","","","",""
"","do_trial","176","794418","0.0-96.0-0.0","""event"",""trial"",""time""
""blur"",""0"",""0""
""focus"",""0"",""7746""
""fullscreenenter"",""0"",""7917""
","""event"",""trial"",""time""
""blur"",""0"",""0""
","""event"",""trial"",""time""
""focus"",""0"",""7746""
","""event"",""trial"",""time""
""fullscreenenter"",""0"",""7917""
","
","501.39999997615814","","","","","","","","49","0,0,1","1","mountain","34","probe-188","0.833737927273902","0.3192687564102253","0.24322936358676894","0","","","","","","","",""
"","html-keyboard-response","177","795427","0.0-96.0-1.0","""event"",""trial"",""time""
""blur"",""0"",""0""
""focus"",""0"",""7746""
""fullscreenenter"",""0"",""7917""
","""event"",""trial"",""time""
""blur"",""0"",""0""
","""event"",""trial"",""time""
""focus"",""0"",""7746""
","""event"",""trial"",""time""
""fullscreenenter"",""0"",""7917""
","
","null","<p></p>","null","","","","","","","","","","","","","","","","","","","","","","",""
"","do_trial","178","800405","0.0-97.0-0.0","""event"",""trial"",""time""
""blur"",""0"",""0""
""focus"",""0"",""7746""
""fullscreenenter"",""0"",""7917""
","""event"",""trial"",""time""
""blur"",""0"",""0""
