"success","trial_type","trial_index","time_elapsed","internal_node_id","rt","stimulus","key_press","subject_id","response","choice_outcomes","context_n","context_img_id","trial_n","probe_img_id","pR_red","pR_white","pR_black","outcome","contextArray_ind","validImageProbes","invalidImageProbes","pRew_Red","pRew_White","pRew_Black","availableForMemProbe","choice_blocks"
"true","fullscreen","0","2709","0.0-0.0","","","","","","","","","","","","","","","","","","","","","",""
"","pavlovia","1","2713","0.0-1.0","","","","","","","","","","","","","","","","","","","","","",""
"","html-keyboard-response","2","5357","0.0-2.0","2642.2999999523163","<div class='center'><p>Welcome! This is the first day of the experiment which will last ~30 minutes. In this experiment, you are the head captain of a pirate ship traveling around the world to different places. You will complete several different tasks during this experiment. Here is an overview of these tasks:</p><br><p>Day 1</p><p>1. Tutorial and quiz</p><p>2. Pick a pirate game in 6 different places</p><br><p>Day 2</p><p>3. Pick a pirate game and memory game</p><p>4. Final questions and payment</p><br><p>If you complete the entire experiment, you will receive $15 and a possible bonus payment.</p><p><b>[Press the space bar to begin the tutorial]</b></p></div>","32","6108ac1e801e23ad2a25e7f0","","","","","","","","","","","","","","","","","",""
"","html-keyboard-response","3","7207","0.0-3.0","1848.7000000476837","<div class='center'><p>You’ll stop at these 6 islands on your journey. You'll be able to see them in the distance from your ship.</p><p><img src='run_exp/static/images/contexts/all_contexts.png' height='500'></p><p><b>[Press the space bar to continue]</b></p></div>","32","","","","","","","","","","","","","","","","","","",""
"","html-keyboard-response","4","10308","0.0-4.0","3100","<div class='center'><p> The pirates on your ship will rob other ships as they leave island</p> These ships have just sold their things to the people living on the island, so they will have lots and lots of gold on them.</p><p><img src='run_exp/static/images/tutorial/ship_center.png' height='400'></p><p><b>[Press the space bar to continue]</b></p></div>","32","","","","","","","","","","","","","","","","","","",""
"","html-keyboard-response","5","12134","0.0-5.0","1825.699999988079","<div class='center'><p>As the head captain, you do not have to rob any ships yourself.</p><p>Another pirate will be doing the robbing for you. </p><p><img src='run_exp/static/images/tutorial/pirates_all_crop.png' height='200'></p><p>If they could rob the ship, then you will get a stack of gold coins like this:</p><p><img src='run_exp/static/images/tutorial/reward.png' height='150'></p><p> If they couldn't rob the ship, then you will get no gold coins and you'll see a big red x like this: </p><p><img src='run_exp/static/images/tutorial/reward_no.png' height='150'></p><p> How much bonus money you make is based on how many gold coins you collect.</p><p><b>[Press the space bar to continue]</b></p><div>","32","","","","","","","","","","","","","","","","","","",""
"","html-keyboard-response","6","14549","0.0-6.0","2413.800000011921","<div class='center'><p>Even the most skilled pirate can not rob EVERY ship.</p><p> Some ships will have very strong defenses against pirate attacks.</p><p> For example, blue beard, here, is very, very good at robbing ships.</p><p> You can press the <b>‘1’</b> button on the keyboard to choose him.</p><p> Try choosing him 10 times to see how often he can rob a ship. </p><p><img src='run_exp/static/images/tutorial/blue.png' height='500'></p></div>","49","","","","","","","","","","","","","","","","","","",""
"","html-keyboard-response","7","16054","0.0-7.0","null","<div class='center'><p><img src='run_exp/static/images/tutorial/blue_win.png' height='500'></p></div>","null","","","","","","","","","","","","","","","","","","",""
"","html-keyboard-response","8","16750","0.0-8.0","694.9000000357628","<div class='center'><img src='run_exp/static/images/tutorial/blue.png' height='500'></p></div>","49","","","","","","","","","","","","","","","","","","",""
"","html-keyboard-response","9","18255","0.0-9.0","null","<div class='center'><p><img src='run_exp/static/images/tutorial/blue_win.png' height='500'></p></div>","null","","","","","","","","","","","","","","","","","","",""
"","html-keyboard-response","10","21374","0.0-10.0","3118.300000011921","<div class='center'><img src='run_exp/static/images/tutorial/blue.png' height='500'></p></div>","49","","","","","","","","","","","","","","","","","","",""
"","html-keyboard-response","11","22877","0.0-11.0","null","<div class='center'><p><img src='run_exp/static/images/tutorial/blue_win.png' height='500'></p></div>","null","","","","","","","","","","","","","","","","","","",""
"","html-keyboard-response","12","24303","0.0-12.0","1424.7000000476837","<div class='center'><img src='run_exp/static/images/tutorial/blue.png' height='500'></p></div>","49","","","","","","","","","","","","","","","","","","",""
"","html-keyboard-response","13","25808","0.0-13.0","null","<div class='center'><p><img src='run_exp/static/images/tutorial/blue_no_win.png' height='500'></p></div>","null","","","","","","","","","","","","","","","","","","",""
"","html-keyboard-response","14","26211","0.0-14.0","401.69999998807907","<div class='center'><img src='run_exp/static/images/tutorial/blue.png' height='500'></p></div>","49","","","","","","","","","","","","","","","","","","",""
"","html-keyboard-response","15","27712","0.0-15.0","null","<div class='center'><p><img src='run_exp/static/images/tutorial/blue_win.png' height='500'></p></div>","null","","","","","","","","","","","","","","","","","","",""
"","html-keyboard-response","16","28024","0.0-16.0","311.10000002384186","<div class='center'><img src='run_exp/static/images/tutorial/blue.png' height='500'></p></div>","49","","","","","","","","","","","","","","","","","","",""
"","html-keyboard-response","17","29529","0.0-17.0","null","<div class='center'><p><img src='run_exp/static/images/tutorial/blue_win.png' height='500'></p></div>","null","","","","","","","","","","","","","","","","","","",""
"","html-keyboard-response","18","29649","0.0-18.0","118.90000003576279","<div class='center'><img src='run_exp/static/images/tutorial/blue.png' height='500'></p></div>","49","","","","","","","","","","","","","","","","","","",""
"","html-keyboard-response","19","31155","0.0-19.0","null","<div class='center'><p><img src='run_exp/static/images/tutorial/blue_win.png' height='500'></p></div>","null","","","","","","","","","","","","","","","","","","",""
"","html-keyboard-response","20","31222","0.0-20.0","65.90000003576279","<div class='center'><img src='run_exp/static/images/tutorial/blue.png' height='500'></p></div>","49","","","","","","","","","","","","","","","","","","",""
"","html-keyboard-response","21","32722","0.0-21.0","null","<div class='center'><p><img src='run_exp/static/images/tutorial/blue_no_win.png' height='500'></p></div>","null","","","","","","","","","","","","","","","","","","",""
"","html-keyboard-response","22","33197","0.0-22.0","474.0999999642372","<div class='center'><img src='run_exp/static/images/tutorial/blue.png' height='500'></p></div>","49","","","","","","","","","","","","","","","","","","",""
"","html-keyboard-response","23","34702","0.0-23.0","null","<div class='center'><p><img src='run_exp/static/images/tutorial/blue_win.png' height='500'></p></div>","null","","","","","","","","","","","","","","","","","","",""
"","html-keyboard-response","24","34972","0.0-24.0","269.39999997615814","<div class='center'><img src='run_exp/static/images/tutorial/blue.png' height='500'></p></div>","49","","","","","","","","","","","","","","","","","","",""
"","html-keyboard-response","25","36475","0.0-25.0","null","<div class='center'><p><img src='run_exp/static/images/tutorial/blue_win.png' height='500'></p></div>","null","","","","","","","","","","","","","","","","","","",""
"","html-keyboard-response","26","37779","0.0-26.0","1303","<div class='center'><p> See, he could rob the ships most of the time but not every time. </p><p><b>[Press the space bar to continue]</b></p></div>","32","","","","","","","","","","","","","","","","","","",""
"","html-keyboard-response","27","44614","0.0-27.0","6834.5","<div class='center'><p>You will get to choose which of three pirates you want to rob the next ship. <p>Press the <b>‘1’</b> button on your keyboard to pick the pirate with the red beard.</p><p> Press <b>‘2’</b> to pick the pirate with the white beard.</p><p> Press <b>‘3’</b> to pick the pirate with the black beard.</p><p>Try picking a pirate now!</p><p><img src='run_exp/static/images/tutorial/all_pirates.png' height='500'></p></div>","51","","","","","","","","","","","","","","","","","","",""
"","html-keyboard-response","28","47841","0.0-28.0-0.0","3225.800000011921","<div class='center'><p>This pirate could rob the ship!</p><p><img src='run_exp/static/images/tutorial/black_win.png' height='500'></p><p><b>[Press the space bar to continue]</b></p></div>","32","","","","","","","","","","","","","","","","","","",""
"","html-keyboard-response","29","49669","0.0-28.0-1.0","1826.800000011921","<div class='center'><p>Now try choosing another</p><p><img src='run_exp/static/images/tutorial/all_pirates.png' height='500'></p></div>","50","","","","","","","","","","","","","","","","","","",""
"","html-keyboard-response","30","55626","0.0-29.0-0.0","5956","<div class='center'><p>This pirate could not rob the ship!</p><p><img src='run_exp/static/images/tutorial/white_no_win.png' height='500'></p><p><b>[Press the space bar to continue]</b></p></div>","32","","","","","","","","","","","","","","","","","","",""
"","html-keyboard-response","31","57242","0.0-30.0-0.0","1614.800000011921","<div class='center'><p>If you don’t make your choice fast enough, you’ll have to wait a few seconds before you can make another one. </p><p>You can’t collect more gold coins. You just have to sit and wait.</p><p><img src='run_exp/static/images/miscellaneous/hurry_up.png' height='500'></p><p><b>[Press the space bar to continue]</b></p></div>","32","","","","","","","","","","","","","","","","","","",""
"","html-keyboard-response","32","65874","0.0-30.0-1.0","8631.099999964237","<div class='center'><p>Once you choose a pirate, you’ll be shown the ship they are robbing.</p><p>You will never rob the same ship twice.</p><p>Ships can be told apart from one another by the image on them.</p><p> Every time you see a ship, you will have to remember on which island you saw it.</p><p> Remembering correctly will help you win more bonus money!</p><p>A helpful strategy is to try to come up with a story of the object on the ship interacting with the current island scene.</p><p> For example, here, you could imagine a mug full of water in the desert. </p><p>For a ship with an apple on it on the forest island, you could imagine an apple falling from a tree in the forest.</p><p><img src='run_exp/static/images/tutorial/example_probe.png' height='500'></p><p><b>[Press the space bar to continue]</b></p></div>","32","","","","","","","","","","","","","","","","","","",""
"","html-keyboard-response","33","66670","0.0-30.0-2.0","796.3000000119209","<div class='center'><p>How good a pirate is at robbing ships will depend on the current island.</p><p> A pirate may have visited the island many times before and gained a lot of practice robbing ships there.</p><p>So, they're more likely to bring back gold coins than a pirate who has never visited this island before. </p><p><b>[Press the space bar to continue]</b></p></div>","32","","","","","","","","","","","","","","","","","","",""
"","html-keyboard-response","34","73415","0.0-30.0-3.0","6744.100000023842","<div class='center'><p>How good a pirate is at robbing ships can also change over the time spent on the island<p> Ships may hear from islanders about the pirates coming and will improve their protection against the attack. This may make it harder to rob them.</p><p> Ships may also become lazy and lower their protection. This may make it easier to rob them.</p><br><p>Things are always changing on the high seas! So, try your best to pay attention!</p><p><img src='run_exp/static/images/tutorial/contingency.png' height='500'></p><p><b>[Press the space bar to continue]</b></p></div>","32","","","","","","","","","","","","","","","","","","",""
"","html-keyboard-response","35","76617","0.0-30.0-4.0","3200.5","<div class='center'><p>Let's go over the instructions quickly again.You have two important things to do: </p><b><p> 1. Pick the pirate who is the best at robbing ships on the current island.</p></b><b><p> 2. Remember on which island a ship was robbed.</p> </b><p>How much bonus money you make is based on both. </p><br><p>Let’s try a practice game. The game will start by showing you the pirates. First pick a pirate using the <b> 1, 2, 3 </b> buttons on your keyboard. When you are shown a ship, try to remember the island you’re on by making up a story.</p><p> You only have 3 seconds to pick a pirate, so please make a choice quickly! If you are too slow, you’ll have to wait a bit during the time out.</p><p> Don’t feel rushed, but please do try to make a choice every time.</p><p>This is just a practice game, so you’re not playing for money. </p><p> Good luck, remember press <b>'1'</b> to choose red beard, <b>'2'</b> to choose white beard, and <b>'3'</b> to choose black beard</p><p><b>[Press the space bar to begin the practice game]</b></p></div>","32","","","","","","","","","","","","","","","","","","",""
"","do_welcome","36","78125","0.0-30.0-5.0","null","","","","null","","","","","","","","","","","","","","","","",""
"","do_trial","37","84434","0.0-30.0-6.0","1802.199999988079","","","","50","1,0,0","","","","","","","","","","","","","","","",""
"","html-keyboard-response","38","85439","0.0-31.0-0.0","null","<p></p>","null","","","","","","","","","","","","","","","","","","",""
"","do_trial","39","90315","0.0-31.0-1.0","366.19999998807907","","","","50","1,1,0","","","","","","","","","","","","","","","",""
"","html-keyboard-response","40","91316","0.0-32.0-0.0","null","<p></p>","null","","","","","","","","","","","","","","","","","","",""
"","do_trial","41","96196","0.0-32.0-1.0","371.30000001192093","","","","50","1,0,1","","","","","","","","","","","","","","","",""
"","html-keyboard-response","42","97200","0.0-33.0-0.0","null","<p></p>","null","","","","","","","","","","","","","","","","","","",""
"","do_trial","43","101873","0.0-33.0-1.0","164.4000000357628","","","","50","0,1,0","","","","","","","","","","","","","","","",""
"","html-keyboard-response","44","102877","0.0-34.0-0.0","null","<p></p>","null","","","","","","","","","","","","","","","","","","",""
"","do_trial","45","108218","0.0-34.0-1.0","833.2000000476837","","","","50","1,0,0","","","","","","","","","","","","","","","",""
"","do_bye","46","109727","0.0-35.0-0.0","null","","","","null","","","","","","","","","","","","","","","","",""
"","do_travel","47","115735","0.0-35.0-1.0","null","","","","null","","","","","","","","","","","","","","","","",""
"","do_welcome","48","117240","0.0-35.0-2.0","null","","","","null","","","","","","","","","","","","","","","","",""
"","do_trial","49","122551","0.0-35.0-3.0","800.8000000119209","","","","50","1,0,0","","","","","","","","","","","","","","","",""
"","html-keyboard-response","50","123555","0.0-36.0-0.0","null","<p></p>","null","","","","","","","","","","","","","","","","","","",""
"","do_trial","51","128455","0.0-36.0-1.0","389.30000001192093","","","","50","1,0,1","","","","","","","","","","","","","","","",""
"","html-keyboard-response","52","129459","0.0-37.0-0.0","null","<p></p>","null","","","","","","","","","","","","","","","","","","",""
"","do_trial","53","133976","0.0-37.0-1.0","7.800000011920929","","","","50","1,1,0","","","","","","","","","","","","","","","",""
"","html-keyboard-response","54","134980","0.0-38.0-0.0","null","<p></p>","null","","","","","","","","","","","","","","","","","","",""
"","do_trial","55","139897","0.0-38.0-1.0","408.10000002384186","","","","50","0,0,1","","","","","","","","","","","","","","","",""
"","html-keyboard-response","56","140901","0.0-39.0-0.0","null","<p></p>","null","","","","","","","","","","","","","","","","","","",""
"","do_trial","57","145582","0.0-39.0-1.0","173.60000002384186","","","","50","1,0,1","","","","","","","","","","","","","","","",""
"","html-keyboard-response","58","145584","0.0-40.0-0.0","0.09999996423721313","<div class='center'><p><img src='run_exp/static/images/tutorial/prac_best_pirate.png'  height='500'></p></div>","50","","","","","","","","","","","","","","","","","","",""
"","html-keyboard-response","59","147763","0.0-41.0-0.0","2178.300000011921","<div class='center'><p>That's incorrect! Red beard was the best.</p><p><b>[Press the space bar to continue]</b></p></div>","32","","","","","","","","","","","","","","","","","","",""
"","html-keyboard-response","60","150931","0.0-41.0-1.0","3167.800000011921","<div class='center'><p><img src='run_exp/static/images/tutorial/prac_source.png'  height='500'></p></div>","50","","","","","","","","","","","","","","","","","","",""
"","html-keyboard-response","61","151817","0.0-42.0-0.0","885.5","<div class='center'><p>That's correct! You saw this ship on the cavern island.</p><p><b>[Press the space bar to continue]</b></p></div>","32","","","","","","","","","","","","","","","","","","",""
"","html-keyboard-response","62","155228","0.0-42.0-1.0","3409.699999988079","<div class='center'><p>Good job on the practice game! Now, you will be asked you some true or false questions to make sure you really understand the rules of the game.</p><p> Press <b>'1'</b> on the keyboard for true and press <b>'2'</b> for false.</p><p><b>[Press the space bar to begin the quiz]</b></p></div>","32","","","","","","","","","","","","","","","","","","",""
"","html-keyboard-response","63","158209","0.0-42.0-2.0","2980.100000023842","<div class='center'><p>You win bonus money by making choices as fast as possible.</p><p>Press 1 for true and press  2 for false.</p></div>","49","","","","","","","","","","","","","","","","","","",""
"","html-keyboard-response","64","159567","0.0-43.0-0.0","1357.800000011921","<<div class='center'><p>That’s incorrect! You win bonus money by collecting as many gold coins as possible!</p><p><b>[press the space bar to continue with the quiz]</b></p></div>","32","","","","","","","","","","","","","","","","","","",""
"","html-keyboard-response","65","162454","0.0-43.0-1.0","2886.199999988079","<div class='center'><p>You press the <b>‘3’</b> button on the keyboard to choose the red bearded pirate. </p><p>Press 1 for true and press  2 for false.</p></div>","50","","","","","","","","","","","","","","","","","","",""
"","html-keyboard-response","66","163079","0.0-44.0-0.0","624.7999999523163","<div class='center'><p>That's correct!</p> <p><b>[press the space bar to continue with the quiz]</b></p></div>","32","","","","","","","","","","","","","","","","","","",""
"","html-keyboard-response","67","165409","0.0-44.0-1.0","2329.099999964237","<div class='center'><p>The pirate who is the best at robbing ships on the first island will be the best on every other island.</p><p>Press 1 for true and press  2 for false.</p></div>","50","","","","","","","","","","","","","","","","","","",""
"","html-keyboard-response","68","165631","0.0-45.0-0.0","221.80000001192093","<div class='center'><p>That's correct!</p> <p><b>[press the space bar to continue with the quiz]</b></p></div>","32","","","","","","","","","","","","","","","","","","",""
"","html-keyboard-response","69","169015","0.0-45.0-1.0","3383.199999988079","<div class='center'><p>You should remember the island where a pirate robbed a ship.</p><p>Press 1 for true and press  2 for false.</p></div>","49","","","","","","","","","","","","","","","","","","",""
"","html-keyboard-response","70","169649","0.0-46.0-0.0","631.7999999523163","<div class='center'><p>That's correct!</p> <p><b>[press the space bar to continue with the quiz]</b></p></div>","32","","","","","","","","","","","","","","","","","","",""
"","html-keyboard-response","71","172488","0.0-47.0-0.0","2838.899999976158","<div class='center'><p>Oops, you missed some questions. Now that you’ve heard the correct answers. Try the quiz again! If you fail the quiz too many times, you won’t be able to do the experiment. </p> <p><br>[press the space bar to repeat the quiz]</br></p></div>","32","","","","","","","","","","","","","","","","","","",""
"","html-keyboard-response","72","173689","0.0-47.0-1.0","1200.3999999761581","<div class='center'><p>You win bonus money by making choices as fast as possible.</p><p>Press 1 for true and press  2 for false.</p></div>","50","","","","","","","","","","","","","","","","","","",""
"","html-keyboard-response","73","174310","0.0-48.0-0.0","620.5","<div class='center'><p>That's correct!</p> <p><b>[press the space bar to continue with the quiz]</b></p></div>","32","","","","","","","","","","","","","","","","","","",""
"","html-keyboard-response","74","175719","0.0-48.0-1.0","1408.2999999523163","<div class='center'><p>You press the <b>‘3’</b> button on the keyboard to choose the red bearded pirate. </p><p>Press 1 for true and press  2 for false.</p></div>","50","","","","","","","","","","","","","","","","","","",""
"","html-keyboard-response","75","175879","0.0-49.0-0.0","159.89999997615814","<div class='center'><p>That's correct!</p> <p><b>[press the space bar to continue with the quiz]</b></p></div>","32","","","","","","","","","","","","","","","","","","",""
"","html-keyboard-response","76","179169","0.0-49.0-1.0","3289","<div class='center'><p>The pirate who is the best at robbing ships on the first island will be the best on every other island.</p><p>Press 1 for true and press  2 for false.</p></div>","50","","","","","","","","","","","","","","","","","","",""
"","html-keyboard-response","77","180135","0.0-50.0-0.0","965.8999999761581","<div class='center'><p>That's correct!</p> <p><b>[press the space bar to continue with the quiz]</b></p></div>","32","","","","","","","","","","","","","","","","","","",""
"","html-keyboard-response","78","182479","0.0-50.0-1.0","2343.800000011921","<div class='center'><p>You should remember the island where a pirate robbed a ship.</p><p>Press 1 for true and press  2 for false.</p></div>","49","","","","","","","","","","","","","","","","","","",""
"","html-keyboard-response","79","183027","0.0-51.0-0.0","540.5999999642372","<div class='center'><p>That's correct!</p> <p><b>[press the space bar to continue with the quiz]</b></p></div>","32","","","","","","","","","","","","","","","","","","",""
"","html-keyboard-response","80","183951","0.0-52.0-0.0","923.3000000119209","<div class='center'><p>Good job! You’re now ready to move on to the real game!</p> <p><br>[press the space bar to begin!]</br></p></div>","32","","","","","","","","","","","","","","","","","","",""
"","do_welcome","81","185456","0.0-53.0-0.0","null","","","","null","","","","","","","","","","","","","","","","",""
"","do_trial","82","191109","0.0-54.0-0.0","1111.5","","","","50","1,0,0","0","countryside","0","probe-95","0.6","0.3","0.1","0","","","","","","","",""
"","html-keyboard-response","83","192114","0.0-54.0-1.0","null","<p></p>","null","","","","","","","","","","","","","","","","","","",""
"","do_trial","84","196973","0.0-55.0-0.0","319.2999999523163","","","","50","1,1,1","0","countryside","1","probe-211","0.7192808175522667","0.16115841053047575","0.14963662460243585","1","","","","","","","",""
"","html-keyboard-response","85","197978","0.0-55.0-1.0","null","<p></p>","null","","","","","","","","","","","","","","","","","","",""
"","do_trial","86","202819","0.0-56.0-0.0","302.5","","","","50","1,0,0","0","countryside","2","probe-116","0.8020191538878451","0.24096563839197152","0.16204617243265212","0","","","","","","","",""
"","html-keyboard-response","87","203823","0.0-56.0-1.0","null","<p></p>","null","","","","","","","","","","","","","","","","","","",""
"","do_trial","88","208618","0.0-57.0-0.0","254.60000002384186","","","","50","1,0,0","0","countryside","3","probe-76","0.6112116128720838","0.27001931292494175","0.17506463120291466","0","","","","","","","",""
"","html-keyboard-response","89","209623","0.0-57.0-1.0","null","<p></p>","null","","","","","","","","","","","","","","","","","","",""
"","do_trial","90","214571","0.0-58.0-0.0","406.0999999642372","","","","50","1,0,0","0","countryside","4","probe-195","0.6396708341302364","0.13691190047949048","0.10754932457454913","0","","","","","","","",""
"","html-keyboard-response","91","215578","0.0-58.0-1.0","null","<p></p>","null","","","","","","","","","","","","","","","","","","",""
"","do_trial","92","220483","0.0-59.0-0.0","366.30000001192093","","","","50","1,0,1","0","countryside","5","probe-119","0.618252847630772","0.18528000971660813","0.262691903750139","0","","","","","","","",""
"","html-keyboard-response","93","221488","0.0-59.0-1.0","null","<p></p>","null","","","","","","","","","","","","","","","","","","",""
"","do_trial","94","226324","0.0-60.0-0.0","295.69999998807907","","","","50","1,0,0","0","countryside","6","probe-134","0.48404590669732783","0.18544480090638452","0.12689213099657723","0","","","","","","","",""
"","html-keyboard-response","95","227328","0.0-60.0-1.0","null","<p></p>","null","","","","","","","","","","","","","","","","","","",""
"","do_trial","96","232170","0.0-61.0-0.0","298.69999998807907","","","","50","0,0,1","0","countryside","7","probe-123","0.5341994666296672","0.23447748334848417","0.15393172893583687","0","","","","","","","",""
"","html-keyboard-response","97","233174","0.0-61.0-1.0","null","<p></p>","null","","","","","","","","","","","","","","","","","","",""
"","do_trial","98","238459","0.0-62.0-0.0","743.4000000357628","","","","50","0,1,0","0","countryside","8","probe-159","0.5522551255797717","0.2782932993562741","0.1329783888730351","1","","","","","","","",""
"","html-keyboard-response","99","239463","0.0-62.0-1.0","null","<p></p>","null","","","","","","","","","","","","","","","","","","",""
"","do_trial","100","244395","0.0-63.0-0.0","390.0999999642372","","","","50","0,1,0","0","countryside","9","probe-125","0.5899886137860753","0.2362587843265994","0.13238075221709825","1","","","","","","","",""
"","html-keyboard-response","101","245400","0.0-63.0-1.0","null","<p></p>","null","","","","","","","","","","","","","","","","","","",""
"","do_trial","102","250636","0.0-64.0-0.0","696.3000000119209","","","","50","0,0,0","0","countryside","10","probe-201","0.564606531357172","0.46327962181244003","0.11376923827747114","0","","","","","","","",""
"","html-keyboard-response","103","251640","0.0-64.0-1.0","null","<p></p>","null","","","","","","","","","","","","","","","","","","",""
"","do_trial","104","256459","0.0-65.0-0.0","278.39999997615814","","","","50","1,0,0","0","countryside","11","probe-219","0.6409742934003723","0.3553190659798633","0.12336070434043647","0","","","","","","","",""
"","html-keyboard-response","105","257463","0.0-65.0-1.0","null","<p></p>","null","","","","","","","","","","","","","","","","","","",""
"","do_trial","106","262362","0.0-66.0-0.0","357.69999998807907","","","","50","0,0,0","0","countryside","12","probe-109","0.6347894822183576","0.3541806267702519","0.11160196970875384","0","","","","","","","",""
"","html-keyboard-response","107","263367","0.0-66.0-1.0","null","<p></p>","null","","","","","","","","","","","","","","","","","","",""
"","do_trial","108","268266","0.0-67.0-0.0","360","","","","50","1,1,0","0","countryside","13","probe-189","0.6692520636948704","0.440854442091659","0.19228541594821452","1","","","","","","","",""
"","html-keyboard-response","109","269270","0.0-67.0-1.0","null","<p></p>","null","","","","","","","","","","","","","","","","","","",""
"","do_trial","110","274199","0.0-68.0-0.0","388.69999998807907","","","","50","1,1,1","0","countryside","14","probe-73","0.6492985769179889","0.4659720136848422","0.07609215851552281","1","","","","","","","",""
"","html-keyboard-response","111","275203","0.0-68.0-1.0","null","<p></p>","null","","","","","","","","","","","","","","","","","","",""
"","do_trial","112","280312","0.0-69.0-0.0","568.5","","","","50","1,1,0","0","countryside","15","probe-112","0.5564113514934571","0.48601506983804554","0.06817495143714435","1","","","","","","","",""
"","html-keyboard-response","113","281316","0.0-69.0-1.0","null","<p></p>","null","","","","","","","","","","","","","","","","","","",""
"","do_trial","114","285949","0.0-70.0-0.0","90.29999995231628","","","","50","0,1,0","0","countryside","16","probe-225","0.6380700545858164","0.3960083490276696","0.06144891973019683","1","","","","","","","",""
"","html-keyboard-response","115","286953","0.0-70.0-1.0","null","<p></p>","null","","","","","","","","","","","","","","","","","","",""
"","do_trial","116","291969","0.0-71.0-0.0","477.30000001192093","","","","50","0,0,0","0","countryside","17","probe-126","0.5688623505196482","0.4329449434151488","0.06341461322512278","0","","","","","","","",""
"","html-keyboard-response","117","292973","0.0-71.0-1.0","null","<p></p>","null","","","","","","","","","","","","","","","","","","",""
"","do_trial","118","298054","0.0-72.0-0.0","538.7999999523163","","","","50","0,0,0","0","countryside","18","probe-226","0.6038790781013894","0.4180398573335408","0.229756181166264","0","","","","","","","",""
"","html-keyboard-response","119","299057","0.0-72.0-1.0","null","<p></p>","null","","","","","","","","","","","","","","","","","","",""
"","do_trial","120","304136","0.0-73.0-0.0","536.5999999642372","","","","50","1,0,1","0","countryside","19","probe-56","0.5118889815913161","0.32937262469562323","0.22665308207899415","0","","","","","","","",""
"","html-keyboard-response","121","305140","0.0-73.0-1.0","null","<p></p>","null","","","","","","","","","","","","","","","","","","",""
"","do_trial","122","310150","0.0-74.0-0.0","470.9000000357628","","","","50","0,0,0","0","countryside","20","probe-147","0.5365889129220766","0.24335861249571902","0.0990357493449388","0","","","","","","","",""
"","html-keyboard-response","123","311155","0.0-74.0-1.0","null","<p></p>","null","","","","","","","","","","","","","","","","","","",""
"","do_trial","124","315944","0.0-75.0-0.0","246.60000002384186","","","","50","1,0,0","0","countryside","21","probe-86","0.4933656972285764","0.29896345300403254","0.23781526102431735","0","","","","","","","",""
"","html-keyboard-response","125","316946","0.0-75.0-1.0","null","<p></p>","null","","","","","","","","","","","","","","","","","","",""
"","do_trial","126","322039","0.0-76.0-0.0","551.8999999761581","","","","50","0,1,0","0","countryside","22","probe-23","0.5996584224490539","0.25741137787169666","0.18842371667999339","1","","","","","","","",""
"","html-keyboard-response","127","323044","0.0-76.0-1.0","null","<p></p>","null","","","","","","","","","","","","","","","","","","",""
"","do_trial","128","328013","0.0-77.0-0.0","430.30000001192093","","","","50","1,0,0","0","countryside","23","probe-106","0.5989851701558638","0.13516304713745073","0.19725606981710633","0","","","","","","","",""
"","html-keyboard-response","129","329017","0.0-77.0-1.0","null","<p></p>","null","","","","","","","","","","","","","","","","","","",""
"","do_trial","130","334126","0.0-78.0-0.0","569.6999999880791","","","","50","1,1,0","0","countryside","24","probe-146","0.5545158679005241","0.1793050309666043","0.07624798051280132","1","","","","","","","",""
"","html-keyboard-response","131","335129","0.0-78.0-1.0","null","<p></p>","null","","","","","","","","","","","","","","","","","","",""
"","do_trial","132","340180","0.0-79.0-0.0","509.69999998807907","","","","50","0,0,0","0","countryside","25","probe-141","0.7103787420673449","0.304984523768615","0.08249256083370853","0","","","","","","","",""
"","html-keyboard-response","133","341184","0.0-79.0-1.0","null","<p></p>","null","","","","","","","","","","","","","","","","","","",""
"","do_trial","134","346276","0.0-80.0-0.0","551.3999999761581","","","","50","0,1,0","0","countryside","26","probe-79","0.6569380026917867","0.3646033746014819","0.08482737396743768","1","","","","","","","",""
"","html-keyboard-response","135","347280","0.0-80.0-1.0","null","<p></p>","null","","","","","","","","","","","","","","","","","","",""
"","do_trial","136","352470","0.0-81.0-0.0","649.1000000238419","","","","50","0,1,0","0","countryside","27","probe-172","0.548954398844039","0.5362169641571667","0.09989221084797528","1","","","","","","","",""
"","html-keyboard-response","137","353474","0.0-81.0-1.0","null","<p></p>","null","","","","","","","","","","","","","","","","","","",""
"","do_trial","138","358431","0.0-82.0-0.0","413.39999997615814","","","","50","1,1,0","0","countryside","28","probe-87","0.5615308764446877","0.44138095892918683","0.10356832714963134","1","","","","","","","",""
"","html-keyboard-response","139","359436","0.0-82.0-1.0","null","<p></p>","null","","","","","","","","","","","","","","","","","","",""
"","do_trial","140","364376","0.0-83.0-0.0","400.7999999523163","","","","50","0,0,1","0","countryside","29","probe-229","0.6526296095296702","0.34276807484869126","0.24070167131837253","0","","","","","","","",""
"","html-keyboard-response","141","365380","0.0-83.0-1.0","null","<p></p>","null","","","","","","","","","","","","","","","","","","",""
"","do_bye","142","366890","0.0-84.0-0.0","null","","","","null","","","","","","","","","","","","","","","","",""
"","do_travel","143","372892","0.0-85.0-0.0","null","","","","null","","","","","","","","","","","","","","","","",""
"","do_welcome","144","374402","0.0-85.0-1.0","null","","","","null","","","","","","","","","","","","","","","","",""
"","do_trial","145","379446","0.0-86.0-0.0","506.19999998807907","","","","50","1,0,0","1","forest","30","probe-202","1","0.37579966675443277","0.1289227669675844","0","","","","","","","",""
"","html-keyboard-response","146","380451","0.0-86.0-1.0","null","<p></p>","null","","","","","","","","","","","","","","","","","","",""
"","do_trial","147","385565","0.0-87.0-0.0","571.6000000238419","","","","50","1,0,0","1","forest","31","probe-20","1","0.27663823674438026","0.17559673071764764","0","","","","","","","",""
"","html-keyboard-response","148","386569","0.0-87.0-1.0","null","<p></p>","null","","","","","","","","","","","","","","","","","","",""
"","do_trial","149","391538","0.0-88.0-0.0","429","","","","50","1,0,0","1","forest","32","probe-209","1","0.3527602023241241","0.22646084927821883","0","","","","","","","",""
"","html-keyboard-response","150","392543","0.0-88.0-1.0","null","<p></p>","null","","","","","","","","","","","","","","","","","","",""
"","do_trial","151","397634","0.0-89.0-0.0","550.6000000238419","","","","50","1,0,0","1","forest","33","probe-111","0.7519399129333734","0.20878716583392526","0.22558854513928683","0","","","","","","","",""
"","html-keyboard-response","152","398638","0.0-89.0-1.0","null","<p></p>","null","","","","","","","","","","","","","","","","","","",""
"","do_trial","153","403561","0.0-90.0-0.0","384.19999998807907","","","","50","1,0,0","1","forest","34","probe-192","0.7381613379362433","0.20052108344005856","0.0787492942285178","0","","","","","","","",""
"","html-keyboard-response","154","404565","0.0-90.0-1.0","null","<p></p>","null","","","","","","","","","","","","","","","","","","",""
"","do_trial","155","409604","0.0-91.0-0.0","495.4000000357628","","","","50","0,0,0","1","forest","35","probe-100","0.6809506005574976","0.3214783856530597","0.17554390323581406","0","","","","","","","",""
"","html-keyboard-response","156","410608","0.0-91.0-1.0","null","<p></p>","null","","","","","","","","","","","","","","","","","","",""
"","do_trial","157","415624","0.0-92.0-0.0","472.69999998807907","","","","50","0,1,0","1","forest","36","probe-26","0.5992378667659223","0.4530274153137561","0.2100131631043267","1","","","","","","","",""
"","html-keyboard-response","158","416628","0.0-92.0-1.0","null","<p></p>","null","","","","","","","","","","","","","","","","","","",""
"","do_trial","159","421940","0.0-93.0-0.0","772.3999999761581","","","","50","0,1,0","1","forest","37","probe-157","0.6544359301559882","0.4366275091101687","0.23859197554443712","1","","","","","","","",""
"","html-keyboard-response","160","422944","0.0-93.0-1.0","null","<p></p>","null","","","","","","","","","","","","","","","","","","",""
"","do_trial","161","427867","0.0-94.0-0.0","379.69999998807907","","","","50","0,0,0","1","forest","38","probe-206","0.6557648439134204","0.3383895153714787","0.17132925284419184","0","","","","","","","",""
"","html-keyboard-response","162","428871","0.0-94.0-1.0","null","<p></p>","null","","","","","","","","","","","","","","","","","","",""
"","do_trial","163","434026","0.0-95.0-0.0","614.9000000357628","","","","50","1,0,0","1","forest","39","probe-227","0.7868264776219356","0.26780021891656786","0.14923785659188446","0","","","","","","","",""
"","html-keyboard-response","164","435030","0.0-95.0-1.0","null","<p></p>","null","","","","","","","","","","","","","","","","","","",""
"","do_trial","165","440133","0.0-96.0-0.0","558.8999999761581","","","","50","0,0,0","1","forest","40","probe-01","0.7654176754644608","0.2550482516189511","0.2541385590747495","0","","","","","","","",""
"","html-keyboard-response","166","441135","0.0-96.0-1.0","null","<p></p>","null","","","","","","","","","","","","","","","","","","",""
"","do_trial","167","446066","0.0-97.0-0.0","391.19999998807907","","","","50","1,1,1","1","forest","41","probe-84","0.5394443459137105","0.2565331145871771","0.3479607975426181","1","","","","","","","",""
"","html-keyboard-response","168","447072","0.0-97.0-1.0","null","<p></p>","null","","","","","","","","","","","","","","","","","","",""
"","do_trial","169","451686","0.0-98.0-0.0","74.80000001192093","","","","50","1,0,0","1","forest","42","probe-51","0.3333673634551498","0.45346437066995976","0.3143154915510749","0","","","","","","","",""
"","html-keyboard-response","170","452690","0.0-98.0-1.0","null","<p></p>","null","","","","","","","","","","","","","","","","","","",""
"","do_trial","171","457803","0.0-99.0-0.0","570.2000000476837","","","","50","1,1,0","1","forest","43","probe-163","0.340943158980139","0.5035994351687959","0.25274011334328567","1","","","","","","","",""
"","html-keyboard-response","172","458808","0.0-99.0-1.0","null","<p></p>","null","","","","","","","","","","","","","","","","","","",""
"","do_trial","173","463946","0.0-100.0-0.0","598.3999999761581","","","","50","0,0,0","1","forest","44","probe-35","0.30059144409179345","0.4579333286715337","0.3383569545110921","0","","","","","","","",""
"","html-keyboard-response","174","464950","0.0-100.0-1.0","null","<p></p>","null","","","","","","","","","","","","","","","","","","",""
"","do_trial","175","470076","0.0-101.0-0.0","585.8000000119209","","","","50","0,0,1","1","forest","45","probe-52","0.13168254031166857","0.46803008460850715","0.3813008556643777","0","","","","","","","",""
"","html-keyboard-response","176","471080","0.0-101.0-1.0","null","<p></p>","null","","","","","","","","","","","","","","","","","","",""
"","do_trial","177","476160","0.0-102.0-0.0","539.5","","","","50","0,0,1","1","forest","46","probe-122","0.1449455878086393","0.41861382314383355","0.5188589674876993","0","","","","","","","",""
"","html-keyboard-response","178","477163","0.0-102.0-1.0","null","<p></p>","null","","","","","","","","","","","","","","","","","","",""
"","do_trial","179","482134","0.0-103.0-0.0","426.5","","","","50","0,0,0","1","forest","47","probe-108","0.12181188820624757","0.4261578030771909","0.6054077862173362","0","","","","","","","",""
"","html-keyboard-response","180","483138","0.0-103.0-1.0","null","<p></p>","null","","","","","","","","","","","","","","","","","","",""
"","do_trial","181","488304","0.0-104.0-0.0","624.8000000119209","","","","50","0,1,0","1","forest","48","probe-21","0.08635788126267827","0.5510594135293028","0.46845997337769507","1","","","","","","","",""
"","html-keyboard-response","182","489309","0.0-104.0-1.0","null","<p></p>","null","","","","","","","","","","","","","","","","","","",""
"","do_trial","183","494458","0.0-105.0-0.0","610.7999999523163","","","","50","0,1,1","1","forest","49","probe-66","0.09517725318551143","0.4650029986267138","0.34114113300203946","1","","","","","","","",""
"","html-keyboard-response","184","495462","0.0-105.0-1.0","null","<p></p>","null","","","","","","","","","","","","","","","","","","",""
"","do_trial","185","500588","0.0-106.0-0.0","587.1000000238419","","","","50","0,1,1","1","forest","50","probe-33","0.14332425903684065","0.4482712004572539","0.37754786439432225","1","","","","","","","",""
"","html-keyboard-response","186","501592","0.0-106.0-1.0","null","<p></p>","null","","","","","","","","","","","","","","","","","","",""
"","do_trial","187","506761","0.0-107.0-0.0","629.6999999880791","","","","50","0,0,0","1","forest","51","probe-154","0.13124945312756006","0.5489453663454112","0.3837795596842796","0","","","","","","","",""
"","html-keyboard-response","188","507763","0.0-107.0-1.0","null","<p></p>","null","","","","","","","","","","","","","","","","","","",""
"","do_trial","189","512660","0.0-108.0-0.0","357.89999997615814","","","","50","0,1,1","1","forest","52","probe-47","0.12086397625107352","0.6402830005057837","0.31938919980596836","1","","","","","","","",""
"","html-keyboard-response","190","513661","0.0-108.0-1.0","null","<p></p>","null","","","","","","","","","","","","","","","","","","",""
"","do_trial","191","518497","0.0-109.0-0.0","295.7999999523163","","","","50","1,1,0","1","forest","53","probe-190","0.14102537894401296","0.6017448676431278","0.26526529887746064","1","","","","","","","",""
"","html-keyboard-response","192","519501","0.0-109.0-1.0","null","<p></p>","null","","","","","","","","","","","","","","","","","","",""
"","do_trial","193","524370","0.0-110.0-0.0","328.5","","","","50","0,1,0","1","forest","54","probe-173","0.05558425567616935","0.7229171586698064","0.14051342134671152","1","","","","","","","",""
"","html-keyboard-response","194","525372","0.0-110.0-1.0","null","<p></p>","null","","","","","","","","","","","","","","","","","","",""
"","do_trial","195","530247","0.0-111.0-0.0","334.4000000357628","","","","50","0,1,0","1","forest","55","probe-210","0.1302247246915416","0.6786488130655566","0.13900482545082013","1","","","","","","","",""
"","html-keyboard-response","196","531250","0.0-111.0-1.0","null","<p></p>","null","","","","","","","","","","","","","","","","","","",""
"","do_trial","197","536412","0.0-112.0-0.0","621.6000000238419","","","","50","1,0,0","1","forest","56","probe-110","0.1461813468518682","0.6326107896501919","0.16078567142869715","0","","","","","","","",""
"","html-keyboard-response","198","537416","0.0-112.0-1.0","null","<p></p>","null","","","","","","","","","","","","","","","","","","",""
"","do_trial","199","542414","0.0-113.0-0.0","458.0999999642372","","","","50","0,1,0","1","forest","57","probe-60","0.10869021125866377","0.7239262546548214","0.2297303171422558","1","","","","","","","",""
"","html-keyboard-response","200","543419","0.0-113.0-1.0","null","<p></p>","null","","","","","","","","","","","","","","","","","","",""
"","do_trial","201","548568","0.0-114.0-0.0","607.6000000238419","","","","50","0,1,0","1","forest","58","probe-150","0.10480083216293748","0.6304684745426274","0.17068510812927393","1","","","","","","","",""
"","html-keyboard-response","202","549572","0.0-114.0-1.0","null","<p></p>","null","","","","","","","","","","","","","","","","","","",""
"","do_trial","203","554553","0.0-115.0-0.0","441.80000001192093","","","","50","0,1,0","1","forest","59","probe-17","0.17588158074756","0.5498550125714027","0.2693654035522372","1","","","","","","","",""
"","html-keyboard-response","204","555557","0.0-115.0-1.0","null","<p></p>","null","","","","","","","","","","","","","","","","","","",""
"","do_trial","205","560742","0.0-116.0-0.0","643.1000000238419","","","","50","1,0,0","1","forest","60","probe-55","0.26037776003285823","0.43457401441123006","0.2947873786416768","0","","","","","","","",""
"","html-keyboard-response","206","561745","0.0-116.0-1.0","null","<p></p>","null","","","","","","","","","","","","","","","","","","",""
"","do_trial","207","568224","0.0-117.0-0.0","1938.8999999761581","","","","50","0,0,0","1","forest","61","probe-63","0.29041510940884957","0.47859623628763454","0.39892410484848867","0","","","","","","","",""
"","html-keyboard-response","208","569228","0.0-117.0-1.0","null","<p></p>","null","","","","","","","","","","","","","","","","","","",""
"","do_trial","209","574133","0.0-118.0-0.0","363.39999997615814","","","","50","0,1,1","1","forest","62","probe-58","0.11465719866575466","0.4651636838094805","0.34610133677323923","1","","","","","","","",""
"","html-keyboard-response","210","575138","0.0-118.0-1.0","null","<p></p>","null","","","","","","","","","","","","","","","","","","",""
"","do_trial","211","580862","0.0-119.0-0.0","1185.5999999642372","","","","50","0,1,1","1","forest","63","probe-223","0.13817645227181663","0.5642837724630608","0.4941110367738908","1","","","","","","","",""
"","html-keyboard-response","212","581866","0.0-119.0-1.0","null","<p></p>","null","","","","","","","","","","","","","","","","","","",""
"","do_trial","213","587003","0.0-120.0-0.0","594.6000000238419","","","","50","0,1,0","1","forest","64","probe-89","0.16785176158530377","0.5561330226989213","0.5184764107375686","1","","","","","","","",""
"","html-keyboard-response","214","588009","0.0-120.0-1.0","null","<p></p>","null","","","","","","","","","","","","","","","","","","",""
"","do_trial","215","593273","0.0-121.0-0.0","717.7000000476837","","","","50","0,1,0","1","forest","65","probe-74","0.06517499285415478","0.586450955343265","0.31876607405580926","1","","","","","","","",""
"","html-keyboard-response","216","594277","0.0-121.0-1.0","null","<p></p>","null","","","","","","","","","","","","","","","","","","",""
"","do_trial","217","599019","0.0-122.0-0.0","199.5","","","","50","0,0,0","1","forest","66","probe-117","0.1778883251859365","0.4847127987560185","0.3038281510651351","0","","","","","","","",""
"","html-keyboard-response","218","600024","0.0-122.0-1.0","null","<p></p>","null","","","","","","","","","","","","","","","","","","",""
"","do_trial","219","604982","0.0-123.0-0.0","417.80000001192093","","","","50","0,1,0","1","forest","67","probe-114","0.16712804872525552","0.6128940893239693","0.34329968120648247","1","","","","","","","",""
"","html-keyboard-response","220","605986","0.0-123.0-1.0","null","<p></p>","null","","","","","","","","","","","","","","","","","","",""
"","do_trial","221","611112","0.0-124.0-0.0","586.7999999523163","","","","50","0,1,0","1","forest","68","probe-08","0.05384091089680073","0.5253303255754402","0.4005817280204403","1","","","","","","","",""
"","html-keyboard-response","222","612116","0.0-124.0-1.0","null","<p></p>","null","","","","","","","","","","","","","","","","","","",""
"","do_trial","223","617260","0.0-125.0-0.0","603.8999999761581","","","","50","0,1,0","1","forest","69","probe-216","0.05591524796532221","0.5570840804135754","0.2800489303979345","1","","","","","","","",""
"","html-keyboard-response","224","618264","0.0-125.0-1.0","null","<p></p>","null","","","","","","","","","","","","","","","","","","",""
"","do_bye","225","619773","0.0-126.0-0.0","null","","","","null","","","","","","","","","","","","","","","","",""
"","do_travel","226","625776","0.0-127.0-0.0","null","","","","null","","","","","","","","","","","","","","","","",""
"","do_welcome","227","627280","0.0-127.0-1.0","null","","","","null","","","","","","","","","","","","","","","","",""
"","do_trial","228","633003","0.0-128.0-0.0","1179.3999999761581","","","","50","0,1,0","2","coast","70","probe-176","0.09671256861823554","1","0.2348720262268898","1","","","","","","","",""
"","html-keyboard-response","229","634008","0.0-128.0-1.0","null","<p></p>","null","","","","","","","","","","","","","","","","","","",""
"","do_trial","230","639000","0.0-129.0-0.0","453.10000002384186","","","","50","0,1,0","2","coast","71","probe-152","0.0901192579411422","1","0.2925528040348812","1","","","","","","","",""
"","html-keyboard-response","231","640004","0.0-129.0-1.0","null","<p></p>","null","","","","","","","","","","","","","","","","","","",""
"","do_trial","232","645107","0.0-130.0-0.0","559.6999999880791","","","","50","1,1,0","2","coast","72","probe-136","0.15070187473690405","0.8944700978562744","0.301089558047822","1","","","","","","","",""
"","html-keyboard-response","233","646111","0.0-130.0-1.0","null","<p></p>","null","","","","","","","","","","","","","","","","","","",""
"","do_trial","234","651272","0.0-131.0-0.0","619.6999999880791","","","","50","0,1,0","2","coast","73","probe-103","0.10631375318640092","0.8323882928298233","0.2751727153161603","1","","","","","","","",""
"","html-keyboard-response","235","652276","0.0-131.0-1.0","null","<p></p>","null","","","","","","","","","","","","","","","","","","",""
"","do_trial","236","657205","0.0-132.0-0.0","389.80000001192093","","","","50","0,0,0","2","coast","74","probe-179","0.06464733770802879","0.7200611032392413","0.13251148114778116","0","","","","","","","",""
"","html-keyboard-response","237","658209","0.0-132.0-1.0","null","<p></p>","null","","","","","","","","","","","","","","","","","","",""
"","do_trial","238","663968","0.0-133.0-0.0","1219.7999999523163","","","","50","1,1,1","2","coast","75","probe-156","0.08601337079322009","0.6824464392069272","0.29823097857082703","1","","","","","","","",""
"","html-keyboard-response","239","664972","0.0-133.0-1.0","null","<p></p>","null","","","","","","","","","","","","","","","","","","",""
"","do_trial","240","670191","0.0-134.0-0.0","681.3000000119209","","","","50","0,0,0","2","coast","76","probe-70","0.1523688065148919","0.5766813683231018","0.16833248665807865","0","","","","","","","",""
"","html-keyboard-response","241","671195","0.0-134.0-1.0","null","<p></p>","null","","","","","","","","","","","","","","","","","","",""
"","do_trial","242","676507","0.0-135.0-0.0","768.1999999880791","","","","50","1,0,0","2","coast","77","probe-93","0.05186580548547808","0.6059975573257778","0.32018634175608507","0","","","","","","","",""
"","html-keyboard-response","243","677511","0.0-135.0-1.0","null","<p></p>","null","","","","","","","","","","","","","","","","","","",""
"","do_trial","244","682550","0.0-136.0-0.0","499.19999998807907","","","","50","0,0,0","2","coast","78","probe-102","0.09448446215760944","0.6464670036454415","0.1599983140827837","0","","","","","","","",""
"","html-keyboard-response","245","683554","0.0-136.0-1.0","null","<p></p>","null","","","","","","","","","","","","","","","","","","",""
"","do_trial","246","688710","0.0-137.0-0.0","612.8000000119209","","","","50","0,1,0","2","coast","79","probe-18","0.057544463400993326","0.7415250375242305","0.14740184605434478","1","","","","","","","",""
"","html-keyboard-response","247","689714","0.0-137.0-1.0","null","<p></p>","null","","","","","","","","","","","","","","","","","","",""
"","do_trial","248","694799","0.0-138.0-0.0","541.5","","","","50","0,1,0","2","coast","80","probe-166","0.08350904842827664","0.8107504621295426","0.2799424836383577","1","","","","","","","",""
"","html-keyboard-response","249","695803","0.0-138.0-1.0","null","<p></p>","null","","","","","","","","","","","","","","","","","","",""
"","do_trial","250","700862","0.0-139.0-0.0","517.1999999880791","","","","50","0,1,0","2","coast","81","probe-05","0.2085935272044822","0.6455864445084504","0.09908360497612581","1","","","","","","","",""
"","html-keyboard-response","251","701864","0.0-139.0-1.0","null","<p></p>","null","","","","","","","","","","","","","","","","","","",""
"","do_trial","252","707025","0.0-140.0-0.0","621.1000000238419","","","","50","0,0,0","2","coast","82","probe-132","0.11652922473046778","0.44438203295433915","0.2747421619194046","0","","","","","","","",""
"","html-keyboard-response","253","708029","0.0-140.0-1.0","null","<p></p>","null","","","","","","","","","","","","","","","","","","",""
"","do_trial","254","712952","0.0-141.0-0.0","384.39999997615814","","","","50","0,1,0","2","coast","83","probe-19","0.1260590264711009","0.5519596391588388","0.2785617356510985","1","","","","","","","",""
"","html-keyboard-response","255","713953","0.0-141.0-1.0","null","<p></p>","null","","","","","","","","","","","","","","","","","","",""
"","do_trial","256","718966","0.0-142.0-0.0","463.9000000357628","","","","50","0,0,0","2","coast","84","probe-155","0.08025313015667837","0.40497262622462105","0.395461903011079","0","","","","","","","",""
"","html-keyboard-response","257","719969","0.0-142.0-1.0","null","<p></p>","null","","","","","","","","","","","","","","","","","","",""
"","do_trial","258","724910","0.0-143.0-0.0","398.69999998807907","","","","50","0,0,0","2","coast","85","probe-45","0.07357301555320775","0.26159517844139446","0.5663707458826673","0","","","","","","","",""
"","html-keyboard-response","259","725915","0.0-143.0-1.0","null","<p></p>","null","","","","","","","","","","","","","","","","","","",""
"","do_trial","260","731523","0.0-144.0-0.0","1068.800000011921","","","","50","0,0,0","2","coast","86","probe-193","0.0889576998203027","0.33416892793063424","0.5658644799601175","0","","","","","","","",""
"","html-keyboard-response","261","732526","0.0-144.0-1.0","null","<p></p>","null","","","","","","","","","","","","","","","","","","",""
"","do_trial","262","737733","0.0-145.0-0.0","668.5","","","","50","0,1,0","2","coast","87","probe-104","0.15722958410520252","0.3992075520759266","0.4655638877797859","1","","","","","","","",""
"","html-keyboard-response","263","738735","0.0-145.0-1.0","null","<p></p>","null","","","","","","","","","","","","","","","","","","",""
"","do_trial","264","744001","0.0-146.0-0.0","720.5","","","","50","0,1,0","2","coast","88","probe-105","0.21404642944358418","0.498528278138322","0.6614011259543946","1","","","","","","","",""
"","html-keyboard-response","265","745004","0.0-146.0-1.0","null","<p></p>","null","","","","","","","","","","","","","","","","","","",""
"","do_trial","266","750020","0.0-147.0-0.0","472.2999999523163","","","","50","0,0,0","2","coast","89","probe-128","0.062340402525783996","0.3478499970258905","0.6040077623788441","0","","","","","","","",""
"","html-keyboard-response","267","751022","0.0-147.0-1.0","null","<p></p>","null","","","","","","","","","","","","","","","","","","",""
"","do_trial","268","756142","0.0-148.0-0.0","570.1999999880791","","","","50","0,1,0","2","coast","90","probe-200","0.13925491982605637","0.37917303544842773","0.6024001165790316","1","","","","","","","",""
"","html-keyboard-response","269","757148","0.0-148.0-1.0","null","<p></p>","null","","","","","","","","","","","","","","","","","","",""
"","do_trial","270","762418","0.0-149.0-0.0","730.8000000119209","","","","50","1,0,1","2","coast","91","probe-24","0.17490338663187271","0.4038714744933188","0.5221138040407401","0","","","","","","","",""
"","html-keyboard-response","271","763422","0.0-149.0-1.0","null","<p></p>","null","","","","","","","","","","","","","","","","","","",""
"","do_trial","272","768559","0.0-150.0-0.0","597.1000000238419","","","","50","0,0,1","2","coast","92","probe-57","0.07295489023333344","0.3007139092994624","0.4677128316436063","0","","","","","","","",""
"","html-keyboard-response","273","769564","0.0-150.0-1.0","null","<p></p>","null","","","","","","","","","","","","","","","","","","",""
"","do_trial","274","775141","0.0-151.0-0.0","1030.9000000357628","","","","50","0,0,0","2","coast","93","probe-224","0.13117836249246717","0.1963735873553133","0.44402150397669","0","","","","","","","",""
"","html-keyboard-response","275","776146","0.0-151.0-1.0","null","<p></p>","null","","","","","","","","","","","","","","","","","","",""
"","do_trial","276","781498","0.0-152.0-0.0","809.6000000238419","","","","50","0,0,1","2","coast","94","probe-04","0.2673079431990857","0.27213111407557444","0.5460638589511894","0","","","","","","","",""
"","html-keyboard-response","277","782505","0.0-152.0-1.0","null","<p></p>","null","","","","","","","","","","","","","","","","","","",""
"","do_trial","278","787740","0.0-153.0-0.0","694.2000000476837","","","","50","1,0,0","2","coast","95","probe-169","0.3054915128115267","0.43631996482281415","0.4220981453872744","0","","","","","","","",""
"","html-keyboard-response","279","788744","0.0-153.0-1.0","null","<p></p>","null","","","","","","","","","","","","","","","","","","",""
"","do_trial","280","793835","0.0-154.0-0.0","551.3999999761581","","","","50","0,1,0","2","coast","96","probe-221","0.08267403715698991","0.5312456875374475","0.48253776085190697","1","","","","","","","",""
"","html-keyboard-response","281","794841","0.0-154.0-1.0","null","<p></p>","null","","","","","","","","","","","","","","","","","","",""
"","do_trial","282","799803","0.0-155.0-0.0","419.80000001192093","","","","50","0,0,0","2","coast","97","probe-65","0.11358357197121782","0.3117411211986816","0.5653846693517217","0","","","","","","","",""
"","html-keyboard-response","283","800807","0.0-155.0-1.0","null","<p></p>","null","","","","","","","","","","","","","","","","","","",""
"","do_trial","284","805822","0.0-156.0-0.0","471.7999999523163","","","","50","0,1,0","2","coast","98","probe-69","0.14801476283928808","0.333030844626153","0.48496802195093125","1","","","","","","","",""
"","html-keyboard-response","285","806827","0.0-156.0-1.0","null","<p></p>","null","","","","","","","","","","","","","","","","","","",""
"","do_trial","286","811906","0.0-157.0-0.0","538.3000000119209","","","","50","0,1,0","2","coast","99","probe-183","0.059986229973773696","0.35635662538116863","0.579436976463322","1","","","","","","","",""
"","html-keyboard-response","287","812911","0.0-157.0-1.0","null","<p></p>","null","","","","","","","","","","","","","","","","","","",""
"","do_trial","288","818112","0.0-158.0-0.0","658.5","","","","50","1,0,0","2","coast","100","probe-165","0.16288528336043623","0.2317505607355072","0.6574660756433209","0","","","","","","","",""
"","html-keyboard-response","289","819116","0.0-158.0-1.0","null","<p></p>","null","","","","","","","","","","","","","","","","","","",""
"","do_trial","290","823993","0.0-159.0-0.0","333.19999998807907","","","","50","0,0,1","2","coast","101","probe-38","0.0871446234791104","0.3329923439833368","0.7946824871062007","0","","","","","","","",""
"","html-keyboard-response","291","824997","0.0-159.0-1.0","null","<p></p>","null","","","","","","","","","","","","","","","","","","",""
"","do_trial","292","830100","0.0-160.0-0.0","559.1000000238419","","","","50","0,1,1","2","coast","102","probe-32","0.12260544113340473","0.3582098678152731","0.7331058626421271","1","","","","","","","",""
"","html-keyboard-response","293","831104","0.0-160.0-1.0","null","<p></p>","null","","","","","","","","","","","","","","","","","","",""
"","do_trial","294","836079","0.0-161.0-0.0","436.80000001192093","","","","50","0,0,1","2","coast","103","probe-101","0.10328775585507652","0.32301119158989106","0.6011639246163517","0","","","","","","","",""
"","html-keyboard-response","295","837083","0.0-161.0-1.0","null","<p></p>","null","","","","","","","","","","","","","","","","","","",""
"","do_trial","296","842221","0.0-162.0-0.0","596.3000000119209","","","","50","0,1,1","2","coast","104","probe-186","0.15910020463573157","0.40432462641270733","0.636300842781698","1","","","","","","","",""
"","html-keyboard-response","297","843225","0.0-162.0-1.0","null","<p></p>","null","","","","","","","","","","","","","","","","","","",""
"","do_trial","298","848206","0.0-163.0-0.0","437.30000001192093","","","","50","1,0,1","2","coast","105","probe-97","0.2636368029115457","0.2357776251773464","0.5048999542550312","0","","","","","","","",""
"","html-keyboard-response","299","849210","0.0-163.0-1.0","null","<p></p>","null","","","","","","","","","","","","","","","","","","",""
"","do_trial","300","855531","0.0-164.0-0.0","1778.6000000238419","","","","50","1,0,1","2","coast","106","probe-88","0.15441092210915236","0.22890504728435204","0.5968724529453959","0","","","","","","","",""
"","html-keyboard-response","301","856536","0.0-164.0-1.0","null","<p></p>","null","","","","","","","","","","","","","","","","","","",""
"","do_trial","302","861209","0.0-165.0-0.0","134.9000000357628","","","","50","0,0,0","2","coast","107","probe-140","0.08779698524352567","0.35712273541297973","0.6384742479974814","0","","","","","","","",""
"","html-keyboard-response","303","862214","0.0-165.0-1.0","null","<p></p>","null","","","","","","","","","","","","","","","","","","",""
"","do_trial","304","867148","0.0-166.0-0.0","392.2999999523163","","","","50","0,0,0","2","coast","108","probe-16","0.05368444757187485","0.4126636829481937","0.5853010811745386","0","","","","","","","",""
"","html-keyboard-response","305","868152","0.0-166.0-1.0","null","<p></p>","null","","","","","","","","","","","","","","","","","","",""
"","do_trial","306","873365","0.0-167.0-0.0","671.3000000119209","","","","50","0,0,0","2","coast","109","probe-182","0.06367871212944101","0.4370392832500627","0.5591228577713387","0","","","","","","","",""
"","html-keyboard-response","307","874369","0.0-167.0-1.0","null","<p></p>","null","","","","","","","","","","","","","","","","","","",""
"","do_bye","308","875879","0.0-168.0-0.0","null","","","","null","","","","","","","","","","","","","","","","",""
"","do_travel","309","881882","0.0-169.0-0.0","null","","","","null","","","","","","","","","","","","","","","","",""
"","do_welcome","310","883391","0.0-169.0-1.0","null","","","","null","","","","","","","","","","","","","","","","",""
"","do_trial","311","889438","0.0-170.0-0.0","null","","","","null","0,0,1","3","mountain","110","probe-188","0.06674524558222782","0.32719609669918326","1","","","","","","","","",""
"","html-keyboard-response","312","890444","0.0-170.0-1.0","null","<p></p>","null","","","","","","","","","","","","","","","","","","",""
"","do_trial","313","895077","0.0-171.0-0.0","90.60000002384186","","","","50","0,0,1","3","mountain","111","probe-138","0.08512835690704687","0.4356260725881544","1","0","","","","","","","",""
"","html-keyboard-response","314","896081","0.0-171.0-1.0","null","<p></p>","null","","","","","","","","","","","","","","","","","","",""
"","do_trial","315","901069","0.0-172.0-0.0","448.39999997615814","","","","50","1,1,1","3","mountain","112","probe-130","0.12230365346288025","0.49924644103344806","0.9031376255863961","1","","","","","","","",""
"","html-keyboard-response","316","902072","0.0-172.0-1.0","null","<p></p>","null","","","","","","","","","","","","","","","","","","",""
"","do_trial","317","907041","0.0-173.0-0.0","430.10000002384186","","","","50","0,0,1","3","mountain","113","probe-29","0.06279673586872049","0.3384068697010221","0.7295544737266253","0","","","","","","","",""
"","html-keyboard-response","318","908045","0.0-173.0-1.0","null","<p></p>","null","","","","","","","","","","","","","","","","","","",""
"","do_trial","319","913252","0.0-174.0-0.0","666.5999999642372","","","","50","0,1,1","3","mountain","114","probe-164","0.05567922472810981","0.1770325402199631","0.6022497319712912","1","","","","","","","",""
"","html-keyboard-response","320","914257","0.0-174.0-1.0","null","<p></p>","null","","","","","","","","","","","","","","","","","","",""
"","do_trial","321","919325","0.0-175.0-0.0","529","","","","50","0,0,1","3","mountain","115","probe-78","0.062340011559211116","0.21874879770756928","0.6619805123614446","0","","","","","","","",""
"","html-keyboard-response","322","920329","0.0-175.0-1.0","null","<p></p>","null","","","","","","","","","","","","","","","","","","",""
"","do_trial","323","925588","0.0-176.0-0.0","719.6000000238419","","","","50","0,0,0","3","mountain","116","probe-212","0.11550498257013338","0.382847309185767","0.5932029921777644","0","","","","","","","",""
"","html-keyboard-response","324","926593","0.0-176.0-1.0","null","<p></p>","null","","","","","","","","","","","","","","","","","","",""
"","do_trial","325","931910","0.0-177.0-0.0","778.8000000119209","","","","50","1,0,0","3","mountain","117","probe-40","0.23634903595005846","0.2910446047128366","0.6406265828428725","0","","","","","","","",""
"","html-keyboard-response","326","932914","0.0-177.0-1.0","null","<p></p>","null","","","","","","","","","","","","","","","","","","",""
"","do_trial","327","937832","0.0-178.0-0.0","375.30000001192093","","","","50","0,0,1","3","mountain","118","probe-203","0.15256831981730673","0.3786315603086132","0.46815829781854573","0","","","","","","","",""
"","html-keyboard-response","328","938836","0.0-178.0-1.0","null","<p></p>","null","","","","","","","","","","","","","","","","","","",""
"","do_trial","329","944060","0.0-179.0-0.0","682.8000000119209","","","","50","0,1,1","3","mountain","119","probe-27","0.0791335353041935","0.2748352501608154","0.4655596112158515","1","","","","","","","",""
"","html-keyboard-response","330","945065","0.0-179.0-1.0","null","<p></p>","null","","","","","","","","","","","","","","","","","","",""
"","do_trial","331","949778","0.0-180.0-0.0","171.70000004768372","","","","50","0,0,0","3","mountain","120","probe-185","0.19882480271730893","0.17912639252187731","0.39725000187140774","0","","","","","","","",""
"","html-keyboard-response","332","950783","0.0-180.0-1.0","null","<p></p>","null","","","","","","","","","","","","","","","","","","",""
"","do_trial","333","955903","0.0-181.0-0.0","576.8999999761581","","","","50","1,0,0","3","mountain","121","probe-121","0.2929937211557234","0.17427931230214533","0.31168877354803487","0","","","","","","","",""
"","html-keyboard-response","334","956907","0.0-181.0-1.0","null","<p></p>","null","","","","","","","","","","","","","","","","","","",""
"","do_trial","335","961917","0.0-182.0-0.0","468.5","","","","50","0,0,0","3","mountain","122","probe-41","0.28377288958432384","0.23071755337334662","0.19843091253071474","0","","","","","","","",""
"","html-keyboard-response","336","962921","0.0-182.0-1.0","null","<p></p>","null","","","","","","","","","","","","","","","","","","",""
"","do_trial","337","968047","0.0-183.0-0.0","584.6999999880791","","","","50","0,1,0","3","mountain","123","probe-54","0.38703423544269017","0.39261242674045377","0.06680112622658882","1","","","","","","","",""
"","html-keyboard-response","338","969052","0.0-183.0-1.0","null","<p></p>","null","","","","","","","","","","","","","","","","","","",""
"","do_trial","339","974038","0.0-184.0-0.0","446.19999998807907","","","","50","0,0,0","3","mountain","124","probe-175","0.33386167734629213","0.4127616759926507","0.10640189353846001","0","","","","","","","",""
"","html-keyboard-response","340","975042","0.0-184.0-1.0","null","<p></p>","null","","","","","","","","","","","","","","","","","","",""
"","do_trial","341","980174","0.0-185.0-0.0","592.7000000476837","","","","50","1,1,0","3","mountain","125","probe-127","0.3018026689310123","0.4366940920386383","0.06115922149846714","1","","","","","","","",""
"","html-keyboard-response","342","981179","0.0-185.0-1.0","null","<p></p>","null","","","","","","","","","","","","","","","","","","",""
"","do_trial","343","987326","0.0-186.0-0.0","1604.8999999761581","","","","50","1,1,0","3","mountain","126","probe-68","0.27136425255665614","0.5471774705165439","0.1412533724235278","1","","","","","","","",""
"","html-keyboard-response","344","988330","0.0-186.0-1.0","null","<p></p>","null","","","","","","","","","","","","","","","","","","",""
"","do_trial","345","993369","0.0-187.0-0.0","495.39999997615814","","","","50","0,1,0","3","mountain","127","probe-71","0.3149770507040234","0.518322642404158","0.14494373318701026","1","","","","","","","",""
"","html-keyboard-response","346","994376","0.0-187.0-1.0","null","<p></p>","null","","","","","","","","","","","","","","","","","","",""
"","do_trial","347","999337","0.0-188.0-0.0","422.4000000357628","","","","50","0,0,0","3","mountain","128","probe-12","0.32711294279391434","0.4890963766504616","0.20496038813126796","0","","","","","","","",""
"","html-keyboard-response","348","1000341","0.0-188.0-1.0","null","<p></p>","null","","","","","","","","","","","","","","","","","","",""
"","do_trial","349","1005432","0.0-189.0-0.0","551.8000000119209","","","","50","0,0,0","3","mountain","129","probe-53","0.1340428458457074","0.48351908574508257","0.24162782340075326","0","","","","","","","",""
"","html-keyboard-response","350","1006437","0.0-189.0-1.0","null","<p></p>","null","","","","","","","","","","","","","","","","","","",""
"","do_trial","351","1011510","0.0-190.0-0.0","532.8999999761581","","","","50","0,1,0","3","mountain","130","probe-217","0.09445201249510317","0.5646600353986871","0.05416034811146577","1","","","","","","","",""
"","html-keyboard-response","352","1012515","0.0-190.0-1.0","null","<p></p>","null","","","","","","","","","","","","","","","","","","",""
"","do_trial","353","1017635","0.0-191.0-0.0","576.6000000238419","","","","50","0,0,0","3","mountain","131","probe-213","0.14900831433221406","0.6387199053436675","0.09813453413252378","0","","","","","","","",""
"","html-keyboard-response","354","1018639","0.0-191.0-1.0","null","<p></p>","null","","","","","","","","","","","","","","","","","","",""
"","do_trial","355","1023724","0.0-192.0-0.0","545","","","","50","0,0,0","3","mountain","132","probe-151","0.30378956559638026","0.5901249933766338","0.07146860378613297","0","","","","","","","",""
"","html-keyboard-response","356","1024728","0.0-192.0-1.0","null","<p></p>","null","","","","","","","","","","","","","","","","","","",""
"","do_trial","357","1029820","0.0-193.0-0.0","552.2999999523163","","","","50","1,1,0","3","mountain","133","probe-135","0.4154638136799661","0.664247119818762","0.11698204338264487","1","","","","","","","",""
"","html-keyboard-response","358","1030824","0.0-193.0-1.0","null","<p></p>","null","","","","","","","","","","","","","","","","","","",""
"","do_trial","359","1035973","0.0-194.0-0.0","608.6000000238419","","","","50","0,0,0","3","mountain","134","probe-161","0.36947386653953135","0.5474378551589265","0.08188476921805571","0","","","","","","","",""
"","html-keyboard-response","360","1036977","0.0-194.0-1.0","null","<p></p>","null","","","","","","","","","","","","","","","","","","",""
"","do_trial","361","1041906","0.0-195.0-0.0","388.5","","","","50","0,0,0","3","mountain","135","probe-180","0.371998369428669","0.7627331289738362","0.10691365051973416","0","","","","","","","",""
"","html-keyboard-response","362","1042910","0.0-195.0-1.0","null","<p></p>","null","","","","","","","","","","","","","","","","","","",""
"","do_trial","363","1047822","0.0-196.0-0.0","373","","","","50","1,1,1","3","mountain","136","probe-34","0.3380650104444002","0.7717784844657531","0.18804889728103308","1","","","","","","","",""
"","html-keyboard-response","364","1048825","0.0-196.0-1.0","null","<p></p>","null","","","","","","","","","","","","","","","","","","",""
"","do_trial","365","1054068","0.0-197.0-0.0","689.5","","","","50","0,0,0","3","mountain","137","probe-107","0.35685567817931735","0.7530607820817669","0.09335746546507434","0","","","","","","","",""
"","html-keyboard-response","366","1055072","0.0-197.0-1.0","null","<p></p>","null","","","","","","","","","","","","","","","","","","",""
"","do_trial","367","1059978","0.0-198.0-0.0","362.5999999642372","","","","50","0,1,0","3","mountain","138","probe-44","0.3959045985532492","0.7135202586802939","0.13465370726908166","1","","","","","","","",""
"","html-keyboard-response","368","1060982","0.0-198.0-1.0","null","<p></p>","null","","","","","","","","","","","","","","","","","","",""
"","do_trial","369","1065864","0.0-199.0-0.0","339.10000002384186","","","","50","0,0,0","3","mountain","139","probe-153","0.29086855431508446","0.6009270535339178","0.15070088303392903","0","","","","","","","",""
"","html-keyboard-response","370","1066868","0.0-199.0-1.0","null","<p></p>","null","","","","","","","","","","","","","","","","","","",""
"","do_trial","371","1073416","0.0-200.0-0.0","2008.300000011921","","","","50","1,1,0","3","mountain","140","probe-124","0.33888327430263515","0.5536286922875883","0.07187334491315202","1","","","","","","","",""
"","html-keyboard-response","372","1074420","0.0-200.0-1.0","null","<p></p>","null","","","","","","","","","","","","","","","","","","",""
"","do_trial","373","1079320","0.0-201.0-0.0","357.39999997615814","","","","50","0,0,0","3","mountain","141","probe-42","0.251035790223152","0.5517662021662809","0.20121992139055472","0","","","","","","","",""
"","html-keyboard-response","374","1080325","0.0-201.0-1.0","null","<p></p>","null","","","","","","","","","","","","","","","","","","",""
"","do_trial","375","1085323","0.0-202.0-0.0","456.89999997615814","","","","50","0,1,0","3","mountain","142","probe-194","0.3419807847243957","0.5106229942375371","0.09872409689420757","1","","","","","","","",""
"","html-keyboard-response","376","1086327","0.0-202.0-1.0","null","<p></p>","null","","","","","","","","","","","","","","","","","","",""
"","do_trial","377","1091252","0.0-203.0-0.0","383.60000002384186","","","","50","0,1,0","3","mountain","143","probe-96","0.40899834700236554","0.5535716711674451","0.09984569280748935","1","","","","","","","",""
"","html-keyboard-response","378","1092258","0.0-203.0-1.0","null","<p></p>","null","","","","","","","","","","","","","","","","","","",""
"","do_trial","379","1097252","0.0-204.0-0.0","453.39999997615814","","","","50","0,0,0","3","mountain","144","probe-215","0.3395016925480219","0.577493109403971","0.1922829072418343","0","","","","","","","",""
"","html-keyboard-response","380","1098257","0.0-204.0-1.0","null","<p></p>","null","","","","","","","","","","","","","","","","","","",""
"","do_trial","381","1103197","0.0-205.0-0.0","396.69999998807907","","","","50","0,0,0","3","mountain","145","probe-77","0.26924337568801904","0.6782861534451107","0.2778447206036705","0","","","","","","","",""
"","html-keyboard-response","382","1104201","0.0-205.0-1.0","null","<p></p>","null","","","","","","","","","","","","","","","","","","",""
"","do_trial","383","1109455","0.0-206.0-0.0","711.1999999880791","","","","50","0,0,1","3","mountain","146","probe-31","0.3751497470304858","0.49645905813667157","0.05834798186867422","0","","","","","","","",""
"","html-keyboard-response","384","1110459","0.0-206.0-1.0","null","<p></p>","null","","","","","","","","","","","","","","","","","","",""
"","do_trial","385","1115084","0.0-207.0-0.0","82.39999997615814","","","","50","0,1,0","3","mountain","147","probe-13","0.2623107268457386","0.5550218816683523","0.17313365334641387","1","","","","","","","",""
"","html-keyboard-response","386","1116090","0.0-207.0-1.0","null","<p></p>","null","","","","","","","","","","","","","","","","","","",""
"","do_trial","387","1120763","0.0-208.0-0.0","132.19999998807907","","","","50","1,1,0","3","mountain","148","probe-64","0.2878009359472576","0.48736350155217906","0.05494294381673349","1","","","","","","","",""
"","html-keyboard-response","388","1121767","0.0-208.0-1.0","null","<p></p>","null","","","","","","","","","","","","","","","","","","",""
"","do_trial","389","1126638","0.0-209.0-0.0","331.69999998807907","","","","50","0,0,0","3","mountain","149","probe-92","0.2335484979440206","0.4524722813433528","0.30384099572551826","0","","","","","","","",""
"","html-keyboard-response","390","1127642","0.0-209.0-1.0","null","<p></p>","null","","","","","","","","","","","","","","","","","","",""
"","do_bye","391","1129152","0.0-210.0-0.0","null","","","","null","","","","","","","","","","","","","","","","",""
"","do_travel","392","1135154","0.0-211.0-0.0","null","","","","null","","","","","","","","","","","","","","","","",""
"","do_welcome","393","1136661","0.0-211.0-1.0","null","","","","null","","","","","","","","","","","","","","","","",""
"","do_trial","394","1141789","0.0-212.0-0.0","587.1999999880791","","","","50","0,1,0","4","highway","150","probe-72","0.18716165075168437","1","0.2959027752551431","1","","","","","","","",""
"","html-keyboard-response","395","1142794","0.0-212.0-1.0","null","<p></p>","null","","","","","","","","","","","","","","","","","","",""
"","do_trial","396","1147512","0.0-213.0-0.0","175.80000001192093","","","","50","1,1,0","4","highway","151","probe-25","0.1800548701278343","1","0.2150693490315631","1","","","","","","","",""
"","html-keyboard-response","397","1148518","0.0-213.0-1.0","null","<p></p>","null","","","","","","","","","","","","","","","","","","",""
"","do_trial","398","1154065","0.0-214.0-0.0","1005.7999999523163","","","","50","0,1,0","4","highway","152","probe-207","0.24540494515125705","0.9262647619099448","0.27306774409552687","1","","","","","","","",""
"","html-keyboard-response","399","1155069","0.0-214.0-1.0","null","<p></p>","null","","","","","","","","","","","","","","","","","","",""
"","do_trial","400","1160035","0.0-215.0-0.0","425.19999998807907","","","","50","0,1,0","4","highway","153","probe-91","0.24471813054210162","0.9224996061873583","0.17107487113471373","1","","","","","","","",""
"","html-keyboard-response","401","1161039","0.0-215.0-1.0","null","<p></p>","null","","","","","","","","","","","","","","","","","","",""
"","do_trial","402","1165585","0.0-216.0-0.0","0.19999998807907104","","","","50","1,1,0","4","highway","154","probe-82","0.21721001150924604","0.767369697906247","0.06364369257661939","1","","","","","","","",""
"","html-keyboard-response","403","1166589","0.0-216.0-1.0","null","<p></p>","null","","","","","","","","","","","","","","","","","","",""
"","do_trial","404","1173079","0.0-217.0-0.0","1948.300000011921","","","","50","0,1,1","4","highway","155","probe-81","0.3135062218590811","0.587515840157229","0.16756299887244525","1","","","","","","","",""
"","html-keyboard-response","405","1174081","0.0-217.0-1.0","null","<p></p>","null","","","","","","","","","","","","","","","","","","",""
"","do_trial","406","1179082","0.0-218.0-0.0","460.5","","","","50","0,1,0","4","highway","156","probe-36","0.22391993505980348","0.572569331348504","0.17264806175793213","1","","","","","","","",""
"","html-keyboard-response","407","1180086","0.0-218.0-1.0","null","<p></p>","null","","","","","","","","","","","","","","","","","","",""
"","do_trial","408","1185119","0.0-219.0-0.0","492.4000000357628","","","","50","0,1,0","4","highway","157","probe-160","0.16145665110538696","0.7058195214882695","0.15150362396157813","1","","","","","","","",""
"","html-keyboard-response","409","1186123","0.0-219.0-1.0","null","<p></p>","null","","","","","","","","","","","","","","","","","","",""
"","do_trial","410","1190738","0.0-220.0-0.0","73","","","","50","0,1,0","4","highway","158","probe-197","0.07324711766388971","0.6495827387813082","0.15083462893397623","1","","","","","","","",""
"","html-keyboard-response","411","1191743","0.0-220.0-1.0","null","<p></p>","null","","","","","","","","","","","","","","","","","","",""
"","do_trial","412","1196851","0.0-221.0-0.0","564.7999999523163","","","","50","0,1,0","4","highway","159","probe-115","0.09313782969759359","0.5466800675635566","0.10477582874987353","1","","","","","","","",""
"","html-keyboard-response","413","1197855","0.0-221.0-1.0","null","<p></p>","null","","","","","","","","","","","","","","","","","","",""
"","do_trial","414","1203359","0.0-222.0-0.0","962.6999999880791","","","","50","0,0,0","4","highway","160","probe-230","0.18610458796609755","0.4888607524622281","0.10856100400819506","0","","","","","","","",""
"","html-keyboard-response","415","1204363","0.0-222.0-1.0","null","<p></p>","null","","","","","","","","","","","","","","","","","","",""
"","do_trial","416","1209588","0.0-223.0-0.0","681.6999999880791","","","","50","0,1,0","4","highway","161","probe-184","0.2906248032741408","0.4313636539157004","0.2052044291711097","1","","","","","","","",""
"","html-keyboard-response","417","1210592","0.0-223.0-1.0","null","<p></p>","null","","","","","","","","","","","","","","","","","","",""
"","do_trial","418","1215619","0.0-224.0-0.0","483.30000001192093","","","","50","1,0,0","4","highway","162","probe-99","0.3106809338702939","0.2560781208219513","0.4020267714933874","0","","","","","","","",""
"","html-keyboard-response","419","1216623","0.0-224.0-1.0","null","<p></p>","null","","","","","","","","","","","","","","","","","","",""
"","do_trial","420","1221677","0.0-225.0-0.0","510.5","","","","50","1,1,0","4","highway","163","probe-177","0.3473960032552808","0.2515375841866396","0.5196652799258464","1","","","","","","","",""
"","html-keyboard-response","421","1222682","0.0-225.0-1.0","null","<p></p>","null","","","","","","","","","","","","","","","","","","",""
"","do_trial","422","1227868","0.0-226.0-0.0","643.8999999761581","","","","50","0,0,0","4","highway","164","probe-30","0.42151900396144565","0.22230779319672564","0.5700272712535075","0","","","","","","","",""
"","html-keyboard-response","423","1228872","0.0-226.0-1.0","null","<p></p>","null","","","","","","","","","","","","","","","","","","",""
"","do_trial","424","1233853","0.0-227.0-0.0","441.80000001192093","","","","50","0,0,1","4","highway","165","probe-143","0.40192200759614083","0.07800886007478189","0.5163109577133195","0","","","","","","","",""
"","html-keyboard-response","425","1234857","0.0-227.0-1.0","null","<p></p>","null","","","","","","","","","","","","","","","","","","",""
"","do_trial","426","1239836","0.0-228.0-0.0","437.2999999523163","","","","50","0,0,1","4","highway","166","probe-15","0.37396766749802995","0.17047066840053432","0.4460222123983805","0","","","","","","","",""
"","html-keyboard-response","427","1240840","0.0-228.0-1.0","null","<p></p>","null","","","","","","","","","","","","","","","","","","",""
"","do_trial","428","1245377","0.0-229.0-0.0","0","","","","50","0,0,0","4","highway","167","probe-133","0.3260072961231028","0.08740078811981906","0.49921410689741075","0","","","","","","","",""
"","html-keyboard-response","429","1246381","0.0-229.0-1.0","null","<p></p>","null","","","","","","","","","","","","","","","","","","",""
"","do_trial","430","1251377","0.0-230.0-0.0","455.80000001192093","","","","50","1,0,1","4","highway","168","probe-222","0.28834403392374924","0.07814895615986334","0.5439615762193671","0","","","","","","","",""
"","html-keyboard-response","431","1252381","0.0-230.0-1.0","null","<p></p>","null","","","","","","","","","","","","","","","","","","",""
"","do_trial","432","1257007","0.0-231.0-0.0","84.60000002384186","","","","50","0,0,0","4","highway","169","probe-158","0.3923822616107516","0.10486869304330382","0.5520184709121401","0","","","","","","","",""
"","html-keyboard-response","433","1258011","0.0-231.0-1.0","null","<p></p>","null","","","","","","","","","","","","","","","","","","",""
"","do_trial","434","1262822","0.0-232.0-0.0","268.39999997615814","","","","50","1,0,1","4","highway","170","probe-220","0.49331596785557225","0.15858358566387973","0.5525166618568804","0","","","","","","","",""
"","html-keyboard-response","435","1263826","0.0-232.0-1.0","null","<p></p>","null","","","","","","","","","","","","","","","","","","",""
"","do_trial","436","1268876","0.0-233.0-0.0","513.2000000476837","","","","50","1,0,0","4","highway","171","probe-94","0.35138794967748493","0.12021786208218403","0.4865682645043799","0","","","","","","","",""
"","html-keyboard-response","437","1269880","0.0-233.0-1.0","null","<p></p>","null","","","","","","","","","","","","","","","","","","",""
"","do_trial","438","1274971","0.0-234.0-0.0","553.5","","","","50","1,0,0","4","highway","172","probe-75","0.36824501476326477","0.09622920922287201","0.4926700837415883","0","","","","","","","",""
"","html-keyboard-response","439","1275975","0.0-234.0-1.0","null","<p></p>","null","","","","","","","","","","","","","","","","","","",""
"","do_trial","440","1281206","0.0-235.0-0.0","691.8999999761581","","","","50","0,0,0","4","highway","173","probe-149","0.32401133691101963","0.05101481020816795","0.4999300351980329","0","","","","","","","",""
"","html-keyboard-response","441","1282210","0.0-235.0-1.0","null","<p></p>","null","","","","","","","","","","","","","","","","","","",""
"","do_trial","442","1286970","0.0-236.0-0.0","216.80000001192093","","","","50","0,0,0","4","highway","174","probe-06","0.32707108296897536","0.0829626007926753","0.3133994105849661","0","","","","","","","",""
"","html-keyboard-response","443","1287974","0.0-236.0-1.0","null","<p></p>","null","","","","","","","","","","","","","","","","","","",""
"","do_trial","444","1293100","0.0-237.0-0.0","585.5","","","","50","0,0,0","4","highway","175","probe-67","0.27503911602583236","0.13983770077380686","0.4695875497871153","0","","","","","","","",""
"","html-keyboard-response","445","1294104","0.0-237.0-1.0","null","<p></p>","null","","","","","","","","","","","","","","","","","","",""
"","do_trial","446","1298940","0.0-238.0-0.0","294.5","","","","50","1,0,0","4","highway","176","probe-178","0.34529866271312637","0.07935770558926074","0.48931321113714005","0","","","","","","","",""
"","html-keyboard-response","447","1299944","0.0-238.0-1.0","null","<p></p>","null","","","","","","","","","","","","","","","","","","",""
"","do_trial","448","1304576","0.0-239.0-0.0","89.60000002384186","","","","50","0,0,0","4","highway","177","probe-83","0.18021930786623772","0.12151913194890343","0.41701908952873823","0","","","","","","","",""
"","html-keyboard-response","449","1305580","0.0-239.0-1.0","null","<p></p>","null","","","","","","","","","","","","","","","","","","",""
"","do_trial","450","1310708","0.0-240.0-0.0","584.3999999761581","","","","50","0,1,0","4","highway","178","probe-113","0.17472241523866694","0.15357491407650162","0.3955064242507259","1","","","","","","","",""
"","html-keyboard-response","451","1311711","0.0-240.0-1.0","null","<p></p>","null","","","","","","","","","","","","","","","","","","",""
"","do_trial","452","1316830","0.0-241.0-0.0","581.0999999642372","","","","50","0,1,1","4","highway","179","probe-49","0.20113466749750195","0.17070887231033127","0.4766356800611382","1","","","","","","","",""
"","html-keyboard-response","453","1317835","0.0-241.0-1.0","null","<p></p>","null","","","","","","","","","","","","","","","","","","",""
"","do_trial","454","1323077","0.0-242.0-0.0","701.6999999880791","","","","50","0,0,1","4","highway","180","probe-218","0.3466923449635709","0.20581020480577117","0.5619345111990818","0","","","","","","","",""
"","html-keyboard-response","455","1324081","0.0-242.0-1.0","null","<p></p>","null","","","","","","","","","","","","","","","","","","",""
"","do_trial","456","1331564","0.0-243.0-0.0","2944.2999999523163","","","","50","0,0,1","4","highway","181","probe-09","0.2607825923693414","0.15091155702934067","0.5509979550309504","0","","","","","","","",""
"","html-keyboard-response","457","1332568","0.0-243.0-1.0","null","<p></p>","null","","","","","","","","","","","","","","","","","","",""
"","do_trial","458","1337755","0.0-244.0-0.0","647.1000000238419","","","","50","1,0,1","4","highway","182","probe-22","0.2630064013275758","0.19148893830287417","0.5809336033453931","0","","","","","","","",""
"","html-keyboard-response","459","1338757","0.0-244.0-1.0","null","<p></p>","null","","","","","","","","","","","","","","","","","","",""
"","do_trial","460","1344260","0.0-245.0-0.0","964.5","","","","50","0,0,0","4","highway","183","probe-145","0.3622615680568123","0.12005708426190717","0.53898073053434","0","","","","","","","",""
"","html-keyboard-response","461","1345264","0.0-245.0-1.0","null","<p></p>","null","","","","","","","","","","","","","","","","","","",""
"","do_trial","462","1350286","0.0-246.0-0.0","481.19999998807907","","","","50","0,0,0","4","highway","184","probe-11","0.3044899548579779","0.25437968388191967","0.6097737322637622","0","","","","","","","",""
"","html-keyboard-response","463","1351290","0.0-246.0-1.0","null","<p></p>","null","","","","","","","","","","","","","","","","","","",""
"","do_trial","464","1356236","0.0-247.0-0.0","404.19999998807907","","","","50","0,1,1","4","highway","185","probe-174","0.39559328630384755","0.2948075249840762","0.6157121922842871","1","","","","","","","",""
"","html-keyboard-response","465","1357240","0.0-247.0-1.0","null","<p></p>","null","","","","","","","","","","","","","","","","","","",""
"","do_trial","466","1361873","0.0-248.0-0.0","90.19999998807907","","","","50","0,0,0","4","highway","186","probe-28","0.2090662436982499","0.18757067029912122","0.631226422936611","0","","","","","","","",""
"","html-keyboard-response","467","1362877","0.0-248.0-1.0","null","<p></p>","null","","","","","","","","","","","","","","","","","","",""
"","do_trial","468","1367858","0.0-249.0-0.0","438.19999998807907","","","","50","0,0,1","4","highway","187","probe-61","0.19282381783471206","0.1990807931443139","0.6888093764170122","0","","","","","","","",""
"","html-keyboard-response","469","1368862","0.0-249.0-1.0","null","<p></p>","null","","","","","","","","","","","","","","","","","","",""
"","do_trial","470","1373488","0.0-250.0-0.0","88","","","","50","1,0,0","4","highway","188","probe-02","0.14198386198825136","0.08651148675654662","0.52211838312471","0","","","","","","","",""
"","html-keyboard-response","471","1374492","0.0-250.0-1.0","null","<p></p>","null","","","","","","","","","","","","","","","","","","",""
"","do_trial","472","1379404","0.0-251.0-0.0","371.39999997615814","","","","50","0,0,0","4","highway","189","probe-148","0.11241500707296716","0.10687639856277369","0.527382193095314","0","","","","","","","",""
"","html-keyboard-response","473","1380408","0.0-251.0-1.0","null","<p></p>","null","","","","","","","","","","","","","","","","","","",""
"","do_bye","474","1381917","0.0-252.0-0.0","null","","","","null","","","","","","","","","","","","","","","","",""
"","do_travel","475","1387923","0.0-253.0-0.0","null","","","","null","","","","","","","","","","","","","","","","",""
"","do_welcome","476","1389432","0.0-253.0-1.0","null","","","","null","","","","","","","","","","","","","","","","",""
"","do_trial","477","1394213","0.0-254.0-0.0","243.19999998807907","","","","50","0,0,1","5","city","190","probe-46","0.16916947790331918","0.15849821298851463","1","0","","","","","","","",""
"","html-keyboard-response","478","1395217","0.0-254.0-1.0","null","<p></p>","null","","","","","","","","","","","","","","","","","","",""
"","do_trial","479","1400146","0.0-255.0-0.0","390.30000001192093","","","","50","0,0,1","5","city","191","probe-62","0.2788397641157235","0.16074367206169712","1","0","","","","","","","",""
"","html-keyboard-response","480","1401149","0.0-255.0-1.0","null","<p></p>","null","","","","","","","","","","","","","","","","","","",""
"","do_trial","481","1406049","0.0-256.0-0.0","361.69999998807907","","","","50","0,0,1","5","city","192","probe-07","0.25524870750043616","0.07094547311411548","0.8063236893255138","0","","","","","","","",""
"","html-keyboard-response","482","1407056","0.0-256.0-1.0","null","<p></p>","null","","","","","","","","","","","","","","","","","","",""
"","do_trial","483","1411744","0.0-257.0-0.0","150.19999998807907","","","","50","0,0,1","5","city","193","probe-187","0.21653505613294335","0.09600037626356178","0.6992579320042837","0","","","","","","","",""
"","html-keyboard-response","484","1412748","0.0-257.0-1.0","null","<p></p>","null","","","","","","","","","","","","","","","","","","",""
"","do_trial","485","1417544","0.0-258.0-0.0","254.5","","","","50","0,1,0","5","city","194","probe-214","0.2533425104878195","0.14059763583608875","0.5314695766360051","1","","","","","","","",""
"","html-keyboard-response","486","1418548","0.0-258.0-1.0","null","<p></p>","null","","","","","","","","","","","","","","","","","","",""
"","do_trial","487","1423627","0.0-259.0-0.0","536.7000000476837","","","","50","0,0,0","5","city","195","probe-48","0.2637441219207294","0.07630135508670503","0.6130226691754821","0","","","","","","","",""
"","html-keyboard-response","488","1424631","0.0-259.0-1.0","null","<p></p>","null","","","","","","","","","","","","","","","","","","",""
"","do_trial","489","1429694","0.0-260.0-0.0","519.6000000238419","","","","50","0,1,1","5","city","196","probe-14","0.1549109034022584","0.09420197814789934","0.7472132609900121","1","","","","","","","",""
"","html-keyboard-response","490","1430698","0.0-260.0-1.0","null","<p></p>","null","","","","","","","","","","","","","","","","","","",""
"","do_trial","491","1435882","0.0-261.0-0.0","644.3000000119209","","","","50","0,0,0","5","city","197","probe-170","0.23050669106953042","0.1167207614864818","0.6264776573059014","0","","","","","","","",""
"","html-keyboard-response","492","1436886","0.0-261.0-1.0","null","<p></p>","null","","","","","","","","","","","","","","","","","","",""
"","do_trial","493","1442082","0.0-262.0-0.0","655.2000000476837","","","","50","0,0,0","5","city","198","probe-80","0.30143988116279236","0.20589066947490284","0.63568493546543","0","","","","","","","",""
"","html-keyboard-response","494","1443086","0.0-262.0-1.0","null","<p></p>","null","","","","","","","","","","","","","","","","","","",""
"","do_trial","495","1448316","0.0-263.0-0.0","689.6999999880791","","","","50","0,0,1","5","city","199","probe-199","0.38745080705579577","0.15667636389541298","0.6707918390023564","0","","","","","","","",""
"","html-keyboard-response","496","1449321","0.0-263.0-1.0","null","<p></p>","null","","","","","","","","","","","","","","","","","","",""
"","do_trial","497","1454389","0.0-264.0-0.0","528","","","","50","0,0,0","5","city","200","probe-98","0.3751343087025029","0.21506631457301342","0.6338958769209211","0","","","","","","","",""
"","html-keyboard-response","498","1455393","0.0-264.0-1.0","null","<p></p>","null","","","","","","","","","","","","","","","","","","",""
"","do_trial","499","1460368","0.0-265.0-0.0","435.4000000357628","","","","50","1,1,1","5","city","201","probe-204","0.32704405540416287","0.24333993137833326","0.5753358643593035","1","","","","","","","",""
"","html-keyboard-response","500","1461374","0.0-265.0-1.0","null","<p></p>","null","","","","","","","","","","","","","","","","","","",""
"","do_trial","501","1466167","0.0-266.0-0.0","251.39999997615814","","","","50","0,0,0","5","city","202","probe-142","0.3920695414506994","0.6063690025599842","0.32612960337274055","0","","","","","","","",""
"","html-keyboard-response","502","1467171","0.0-266.0-1.0","null","<p></p>","null","","","","","","","","","","","","","","","","","","",""
"","do_trial","503","1472071","0.0-267.0-0.0","360.19999998807907","","","","50","1,1,0","5","city","203","probe-162","0.3989986370587036","0.6214366230540571","0.3696455975963563","1","","","","","","","",""
"","html-keyboard-response","504","1473075","0.0-267.0-1.0","null","<p></p>","null","","","","","","","","","","","","","","","","","","",""
"","do_trial","505","1477951","0.0-268.0-0.0","338","","","","50","0,0,1","5","city","204","probe-168","0.4018036790532961","0.5347133921081563","0.263456379736282","0","","","","","","","",""
"","html-keyboard-response","506","1478956","0.0-268.0-1.0","null","<p></p>","null","","","","","","","","","","","","","","","","","","",""
"","do_trial","507","1483861","0.0-269.0-0.0","363.39999997615814","","","","50","1,0,0","5","city","205","probe-228","0.41637371158646913","0.6730049259180164","0.07300089418987828","0","","","","","","","",""
"","html-keyboard-response","508","1484865","0.0-269.0-1.0","null","<p></p>","null","","","","","","","","","","","","","","","","","","",""
"","do_trial","509","1489770","0.0-270.0-0.0","361.39999997615814","","","","50","1,1,0","5","city","206","probe-205","0.43048542027775055","0.5288617197616305","0.054119113149427196","1","","","","","","","",""
"","html-keyboard-response","510","1490775","0.0-270.0-1.0","null","<p></p>","null","","","","","","","","","","","","","","","","","","",""
"","do_trial","511","1495936","0.0-271.0-0.0","617.8000000119209","","","","50","1,1,0","5","city","207","probe-167","0.4440698632518115","0.5452754964591239","0.08345893014590455","1","","","","","","","",""
"","html-keyboard-response","512","1496940","0.0-271.0-1.0","null","<p></p>","null","","","","","","","","","","","","","","","","","","",""
"","do_trial","513","1502937","0.0-272.0-0.0","1454.300000011921","","","","50","0,1,0","5","city","208","probe-191","0.4533980161279794","0.6721209313948354","0.09287464010116982","1","","","","","","","",""
"","html-keyboard-response","514","1503941","0.0-272.0-1.0","null","<p></p>","null","","","","","","","","","","","","","","","","","","",""
"","do_trial","515","1508980","0.0-273.0-0.0","498.80000001192093","","","","50","0,0,0","5","city","209","probe-171","0.3361100525746182","0.6619013806997459","0.06742645027735625","0","","","","","","","",""
"","html-keyboard-response","516","1509984","0.0-273.0-1.0","null","<p></p>","null","","","","","","","","","","","","","","","","","","",""
"","do_trial","517","1515011","0.0-274.0-0.0","485.30000001192093","","","","50","0,1,0","5","city","210","probe-198","0.3745449733923662","0.5726305833323289","0.05185340159986734","1","","","","","","","",""
"","html-keyboard-response","518","1516015","0.0-274.0-1.0","null","<p></p>","null","","","","","","","","","","","","","","","","","","",""
"","do_trial","519","1520892","0.0-275.0-0.0","336.60000002384186","","","","50","1,1,0","5","city","211","probe-208","0.32284156969396","0.6015424051633474","0.11065186323973804","1","","","","","","","",""
"","html-keyboard-response","520","1521896","0.0-275.0-1.0","null","<p></p>","null","","","","","","","","","","","","","","","","","","",""
"","do_trial","521","1526952","0.0-276.0-0.0","517.4000000357628","","","","50","1,1,0","5","city","212","probe-181","0.18197792999891654","0.5755097873435707","0.15461348579398373","1","","","","","","","",""
"","html-keyboard-response","522","1527956","0.0-276.0-1.0","null","<p></p>","null","","","","","","","","","","","","","","","","","","",""
"","do_trial","523","1533413","0.0-277.0-0.0","913.6000000238419","","","","50","0,0,1","5","city","213","probe-43","0.2221610689708567","0.583076256402746","0.1875496913940229","0","","","","","","","",""
