"success","trial_type","trial_index","time_elapsed","internal_node_id","interactions","blur_events","focus_events","fullscreenenter_events","fullscreenexit_events","rt","stimulus","key_press","subject_id","participant_id","age","gender","prompt","response","choice_outcomes","context_n","context_img_id","trial_n","probe_img_id","pR_red","pR_white","pR_black","outcome","contextArray_ind","validImageProbes","invalidImageProbes","pRew_Red","pRew_White","pRew_Black","availableForMemProbe","choice_blocks"
"true","fullscreen","0","4985","0.0-0.0","""event"",""trial"",""time""
""fullscreenenter"",""0"",""4040""
","
","
","""event"",""trial"",""time""
""fullscreenenter"",""0"",""4040""
","
","","","","","","","","","","","","","","","","","","","","","","","","","",""
"","pavlovia","1","4987","0.0-1.0","""event"",""trial"",""time""
""fullscreenenter"",""0"",""4040""
","
","
","""event"",""trial"",""time""
""fullscreenenter"",""0"",""4040""
","
","","","","","","","","","","","","","","","","","","","","","","","","","",""
"","instruc1","2","50212","0.0-2.0","""event"",""trial"",""time""
""fullscreenenter"",""0"",""4040""
","
","
","""event"",""trial"",""time""
""fullscreenenter"",""0"",""4040""
","
","null","run_exp/static/audio/clip_1_welcome.m4a","null","2113","2144","13","Female","<div class='center'><p>Welcome! This is the first part of the study. It will last ~30 minutes. In part 1 and part 2 of the study, you are the head captain of a pirate ship traveling around the world to different islands. You will play a few different games throughout these two parts. Here is an overview of them:</p><br><p>Part 1 (today)</p><p>1. Instructions, practice game, and quiz</p><p>2. Pick a pirate game on 6 different islands</p><br><p>Part 2 (tomorrow)</p><p>3. Pick a pirate game and memory game</p><p>4. Where did you see this ship? </p></div>","","","","","","","","","","","","","","","","","",""
"","html-keyboard-response","3","50221","0.0-3.0","""event"",""trial"",""time""
""fullscreenenter"",""0"",""4040""
","
","
","""event"",""trial"",""time""
""fullscreenenter"",""0"",""4040""
","
","6.799999713897705","<div class='center'><p>Welcome! This is the first part of the study. It will last ~30 minutes. In part 1 and part 2 of the study, you are the head captain of a pirate ship traveling around the world to different islands. You will play a few different games throughout these two parts. Here is an overview of them:</p><br><p>Part 1 (today)</p><p>1. Instructions, practice game, and quiz</p><p>2. Pick a pirate game on 6 different islands</p><br><p>Part 2 (tomorrow)</p><p>3. Pick a pirate game and memory game</p><p>4. Where did you see this ship? </p><p><b>[Press the space bar to continue]</b></p></div>","32","","","","","","","","","","","","","","","","","","","","","","",""
"","instruc2","4","55534","0.0-4.0","""event"",""trial"",""time""
""fullscreenenter"",""0"",""4040""
","
","
","""event"",""trial"",""time""
""fullscreenenter"",""0"",""4040""
","
","null","run_exp/static/audio/clip_2_different_places.m4a","null","","","","","<div class='center'><p>Today, you’ll visit these 6 islands on your journey. You'll be able to see these islands from your ship.</p><p><img src='run_exp/static/images/contexts/all_contexts.png' height='500'></p></div>","","","","","","","","","","","","","","","","","",""
"","html-keyboard-response","5","67713","0.0-5.0","""event"",""trial"",""time""
""fullscreenenter"",""0"",""4040""
","
","
","""event"",""trial"",""time""
""fullscreenenter"",""0"",""4040""
","
","12178.599999904633","<div class='center'><p>Today, you’ll visit these 6 islands on your journey. You'll be able to see these islands from your ship.</p><p><img src='run_exp/static/images/contexts/all_contexts.png' height='500'></p><p><b>[Press the space bar to continue]</b></p></div>","32","","","","","","","","","","","","","","","","","","","","","","",""
"","instruc3","6","77359","0.0-6.0","""event"",""trial"",""time""
""fullscreenenter"",""0"",""4040""
","
","
","""event"",""trial"",""time""
""fullscreenenter"",""0"",""4040""
","
","null","run_exp/static/audio/clip_3_goal_of_game_1.m4a","null","","","","","<div class='center'><p> The pirates on your ship will rob other ships as they leave the island.</p> These ships have just sold their goods to the islanders, so they will be filled with lots and lots of gold.</p><p><img src='run_exp/static/images/tutorial/ship_center.png' height='400'></p></div>","","","","","","","","","","","","","","","","","",""
"","html-keyboard-response","7","77962","0.0-7.0","""event"",""trial"",""time""
""fullscreenenter"",""0"",""4040""
","
","
","""event"",""trial"",""time""
""fullscreenenter"",""0"",""4040""
","
","601.7000002861023","<div class='center'><p> The pirates on your ship will rob other ships as they leave the island.</p> These ships have just sold their goods to the islanders, so they will be filled with lots and lots of gold.</p><p><img src='run_exp/static/images/tutorial/ship_center.png' height='400'></p><p><b>[Press the space bar to continue]</b></p></div>","32","","","","","","","","","","","","","","","","","","","","","","",""
"","instruc4","8","105945","0.0-8.0","""event"",""trial"",""time""
""fullscreenenter"",""0"",""4040""
","
","
","""event"",""trial"",""time""
""fullscreenenter"",""0"",""4040""
","
","null","run_exp/static/audio/clip_4_goal_of_game_2.m4a","null","","","","","<div class='center'><p>As the head captain, you do not have to rob any ships yourself. Another pirate will be doing the robbing for you. First, you will choose a pirate to rob the next ship.</p><p><img src='run_exp/static/images/tutorial/pirates_all_crop.png' height='200'></p><p>Then, you'll see if the pirate successfully robbed the ship of their gold. If they were successful, then you'll get a stack of gold coins like this:</p><p><img src='run_exp/static/images/tutorial/reward.png' height='150'></p><p> If they were <b>not</b> successful, then you'll get no gold coins, and you'll see a big red x like this: </p><p><img src='run_exp/static/images/tutorial/reward_no.png' height='150'></p><p> How much bonus money you make is based on how many gold coins you collect.</p><div>","","","","","","","","","","","","","","","","","",""
"","html-keyboard-response","9","106643","0.0-9.0","""event"",""trial"",""time""
""fullscreenenter"",""0"",""4040""
","
","
","""event"",""trial"",""time""
""fullscreenenter"",""0"",""4040""
","
","696.2999997138977","<div class='center'><p>As the head captain, you do not have to rob any ships yourself. Another pirate will be doing the robbing for you. First, you will choose a pirate to rob the next ship.</p><p><img src='run_exp/static/images/tutorial/pirates_all_crop.png' height='200'></p><p>Then, you'll see if the pirate successfully robbed the ship of their gold. If they were successful, then you'll get a stack of gold coins like this:</p><p><img src='run_exp/static/images/tutorial/reward.png' height='150'></p><p> If they were <b>not</b> successful, then you'll get no gold coins, and you'll see a big red x like this: </p><p><img src='run_exp/static/images/tutorial/reward_no.png' height='150'></p><p> How much bonus money you make is based on how many gold coins you collect.</p<p><b>[Press the space bar to continue]</b></p></div>","32","","","","","","","","","","","","","","","","","","","","","","",""
"","instruc5","10","128304","0.0-10.0","""event"",""trial"",""time""
""fullscreenenter"",""0"",""4040""
","
","
","""event"",""trial"",""time""
""fullscreenenter"",""0"",""4040""
","
","21659.200000286102","run_exp/static/audio/clip_5_probabilistic.m4a","49","","","","","<div class='center'><p>Even the most skilled pirate can not rob EVERY ship.</p><p> Some ships will have very strong protections against pirate attacks.</p><p> Blue beard, here, is very, very good at robbing ships, but he won't be successful every time he tries to rob one.</p><p> You can press the <b>‘1’</b> key on the keyboard to choose him.</p><p> Try choosing him 10 times to see how often he succeeds at robbing a ship. </p><p><img src='run_exp/static/images/tutorial/blue.png' height='500'></p></div>","","","","","","","","","","","","","","","","","",""
"","html-keyboard-response","11","129821","0.0-11.0","""event"",""trial"",""time""
""fullscreenenter"",""0"",""4040""
","
","
","""event"",""trial"",""time""
""fullscreenenter"",""0"",""4040""
","
","null","<div class='center'><p><img src='run_exp/static/images/tutorial/blue_win.png' height='500'></p></div>","null","","","","","","","","","","","","","","","","","","","","","","",""
"","html-keyboard-response","12","129888","0.0-12.0","""event"",""trial"",""time""
""fullscreenenter"",""0"",""4040""
","
","
","""event"",""trial"",""time""
""fullscreenenter"",""0"",""4040""
","
","65.90000009536743","<div class='center'><img src='run_exp/static/images/tutorial/blue.png' height='500'></p></div>","49","","","","","","","","","","","","","","","","","","","","","","",""
"","html-keyboard-response","13","131393","0.0-13.0","""event"",""trial"",""time""
""fullscreenenter"",""0"",""4040""
","
","
","""event"",""trial"",""time""
""fullscreenenter"",""0"",""4040""
","
","null","<div class='center'><p><img src='run_exp/static/images/tutorial/blue_win.png' height='500'></p></div>","null","","","","","","","","","","","","","","","","","","","","","","",""
"","html-keyboard-response","14","134786","0.0-14.0","""event"",""trial"",""time""
""fullscreenenter"",""0"",""4040""
","
","
","""event"",""trial"",""time""
""fullscreenenter"",""0"",""4040""
","
","3392","<div class='center'><img src='run_exp/static/images/tutorial/blue.png' height='500'></p></div>","49","","","","","","","","","","","","","","","","","","","","","","",""
"","html-keyboard-response","15","136293","0.0-15.0","""event"",""trial"",""time""
""fullscreenenter"",""0"",""4040""
","
","
","""event"",""trial"",""time""
""fullscreenenter"",""0"",""4040""
","
","null","<div class='center'><p><img src='run_exp/static/images/tutorial/blue_win.png' height='500'></p></div>","null","","","","","","","","","","","","","","","","","","","","","","",""
"","html-keyboard-response","16","137089","0.0-16.0","""event"",""trial"",""time""
""fullscreenenter"",""0"",""4040""
","
","
","""event"",""trial"",""time""
""fullscreenenter"",""0"",""4040""
","
","795","<div class='center'><img src='run_exp/static/images/tutorial/blue.png' height='500'></p></div>","49","","","","","","","","","","","","","","","","","","","","","","",""
"","html-keyboard-response","17","138596","0.0-17.0","""event"",""trial"",""time""
""fullscreenenter"",""0"",""4040""
","
","
","""event"",""trial"",""time""
""fullscreenenter"",""0"",""4040""
","
","null","<div class='center'><p><img src='run_exp/static/images/tutorial/blue_no_win.png' height='500'></p></div>","null","","","","","","","","","","","","","","","","","","","","","","",""
"","html-keyboard-response","18","139245","0.0-18.0","""event"",""trial"",""time""
""fullscreenenter"",""0"",""4040""
","
","
","""event"",""trial"",""time""
""fullscreenenter"",""0"",""4040""
","
","647.9000000953674","<div class='center'><img src='run_exp/static/images/tutorial/blue.png' height='500'></p></div>","49","","","","","","","","","","","","","","","","","","","","","","",""
"","html-keyboard-response","19","140753","0.0-19.0","""event"",""trial"",""time""
""fullscreenenter"",""0"",""4040""
","
","
","""event"",""trial"",""time""
""fullscreenenter"",""0"",""4040""
","
","null","<div class='center'><p><img src='run_exp/static/images/tutorial/blue_win.png' height='500'></p></div>","null","","","","","","","","","","","","","","","","","","","","","","",""
"","html-keyboard-response","20","141484","0.0-20.0","""event"",""trial"",""time""
""fullscreenenter"",""0"",""4040""
","
","
","""event"",""trial"",""time""
""fullscreenenter"",""0"",""4040""
","
","729.8999996185303","<div class='center'><img src='run_exp/static/images/tutorial/blue.png' height='500'></p></div>","49","","","","","","","","","","","","","","","","","","","","","","",""
"","html-keyboard-response","21","142991","0.0-21.0","""event"",""trial"",""time""
""fullscreenenter"",""0"",""4040""
","
","
","""event"",""trial"",""time""
""fullscreenenter"",""0"",""4040""
","
","null","<div class='center'><p><img src='run_exp/static/images/tutorial/blue_win.png' height='500'></p></div>","null","","","","","","","","","","","","","","","","","","","","","","",""
"","html-keyboard-response","22","144625","0.0-22.0","""event"",""trial"",""time""
""fullscreenenter"",""0"",""4040""
","
","
","""event"",""trial"",""time""
""fullscreenenter"",""0"",""4040""
","
","1632.9000000953674","<div class='center'><img src='run_exp/static/images/tutorial/blue.png' height='500'></p></div>","49","","","","","","","","","","","","","","","","","","","","","","",""
"","html-keyboard-response","23","146133","0.0-23.0","""event"",""trial"",""time""
""fullscreenenter"",""0"",""4040""
","
","
","""event"",""trial"",""time""
""fullscreenenter"",""0"",""4040""
","
","null","<div class='center'><p><img src='run_exp/static/images/tutorial/blue_win.png' height='500'></p></div>","null","","","","","","","","","","","","","","","","","","","","","","",""
"","html-keyboard-response","24","148114","0.0-24.0","""event"",""trial"",""time""
""fullscreenenter"",""0"",""4040""
","
","
","""event"",""trial"",""time""
""fullscreenenter"",""0"",""4040""
","
","1980.0999999046326","<div class='center'><img src='run_exp/static/images/tutorial/blue.png' height='500'></p></div>","49","","","","","","","","","","","","","","","","","","","","","","",""
"","html-keyboard-response","25","149620","0.0-25.0","""event"",""trial"",""time""
""fullscreenenter"",""0"",""4040""
","
","
","""event"",""trial"",""time""
""fullscreenenter"",""0"",""4040""
","
","null","<div class='center'><p><img src='run_exp/static/images/tutorial/blue_no_win.png' height='500'></p></div>","null","","","","","","","","","","","","","","","","","","","","","","",""
"","html-keyboard-response","26","150305","0.0-26.0","""event"",""trial"",""time""
""fullscreenenter"",""0"",""4040""
","
","
","""event"",""trial"",""time""
""fullscreenenter"",""0"",""4040""
","
","684.3000001907349","<div class='center'><img src='run_exp/static/images/tutorial/blue.png' height='500'></p></div>","49","","","","","","","","","","","","","","","","","","","","","","",""
"","html-keyboard-response","27","151821","0.0-27.0","""event"",""trial"",""time""
""fullscreenenter"",""0"",""4040""
","
","
","""event"",""trial"",""time""
""fullscreenenter"",""0"",""4040""
","
","null","<div class='center'><p><img src='run_exp/static/images/tutorial/blue_win.png' height='500'></p></div>","null","","","","","","","","","","","","","","","","","","","","","","",""
"","html-keyboard-response","28","152560","0.0-28.0","""event"",""trial"",""time""
""fullscreenenter"",""0"",""4040""
","
","
","""event"",""trial"",""time""
""fullscreenenter"",""0"",""4040""
","
","738.0999999046326","<div class='center'><img src='run_exp/static/images/tutorial/blue.png' height='500'></p></div>","49","","","","","","","","","","","","","","","","","","","","","","",""
"","html-keyboard-response","29","154063","0.0-29.0","""event"",""trial"",""time""
""fullscreenenter"",""0"",""4040""
","
","
","""event"",""trial"",""time""
""fullscreenenter"",""0"",""4040""
","
","null","<div class='center'><p><img src='run_exp/static/images/tutorial/blue_win.png' height='500'></p></div>","null","","","","","","","","","","","","","","","","","","","","","","",""
"","instruc6","30","159659","0.0-30.0","""event"",""trial"",""time""
""fullscreenenter"",""0"",""4040""
","
","
","""event"",""trial"",""time""
""fullscreenenter"",""0"",""4040""
","
","null","run_exp/static/audio/clip_6_blue_beard_outcome.m4a","null","","","","","<div class='center'><p> See, he succeeded in robbing the ships most of the time but not every time. </p></div>","","","","","","","","","","","","","","","","","",""
"","html-keyboard-response","31","160825","0.0-31.0","""event"",""trial"",""time""
""fullscreenenter"",""0"",""4040""
","
","
","""event"",""trial"",""time""
""fullscreenenter"",""0"",""4040""
","
","1165.7999997138977","<div class='center'><p> See, he succeeded in robbing the ships most of the time but not every time. </p><p><b>[Press the space bar to continue]</b></p></div>","32","","","","","","","","","","","","","","","","","","","","","","",""
"","audio-keyboard-response","32","177530","0.0-32.0","""event"",""trial"",""time""
""fullscreenenter"",""0"",""4040""
","
","
","""event"",""trial"",""time""
""fullscreenenter"",""0"",""4040""
","
","16703.400000095367","run_exp/static/audio/clip_7_pick_pirate.m4a","50","","","","","","","","","","","","","","","","","","","","","","",""
"","audio-keyboard-response","33","182308","0.0-33.0-0.0","""event"",""trial"",""time""
""fullscreenenter"",""0"",""4040""
","
","
","""event"",""trial"",""time""
""fullscreenenter"",""0"",""4040""
","
","4776.800000190735","run_exp/static/audio/clip_8_chosen_pirate_win.m4a","32","","","","","","","","","","","","","","","","","","","","","","",""
"","audio-keyboard-response","34","184935","0.0-33.0-1.0","""event"",""trial"",""time""
""fullscreenenter"",""0"",""4040""
","
","
","""event"",""trial"",""time""
""fullscreenenter"",""0"",""4040""
","
","2626.300000190735","run_exp/static/audio/clip_9_pick_a_pirate_again.m4a","49","","","","","","","","","","","","","","","","","","","","","","",""
"","audio-keyboard-response","35","189339","0.0-34.0-0.0","""event"",""trial"",""time""
""fullscreenenter"",""0"",""4040""
","
","
","""event"",""trial"",""time""
""fullscreenenter"",""0"",""4040""
","
","4402.699999809265","run_exp/static/audio/clip_10_chosen_pirate_loss.m4a","32","","","","","","","","","","","","","","","","","","","","","","",""
"","instruc9","36","194817","0.0-35.0-0.0","""event"",""trial"",""time""
""fullscreenenter"",""0"",""4040""
","
","
","""event"",""trial"",""time""
""fullscreenenter"",""0"",""4040""
","
","null","run_exp/static/audio/clip_11_time_out.m4a","null","","","","","<div class='center'><p>If you don’t make your choice fast enough, you’ll have to wait a few seconds before you can make another one. </p><p><img src='run_exp/static/images/miscellaneous/hurry_up.png' height='500'></p></div>","","","","","","","","","","","","","","","","","",""
"","html-keyboard-response","37","195586","0.0-35.0-1.0","""event"",""trial"",""time""
""fullscreenenter"",""0"",""4040""
","
","
","""event"",""trial"",""time""
""fullscreenenter"",""0"",""4040""
","
","767.4000000953674","<div class='center'><p>If you don’t make your choice fast enough, you’ll have to wait a few seconds before you can make another one. </p><p><img src='run_exp/static/images/miscellaneous/hurry_up.png' height='500'></p><p><b>[Press the space bar to continue]</b></p></div>","32","","","","","","","","","","","","","","","","","","","","","","",""
"","instruc10","38","234667","0.0-35.0-2.0","""event"",""trial"",""time""
""fullscreenenter"",""0"",""4040""
","
","
","""event"",""trial"",""time""
""fullscreenenter"",""0"",""4040""
","
","null","run_exp/static/audio/clip_12_probe.m4a","null","","","","","<div class='center'><p>Once you've chosen a pirate, you’ll be shown the ship they are robbing. You will never rob the same ship twice. Ships can be told apart from one another by the image on them. These are the goods that they sell. See, this ship has a travel mug on it. </p><p> You’ll have to remember which island you saw each ship on. You will win more gold coins and hence more bonus money if you remember correctly! To help you remember, you can imagine a story. For example, here, you could imagine a mug full of water in the desert. Or, as another example, if on the forest island, your pirate robbed a ship with an apple on it, you could imagine an apple falling from a tree in the forest. </p><p><img src='run_exp/static/images/tutorial/example_probe.png' height='500'></p></div>","","","","","","","","","","","","","","","","","",""
"","html-keyboard-response","39","255145","0.0-35.0-3.0","""event"",""trial"",""time""
""fullscreenenter"",""0"",""4040""
","
","
","""event"",""trial"",""time""
""fullscreenenter"",""0"",""4040""
","
","20476.900000095367","<div class='center'><p>Once you've chosen a pirate, you’ll be shown the ship they are robbing. You will never rob the same ship twice. Ships can be told apart from one another by the image on them. These are the goods that they sell. See, this ship has a travel mug on it. </p><p> You’ll have to remember which island you saw each ship on. You will win more gold coins and hence more bonus money if you remember correctly! To help you remember, you can imagine a story. For example, here, you could imagine a mug full of water in the desert. Or, as another example, if on the forest island, your pirate robbed a ship with an apple on it, you could imagine an apple falling from a tree in the forest. </p><p><img src='run_exp/static/images/tutorial/example_probe.png' height='500'></p><p><b>[Press the space bar to continue]</b></p></div>","32","","","","","","","","","","","","","","","","","","","","","","",""
"","instruc11","40","271683","0.0-35.0-4.0","""event"",""trial"",""time""
""fullscreenenter"",""0"",""4040""
","
","
","""event"",""trial"",""time""
""fullscreenenter"",""0"",""4040""
","
","null","run_exp/static/audio/clip_13_changepoint.m4a","null","","","","","<div class='center'><p>How successful a pirate is at robbing ships will depend on the island you’re on.</p><p> A pirate may have visited this island many times before and gained a lot of practice robbing ships there.</p><p>So, they’re more likely to be successful than a pirate who has never visited the island before.</p></div>","","","","","","","","","","","","","","","","","",""
"","html-keyboard-response","41","272325","0.0-35.0-5.0","""event"",""trial"",""time""
""fullscreenenter"",""0"",""4040""
","
","
","""event"",""trial"",""time""
""fullscreenenter"",""0"",""4040""
","
","641.1000003814697","<div class='center'><p>How successful a pirate is at robbing ships will depend on the island you’re on.</p><p> A pirate may have visited this island many times before and gained a lot of practice robbing ships there.</p><p>So, they’re more likely to be successful than a pirate who has never visited the island before.</p><p><b>[Press the space bar to continue]</b></p></div>","32","","","","","","","","","","","","","","","","","","","","","","",""
"","instruc12","42","313410","0.0-35.0-6.0","""event"",""trial"",""time""
""fullscreenenter"",""0"",""4040""
","
","
","""event"",""trial"",""time""
""fullscreenenter"",""0"",""4040""
","
","null","run_exp/static/audio/clip_14_drift.m4a","null","","","","","<div class='center'><p>How successful a pirate is at robbing ships can also change over the time spent on the island. </p><p> Ships may hear from islanders about the pirates coming and will improve their protections against the attack. This may make it harder to rob them.</p><p> Ships may also become lazy and weaken the strength of their protections. This may make it easier to rob them.</p><br><p>Things are always changing on the high seas! So, try your best to pay attention!</p><p><img src='run_exp/static/images/tutorial/contingency.png' height='500'></p></div>","","","","","","","","","","","","","","","","","",""
"","html-keyboard-response","43","327251","0.0-35.0-7.0","""event"",""trial"",""time""
""fullscreenenter"",""0"",""4040""
","
","
","""event"",""trial"",""time""
""fullscreenenter"",""0"",""4040""
","
","13839.599999904633","<div class='center'><p>How successful a pirate is at robbing ships can also change over the time spent on the island. </p><p> Ships may hear from islanders about the pirates coming and will improve their protections against the attack. This may make it harder to rob them.</p><p> Ships may also become lazy and weaken the strength of their protections. This may make it easier to rob them.</p><br><p>Things are always changing on the high seas! So, try your best to pay attention!</p><p><img src='run_exp/static/images/tutorial/contingency.png' height='500'></p><p><b>[Press the space bar to continue]</b></p></div>","32","","","","","","","","","","","","","","","","","","","","","","",""
"","instruc13","44","362486","0.0-35.0-8.0","""event"",""trial"",""time""
""fullscreenenter"",""0"",""4040""
","
","
","""event"",""trial"",""time""
""fullscreenenter"",""0"",""4040""
","
","null","run_exp/static/audio/clip_15_summary.m4a","null","","","","","<div class='center'><p>Let's go over the instructions quickly again. You have two important things to do: </p><b><p> 1. Pick the pirate who is the best at robbing ships on the current island. </p></b><b><p> 2. Remember on which island a ship was robbed.</p> </b><p>The amount of bonus money you can win depends on both.</p><p><br><p>Let’s try a practice game. The game will start by showing you the pirates. First, pick a pirate using the <b> 1, 2, 3 </b> keys on your keyboard. When you are shown a ship, try to remember which island you’re on by making up a story.</p><p>This is just a practice game, so you’re not playing for money. </p><p> Good luck! This game will be very difficult but try your best!</p></div>","","","","","","","","","","","","","","","","","",""
"","html-keyboard-response","45","363421","0.0-35.0-9.0","""event"",""trial"",""time""
""fullscreenenter"",""0"",""4040""
","
","
","""event"",""trial"",""time""
""fullscreenenter"",""0"",""4040""
","
","934.3000001907349","<div class='center'><p>Let's go over the instructions quickly again. You have two important things to do: </p><b><p> 1. Pick the pirate who is the best at robbing ships on the current island. </p></b><b><p> 2. Remember on which island a ship was robbed.</p> </b><p>The amount of bonus money you can win depends on both.</p><p><br><p>Let’s try a practice game. The game will start by showing you the pirates. First, pick a pirate using the <b> 1, 2, 3 </b> keys on your keyboard. When you are shown a ship, try to remember which island you’re on by making up a story.</p><p>This is just a practice game, so you’re not playing for money. </p><p> Good luck! This game will be very difficult but try your best!</p><p><b>[Press the space bar to continue]</b></p></div>","32","","","","","","","","","","","","","","","","","","","","","","",""
"","do_welcome","46","367443","0.0-35.0-10.0","""event"",""trial"",""time""
""fullscreenenter"",""0"",""4040""
","
","
","""event"",""trial"",""time""
""fullscreenenter"",""0"",""4040""
","
","null","","","","","","","","null","","","","","","","","","","","","","","","","",""
"","do_trial","47","373461","0.0-35.0-11.0","""event"",""trial"",""time""
""fullscreenenter"",""0"",""4040""
","
","
","""event"",""trial"",""time""
""fullscreenenter"",""0"",""4040""
","
","null","","","","","","","","null","1,0,0","","","","","","","","","","","","","","","",""
"","html-keyboard-response","48","374462","0.0-36.0-0.0","""event"",""trial"",""time""
""fullscreenenter"",""0"",""4040""
","
","
","""event"",""trial"",""time""
""fullscreenenter"",""0"",""4040""
","
","null","<p></p>","null","","","","","","","","","","","","","","","","","","","","","","",""
"","do_trial","49","380468","0.0-36.0-1.0","""event"",""trial"",""time""
""fullscreenenter"",""0"",""4040""
","
","
","""event"",""trial"",""time""
""fullscreenenter"",""0"",""4040""
","
","null","","","","","","","","null","1,0,0","","","","","","","","","","","","","","","",""
"","html-keyboard-response","50","381470","0.0-37.0-0.0","""event"",""trial"",""time""
""fullscreenenter"",""0"",""4040""
","
","
","""event"",""trial"",""time""
""fullscreenenter"",""0"",""4040""
","
","null","<p></p>","null","","","","","","","","","","","","","","","","","","","","","","",""
"","do_trial","51","386627","0.0-37.0-1.0","""event"",""trial"",""time""
""fullscreenenter"",""0"",""4040""
","
","
","""event"",""trial"",""time""
""fullscreenenter"",""0"",""4040""
","
","652.6000003814697","","","","","","","","50","1,0,0","","","","","","","","","","","","","","","",""
"","html-keyboard-response","52","387642","0.0-38.0-0.0","""event"",""trial"",""time""
""fullscreenenter"",""0"",""4040""
","
","
","""event"",""trial"",""time""
""fullscreenenter"",""0"",""4040""
","
","null","<p></p>","null","","","","","","","","","","","","","","","","","","","","","","",""
"","do_trial","53","393253","0.0-38.0-1.0","""event"",""trial"",""time""
""fullscreenenter"",""0"",""4040""
","
","
","""event"",""trial"",""time""
""fullscreenenter"",""0"",""4040""
","
","1098.6999998092651","","","","","","","","51","1,1,0","","","","","","","","","","","","","","","",""
"","html-keyboard-response","54","394254","0.0-39.0-0.0","""event"",""trial"",""time""
""fullscreenenter"",""0"",""4040""
","
","
","""event"",""trial"",""time""
""fullscreenenter"",""0"",""4040""
","
","null","<p></p>","null","","","","","","","","","","","","","","","","","","","","","","",""
"","do_trial","55","399674","0.0-39.0-1.0","""event"",""trial"",""time""
""fullscreenenter"",""0"",""4040""
","
","
","""event"",""trial"",""time""
""fullscreenenter"",""0"",""4040""
","
","916.0999999046326","","","","","","","","49","1,0,1","","","","","","","","","","","","","","","",""
"","html-keyboard-response","56","400675","0.0-40.0-0.0","""event"",""trial"",""time""
""fullscreenenter"",""0"",""4040""
","
","
","""event"",""trial"",""time""
""fullscreenenter"",""0"",""4040""
","
","null","<p></p>","null","","","","","","","","","","","","","","","","","","","","","","",""
"","do_trial","57","406125","0.0-40.0-1.0","""event"",""trial"",""time""
""fullscreenenter"",""0"",""4040""
","
","
","""event"",""trial"",""time""
""fullscreenenter"",""0"",""4040""
","
","941.5","","","","","","","","49","0,1,0","","","","","","","","","","","","","","","",""
"","html-keyboard-response","58","407136","0.0-41.0-0.0","""event"",""trial"",""time""
""fullscreenenter"",""0"",""4040""
","
","
","""event"",""trial"",""time""
""fullscreenenter"",""0"",""4040""
","
","null","<p></p>","null","","","","","","","","","","","","","","","","","","","","","","",""
"","do_trial","59","411942","0.0-41.0-1.0","""event"",""trial"",""time""
""fullscreenenter"",""0"",""4040""
","
","
","""event"",""trial"",""time""
""fullscreenenter"",""0"",""4040""
","
","303.80000019073486","","","","","","","","50","1,0,0","","","","","","","","","","","","","","","",""
"","do_bye","60","413465","0.0-42.0-0.0","""event"",""trial"",""time""
""fullscreenenter"",""0"",""4040""
","
","
","""event"",""trial"",""time""
""fullscreenenter"",""0"",""4040""
","
","null","","","","","","","","null","","","","","","","","","","","","","","","","",""
"","do_travel","61","422467","0.0-42.0-1.0","""event"",""trial"",""time""
""fullscreenenter"",""0"",""4040""
","
","
","""event"",""trial"",""time""
""fullscreenenter"",""0"",""4040""
","
","null","","","","","","","","null","","","","","","","","","","","","","","","","",""
"","do_welcome","62","426471","0.0-42.0-2.0","""event"",""trial"",""time""
""fullscreenenter"",""0"",""4040""
","
","
","""event"",""trial"",""time""
""fullscreenenter"",""0"",""4040""
","
","null","","","","","","","","null","","","","","","","","","","","","","","","","",""
"","do_trial","63","431589","0.0-42.0-3.0","""event"",""trial"",""time""
""fullscreenenter"",""0"",""4040""
","
","
","""event"",""trial"",""time""
""fullscreenenter"",""0"",""4040""
","
","612.2000002861023","","","","","","","","49","1,0,0","","","","","","","","","","","","","","","",""
"","html-keyboard-response","64","432598","0.0-43.0-0.0","""event"",""trial"",""time""
""fullscreenenter"",""0"",""4040""
","
","
","""event"",""trial"",""time""
""fullscreenenter"",""0"",""4040""
","
","null","<p></p>","null","","","","","","","","","","","","","","","","","","","","","","",""
"","do_trial","65","437630","0.0-43.0-1.0","""event"",""trial"",""time""
""fullscreenenter"",""0"",""4040""
","
","
","""event"",""trial"",""time""
""fullscreenenter"",""0"",""4040""
","
","526.5999999046326","","","","","","","","50","1,0,1","","","","","","","","","","","","","","","",""
"","html-keyboard-response","66","438634","0.0-44.0-0.0","""event"",""trial"",""time""
""fullscreenenter"",""0"",""4040""
","
","
","""event"",""trial"",""time""
""fullscreenenter"",""0"",""4040""
","
","null","<p></p>","null","","","","","","","","","","","","","","","","","","","","","","",""
"","do_trial","67","443600","0.0-44.0-1.0","""event"",""trial"",""time""
""fullscreenenter"",""0"",""4040""
","
","
","""event"",""trial"",""time""
""fullscreenenter"",""0"",""4040""
","
","459.90000009536743","","","","","","","","49","1,1,0","","","","","","","","","","","","","","","",""
"","html-keyboard-response","68","444615","0.0-45.0-0.0","""event"",""trial"",""time""
""fullscreenenter"",""0"",""4040""
","
","
","""event"",""trial"",""time""
""fullscreenenter"",""0"",""4040""
","
","null","<p></p>","null","","","","","","","","","","","","","","","","","","","","","","",""
"","do_trial","69","450014","0.0-45.0-1.0","""event"",""trial"",""time""
""fullscreenenter"",""0"",""4040""
","
","
","""event"",""trial"",""time""
""fullscreenenter"",""0"",""4040""
","
","886.0999999046326","","","","","","","","51","0,0,1","","","","","","","","","","","","","","","",""
"","html-keyboard-response","70","451017","0.0-46.0-0.0","""event"",""trial"",""time""
""fullscreenenter"",""0"",""4040""
","
","
","""event"",""trial"",""time""
""fullscreenenter"",""0"",""4040""
","
","null","<p></p>","null","","","","","","","","","","","","","","","","","","","","","","",""
"","do_trial","71","455998","0.0-46.0-1.0","""event"",""trial"",""time""
""fullscreenenter"",""0"",""4040""
","
","
","""event"",""trial"",""time""
""fullscreenenter"",""0"",""4040""
","
","470","","","","","","","","49","1,0,1","","","","","","","","","","","","","","","",""
"","html-keyboard-response","72","459126","0.0-47.0-0.0","""event"",""trial"",""time""
""fullscreenenter"",""0"",""4040""
","
","
","""event"",""trial"",""time""
""fullscreenenter"",""0"",""4040""
","
","3126.5","<div class='center'><p><img src='run_exp/static/images/tutorial/prac_best_pirate.png'  height='500'></p></div>","49","","","","","","","","","","","","","","","","","","","","","","",""
"","html-keyboard-response","73","461225","0.0-48.0-0.0","""event"",""trial"",""time""
""fullscreenenter"",""0"",""4040""
","
","
","""event"",""trial"",""time""
""fullscreenenter"",""0"",""4040""
","
","2098.2000002861023","<div class='center'><p>That's correct! Red beard was the best.</p><p><b>[Press the space bar to continue]</b></p></div>","32","","","","","","","","","","","","","","","","","","","","","","",""
"","html-keyboard-response","74","464512","0.0-48.0-1.0","""event"",""trial"",""time""
""fullscreenenter"",""0"",""4040""
","
","
","""event"",""trial"",""time""
""fullscreenenter"",""0"",""4040""
","
","3286","<div class='center'><p><img src='run_exp/static/images/tutorial/prac_source.png'  height='500'></p></div>","50","","","","","","","","","","","","","","","","","","","","","","",""
"","html-keyboard-response","75","465526","0.0-49.0-0.0","""event"",""trial"",""time""
""fullscreenenter"",""0"",""4040""
","
","
","""event"",""trial"",""time""
""fullscreenenter"",""0"",""4040""
","
","1013","<div class='center'><p>That's correct! You saw this ship on the cavern island.</p><p><b>[Press the space bar to continue]</b></p></div>","32","","","","","","","","","","","","","","","","","","","","","","",""
"","quiz_beginning","76","476724","0.0-49.0-1.0","""event"",""trial"",""time""
""fullscreenenter"",""0"",""4040""
","
","
","""event"",""trial"",""time""
""fullscreenenter"",""0"",""4040""
","
","null","run_exp/static/audio/clip_16_quiz_intro.m4a","null","","","","","<div class='center'><p>Good job on the practice game! Now, you will be asked some true or false questions to make sure you really understand the rules of the game.</p><p> Press <b>'1'</b> on the keyboard for true and press <b>'2'</b> for false.</p></div>","","","","","","","","","","","","","","","","","",""
"","audio-keyboard-response","77","479687","0.0-49.0-2.0","""event"",""trial"",""time""
""fullscreenenter"",""0"",""4040""
","
","
","""event"",""trial"",""time""
""fullscreenenter"",""0"",""4040""
","
","2962.300000190735","run_exp/static/audio/clip_17_q1.m4a","49","","","","","","","","","","","","","","","","","","","","","","",""
"","correct","78","482101","0.0-50.0-0.0","""event"",""trial"",""time""
""fullscreenenter"",""0"",""4040""
","
","
","""event"",""trial"",""time""
""fullscreenenter"",""0"",""4040""
","
","null","run_exp/static/audio/clip_18_correct.m4a","null","","","","","<div class='center'><p>That's correct!</p></div>","","","","","","","","","","","","","","","","","",""
"","html-keyboard-response","79","483435","0.0-50.0-1.0","""event"",""trial"",""time""
""fullscreenenter"",""0"",""4040""
","
","
","""event"",""trial"",""time""
""fullscreenenter"",""0"",""4040""
","
","1333.9000000953674","<div class='center'><p>That's correct!</p><p><b>[Press the space bar to continue]</b></p></div>","32","","","","","","","","","","","","","","","","","","","","","","",""
"","audio-keyboard-response","80","487814","0.0-50.0-2.0","""event"",""trial"",""time""
""fullscreenenter"",""0"",""4040""
","
","
","""event"",""trial"",""time""
""fullscreenenter"",""0"",""4040""
","
","4377.800000190735","run_exp/static/audio/clip_20_q2.m4a","50","","","","","","","","","","","","","","","","","","","","","","",""
"","correct","81","490207","0.0-51.0-0.0","""event"",""trial"",""time""
""fullscreenenter"",""0"",""4040""
","
","
","""event"",""trial"",""time""
""fullscreenenter"",""0"",""4040""
","
","null","run_exp/static/audio/clip_18_correct.m4a","null","","","","","<div class='center'><p>That's correct!</p></div>","","","","","","","","","","","","","","","","","",""
"","html-keyboard-response","82","490927","0.0-51.0-1.0","""event"",""trial"",""time""
""fullscreenenter"",""0"",""4040""
","
","
","""event"",""trial"",""time""
""fullscreenenter"",""0"",""4040""
","
","719.6999998092651","<div class='center'><p>That's correct!</p><p><b>[Press the space bar to continue]</b></p></div>","32","","","","","","","","","","","","","","","","","","","","","","",""
"","audio-keyboard-response","83","497780","0.0-51.0-2.0","""event"",""trial"",""time""
""fullscreenenter"",""0"",""4040""
","
","
","""event"",""trial"",""time""
""fullscreenenter"",""0"",""4040""
","
","6852.199999809265","run_exp/static/audio/clip_22_q3.m4a","50","","","","","","","","","","","","","","","","","","","","","","",""
"","correct","84","500191","0.0-52.0-0.0","""event"",""trial"",""time""
""fullscreenenter"",""0"",""4040""
","
","
","""event"",""trial"",""time""
""fullscreenenter"",""0"",""4040""
","
","null","run_exp/static/audio/clip_18_correct.m4a","null","","","","","<div class='center'><p>That's correct!</p></div>","","","","","","","","","","","","","","","","","",""
"","html-keyboard-response","85","500821","0.0-52.0-1.0","""event"",""trial"",""time""
""fullscreenenter"",""0"",""4040""
","
","
","""event"",""trial"",""time""
""fullscreenenter"",""0"",""4040""
","
","629.5","<div class='center'><p>That's correct!</p><p><b>[Press the space bar to continue]</b></p></div>","32","","","","","","","","","","","","","","","","","","","","","","",""
"","audio-keyboard-response","86","505467","0.0-52.0-2.0","""event"",""trial"",""time""
""fullscreenenter"",""0"",""4040""
","
","
","""event"",""trial"",""time""
""fullscreenenter"",""0"",""4040""
","
","4644.199999809265","run_exp/static/audio/clip_24_q4.m4a","49","","","","","","","","","","","","","","","","","","","","","","",""
"","correct","87","507893","0.0-53.0-0.0","""event"",""trial"",""time""
""fullscreenenter"",""0"",""4040""
","
","
","""event"",""trial"",""time""
""fullscreenenter"",""0"",""4040""
","
","null","run_exp/static/audio/clip_18_correct.m4a","null","","","","","<div class='center'><p>That's correct!</p></div>","","","","","","","","","","","","","","","","","",""
"","html-keyboard-response","88","508576","0.0-53.0-1.0","""event"",""trial"",""time""
""fullscreenenter"",""0"",""4040""
","
","
","""event"",""trial"",""time""
""fullscreenenter"",""0"",""4040""
","
","681.5999999046326","<div class='center'><p>That's correct!</p><p><b>[Press the space bar to continue]</b></p></div>","32","","","","","","","","","","","","","","","","","","","","","","",""
"","q_all_corr","89","517067","0.0-54.0-0.0","""event"",""trial"",""time""
""fullscreenenter"",""0"",""4040""
","
","
","""event"",""trial"",""time""
""fullscreenenter"",""0"",""4040""
","
","null","run_exp/static/audio/clip_27_quiz_all_correct.m4a","null","","","","","<div class='center'><p>Good job! You’re now ready to move on to the real game! Remember this game will be difficult but don't get discouraged and try your best!</p></div>","","","","","","","","","","","","","","","","","",""
"","html-keyboard-response","90","517519","0.0-54.0-1.0","""event"",""trial"",""time""
""fullscreenenter"",""0"",""4040""
","
","
","""event"",""trial"",""time""
""fullscreenenter"",""0"",""4040""
","
","450.69999980926514","<div class='center'><p>Good job! You’re now ready to move on to the real game! Remember this game will be difficult but don't get discouraged and try your best!</p><p><b>[Press the space bar to continue]</b></p></div>","32","","","","","","","","","","","","","","","","","","","","","","",""
"","do_welcome","91","521537","0.0-55.0-0.0","""event"",""trial"",""time""
""fullscreenenter"",""0"",""4040""
","
","
","""event"",""trial"",""time""
""fullscreenenter"",""0"",""4040""
","
","null","","","","","","","","null","","","","","","","","","","","","","","","","",""
"","do_trial","92","526603","0.0-56.0-0.0","""event"",""trial"",""time""
""fullscreenenter"",""0"",""4040""
","
","
","""event"",""trial"",""time""
""fullscreenenter"",""0"",""4040""
","
","535.0999999046326","","","","","","","","49","1,0,0","0","countryside","0","probe-86","0.6","0.3","0.1","1","","","","","","","",""
"","html-keyboard-response","93","527614","0.0-56.0-1.0","""event"",""trial"",""time""
""fullscreenenter"",""0"",""4040""
","
","
","""event"",""trial"",""time""
""fullscreenenter"",""0"",""4040""
","
","null","<p></p>","null","","","","","","","","","","","","","","","","","","","","","","",""
"","do_trial","94","533113","0.0-57.0-0.0","""event"",""trial"",""time""
""fullscreenenter"",""0"",""4040""
","
","
","""event"",""trial"",""time""
""fullscreenenter"",""0"",""4040""
","
","958.4000000953674","","","","","","","","49","0,0,0","0","countryside","1","probe-84","0.585025884951985","0.291416784548047","0.13676182159488895","0","","","","","","","",""
"","html-keyboard-response","95","534120","0.0-57.0-1.0","""event"",""trial"",""time""
""fullscreenenter"",""0"",""4040""
","
","
","""event"",""trial"",""time""
""fullscreenenter"",""0"",""4040""
","
","null","<p></p>","null","","","","","","","","","","","","","","","","","","","","","","",""
"","do_trial","96","539108","0.0-58.0-0.0","""event"",""trial"",""time""
""fullscreenenter"",""0"",""4040""
","
","
","""event"",""trial"",""time""
""fullscreenenter"",""0"",""4040""
","
","439","","","","","","","","51","1,0,0","0","countryside","2","probe-39","0.6058645770423146","0.3212869759615255","0.083549442288197","0","","","","","","","",""
"","html-keyboard-response","97","540121","0.0-58.0-1.0","""event"",""trial"",""time""
""fullscreenenter"",""0"",""4040""
","
","
","""event"",""trial"",""time""
""fullscreenenter"",""0"",""4040""
","
","null","<p></p>","null","","","","","","","","","","","","","","","","","","","","","","",""
"","do_trial","98","545010","0.0-59.0-0.0","""event"",""trial"",""time""
""fullscreenenter"",""0"",""4040""
","
","
","""event"",""trial"",""time""
""fullscreenenter"",""0"",""4040""
","
","359.09999990463257","","","","","","","","50","1,0,0","0","countryside","3","probe-173","0.5673585333822599","0.32846876749474974","0.17153193576697529","0","","","","","","","",""
"","html-keyboard-response","99","546015","0.0-59.0-1.0","""event"",""trial"",""time""
""fullscreenenter"",""0"",""4040""
","
","
","""event"",""trial"",""time""
""fullscreenenter"",""0"",""4040""
","
","null","<p></p>","null","","","","","","","","","","","","","","","","","","","","","","",""
"","do_trial","100","551224","0.0-60.0-0.0","""event"",""trial"",""time""
""fullscreenenter"",""0"",""4040""
","
","
","""event"",""trial"",""time""
""fullscreenenter"",""0"",""4040""
","
","679.4000000953674","","","","","","","","50","0,1,0","0","countryside","4","probe-178","0.5653805419002241","0.29256127344115557","0.09823884333962114","1","","","","","","","",""
"","html-keyboard-response","101","552231","0.0-60.0-1.0","""event"",""trial"",""time""
""fullscreenenter"",""0"",""4040""
","
","
","""event"",""trial"",""time""
""fullscreenenter"",""0"",""4040""
","
","null","<p></p>","null","","","","","","","","","","","","","","","","","","","","","","",""
"","do_trial","102","557236","0.0-61.0-0.0","""event"",""trial"",""time""
""fullscreenenter"",""0"",""4040""
","
","
","""event"",""trial"",""time""
""fullscreenenter"",""0"",""4040""
","
","474.2000002861023","","","","","","","","51","1,1,1","0","countryside","5","probe-221","0.49900036546413734","0.23847821501163913","0.16009590826754752","1","","","","","","","",""
"","html-keyboard-response","103","558241","0.0-61.0-1.0","""event"",""trial"",""time""
""fullscreenenter"",""0"",""4040""
","
","
","""event"",""trial"",""time""
""fullscreenenter"",""0"",""4040""
","
","null","<p></p>","null","","","","","","","","","","","","","","","","","","","","","","",""
"","do_trial","104","563042","0.0-62.0-0.0","""event"",""trial"",""time""
""fullscreenenter"",""0"",""4040""
","
","
","""event"",""trial"",""time""
""fullscreenenter"",""0"",""4040""
","
","260.30000019073486","","","","","","","","51","1,1,0","0","countryside","6","probe-158","0.6289882201138307","0.41730988084492693","0.11541028221751269","0","","","","","","","",""
"","html-keyboard-response","105","564056","0.0-62.0-1.0","""event"",""trial"",""time""
""fullscreenenter"",""0"",""4040""
","
","
","""event"",""trial"",""time""
""fullscreenenter"",""0"",""4040""
","
","null","<p></p>","null","","","","","","","","","","","","","","","","","","","","","","",""
"","do_trial","106","568885","0.0-63.0-0.0","""event"",""trial"",""time""
""fullscreenenter"",""0"",""4040""
","
","
","""event"",""trial"",""time""
""fullscreenenter"",""0"",""4040""
","
","306","","","","","","","","49","1,0,0","0","countryside","7","probe-100","0.5746061475619689","0.341623967110292","0.09872391387915809","1","","","","","","","",""
"","html-keyboard-response","107","569889","0.0-63.0-1.0","""event"",""trial"",""time""
""fullscreenenter"",""0"",""4040""
","
","
","""event"",""trial"",""time""
""fullscreenenter"",""0"",""4040""
","
","null","<p></p>","null","","","","","","","","","","","","","","","","","","","","","","",""
"","do_trial","108","574696","0.0-64.0-0.0","""event"",""trial"",""time""
""fullscreenenter"",""0"",""4040""
","
","
","""event"",""trial"",""time""
""fullscreenenter"",""0"",""4040""
","
","270.80000019073486","","","","","","","","49","1,0,0","0","countryside","8","probe-133","0.4670806358842784","0.25722838172237783","0.1696965556828163","1","","","","","","","",""
"","html-keyboard-response","109","575703","0.0-64.0-1.0","""event"",""trial"",""time""
""fullscreenenter"",""0"",""4040""
","
","
","""event"",""trial"",""time""
""fullscreenenter"",""0"",""4040""
","
","null","<p></p>","null","","","","","","","","","","","","","","","","","","","","","","",""
"","do_trial","110","580554","0.0-65.0-0.0","""event"",""trial"",""time""
""fullscreenenter"",""0"",""4040""
","
","
","""event"",""trial"",""time""
""fullscreenenter"",""0"",""4040""
","
","300.7999997138977","","","","","","","","49","1,0,0","0","countryside","9","probe-184","0.452434444894897","0.3324121894017721","0.1437779844691323","1","","","","","","","",""
"","html-keyboard-response","111","581558","0.0-65.0-1.0","""event"",""trial"",""time""
""fullscreenenter"",""0"",""4040""
","
","
","""event"",""trial"",""time""
""fullscreenenter"",""0"",""4040""
","
","null","<p></p>","null","","","","","","","","","","","","","","","","","","","","","","",""
"","do_trial","112","586431","0.0-66.0-0.0","""event"",""trial"",""time""
""fullscreenenter"",""0"",""4040""
","
","
","""event"",""trial"",""time""
""fullscreenenter"",""0"",""4040""
","
","340","","","","","","","","49","1,0,1","0","countryside","10","probe-75","0.6656719413733755","0.3545035571541137","0.09309377203974915","1","","","","","","","",""
"","html-keyboard-response","113","587443","0.0-66.0-1.0","""event"",""trial"",""time""
""fullscreenenter"",""0"",""4040""
","
","
","""event"",""trial"",""time""
""fullscreenenter"",""0"",""4040""
","
","null","<p></p>","null","","","","","","","","","","","","","","","","","","","","","","",""
"","do_trial","114","592456","0.0-67.0-0.0","""event"",""trial"",""time""
""fullscreenenter"",""0"",""4040""
","
","
","""event"",""trial"",""time""
""fullscreenenter"",""0"",""4040""
","
","476.09999990463257","","","","","","","","49","1,0,0","0","countryside","11","probe-203","0.6939515769170744","0.22122711789182856","0.14164034664885328","1","","","","","","","",""
"","html-keyboard-response","115","593460","0.0-67.0-1.0","""event"",""trial"",""time""
""fullscreenenter"",""0"",""4040""
","
","
","""event"",""trial"",""time""
""fullscreenenter"",""0"",""4040""
","
","null","<p></p>","null","","","","","","","","","","","","","","","","","","","","","","",""
"","do_trial","116","598581","0.0-68.0-0.0","""event"",""trial"",""time""
""fullscreenenter"",""0"",""4040""
","
","
","""event"",""trial"",""time""
""fullscreenenter"",""0"",""4040""
","
","591","","","","","","","","49","0,0,0","0","countryside","12","probe-47","0.6914345933752732","0.33325532539253927","0.06074903974169902","0","","","","","","","",""
"","html-keyboard-response","117","599597","0.0-68.0-1.0","""event"",""trial"",""time""
""fullscreenenter"",""0"",""4040""
","
","
","""event"",""trial"",""time""
""fullscreenenter"",""0"",""4040""
","
","null","<p></p>","null","","","","","","","","","","","","","","","","","","","","","","",""
"","do_trial","118","604426","0.0-69.0-0.0","""event"",""trial"",""time""
""fullscreenenter"",""0"",""4040""
","
","
","""event"",""trial"",""time""
""fullscreenenter"",""0"",""4040""
","
","291.1000003814697","","","","","","","","50","0,1,0","0","countryside","13","probe-116","0.6867122952116419","0.2480923423104683","0.10974724128823861","1","","","","","","","",""
"","html-keyboard-response","119","605438","0.0-69.0-1.0","""event"",""trial"",""time""
""fullscreenenter"",""0"",""4040""
","
","
","""event"",""trial"",""time""
""fullscreenenter"",""0"",""4040""
","
","null","<p></p>","null","","","","","","","","","","","","","","","","","","","","","","",""
"","do_trial","120","610556","0.0-70.0-0.0","""event"",""trial"",""time""
""fullscreenenter"",""0"",""4040""
","
","
","""event"",""trial"",""time""
""fullscreenenter"",""0"",""4040""
","
","574.8999996185303","","","","","","","","50","0,0,0","0","countryside","14","probe-37","0.608394478274548","0.3105262847871704","0.18702304191950894","0","","","","","","","",""
"","html-keyboard-response","121","611573","0.0-70.0-1.0","""event"",""trial"",""time""
""fullscreenenter"",""0"",""4040""
","
","
","""event"",""trial"",""time""
""fullscreenenter"",""0"",""4040""
","
","null","<p></p>","null","","","","","","","","","","","","","","","","","","","","","","",""
"","do_trial","122","616365","0.0-71.0-0.0","""event"",""trial"",""time""
""fullscreenenter"",""0"",""4040""
","
","
","""event"",""trial"",""time""
""fullscreenenter"",""0"",""4040""
","
","263.40000009536743","","","","","","","","49","1,1,0","0","countryside","15","probe-87","0.493479036146449","0.3396213497192641","0.15782657848689438","1","","","","","","","",""
"","html-keyboard-response","123","617380","0.0-71.0-1.0","""event"",""trial"",""time""
""fullscreenenter"",""0"",""4040""
","
","
","""event"",""trial"",""time""
""fullscreenenter"",""0"",""4040""
","
","null","<p></p>","null","","","","","","","","","","","","","","","","","","","","","","",""
"","do_trial","124","622450","0.0-72.0-0.0","""event"",""trial"",""time""
""fullscreenenter"",""0"",""4040""
","
","
","""event"",""trial"",""time""
""fullscreenenter"",""0"",""4040""
","
","530.5","","","","","","","","49","0,0,0","0","countryside","16","probe-81","0.4792791438277911","0.3736042864471485","0.14507327908510548","0","","","","","","","",""
"","html-keyboard-response","125","623464","0.0-72.0-1.0","""event"",""trial"",""time""
""fullscreenenter"",""0"",""4040""
","
","
","""event"",""trial"",""time""
""fullscreenenter"",""0"",""4040""
","
","null","<p></p>","null","","","","","","","","","","","","","","","","","","","","","","",""
"","do_trial","126","628402","0.0-73.0-0.0","""event"",""trial"",""time""
""fullscreenenter"",""0"",""4040""
","
","
","""event"",""trial"",""time""
""fullscreenenter"",""0"",""4040""
","
","407.59999990463257","","","","","","","","49","1,0,1","0","countryside","17","probe-103","0.5220868221262711","0.47344334739508787","0.14057914154065584","1","","","","","","","",""
"","html-keyboard-response","127","629418","0.0-73.0-1.0","""event"",""trial"",""time""
""fullscreenenter"",""0"",""4040""
","
","
","""event"",""trial"",""time""
""fullscreenenter"",""0"",""4040""
","
","null","<p></p>","null","","","","","","","","","","","","","","","","","","","","","","",""
"","do_trial","128","634570","0.0-74.0-0.0","""event"",""trial"",""time""
""fullscreenenter"",""0"",""4040""
","
","
","""event"",""trial"",""time""
""fullscreenenter"",""0"",""4040""
","
","616.3999996185303","","","","","","","","49","0,0,1","0","countryside","18","probe-215","0.594911377896118","0.3297599335699104","0.1440004983773429","0","","","","","","","",""
"","html-keyboard-response","129","635575","0.0-74.0-1.0","""event"",""trial"",""time""
""fullscreenenter"",""0"",""4040""
","
","
","""event"",""trial"",""time""
""fullscreenenter"",""0"",""4040""
","
","null","<p></p>","null","","","","","","","","","","","","","","","","","","","","","","",""
"","do_trial","130","640477","0.0-75.0-0.0","""event"",""trial"",""time""
""fullscreenenter"",""0"",""4040""
","
","
","""event"",""trial"",""time""
""fullscreenenter"",""0"",""4040""
","
","364.30000019073486","","","","","","","","51","0,0,0","0","countryside","19","probe-199","0.5225826896225806","0.4385077461136517","0.08527972209627503","0","","","","","","","",""
"","html-keyboard-response","131","641493","0.0-75.0-1.0","""event"",""trial"",""time""
""fullscreenenter"",""0"",""4040""
","
","
","""event"",""trial"",""time""
""fullscreenenter"",""0"",""4040""
","
","null","<p></p>","null","","","","","","","","","","","","","","","","","","","","","","",""
"","do_trial","132","646290","0.0-76.0-0.0","""event"",""trial"",""time""
""fullscreenenter"",""0"",""4040""
","
","
","""event"",""trial"",""time""
""fullscreenenter"",""0"",""4040""
","
","273.1000003814697","","","","","","","","50","0,0,0","0","countryside","20","probe-169","0.4944282077333631","0.3162368892898779","0.36284005902040656","0","","","","","","","",""
"","html-keyboard-response","133","647296","0.0-76.0-1.0","""event"",""trial"",""time""
""fullscreenenter"",""0"",""4040""
","
","
","""event"",""trial"",""time""
""fullscreenenter"",""0"",""4040""
","
","null","<p></p>","null","","","","","","","","","","","","","","","","","","","","","","",""
"","do_trial","134","652223","0.0-77.0-0.0","""event"",""trial"",""time""
""fullscreenenter"",""0"",""4040""
","
","
","""event"",""trial"",""time""
""fullscreenenter"",""0"",""4040""
","
","383.7999997138977","","","","","","","","49","1,0,1","0","countryside","21","probe-15","0.4395512383935643","0.22305473205847257","0.3132506347768318","1","","","","","","","",""
"","html-keyboard-response","135","653238","0.0-77.0-1.0","""event"",""trial"",""time""
""fullscreenenter"",""0"",""4040""
","
","
","""event"",""trial"",""time""
""fullscreenenter"",""0"",""4040""
","
","null","<p></p>","null","","","","","","","","","","","","","","","","","","","","","","",""
"","do_trial","136","658144","0.0-78.0-0.0","""event"",""trial"",""time""
""fullscreenenter"",""0"",""4040""
","
","
","""event"",""trial"",""time""
""fullscreenenter"",""0"",""4040""
","
","371.09999990463257","","","","","","","","49","1,0,0","0","countryside","22","probe-214","0.3192934325584375","0.24372107774864402","0.16309827610364036","1","","","","","","","",""
"","html-keyboard-response","137","659159","0.0-78.0-1.0","""event"",""trial"",""time""
""fullscreenenter"",""0"",""4040""
","
","
","""event"",""trial"",""time""
""fullscreenenter"",""0"",""4040""
","
","null","<p></p>","null","","","","","","","","","","","","","","","","","","","","","","",""
"","do_trial","138","664082","0.0-79.0-0.0","""event"",""trial"",""time""
""fullscreenenter"",""0"",""4040""
","
","
","""event"",""trial"",""time""
""fullscreenenter"",""0"",""4040""
","
","380","","","","","","","","49","0,0,0","0","countryside","23","probe-125","0.450558481861298","0.25582712215375814","0.05595810878689582","0","","","","","","","",""
"","html-keyboard-response","139","665084","0.0-79.0-1.0","""event"",""trial"",""time""
""fullscreenenter"",""0"",""4040""
","
","
","""event"",""trial"",""time""
""fullscreenenter"",""0"",""4040""
","
","null","<p></p>","null","","","","","","","","","","","","","","","","","","","","","","",""
"","do_trial","140","669904","0.0-80.0-0.0","""event"",""trial"",""time""
""fullscreenenter"",""0"",""4040""
","
","
","""event"",""trial"",""time""
""fullscreenenter"",""0"",""4040""
","
","284.7999997138977","","","","","","","","49","0,0,0","0","countryside","24","probe-73","0.4540199753536158","0.35554018433307716","0.12231928557384535","0","","","","","","","",""
"","html-keyboard-response","141","670919","0.0-80.0-1.0","""event"",""trial"",""time""
""fullscreenenter"",""0"",""4040""
","
","
","""event"",""trial"",""time""
""fullscreenenter"",""0"",""4040""
","
","null","<p></p>","null","","","","","","","","","","","","","","","","","","","","","","",""
"","do_trial","142","675718","0.0-81.0-0.0","""event"",""trial"",""time""
""fullscreenenter"",""0"",""4040""
","
","
","""event"",""trial"",""time""
""fullscreenenter"",""0"",""4040""
","
","265.7000002861023","","","","","","","","50","0,1,0","0","countryside","25","probe-10","0.6163599738779486","0.35449315730197284","0.1337608250668246","1","","","","","","","",""
"","html-keyboard-response","143","676733","0.0-81.0-1.0","""event"",""trial"",""time""
""fullscreenenter"",""0"",""4040""
","
","
","""event"",""trial"",""time""
""fullscreenenter"",""0"",""4040""
","
","null","<p></p>","null","","","","","","","","","","","","","","","","","","","","","","",""
"","do_trial","144","681739","0.0-82.0-0.0","""event"",""trial"",""time""
""fullscreenenter"",""0"",""4040""
","
","
","""event"",""trial"",""time""
""fullscreenenter"",""0"",""4040""
","
","478.1000003814697","","","","","","","","50","0,0,0","0","countryside","26","probe-172","0.5328040097329487","0.39004725732573925","0.06154801819094342","0","","","","","","","",""
"","html-keyboard-response","145","682754","0.0-82.0-1.0","""event"",""trial"",""time""
""fullscreenenter"",""0"",""4040""
","
","
","""event"",""trial"",""time""
""fullscreenenter"",""0"",""4040""
","
","null","<p></p>","null","","","","","","","","","","","","","","","","","","","","","","",""
"","do_trial","146","687752","0.0-83.0-0.0","""event"",""trial"",""time""
""fullscreenenter"",""0"",""4040""
","
","
","""event"",""trial"",""time""
""fullscreenenter"",""0"",""4040""
","
","462","","","","","","","","50","0,1,0","0","countryside","27","probe-53","0.38791002060921387","0.3535934373822858","0.05482014057201244","1","","","","","","","",""
"","html-keyboard-response","147","688758","0.0-83.0-1.0","""event"",""trial"",""time""
""fullscreenenter"",""0"",""4040""
","
","
","""event"",""trial"",""time""
""fullscreenenter"",""0"",""4040""
","
","null","<p></p>","null","","","","","","","","","","","","","","","","","","","","","","",""
"","do_trial","148","693772","0.0-84.0-0.0","""event"",""trial"",""time""
""fullscreenenter"",""0"",""4040""
","
","
","""event"",""trial"",""time""
""fullscreenenter"",""0"",""4040""
","
","484.40000009536743","","","","","","","","50","1,0,0","0","countryside","28","probe-180","0.499421269257202","0.32495952076565376","0.06719406555890982","0","","","","","","","",""
"","html-keyboard-response","149","694782","0.0-84.0-1.0","""event"",""trial"",""time""
""fullscreenenter"",""0"",""4040""
","
","
","""event"",""trial"",""time""
""fullscreenenter"",""0"",""4040""
","
","null","<p></p>","null","","","","","","","","","","","","","","","","","","","","","","",""
"","do_trial","150","699666","0.0-85.0-0.0","""event"",""trial"",""time""
""fullscreenenter"",""0"",""4040""
","
","
","""event"",""trial"",""time""
""fullscreenenter"",""0"",""4040""
","
","349.59999990463257","","","","","","","","49","0,0,0","0","countryside","29","probe-90","0.5955518825914011","0.4776630898617493","0.05400163292978553","0","","","","","","","",""
"","html-keyboard-response","151","700672","0.0-85.0-1.0","""event"",""trial"",""time""
""fullscreenenter"",""0"",""4040""
","
","
","""event"",""trial"",""time""
""fullscreenenter"",""0"",""4040""
","
","null","<p></p>","null","","","","","","","","","","","","","","","","","","","","","","",""
"","do_bye","152","702187","0.0-86.0-0.0","""event"",""trial"",""time""
""fullscreenenter"",""0"",""4040""
","
","
","""event"",""trial"",""time""
""fullscreenenter"",""0"",""4040""
","
","null","","","","","","","","null","","","","","","","","","","","","","","","","",""
"","break","153","711985","0.0-86.0-1.0","""event"",""trial"",""time""
""fullscreenenter"",""0"",""4040""
","
","
","""event"",""trial"",""time""
""fullscreenenter"",""0"",""4040""
","
","9796.900000095367","<div class='center'><p>Time to take a quick break! You have 2 minutes to rest, but you can move on sooner if you'd like.</p><p> Press the <b>space bar</b> to continue.</p></div>","32","","","","","","","","","","","","","","","","","","","","","","",""
"","do_travel","154","721003","0.0-87.0-0.0","""event"",""trial"",""time""
""fullscreenenter"",""0"",""4040""
","
","
","""event"",""trial"",""time""
""fullscreenenter"",""0"",""4040""
","
","null","","","","","","","","null","","","","","","","","","","","","","","","","",""
"","do_welcome","155","725022","0.0-87.0-1.0","""event"",""trial"",""time""
""fullscreenenter"",""0"",""4040""
","
","
","""event"",""trial"",""time""
""fullscreenenter"",""0"",""4040""
","
","null","","","","","","","","null","","","","","","","","","","","","","","","","",""
"","do_trial","156","730692","0.0-88.0-0.0","""event"",""trial"",""time""
""fullscreenenter"",""0"",""4040""
","
","
","""event"",""trial"",""time""
""fullscreenenter"",""0"",""4040""
","
","1133.5","","","","","","","","49","1,1,1","1","coast","30","probe-66","1","0.3859124066024103","0.13636692354077565","1","","","","","","","",""
"","html-keyboard-response","157","731700","0.0-88.0-1.0","""event"",""trial"",""time""
""fullscreenenter"",""0"",""4040""
","
","
","""event"",""trial"",""time""
""fullscreenenter"",""0"",""4040""
","
","null","<p></p>","null","","","","","","","","","","","","","","","","","","","","","","",""
"","do_trial","158","736661","0.0-89.0-0.0","""event"",""trial"",""time""
""fullscreenenter"",""0"",""4040""
","
","
","""event"",""trial"",""time""
""fullscreenenter"",""0"",""4040""
","
","422.1000003814697","","","","","","","","49","1,0,0","1","coast","31","probe-213","1","0.32761265082656815","0.13792046921492174","1","","","","","","","",""
"","html-keyboard-response","159","737677","0.0-89.0-1.0","""event"",""trial"",""time""
""fullscreenenter"",""0"",""4040""
","
","
","""event"",""trial"",""time""
""fullscreenenter"",""0"",""4040""
","
","null","<p></p>","null","","","","","","","","","","","","","","","","","","","","","","",""
"","do_trial","160","742734","0.0-90.0-0.0","""event"",""trial"",""time""
""fullscreenenter"",""0"",""4040""
","
","
","""event"",""trial"",""time""
""fullscreenenter"",""0"",""4040""
","
","512.2999997138977","","","","","","","","49","1,1,0","1","coast","32","probe-119","1","0.3258706078618688","0.18641607603388693","1","","","","","","","",""
"","html-keyboard-response","161","743750","0.0-90.0-1.0","""event"",""trial"",""time""
""fullscreenenter"",""0"",""4040""
","
","
","""event"",""trial"",""time""
""fullscreenenter"",""0"",""4040""
","
","null","<p></p>","null","","","","","","","","","","","","","","","","","","","","","","",""
"","do_trial","162","748612","0.0-91.0-0.0","""event"",""trial"",""time""
""fullscreenenter"",""0"",""4040""
","
","
","""event"",""trial"",""time""
""fullscreenenter"",""0"",""4040""
","
","332.19999980926514","","","","","","","","49","1,0,0","1","coast","33","probe-41","0.8183596021103103","0.30372241707302566","0.1438033560476311","1","","","","","","","",""
"","html-keyboard-response","163","749618","0.0-91.0-1.0","""event"",""trial"",""time""
""fullscreenenter"",""0"",""4040""
","
","
","""event"",""trial"",""time""
""fullscreenenter"",""0"",""4040""
","
","null","<p></p>","null","","","","","","","","","","","","","","","","","","","","","","",""
"","do_trial","164","754541","0.0-92.0-0.0","""event"",""trial"",""time""
""fullscreenenter"",""0"",""4040""
","
","
","""event"",""trial"",""time""
""fullscreenenter"",""0"",""4040""
","
","379.2999997138977","","","","","","","","49","1,1,0","1","coast","34","probe-49","0.7185949159565462","0.32165289061011654","0.09606467886367369","1","","","","","","","",""
"","html-keyboard-response","165","755556","0.0-92.0-1.0","""event"",""trial"",""time""
""fullscreenenter"",""0"",""4040""
","
","
","""event"",""trial"",""time""
""fullscreenenter"",""0"",""4040""
","
","null","<p></p>","null","","","","","","","","","","","","","","","","","","","","","","",""
"","do_trial","166","760927","0.0-93.0-0.0","""event"",""trial"",""time""
""fullscreenenter"",""0"",""4040""
","
","
","""event"",""trial"",""time""
""fullscreenenter"",""0"",""4040""
","
","829.5","","","","","","","","49","1,0,0","1","coast","35","probe-60","0.6001957644052813","0.4584974759416274","0.09790196209633661","1","","","","","","","",""
"","html-keyboard-response","167","761943","0.0-93.0-1.0","""event"",""trial"",""time""
""fullscreenenter"",""0"",""4040""
","
","
","""event"",""trial"",""time""
""fullscreenenter"",""0"",""4040""
","
","null","<p></p>","null","","","","","","","","","","","","","","","","","","","","","","",""
"","do_trial","168","766953","0.0-94.0-0.0","""event"",""trial"",""time""
""fullscreenenter"",""0"",""4040""
","
","
","""event"",""trial"",""time""
""fullscreenenter"",""0"",""4040""
","
","474","","","","","","","","49","0,0,0","1","coast","36","probe-188","0.4763847926752204","0.5490258214702209","0.08303345653401649","0","","","","","","","",""
"","html-keyboard-response","169","767961","0.0-94.0-1.0","""event"",""trial"",""time""
""fullscreenenter"",""0"",""4040""
","
","
","""event"",""trial"",""time""
""fullscreenenter"",""0"",""4040""
","
","null","<p></p>","null","","","","","","","","","","","","","","","","","","","","","","",""
"","do_trial","170","772854","0.0-95.0-0.0","""event"",""trial"",""time""
""fullscreenenter"",""0"",""4040""
","
","
","""event"",""trial"",""time""
""fullscreenenter"",""0"",""4040""
","
","360.3999996185303","","","","","","","","49","1,0,0","1","coast","37","probe-205","0.5218220409507299","0.3873016450966432","0.13786633484275126","1","","","","","","","",""
"","html-keyboard-response","171","773859","0.0-95.0-1.0","""event"",""trial"",""time""
""fullscreenenter"",""0"",""4040""
","
","
","""event"",""trial"",""time""
""fullscreenenter"",""0"",""4040""
","
","null","<p></p>","null","","","","","","","","","","","","","","","","","","","","","","",""
"","do_trial","172","778776","0.0-96.0-0.0","""event"",""trial"",""time""
""fullscreenenter"",""0"",""4040""
","
","
","""event"",""trial"",""time""
""fullscreenenter"",""0"",""4040""
","
","389.5","","","","","","","","50","1,0,0","1","coast","38","probe-31","0.49026955297430036","0.3264183385785762","0.1390913155164091","0","","","","","","","",""
"","html-keyboard-response","173","779778","0.0-96.0-1.0","""event"",""trial"",""time""
""fullscreenenter"",""0"",""4040""
","
","
","""event"",""trial"",""time""
""fullscreenenter"",""0"",""4040""
","
","null","<p></p>","null","","","","","","","","","","","","","","","","","","","","","","",""
"","do_trial","174","784648","0.0-97.0-0.0","""event"",""trial"",""time""
""fullscreenenter"",""0"",""4040""
","
","
","""event"",""trial"",""time""
""fullscreenenter"",""0"",""4040""
","
","335","","","","","","","","50","1,0,1","1","coast","39","probe-149","0.5364703551258423","0.33218717926046337","0.22346721364924865","0","","","","","","","",""
"","html-keyboard-response","175","785652","0.0-97.0-1.0","""event"",""trial"",""time""
""fullscreenenter"",""0"",""4040""
","
","
","""event"",""trial"",""time""
""fullscreenenter"",""0"",""4040""
","
","null","<p></p>","null","","","","","","","","","","","","","","","","","","","","","","",""
"","do_trial","176","790532","0.0-98.0-0.0","""event"",""trial"",""time""
""fullscreenenter"",""0"",""4040""
","
","
","""event"",""trial"",""time""
""fullscreenenter"",""0"",""4040""
","
","338.40000009536743","","","","","","","","49","0,0,0","1","coast","40","probe-40","0.5112801873606447","0.46973831594334514","0.21898091799463784","0","","","","","","","",""
"","html-keyboard-response","177","791539","0.0-98.0-1.0","""event"",""trial"",""time""
""fullscreenenter"",""0"",""4040""
","
","
","""event"",""trial"",""time""
""fullscreenenter"",""0"",""4040""
","
","null","<p></p>","null","","","","","","","","","","","","","","","","","","","","","","",""
"","do_trial","178","796456","0.0-99.0-0.0","""event"",""trial"",""time""
""fullscreenenter"",""0"",""4040""
","
","
","""event"",""trial"",""time""
""fullscreenenter"",""0"",""4040""
","
","390.69999980926514","","","","","","","","49","1,1,0","1","coast","41","probe-94","0.45965673305832355","0.4456057484585033","0.1913496653205111","1","","","","","","","",""
"","html-keyboard-response","179","797459","0.0-99.0-1.0","""event"",""trial"",""time""
""fullscreenenter"",""0"",""4040""
","
","
","""event"",""trial"",""time""
""fullscreenenter"",""0"",""4040""
","
","null","<p></p>","null","","","","","","","","","","","","","","","","","","","","","","",""
"","do_trial","180","802494","0.0-100.0-0.0","""event"",""trial"",""time""
""fullscreenenter"",""0"",""4040""
","
","
","""event"",""trial"",""time""
""fullscreenenter"",""0"",""4040""
","
","507.6000003814697","","","","","","","","51","1,1,0","1","coast","42","probe-168","0.2233779384519639","0.438972303960554","0.11705751667394712","0","","","","","","","",""
"","html-keyboard-response","181","803511","0.0-100.0-1.0","""event"",""trial"",""time""
""fullscreenenter"",""0"",""4040""
","
","
","""event"",""trial"",""time""
""fullscreenenter"",""0"",""4040""
","
","null","<p></p>","null","","","","","","","","","","","","","","","","","","","","","","",""
"","do_trial","182","808386","0.0-101.0-0.0","""event"",""trial"",""time""
""fullscreenenter"",""0"",""4040""
","
","
","""event"",""trial"",""time""
""fullscreenenter"",""0"",""4040""
","
","344.19999980926514","","","","","","","","49","0,0,1","1","coast","43","probe-155","0.06250221172362515","0.4609718059839142","0.12823436968692783","0","","","","","","","",""
"","html-keyboard-response","183","809398","0.0-101.0-1.0","""event"",""trial"",""time""
""fullscreenenter"",""0"",""4040""
","
","
","""event"",""trial"",""time""
""fullscreenenter"",""0"",""4040""
","
","null","<p></p>","null","","","","","","","","","","","","","","","","","","","","","","",""
"","do_trial","184","814281","0.0-102.0-0.0","""event"",""trial"",""time""
""fullscreenenter"",""0"",""4040""
","
","
","""event"",""trial"",""time""
""fullscreenenter"",""0"",""4040""
","
","352.90000009536743","","","","","","","","49","0,0,0","1","coast","44","probe-122","0.09732701312075709","0.5339179041911217","0.07067338482502526","0","","","","","","","",""
"","html-keyboard-response","185","815285","0.0-102.0-1.0","""event"",""trial"",""time""
""fullscreenenter"",""0"",""4040""
","
","
","""event"",""trial"",""time""
""fullscreenenter"",""0"",""4040""
","
","null","<p></p>","null","","","","","","","","","","","","","","","","","","","","","","",""
"","do_trial","186","820087","0.0-103.0-0.0","""event"",""trial"",""time""
""fullscreenenter"",""0"",""4040""
","
","
","""event"",""trial"",""time""
""fullscreenenter"",""0"",""4040""
","
","257.09999990463257","","","","","","","","49","0,0,0","1","coast","45","probe-196","0.09569337439001924","0.5103740379362959","0.19205703689559087","0","","","","","","","",""
"","html-keyboard-response","187","821094","0.0-103.0-1.0","""event"",""trial"",""time""
""fullscreenenter"",""0"",""4040""
","
","
","""event"",""trial"",""time""
""fullscreenenter"",""0"",""4040""
","
","null","<p></p>","null","","","","","","","","","","","","","","","","","","","","","","",""
"","do_trial","188","825899","0.0-104.0-0.0","""event"",""trial"",""time""
""fullscreenenter"",""0"",""4040""
","
","
","""event"",""trial"",""time""
""fullscreenenter"",""0"",""4040""
","
","264","","","","","","","","50","1,1,0","1","coast","46","probe-57","0.13414183571411994","0.5471518564982926","0.06737167595822424","1","","","","","","","",""
"","html-keyboard-response","189","826911","0.0-104.0-1.0","""event"",""trial"",""time""
""fullscreenenter"",""0"",""4040""
","
","
","""event"",""trial"",""time""
""fullscreenenter"",""0"",""4040""
","
","null","<p></p>","null","","","","","","","","","","","","","","","","","","","","","","",""
"","do_trial","190","831706","0.0-105.0-0.0","""event"",""trial"",""time""
""fullscreenenter"",""0"",""4040""
","
","
","""event"",""trial"",""time""
""fullscreenenter"",""0"",""4040""
","
","254.5","","","","","","","","51","0,0,0","1","coast","47","probe-48","0.22624558585965365","0.6411689346764843","0.1047328970058992","0","","","","","","","",""
"","html-keyboard-response","191","832714","0.0-105.0-1.0","""event"",""trial"",""time""
""fullscreenenter"",""0"",""4040""
","
","
","""event"",""trial"",""time""
""fullscreenenter"",""0"",""4040""
","
","null","<p></p>","null","","","","","","","","","","","","","","","","","","","","","","",""
"","do_trial","192","837531","0.0-106.0-0.0","""event"",""trial"",""time""
""fullscreenenter"",""0"",""4040""
","
","
","""event"",""trial"",""time""
""fullscreenenter"",""0"",""4040""
","
","293.59999990463257","","","","","","","","50","0,1,0","1","coast","48","probe-08","0.2537573776968663","0.6297687446085183","0.3270708272518562","1","","","","","","","",""
"","html-keyboard-response","193","838539","0.0-106.0-1.0","""event"",""trial"",""time""
""fullscreenenter"",""0"",""4040""
","
","
","""event"",""trial"",""time""
""fullscreenenter"",""0"",""4040""
","
","null","<p></p>","null","","","","","","","","","","","","","","","","","","","","","","",""
"","do_trial","194","843729","0.0-107.0-0.0","""event"",""trial"",""time""
""fullscreenenter"",""0"",""4040""
","
","
","""event"",""trial"",""time""
""fullscreenenter"",""0"",""4040""
","
","660.5","","","","","","","","50","0,0,0","1","coast","49","probe-62","0.16008379816062468","0.6074694521346606","0.39860553721946856","0","","","","","","","",""
"","html-keyboard-response","195","844737","0.0-107.0-1.0","""event"",""trial"",""time""
""fullscreenenter"",""0"",""4040""
","
","
","""event"",""trial"",""time""
""fullscreenenter"",""0"",""4040""
","
","null","<p></p>","null","","","","","","","","","","","","","","","","","","","","","","",""
"","do_trial","196","849620","0.0-108.0-0.0","""event"",""trial"",""time""
""fullscreenenter"",""0"",""4040""
","
","
","""event"",""trial"",""time""
""fullscreenenter"",""0"",""4040""
","
","357.1000003814697","","","","","","","","51","0,1,0","1","coast","50","probe-118","0.16465573386743443","0.5231216718155631","0.3600678290618035","0","","","","","","","",""
"","html-keyboard-response","197","850623","0.0-108.0-1.0","""event"",""trial"",""time""
""fullscreenenter"",""0"",""4040""
","
","
","""event"",""trial"",""time""
""fullscreenenter"",""0"",""4040""
","
","null","<p></p>","null","","","","","","","","","","","","","","","","","","","","","","",""
"","do_trial","198","855427","0.0-109.0-0.0","""event"",""trial"",""time""
""fullscreenenter"",""0"",""4040""
","
","
","""event"",""trial"",""time""
""fullscreenenter"",""0"",""4040""
","
","266.69999980926514","","","","","","","","49","1,1,0","1","coast","51","probe-85","0.30556271357524606","0.6789448203086823","0.33520113791776956","1","","","","","","","",""
"","html-keyboard-response","199","856437","0.0-109.0-1.0","""event"",""trial"",""time""
""fullscreenenter"",""0"",""4040""
","
","
","""event"",""trial"",""time""
""fullscreenenter"",""0"",""4040""
","
","null","<p></p>","null","","","","","","","","","","","","","","","","","","","","","","",""
"","do_trial","200","861521","0.0-110.0-0.0","""event"",""trial"",""time""
""fullscreenenter"",""0"",""4040""
","
","
","""event"",""trial"",""time""
""fullscreenenter"",""0"",""4040""
","
","542","","","","","","","","49","0,1,0","1","coast","52","probe-04","0.4924504140180162","0.6043006879486208","0.2740858514264579","0","","","","","","","",""
"","html-keyboard-response","201","862526","0.0-110.0-1.0","""event"",""trial"",""time""
""fullscreenenter"",""0"",""4040""
","
","
","""event"",""trial"",""time""
""fullscreenenter"",""0"",""4040""
","
","null","<p></p>","null","","","","","","","","","","","","","","","","","","","","","","",""
"","do_trial","202","867341","0.0-111.0-0.0","""event"",""trial"",""time""
""fullscreenenter"",""0"",""4040""
","
","
","""event"",""trial"",""time""
""fullscreenenter"",""0"",""4040""
","
","279.90000009536743","","","","","","","","50","1,1,0","1","coast","53","probe-126","0.43300900566395656","0.6319880328835586","0.2785025212616482","1","","","","","","","",""
"","html-keyboard-response","203","868345","0.0-111.0-1.0","""event"",""trial"",""time""
""fullscreenenter"",""0"",""4040""
","
","
","""event"",""trial"",""time""
""fullscreenenter"",""0"",""4040""
","
","null","<p></p>","null","","","","","","","","","","","","","","","","","","","","","","",""
"","do_trial","204","873279","0.0-112.0-0.0","""event"",""trial"",""time""
""fullscreenenter"",""0"",""4040""
","
","
","""event"",""trial"",""time""
""fullscreenenter"",""0"",""4040""
","
","389.19999980926514","","","","","","","","50","0,0,0","1","coast","54","probe-132","0.3463454859881104","0.775091158846235","0.23421667333299723","0","","","","","","","",""
"","html-keyboard-response","205","874282","0.0-112.0-1.0","""event"",""trial"",""time""
""fullscreenenter"",""0"",""4040""
","
","
","""event"",""trial"",""time""
""fullscreenenter"",""0"",""4040""
","
","null","<p></p>","null","","","","","","","","","","","","","","","","","","","","","","",""
"","do_trial","206","879193","0.0-113.0-0.0","""event"",""trial"",""time""
""fullscreenenter"",""0"",""4040""
","
","
","""event"",""trial"",""time""
""fullscreenenter"",""0"",""4040""
","
","378.19999980926514","","","","","","","","49","0,1,0","1","coast","55","probe-93","0.28909135433155436","0.7681603284110751","0.05302447436235703","0","","","","","","","",""
"","html-keyboard-response","207","880202","0.0-113.0-1.0","""event"",""trial"",""time""
""fullscreenenter"",""0"",""4040""
","
","
","""event"",""trial"",""time""
""fullscreenenter"",""0"",""4040""
","
","null","<p></p>","null","","","","","","","","","","","","","","","","","","","","","","",""
"","do_trial","208","885101","0.0-114.0-0.0","""event"",""trial"",""time""
""fullscreenenter"",""0"",""4040""
","
","
","""event"",""trial"",""time""
""fullscreenenter"",""0"",""4040""
","
","358.59999990463257","","","","","","","","50","1,1,0","1","coast","56","probe-177","0.3860581687057666","0.816224253266867","0.23804432983072144","1","","","","","","","",""
"","html-keyboard-response","209","886116","0.0-114.0-1.0","""event"",""trial"",""time""
""fullscreenenter"",""0"",""4040""
","
","
","""event"",""trial"",""time""
""fullscreenenter"",""0"",""4040""
","
","null","<p></p>","null","","","","","","","","","","","","","","","","","","","","","","",""
"","do_trial","210","890910","0.0-115.0-0.0","""event"",""trial"",""time""
""fullscreenenter"",""0"",""4040""
","
","
","""event"",""trial"",""time""
""fullscreenenter"",""0"",""4040""
","
","265.09999990463257","","","","","","","","50","0,0,0","1","coast","57","probe-136","0.343679413702966","0.6853641024891473","0.1233203349165672","0","","","","","","","",""
"","html-keyboard-response","211","891912","0.0-115.0-1.0","""event"",""trial"",""time""
""fullscreenenter"",""0"",""4040""
","
","
","""event"",""trial"",""time""
""fullscreenenter"",""0"",""4040""
","
","null","<p></p>","null","","","","","","","","","","","","","","","","","","","","","","",""
"","do_trial","212","896707","0.0-116.0-0.0","""event"",""trial"",""time""
""fullscreenenter"",""0"",""4040""
","
","
","""event"",""trial"",""time""
""fullscreenenter"",""0"",""4040""
","
","255.19999980926514","","","","","","","","50","0,1,1","1","coast","58","probe-11","0.4196196552904101","0.8224974223445979","0.15005621324533208","1","","","","","","","",""
"","html-keyboard-response","213","897711","0.0-116.0-1.0","""event"",""trial"",""time""
""fullscreenenter"",""0"",""4040""
","
","
","""event"",""trial"",""time""
""fullscreenenter"",""0"",""4040""
","
","null","<p></p>","null","","","","","","","","","","","","","","","","","","","","","","",""
"","do_trial","214","902562","0.0-117.0-0.0","""event"",""trial"",""time""
""fullscreenenter"",""0"",""4040""
","
","
","""event"",""trial"",""time""
""fullscreenenter"",""0"",""4040""
","
","317.19999980926514","","","","","","","","51","0,0,0","1","coast","59","probe-170","0.5036471755281327","0.8129155994541222","0.2727930203839789","0","","","","","","","",""
"","html-keyboard-response","215","903575","0.0-117.0-1.0","""event"",""trial"",""time""
""fullscreenenter"",""0"",""4040""
","
","
","""event"",""trial"",""time""
""fullscreenenter"",""0"",""4040""
","
","null","<p></p>","null","","","","","","","","","","","","","","","","","","","","","","",""
"","do_trial","216","908510","0.0-118.0-0.0","""event"",""trial"",""time""
""fullscreenenter"",""0"",""4040""
","
","
","""event"",""trial"",""time""
""fullscreenenter"",""0"",""4040""
","
","395.7999997138977","","","","","","","","49","0,1,0","1","coast","60","probe-12","0.35843018572282265","0.6293340895815978","0.15846202263381387","0","","","","","","","",""
"","html-keyboard-response","217","909518","0.0-118.0-1.0","""event"",""trial"",""time""
""fullscreenenter"",""0"",""4040""
","
","
","""event"",""trial"",""time""
""fullscreenenter"",""0"",""4040""
","
","null","<p></p>","null","","","","","","","","","","","","","","","","","","","","","","",""
"","do_trial","218","914314","0.0-119.0-0.0","""event"",""trial"",""time""
""fullscreenenter"",""0"",""4040""
","
","
","""event"",""trial"",""time""
""fullscreenenter"",""0"",""4040""
","
","256.09999990463257","","","","","","","","50","1,1,0","1","coast","61","probe-72","0.489045449080669","0.6175460907049458","0.05508887276290073","1","","","","","","","",""
"","html-keyboard-response","219","915319","0.0-119.0-1.0","""event"",""trial"",""time""
""fullscreenenter"",""0"",""4040""
","
","
","""event"",""trial"",""time""
""fullscreenenter"",""0"",""4040""
","
","null","<p></p>","null","","","","","","","","","","","","","","","","","","","","","","",""
"","do_trial","220","920161","0.0-120.0-0.0","""event"",""trial"",""time""
""fullscreenenter"",""0"",""4040""
","
","
","""event"",""trial"",""time""
""fullscreenenter"",""0"",""4040""
","
","308.40000009536743","","","","","","","","50","1,0,0","1","coast","62","probe-121","0.4250491772470398","0.6409233342616988","0.0897431046230932","0","","","","","","","",""
"","html-keyboard-response","221","921177","0.0-120.0-1.0","""event"",""trial"",""time""
""fullscreenenter"",""0"",""4040""
","
","
","""event"",""trial"",""time""
""fullscreenenter"",""0"",""4040""
","
","null","<p></p>","null","","","","","","","","","","","","","","","","","","","","","","",""
"","do_trial","222","926697","0.0-121.0-0.0","""event"",""trial"",""time""
""fullscreenenter"",""0"",""4040""
","
","
","""event"",""trial"",""time""
""fullscreenenter"",""0"",""4040""
","
","988.1999998092651","","","","","","","","49","0,1,0","1","coast","63","probe-26","0.3108426338322915","0.6392013875252135","0.20515128267189325","0","","","","","","","",""
"","html-keyboard-response","223","927713","0.0-121.0-1.0","""event"",""trial"",""time""
""fullscreenenter"",""0"",""4040""
","
","
","""event"",""trial"",""time""
""fullscreenenter"",""0"",""4040""
","
","null","<p></p>","null","","","","","","","","","","","","","","","","","","","","","","",""
"","do_trial","224","932496","0.0-122.0-0.0","""event"",""trial"",""time""
""fullscreenenter"",""0"",""4040""
","
","
","""event"",""trial"",""time""
""fullscreenenter"",""0"",""4040""
","
","250","","","","","","","","50","1,1,0","1","coast","64","probe-88","0.20686664667300164","0.5836794178763334","0.1072865849646703","1","","","","","","","",""
"","html-keyboard-response","225","933510","0.0-122.0-1.0","""event"",""trial"",""time""
""fullscreenenter"",""0"",""4040""
","
","
","""event"",""trial"",""time""
""fullscreenenter"",""0"",""4040""
","
","null","<p></p>","null","","","","","","","","","","","","","","","","","","","","","","",""
"","do_trial","226","938482","0.0-123.0-0.0","""event"",""trial"",""time""
""fullscreenenter"",""0"",""4040""
","
","
","""event"",""trial"",""time""
""fullscreenenter"",""0"",""4040""
","
","430.5","","","","","","","","49","0,1,0","1","coast","65","probe-79","0.2975676484270906","0.5755853851792075","0.10796484661959531","0","","","","","","","",""
"","html-keyboard-response","227","939485","0.0-123.0-1.0","""event"",""trial"",""time""
""fullscreenenter"",""0"",""4040""
","
","
","""event"",""trial"",""time""
""fullscreenenter"",""0"",""4040""
","
","null","<p></p>","null","","","","","","","","","","","","","","","","","","","","","","",""
"","do_trial","228","944284","0.0-124.0-0.0","""event"",""trial"",""time""
""fullscreenenter"",""0"",""4040""
","
","
","""event"",""trial"",""time""
""fullscreenenter"",""0"",""4040""
","
","262.59999990463257","","","","","","","","50","0,1,0","1","coast","66","probe-160","0.33104094662851935","0.6102148678098169","0.08658048888413414","1","","","","","","","",""
"","html-keyboard-response","229","945287","0.0-124.0-1.0","""event"",""trial"",""time""
""fullscreenenter"",""0"",""4040""
","
","
","""event"",""trial"",""time""
""fullscreenenter"",""0"",""4040""
","
","null","<p></p>","null","","","","","","","","","","","","","","","","","","","","","","",""
"","do_trial","230","950215","0.0-125.0-0.0","""event"",""trial"",""time""
""fullscreenenter"",""0"",""4040""
","
","
","""event"",""trial"",""time""
""fullscreenenter"",""0"",""4040""
","
","397.40000009536743","","","","","","","","50","0,0,0","1","coast","67","probe-63","0.2752621224324666","0.7381907125963023","0.09368669893192993","0","","","","","","","",""
"","html-keyboard-response","231","951229","0.0-125.0-1.0","""event"",""trial"",""time""
""fullscreenenter"",""0"",""4040""
","
","
","""event"",""trial"",""time""
""fullscreenenter"",""0"",""4040""
","
","null","<p></p>","null","","","","","","","","","","","","","","","","","","","","","","",""
"","do_trial","232","955791","0.0-126.0-0.0","""event"",""trial"",""time""
""fullscreenenter"",""0"",""4040""
","
","
","""event"",""trial"",""time""
""fullscreenenter"",""0"",""4040""
","
","28.300000190734863","","","","","","","","50","1,1,0","1","coast","68","probe-162","0.2612046235635559","0.7130810392767347","0.06412522114628587","1","","","","","","","",""
"","html-keyboard-response","233","956796","0.0-126.0-1.0","""event"",""trial"",""time""
""fullscreenenter"",""0"",""4040""
","
","
","""event"",""trial"",""time""
""fullscreenenter"",""0"",""4040""
","
","null","<p></p>","null","","","","","","","","","","","","","","","","","","","","","","",""
"","do_trial","234","961954","0.0-127.0-0.0","""event"",""trial"",""time""
""fullscreenenter"",""0"",""4040""
","
","
","""event"",""trial"",""time""
""fullscreenenter"",""0"",""4040""
","
","626","","","","","","","","49","0,0,0","1","coast","69","probe-230","0.15432568583949202","0.5694663736270298","0.057270455429397196","0","","","","","","","",""
"","html-keyboard-response","235","962959","0.0-127.0-1.0","""event"",""trial"",""time""
""fullscreenenter"",""0"",""4040""
","
","
","""event"",""trial"",""time""
""fullscreenenter"",""0"",""4040""
","
","null","<p></p>","null","","","","","","","","","","","","","","","","","","","","","","",""
"","do_bye","236","964467","0.0-128.0-0.0","""event"",""trial"",""time""
""fullscreenenter"",""0"",""4040""
","
","
","""event"",""trial"",""time""
""fullscreenenter"",""0"",""4040""
","
","null","","","","","","","","null","","","","","","","","","","","","","","","","",""
"","break","237","970613","0.0-128.0-1.0","""event"",""trial"",""time""
""fullscreenenter"",""0"",""4040""
","
","
","""event"",""trial"",""time""
""fullscreenenter"",""0"",""4040""
","
","6144.5","<div class='center'><p>Time to take a quick break! You have 2 minutes to rest, but you can move on sooner if you'd like.</p><p> Press the <b>space bar</b> to continue.</p></div>","32","","","","","","","","","","","","","","","","","","","","","","",""
"","do_travel","238","979631","0.0-129.0-0.0","""event"",""trial"",""time""
""fullscreenenter"",""0"",""4040""
","
","
","""event"",""trial"",""time""
""fullscreenenter"",""0"",""4040""
","
","null","","","","","","","","null","","","","","","","","","","","","","","","","",""
"","do_welcome","239","983645","0.0-129.0-1.0","""event"",""trial"",""time""
""fullscreenenter"",""0"",""4040""
","
","
","""event"",""trial"",""time""
""fullscreenenter"",""0"",""4040""
","
","null","","","","","","","","null","","","","","","","","","","","","","","","","",""
"","do_trial","240","989086","0.0-130.0-0.0","""event"",""trial"",""time""
""fullscreenenter"",""0"",""4040""
","
","
","""event"",""trial"",""time""
""fullscreenenter"",""0"",""4040""
","
","900.4000000953674","","","","","","","","51","1,1,0","2","forest","70","probe-165","0.30776647133727264","1","0.0578452759420359","0","","","","","","","",""
"","html-keyboard-response","241","990100","0.0-130.0-1.0","""event"",""trial"",""time""
""fullscreenenter"",""0"",""4040""
","
","
","""event"",""trial"",""time""
""fullscreenenter"",""0"",""4040""
","
","null","<p></p>","null","","","","","","","","","","","","","","","","","","","","","","",""
"","do_trial","242","994911","0.0-131.0-0.0","""event"",""trial"",""time""
""fullscreenenter"",""0"",""4040""
","
","
","""event"",""trial"",""time""
""fullscreenenter"",""0"",""4040""
","
","283.40000009536743","","","","","","","","49","0,1,0","2","forest","71","probe-222","0.2969038390643473","1","0.062497318837061125","0","","","","","","","",""
"","html-keyboard-response","243","995918","0.0-131.0-1.0","""event"",""trial"",""time""
""fullscreenenter"",""0"",""4040""
","
","
","""event"",""trial"",""time""
""fullscreenenter"",""0"",""4040""
","
","null","<p></p>","null","","","","","","","","","","","","","","","","","","","","","","",""
"","do_trial","244","1000722","0.0-132.0-0.0","""event"",""trial"",""time""
""fullscreenenter"",""0"",""4040""
","
","
","""event"",""trial"",""time""
""fullscreenenter"",""0"",""4040""
","
","260.2999997138977","","","","","","","","50","0,0,0","2","forest","72","probe-36","0.4013931905246885","0.784321752184994","0.14065077283686656","0","","","","","","","",""
"","html-keyboard-response","245","1001737","0.0-132.0-1.0","""event"",""trial"",""time""
""fullscreenenter"",""0"",""4040""
","
","
","""event"",""trial"",""time""
""fullscreenenter"",""0"",""4040""
","
","null","<p></p>","null","","","","","","","","","","","","","","","","","","","","","","",""
"","do_trial","246","1006260","0.0-133.0-0.0","""event"",""trial"",""time""
""fullscreenenter"",""0"",""4040""
","
","
","""event"",""trial"",""time""
""fullscreenenter"",""0"",""4040""
","
","1.3999996185302734","","","","","","","","49","1,1,1","2","forest","73","probe-56","0.3879812066562991","0.7164166345743788","0.19471844619683334","1","","","","","","","",""
"","html-keyboard-response","247","1007266","0.0-133.0-1.0","""event"",""trial"",""time""
""fullscreenenter"",""0"",""4040""
","
","
","""event"",""trial"",""time""
""fullscreenenter"",""0"",""4040""
","
","null","<p></p>","null","","","","","","","","","","","","","","","","","","","","","","",""
"","do_trial","248","1012389","0.0-134.0-0.0","""event"",""trial"",""time""
""fullscreenenter"",""0"",""4040""
","
","
","""event"",""trial"",""time""
""fullscreenenter"",""0"",""4040""
","
","582.3000001907349","","","","","","","","50","0,1,0","2","forest","74","probe-20","0.1779561390254192","0.6587830539223019","0.16116797338898697","1","","","","","","","",""
"","html-keyboard-response","249","1013405","0.0-134.0-1.0","""event"",""trial"",""time""
""fullscreenenter"",""0"",""4040""
","
","
","""event"",""trial"",""time""
""fullscreenenter"",""0"",""4040""
","
","null","<p></p>","null","","","","","","","","","","","","","","","","","","","","","","",""
"","do_trial","250","1018218","0.0-135.0-0.0","""event"",""trial"",""time""
""fullscreenenter"",""0"",""4040""
","
","
","""event"",""trial"",""time""
""fullscreenenter"",""0"",""4040""
","
","276.1000003814697","","","","","","","","51","0,1,1","2","forest","75","probe-171","0.32423167755486293","0.5128682676942915","0.19863170830034121","1","","","","","","","",""
"","html-keyboard-response","251","1019221","0.0-135.0-1.0","""event"",""trial"",""time""
""fullscreenenter"",""0"",""4040""
","
","
","""event"",""trial"",""time""
""fullscreenenter"",""0"",""4040""
","
","null","<p></p>","null","","","","","","","","","","","","","","","","","","","","","","",""
"","do_trial","252","1024306","0.0-136.0-0.0","""event"",""trial"",""time""
""fullscreenenter"",""0"",""4040""
","
","
","""event"",""trial"",""time""
""fullscreenenter"",""0"",""4040""
","
","546.6999998092651","","","","","","","","50","0,1,0","2","forest","76","probe-23","0.3165701777957947","0.504362484700575","0.1345942387346933","1","","","","","","","",""
"","html-keyboard-response","253","1025313","0.0-136.0-1.0","""event"",""trial"",""time""
""fullscreenenter"",""0"",""4040""
","
","
","""event"",""trial"",""time""
""fullscreenenter"",""0"",""4040""
","
","null","<p></p>","null","","","","","","","","","","","","","","","","","","","","","","",""
"","do_trial","254","1030163","0.0-137.0-0.0","""event"",""trial"",""time""
""fullscreenenter"",""0"",""4040""
","
","
","""event"",""trial"",""time""
""fullscreenenter"",""0"",""4040""
","
","303","","","","","","","","49","1,1,0","2","forest","77","probe-228","0.32238390499010705","0.6574279204904382","0.07297171821751393","1","","","","","","","",""
"","html-keyboard-response","255","1031180","0.0-137.0-1.0","""event"",""trial"",""time""
""fullscreenenter"",""0"",""4040""
","
","
","""event"",""trial"",""time""
""fullscreenenter"",""0"",""4040""
","
","null","<p></p>","null","","","","","","","","","","","","","","","","","","","","","","",""
"","do_trial","256","1036166","0.0-138.0-0.0","""event"",""trial"",""time""
""fullscreenenter"",""0"",""4040""
","
","
","""event"",""trial"",""time""
""fullscreenenter"",""0"",""4040""
","
","443.5","","","","","","","","51","0,1,0","2","forest","78","probe-89","0.4441407936342286","0.595232664239918","0.09534766015725037","0","","","","","","","",""
"","html-keyboard-response","257","1037170","0.0-138.0-1.0","""event"",""trial"",""time""
""fullscreenenter"",""0"",""4040""
","
","
","""event"",""trial"",""time""
""fullscreenenter"",""0"",""4040""
","
","null","<p></p>","null","","","","","","","","","","","","","","","","","","","","","","",""
"","do_trial","258","1041997","0.0-139.0-0.0","""event"",""trial"",""time""
""fullscreenenter"",""0"",""4040""
","
","
","""event"",""trial"",""time""
""fullscreenenter"",""0"",""4040""
","
","291.80000019073486","","","","","","","","50","1,1,0","2","forest","79","probe-128","0.40242174696661825","0.6861267667912968","0.1162799296575444","1","","","","","","","",""
"","html-keyboard-response","259","1043013","0.0-139.0-1.0","""event"",""trial"",""time""
""fullscreenenter"",""0"",""4040""
","
","
","""event"",""trial"",""time""
""fullscreenenter"",""0"",""4040""
","
","null","<p></p>","null","","","","","","","","","","","","","","","","","","","","","","",""
"","do_trial","260","1048287","0.0-140.0-0.0","""event"",""trial"",""time""
""fullscreenenter"",""0"",""4040""
","
","
","""event"",""trial"",""time""
""fullscreenenter"",""0"",""4040""
","
","739.7999997138977","","","","","","","","49","0,1,0","2","forest","80","probe-44","0.3923423094567233","0.633524013843739","0.12333039012589224","0","","","","","","","",""
"","html-keyboard-response","261","1049289","0.0-140.0-1.0","""event"",""trial"",""time""
""fullscreenenter"",""0"",""4040""
","
","
","""event"",""trial"",""time""
""fullscreenenter"",""0"",""4040""
","
","null","<p></p>","null","","","","","","","","","","","","","","","","","","","","","","",""
"","do_trial","262","1054138","0.0-141.0-0.0","""event"",""trial"",""time""
