"success","trial_type","trial_index","time_elapsed","internal_node_id","interactions","blur_events","focus_events","fullscreenenter_events","fullscreenexit_events","rt","stimulus","key_press","subject_id","participant_id","age","gender","prompt","response","choice_outcomes","context_n","context_img_id","trial_n","probe_img_id","pR_red","pR_white","pR_black","outcome","contextArray_ind","validImageProbes","invalidImageProbes","pRew_Red","pRew_White","pRew_Black","availableForMemProbe","choice_blocks"
"true","fullscreen","0","8426","0.0-0.0","""event"",""trial"",""time""
""fullscreenenter"",""0"",""7578""
","
","
","""event"",""trial"",""time""
""fullscreenenter"",""0"",""7578""
","
","","","","","","","","","","","","","","","","","","","","","","","","","",""
"","pavlovia","1","8428","0.0-1.0","""event"",""trial"",""time""
""fullscreenenter"",""0"",""7578""
","
","
","""event"",""trial"",""time""
""fullscreenenter"",""0"",""7578""
","
","","","","","","","","","","","","","","","","","","","","","","","","","",""
"","instruc1","2","53580","0.0-2.0","""event"",""trial"",""time""
""fullscreenenter"",""0"",""7578""
","
","
","""event"",""trial"",""time""
""fullscreenenter"",""0"",""7578""
","
","null","run_exp/static/audio/clip_1_welcome.m4a","null","1460","1488","17","Male","<div class='center'><p>Welcome! This is the first part of the study. It will last ~30 minutes. In part 1 and part 2 of the study, you are the head captain of a pirate ship traveling around the world to different islands. You will play a few different games throughout these two parts. Here is an overview of them:</p><br><p>Part 1 (today)</p><p>1. Instructions, practice game, and quiz</p><p>2. Pick a pirate game on 6 different islands</p><br><p>Part 2 (tomorrow)</p><p>3. Pick a pirate game and memory game</p><p>4. Where did you see this ship? </p></div>","","","","","","","","","","","","","","","","","",""
"","html-keyboard-response","3","53751","0.0-3.0","""event"",""trial"",""time""
""fullscreenenter"",""0"",""7578""
","
","
","""event"",""trial"",""time""
""fullscreenenter"",""0"",""7578""
","
","169","<div class='center'><p>Welcome! This is the first part of the study. It will last ~30 minutes. In part 1 and part 2 of the study, you are the head captain of a pirate ship traveling around the world to different islands. You will play a few different games throughout these two parts. Here is an overview of them:</p><br><p>Part 1 (today)</p><p>1. Instructions, practice game, and quiz</p><p>2. Pick a pirate game on 6 different islands</p><br><p>Part 2 (tomorrow)</p><p>3. Pick a pirate game and memory game</p><p>4. Where did you see this ship? </p><p><b>[Press the space bar to continue]</b></p></div>","32","","","","","","","","","","","","","","","","","","","","","","",""
"","instruc2","4","59059","0.0-4.0","""event"",""trial"",""time""
""fullscreenenter"",""0"",""7578""
","
","
","""event"",""trial"",""time""
""fullscreenenter"",""0"",""7578""
","
","null","run_exp/static/audio/clip_2_different_places.m4a","null","","","","","<div class='center'><p>Today, you’ll visit these 6 islands on your journey. You'll be able to see these islands from your ship.</p><p><img src='run_exp/static/images/contexts/all_contexts.png' height='500'></p></div>","","","","","","","","","","","","","","","","","",""
"","html-keyboard-response","5","60750","0.0-5.0","""event"",""trial"",""time""
""fullscreenenter"",""0"",""7578""
","
","
","""event"",""trial"",""time""
""fullscreenenter"",""0"",""7578""
","
","1689.8999999761581","<div class='center'><p>Today, you’ll visit these 6 islands on your journey. You'll be able to see these islands from your ship.</p><p><img src='run_exp/static/images/contexts/all_contexts.png' height='500'></p><p><b>[Press the space bar to continue]</b></p></div>","32","","","","","","","","","","","","","","","","","","","","","","",""
"","instruc3","6","70439","0.0-6.0","""event"",""trial"",""time""
""fullscreenenter"",""0"",""7578""
","
","
","""event"",""trial"",""time""
""fullscreenenter"",""0"",""7578""
","
","null","run_exp/static/audio/clip_3_goal_of_game_1.m4a","null","","","","","<div class='center'><p> The pirates on your ship will rob other ships as they leave the island.</p> These ships have just sold their goods to the islanders, so they will be filled with lots and lots of gold.</p><p><img src='run_exp/static/images/tutorial/ship_center.png' height='400'></p></div>","","","","","","","","","","","","","","","","","",""
"","html-keyboard-response","7","71367","0.0-7.0","""event"",""trial"",""time""
""fullscreenenter"",""0"",""7578""
","
","
","""event"",""trial"",""time""
""fullscreenenter"",""0"",""7578""
","
","925.6999999880791","<div class='center'><p> The pirates on your ship will rob other ships as they leave the island.</p> These ships have just sold their goods to the islanders, so they will be filled with lots and lots of gold.</p><p><img src='run_exp/static/images/tutorial/ship_center.png' height='400'></p><p><b>[Press the space bar to continue]</b></p></div>","32","","","","","","","","","","","","","","","","","","","","","","",""
"","instruc4","8","99359","0.0-8.0","""event"",""trial"",""time""
""fullscreenenter"",""0"",""7578""
","
","
","""event"",""trial"",""time""
""fullscreenenter"",""0"",""7578""
","
","null","run_exp/static/audio/clip_4_goal_of_game_2.m4a","null","","","","","<div class='center'><p>As the head captain, you do not have to rob any ships yourself. Another pirate will be doing the robbing for you. First, you will choose a pirate to rob the next ship.</p><p><img src='run_exp/static/images/tutorial/pirates_all_crop.png' height='200'></p><p>Then, you'll see if the pirate successfully robbed the ship of their gold. If they were successful, then you'll get a stack of gold coins like this:</p><p><img src='run_exp/static/images/tutorial/reward.png' height='150'></p><p> If they were <b>not</b> successful, then you'll get no gold coins, and you'll see a big red x like this: </p><p><img src='run_exp/static/images/tutorial/reward_no.png' height='150'></p><p> How much bonus money you make is based on how many gold coins you collect.</p><div>","","","","","","","","","","","","","","","","","",""
"","html-keyboard-response","9","103806","0.0-9.0","""event"",""trial"",""time""
""fullscreenenter"",""0"",""7578""
","
","
","""event"",""trial"",""time""
""fullscreenenter"",""0"",""7578""
","
","4445.800000011921","<div class='center'><p>As the head captain, you do not have to rob any ships yourself. Another pirate will be doing the robbing for you. First, you will choose a pirate to rob the next ship.</p><p><img src='run_exp/static/images/tutorial/pirates_all_crop.png' height='200'></p><p>Then, you'll see if the pirate successfully robbed the ship of their gold. If they were successful, then you'll get a stack of gold coins like this:</p><p><img src='run_exp/static/images/tutorial/reward.png' height='150'></p><p> If they were <b>not</b> successful, then you'll get no gold coins, and you'll see a big red x like this: </p><p><img src='run_exp/static/images/tutorial/reward_no.png' height='150'></p><p> How much bonus money you make is based on how many gold coins you collect.</p<p><b>[Press the space bar to continue]</b></p></div>","32","","","","","","","","","","","","","","","","","","","","","","",""
"","instruc5","10","124479","0.0-10.0","""event"",""trial"",""time""
""fullscreenenter"",""0"",""7578""
","
","
","""event"",""trial"",""time""
""fullscreenenter"",""0"",""7578""
","
","20671.69999998808","run_exp/static/audio/clip_5_probabilistic.m4a","49","","","","","<div class='center'><p>Even the most skilled pirate can not rob EVERY ship.</p><p> Some ships will have very strong protections against pirate attacks.</p><p> Blue beard, here, is very, very good at robbing ships, but he won't be successful every time he tries to rob one.</p><p> You can press the <b>‘1’</b> key on the keyboard to choose him.</p><p> Try choosing him 10 times to see how often he succeeds at robbing a ship. </p><p><img src='run_exp/static/images/tutorial/blue.png' height='500'></p></div>","","","","","","","","","","","","","","","","","",""
"","html-keyboard-response","11","125992","0.0-11.0","""event"",""trial"",""time""
""fullscreenenter"",""0"",""7578""
","
","
","""event"",""trial"",""time""
""fullscreenenter"",""0"",""7578""
","
","null","<div class='center'><p><img src='run_exp/static/images/tutorial/blue_win.png' height='500'></p></div>","null","","","","","","","","","","","","","","","","","","","","","","",""
"","html-keyboard-response","12","126334","0.0-12.0","""event"",""trial"",""time""
""fullscreenenter"",""0"",""7578""
","
","
","""event"",""trial"",""time""
""fullscreenenter"",""0"",""7578""
","
","340.9000000357628","<div class='center'><img src='run_exp/static/images/tutorial/blue.png' height='500'></p></div>","49","","","","","","","","","","","","","","","","","","","","","","",""
"","html-keyboard-response","13","127839","0.0-13.0","""event"",""trial"",""time""
""fullscreenenter"",""0"",""7578""
","
","
","""event"",""trial"",""time""
""fullscreenenter"",""0"",""7578""
","
","null","<div class='center'><p><img src='run_exp/static/images/tutorial/blue_win.png' height='500'></p></div>","null","","","","","","","","","","","","","","","","","","","","","","",""
"","html-keyboard-response","14","128518","0.0-14.0","""event"",""trial"",""time""
""fullscreenenter"",""0"",""7578""
","
","
","""event"",""trial"",""time""
""fullscreenenter"",""0"",""7578""
","
","678.6999999880791","<div class='center'><img src='run_exp/static/images/tutorial/blue.png' height='500'></p></div>","49","","","","","","","","","","","","","","","","","","","","","","",""
"","html-keyboard-response","15","130022","0.0-15.0","""event"",""trial"",""time""
""fullscreenenter"",""0"",""7578""
","
","
","""event"",""trial"",""time""
""fullscreenenter"",""0"",""7578""
","
","null","<div class='center'><p><img src='run_exp/static/images/tutorial/blue_win.png' height='500'></p></div>","null","","","","","","","","","","","","","","","","","","","","","","",""
"","html-keyboard-response","16","130302","0.0-16.0","""event"",""trial"",""time""
""fullscreenenter"",""0"",""7578""
","
","
","""event"",""trial"",""time""
""fullscreenenter"",""0"",""7578""
","
","279.4000000357628","<div class='center'><img src='run_exp/static/images/tutorial/blue.png' height='500'></p></div>","49","","","","","","","","","","","","","","","","","","","","","","",""
"","html-keyboard-response","17","131811","0.0-17.0","""event"",""trial"",""time""
""fullscreenenter"",""0"",""7578""
","
","
","""event"",""trial"",""time""
""fullscreenenter"",""0"",""7578""
","
","null","<div class='center'><p><img src='run_exp/static/images/tutorial/blue_no_win.png' height='500'></p></div>","null","","","","","","","","","","","","","","","","","","","","","","",""
"","html-keyboard-response","18","132102","0.0-18.0","""event"",""trial"",""time""
""fullscreenenter"",""0"",""7578""
","
","
","""event"",""trial"",""time""
""fullscreenenter"",""0"",""7578""
","
","290.39999997615814","<div class='center'><img src='run_exp/static/images/tutorial/blue.png' height='500'></p></div>","49","","","","","","","","","","","","","","","","","","","","","","",""
"","html-keyboard-response","19","133604","0.0-19.0","""event"",""trial"",""time""
""fullscreenenter"",""0"",""7578""
","
","
","""event"",""trial"",""time""
""fullscreenenter"",""0"",""7578""
","
","null","<div class='center'><p><img src='run_exp/static/images/tutorial/blue_win.png' height='500'></p></div>","null","","","","","","","","","","","","","","","","","","","","","","",""
"","html-keyboard-response","20","133886","0.0-20.0","""event"",""trial"",""time""
""fullscreenenter"",""0"",""7578""
","
","
","""event"",""trial"",""time""
""fullscreenenter"",""0"",""7578""
","
","281.5","<div class='center'><img src='run_exp/static/images/tutorial/blue.png' height='500'></p></div>","49","","","","","","","","","","","","","","","","","","","","","","",""
"","html-keyboard-response","21","135392","0.0-21.0","""event"",""trial"",""time""
""fullscreenenter"",""0"",""7578""
","
","
","""event"",""trial"",""time""
""fullscreenenter"",""0"",""7578""
","
","null","<div class='center'><p><img src='run_exp/static/images/tutorial/blue_win.png' height='500'></p></div>","null","","","","","","","","","","","","","","","","","","","","","","",""
"","html-keyboard-response","22","135647","0.0-22.0","""event"",""trial"",""time""
""fullscreenenter"",""0"",""7578""
","
","
","""event"",""trial"",""time""
""fullscreenenter"",""0"",""7578""
","
","253.60000002384186","<div class='center'><img src='run_exp/static/images/tutorial/blue.png' height='500'></p></div>","49","","","","","","","","","","","","","","","","","","","","","","",""
"","html-keyboard-response","23","137154","0.0-23.0","""event"",""trial"",""time""
""fullscreenenter"",""0"",""7578""
","
","
","""event"",""trial"",""time""
""fullscreenenter"",""0"",""7578""
","
","null","<div class='center'><p><img src='run_exp/static/images/tutorial/blue_win.png' height='500'></p></div>","null","","","","","","","","","","","","","","","","","","","","","","",""
"","html-keyboard-response","24","137414","0.0-24.0","""event"",""trial"",""time""
""fullscreenenter"",""0"",""7578""
","
","
","""event"",""trial"",""time""
""fullscreenenter"",""0"",""7578""
","
","260.0999999642372","<div class='center'><img src='run_exp/static/images/tutorial/blue.png' height='500'></p></div>","49","","","","","","","","","","","","","","","","","","","","","","",""
"","html-keyboard-response","25","138921","0.0-25.0","""event"",""trial"",""time""
""fullscreenenter"",""0"",""7578""
","
","
","""event"",""trial"",""time""
""fullscreenenter"",""0"",""7578""
","
","null","<div class='center'><p><img src='run_exp/static/images/tutorial/blue_no_win.png' height='500'></p></div>","null","","","","","","","","","","","","","","","","","","","","","","",""
"","html-keyboard-response","26","139430","0.0-26.0","""event"",""trial"",""time""
""fullscreenenter"",""0"",""7578""
","
","
","""event"",""trial"",""time""
""fullscreenenter"",""0"",""7578""
","
","508.2999999523163","<div class='center'><img src='run_exp/static/images/tutorial/blue.png' height='500'></p></div>","49","","","","","","","","","","","","","","","","","","","","","","",""
"","html-keyboard-response","27","140936","0.0-27.0","""event"",""trial"",""time""
""fullscreenenter"",""0"",""7578""
","
","
","""event"",""trial"",""time""
""fullscreenenter"",""0"",""7578""
","
","null","<div class='center'><p><img src='run_exp/static/images/tutorial/blue_win.png' height='500'></p></div>","null","","","","","","","","","","","","","","","","","","","","","","",""
"","html-keyboard-response","28","141270","0.0-28.0","""event"",""trial"",""time""
""fullscreenenter"",""0"",""7578""
","
","
","""event"",""trial"",""time""
""fullscreenenter"",""0"",""7578""
","
","333.2999999523163","<div class='center'><img src='run_exp/static/images/tutorial/blue.png' height='500'></p></div>","49","","","","","","","","","","","","","","","","","","","","","","",""
"","html-keyboard-response","29","142777","0.0-29.0","""event"",""trial"",""time""
""fullscreenenter"",""0"",""7578""
","
","
","""event"",""trial"",""time""
""fullscreenenter"",""0"",""7578""
","
","null","<div class='center'><p><img src='run_exp/static/images/tutorial/blue_win.png' height='500'></p></div>","null","","","","","","","","","","","","","","","","","","","","","","",""
"","instruc6","30","148179","0.0-30.0","""event"",""trial"",""time""
""fullscreenenter"",""0"",""7578""
","
","
","""event"",""trial"",""time""
""fullscreenenter"",""0"",""7578""
","
","null","run_exp/static/audio/clip_6_blue_beard_outcome.m4a","null","","","","","<div class='center'><p> See, he succeeded in robbing the ships most of the time but not every time. </p></div>","","","","","","","","","","","","","","","","","",""
"","html-keyboard-response","31","148742","0.0-31.0","""event"",""trial"",""time""
""fullscreenenter"",""0"",""7578""
","
","
","""event"",""trial"",""time""
""fullscreenenter"",""0"",""7578""
","
","562.6000000238419","<div class='center'><p> See, he succeeded in robbing the ships most of the time but not every time. </p><p><b>[Press the space bar to continue]</b></p></div>","32","","","","","","","","","","","","","","","","","","","","","","",""
"","audio-keyboard-response","32","154246","0.0-32.0","""event"",""trial"",""time""
""fullscreenenter"",""0"",""7578""
","
","
","""event"",""trial"",""time""
""fullscreenenter"",""0"",""7578""
","
","5502.899999976158","run_exp/static/audio/clip_7_pick_pirate.m4a","50","","","","","","","","","","","","","","","","","","","","","","",""
"","audio-keyboard-response","33","156207","0.0-33.0-0.0","""event"",""trial"",""time""
""fullscreenenter"",""0"",""7578""
","
","
","""event"",""trial"",""time""
""fullscreenenter"",""0"",""7578""
","
","1958.6000000238419","run_exp/static/audio/clip_8_chosen_pirate_win.m4a","32","","","","","","","","","","","","","","","","","","","","","","",""
"","audio-keyboard-response","34","157414","0.0-33.0-1.0","""event"",""trial"",""time""
""fullscreenenter"",""0"",""7578""
","
","
","""event"",""trial"",""time""
""fullscreenenter"",""0"",""7578""
","
","1204.5","run_exp/static/audio/clip_9_pick_a_pirate_again.m4a","51","","","","","","","","","","","","","","","","","","","","","","",""
"","audio-keyboard-response","35","158903","0.0-34.0-0.0","""event"",""trial"",""time""
""fullscreenenter"",""0"",""7578""
","
","
","""event"",""trial"",""time""
""fullscreenenter"",""0"",""7578""
","
","1486.699999988079","run_exp/static/audio/clip_10_chosen_pirate_loss.m4a","32","","","","","","","","","","","","","","","","","","","","","","",""
"","instruc9","36","164378","0.0-35.0-0.0","""event"",""trial"",""time""
""fullscreenenter"",""0"",""7578""
","
","
","""event"",""trial"",""time""
""fullscreenenter"",""0"",""7578""
","
","null","run_exp/static/audio/clip_11_time_out.m4a","null","","","","","<div class='center'><p>If you don’t make your choice fast enough, you’ll have to wait a few seconds before you can make another one. </p><p><img src='run_exp/static/images/miscellaneous/hurry_up.png' height='500'></p></div>","","","","","","","","","","","","","","","","","",""
"","html-keyboard-response","37","164878","0.0-35.0-1.0","""event"",""trial"",""time""
""fullscreenenter"",""0"",""7578""
","
","
","""event"",""trial"",""time""
""fullscreenenter"",""0"",""7578""
","
","499.0999999642372","<div class='center'><p>If you don’t make your choice fast enough, you’ll have to wait a few seconds before you can make another one. </p><p><img src='run_exp/static/images/miscellaneous/hurry_up.png' height='500'></p><p><b>[Press the space bar to continue]</b></p></div>","32","","","","","","","","","","","","","","","","","","","","","","",""
"","instruc10","38","203959","0.0-35.0-2.0","""event"",""trial"",""time""
""fullscreenenter"",""0"",""7578""
","
","
","""event"",""trial"",""time""
""fullscreenenter"",""0"",""7578""
","
","null","run_exp/static/audio/clip_12_probe.m4a","null","","","","","<div class='center'><p>Once you've chosen a pirate, you’ll be shown the ship they are robbing. You will never rob the same ship twice. Ships can be told apart from one another by the image on them. These are the goods that they sell. See, this ship has a travel mug on it. </p><p> You’ll have to remember which island you saw each ship on. You will win more gold coins and hence more bonus money if you remember correctly! To help you remember, you can imagine a story. For example, here, you could imagine a mug full of water in the desert. Or, as another example, if on the forest island, your pirate robbed a ship with an apple on it, you could imagine an apple falling from a tree in the forest. </p><p><img src='run_exp/static/images/tutorial/example_probe.png' height='500'></p></div>","","","","","","","","","","","","","","","","","",""
"","html-keyboard-response","39","205094","0.0-35.0-3.0","""event"",""trial"",""time""
""fullscreenenter"",""0"",""7578""
","
","
","""event"",""trial"",""time""
""fullscreenenter"",""0"",""7578""
","
","1134.300000011921","<div class='center'><p>Once you've chosen a pirate, you’ll be shown the ship they are robbing. You will never rob the same ship twice. Ships can be told apart from one another by the image on them. These are the goods that they sell. See, this ship has a travel mug on it. </p><p> You’ll have to remember which island you saw each ship on. You will win more gold coins and hence more bonus money if you remember correctly! To help you remember, you can imagine a story. For example, here, you could imagine a mug full of water in the desert. Or, as another example, if on the forest island, your pirate robbed a ship with an apple on it, you could imagine an apple falling from a tree in the forest. </p><p><img src='run_exp/static/images/tutorial/example_probe.png' height='500'></p><p><b>[Press the space bar to continue]</b></p></div>","32","","","","","","","","","","","","","","","","","","","","","","",""
"","instruc11","40","221499","0.0-35.0-4.0","""event"",""trial"",""time""
""fullscreenenter"",""0"",""7578""
","
","
","""event"",""trial"",""time""
""fullscreenenter"",""0"",""7578""
","
","null","run_exp/static/audio/clip_13_changepoint.m4a","null","","","","","<div class='center'><p>How successful a pirate is at robbing ships will depend on the island you’re on.</p><p> A pirate may have visited this island many times before and gained a lot of practice robbing ships there.</p><p>So, they’re more likely to be successful than a pirate who has never visited the island before.</p></div>","","","","","","","","","","","","","","","","","",""
"","html-keyboard-response","41","222205","0.0-35.0-5.0","""event"",""trial"",""time""
""fullscreenenter"",""0"",""7578""
","
","
","""event"",""trial"",""time""
""fullscreenenter"",""0"",""7578""
","
","704.8999999761581","<div class='center'><p>How successful a pirate is at robbing ships will depend on the island you’re on.</p><p> A pirate may have visited this island many times before and gained a lot of practice robbing ships there.</p><p>So, they’re more likely to be successful than a pirate who has never visited the island before.</p><p><b>[Press the space bar to continue]</b></p></div>","32","","","","","","","","","","","","","","","","","","","","","","",""
"","instruc12","42","263298","0.0-35.0-6.0","""event"",""trial"",""time""
""fullscreenenter"",""0"",""7578""
","
","
","""event"",""trial"",""time""
""fullscreenenter"",""0"",""7578""
","
","null","run_exp/static/audio/clip_14_drift.m4a","null","","","","","<div class='center'><p>How successful a pirate is at robbing ships can also change over the time spent on the island. </p><p> Ships may hear from islanders about the pirates coming and will improve their protections against the attack. This may make it harder to rob them.</p><p> Ships may also become lazy and weaken the strength of their protections. This may make it easier to rob them.</p><br><p>Things are always changing on the high seas! So, try your best to pay attention!</p><p><img src='run_exp/static/images/tutorial/contingency.png' height='500'></p></div>","","","","","","","","","","","","","","","","","",""
"","html-keyboard-response","43","264054","0.0-35.0-7.0","""event"",""trial"",""time""
""fullscreenenter"",""0"",""7578""
","
","
","""event"",""trial"",""time""
""fullscreenenter"",""0"",""7578""
","
","754.1999999880791","<div class='center'><p>How successful a pirate is at robbing ships can also change over the time spent on the island. </p><p> Ships may hear from islanders about the pirates coming and will improve their protections against the attack. This may make it harder to rob them.</p><p> Ships may also become lazy and weaken the strength of their protections. This may make it easier to rob them.</p><br><p>Things are always changing on the high seas! So, try your best to pay attention!</p><p><img src='run_exp/static/images/tutorial/contingency.png' height='500'></p><p><b>[Press the space bar to continue]</b></p></div>","32","","","","","","","","","","","","","","","","","","","","","","",""
"","instruc13","44","299239","0.0-35.0-8.0","""event"",""trial"",""time""
""fullscreenenter"",""0"",""7578""
","
","
","""event"",""trial"",""time""
""fullscreenenter"",""0"",""7578""
","
","null","run_exp/static/audio/clip_15_summary.m4a","null","","","","","<div class='center'><p>Let's go over the instructions quickly again. You have two important things to do: </p><b><p> 1. Pick the pirate who is the best at robbing ships on the current island. </p></b><b><p> 2. Remember on which island a ship was robbed.</p> </b><p>The amount of bonus money you can win depends on both.</p><p><br><p>Let’s try a practice game. The game will start by showing you the pirates. First, pick a pirate using the <b> 1, 2, 3 </b> keys on your keyboard. When you are shown a ship, try to remember which island you’re on by making up a story.</p><p>This is just a practice game, so you’re not playing for money. </p><p> Good luck! This game will be very difficult but try your best!</p></div>","","","","","","","","","","","","","","","","","",""
"","html-keyboard-response","45","307470","0.0-35.0-9.0","""event"",""trial"",""time""
""fullscreenenter"",""0"",""7578""
","
","
","""event"",""trial"",""time""
""fullscreenenter"",""0"",""7578""
","
","8230.600000023842","<div class='center'><p>Let's go over the instructions quickly again. You have two important things to do: </p><b><p> 1. Pick the pirate who is the best at robbing ships on the current island. </p></b><b><p> 2. Remember on which island a ship was robbed.</p> </b><p>The amount of bonus money you can win depends on both.</p><p><br><p>Let’s try a practice game. The game will start by showing you the pirates. First, pick a pirate using the <b> 1, 2, 3 </b> keys on your keyboard. When you are shown a ship, try to remember which island you’re on by making up a story.</p><p>This is just a practice game, so you’re not playing for money. </p><p> Good luck! This game will be very difficult but try your best!</p><p><b>[Press the space bar to continue]</b></p></div>","32","","","","","","","","","","","","","","","","","","","","","","",""
"","do_welcome","46","311475","0.0-35.0-10.0","""event"",""trial"",""time""
""fullscreenenter"",""0"",""7578""
","
","
","""event"",""trial"",""time""
""fullscreenenter"",""0"",""7578""
","
","null","","","","","","","","null","","","","","","","","","","","","","","","","",""
"","do_trial","47","316965","0.0-35.0-11.0","""event"",""trial"",""time""
""fullscreenenter"",""0"",""7578""
","
","
","""event"",""trial"",""time""
""fullscreenenter"",""0"",""7578""
","
","983.6999999880791","","","","","","","","49","1,0,0","","","","","","","","","","","","","","","",""
"","html-keyboard-response","48","317980","0.0-36.0-0.0","""event"",""trial"",""time""
""fullscreenenter"",""0"",""7578""
","
","
","""event"",""trial"",""time""
""fullscreenenter"",""0"",""7578""
","
","null","<p></p>","null","","","","","","","","","","","","","","","","","","","","","","",""
"","do_trial","49","324040","0.0-36.0-1.0","""event"",""trial"",""time""
""fullscreenenter"",""0"",""7578""
","
","
","""event"",""trial"",""time""
""fullscreenenter"",""0"",""7578""
","
","1542.0999999642372","","","","","","","","49","1,1,0","","","","","","","","","","","","","","","",""
"","html-keyboard-response","50","325053","0.0-37.0-0.0","""event"",""trial"",""time""
""fullscreenenter"",""0"",""7578""
","
","
","""event"",""trial"",""time""
""fullscreenenter"",""0"",""7578""
","
","null","<p></p>","null","","","","","","","","","","","","","","","","","","","","","","",""
"","do_trial","51","330273","0.0-37.0-1.0","""event"",""trial"",""time""
""fullscreenenter"",""0"",""7578""
","
","
","""event"",""trial"",""time""
""fullscreenenter"",""0"",""7578""
","
","701.8999999761581","","","","","","","","49","1,0,1","","","","","","","","","","","","","","","",""
"","html-keyboard-response","52","331281","0.0-38.0-0.0","""event"",""trial"",""time""
""fullscreenenter"",""0"",""7578""
","
","
","""event"",""trial"",""time""
""fullscreenenter"",""0"",""7578""
","
","null","<p></p>","null","","","","","","","","","","","","","","","","","","","","","","",""
"","do_trial","53","337559","0.0-38.0-1.0","""event"",""trial"",""time""
""fullscreenenter"",""0"",""7578""
","
","
","""event"",""trial"",""time""
""fullscreenenter"",""0"",""7578""
","
","1769.800000011921","","","","","","","","49","0,1,0","","","","","","","","","","","","","","","",""
"","html-keyboard-response","54","338571","0.0-39.0-0.0","""event"",""trial"",""time""
""fullscreenenter"",""0"",""7578""
","
","
","""event"",""trial"",""time""
""fullscreenenter"",""0"",""7578""
","
","null","<p></p>","null","","","","","","","","","","","","","","","","","","","","","","",""
"","do_trial","55","344109","0.0-39.0-1.0","""event"",""trial"",""time""
""fullscreenenter"",""0"",""7578""
","
","
","""event"",""trial"",""time""
""fullscreenenter"",""0"",""7578""
","
","1032.4000000357628","","","","","","","","50","1,0,0","","","","","","","","","","","","","","","",""
"","do_bye","56","345623","0.0-40.0-0.0","""event"",""trial"",""time""
""fullscreenenter"",""0"",""7578""
","
","
","""event"",""trial"",""time""
""fullscreenenter"",""0"",""7578""
","
","null","","","","","","","","null","","","","","","","","","","","","","","","","",""
"","do_travel","57","354634","0.0-40.0-1.0","""event"",""trial"",""time""
""fullscreenenter"",""0"",""7578""
","
","
","""event"",""trial"",""time""
""fullscreenenter"",""0"",""7578""
","
","null","","","","","","","","null","","","","","","","","","","","","","","","","",""
"","do_welcome","58","358641","0.0-40.0-2.0","""event"",""trial"",""time""
""fullscreenenter"",""0"",""7578""
","
","
","""event"",""trial"",""time""
""fullscreenenter"",""0"",""7578""
","
","null","","","","","","","","null","","","","","","","","","","","","","","","","",""
"","do_trial","59","364147","0.0-40.0-3.0","""event"",""trial"",""time""
""fullscreenenter"",""0"",""7578""
","
","
","""event"",""trial"",""time""
""fullscreenenter"",""0"",""7578""
","
","993.6999999880791","","","","","","","","49","1,0,0","","","","","","","","","","","","","","","",""
"","html-keyboard-response","60","365162","0.0-41.0-0.0","""event"",""trial"",""time""
""fullscreenenter"",""0"",""7578""
","
","
","""event"",""trial"",""time""
""fullscreenenter"",""0"",""7578""
","
","null","<p></p>","null","","","","","","","","","","","","","","","","","","","","","","",""
"","do_trial","61","369984","0.0-41.0-1.0","""event"",""trial"",""time""
""fullscreenenter"",""0"",""7578""
","
","
","""event"",""trial"",""time""
""fullscreenenter"",""0"",""7578""
","
","312","","","","","","","","49","1,0,1","","","","","","","","","","","","","","","",""
"","html-keyboard-response","62","370995","0.0-42.0-0.0","""event"",""trial"",""time""
""fullscreenenter"",""0"",""7578""
","
","
","""event"",""trial"",""time""
""fullscreenenter"",""0"",""7578""
","
","null","<p></p>","null","","","","","","","","","","","","","","","","","","","","","","",""
"","do_trial","63","376558","0.0-42.0-1.0","""event"",""trial"",""time""
""fullscreenenter"",""0"",""7578""
","
","
","""event"",""trial"",""time""
""fullscreenenter"",""0"",""7578""
","
","1055.3999999761581","","","","","","","","49","1,1,0","","","","","","","","","","","","","","","",""
"","html-keyboard-response","64","377573","0.0-43.0-0.0","""event"",""trial"",""time""
""fullscreenenter"",""0"",""7578""
","
","
","""event"",""trial"",""time""
""fullscreenenter"",""0"",""7578""
","
","null","<p></p>","null","","","","","","","","","","","","","","","","","","","","","","",""
"","do_trial","65","382476","0.0-43.0-1.0","""event"",""trial"",""time""
""fullscreenenter"",""0"",""7578""
","
","
","""event"",""trial"",""time""
""fullscreenenter"",""0"",""7578""
","
","389.39999997615814","","","","","","","","49","0,0,1","","","","","","","","","","","","","","","",""
"","html-keyboard-response","66","383491","0.0-44.0-0.0","""event"",""trial"",""time""
""fullscreenenter"",""0"",""7578""
","
","
","""event"",""trial"",""time""
""fullscreenenter"",""0"",""7578""
","
","null","<p></p>","null","","","","","","","","","","","","","","","","","","","","","","",""
"","do_trial","67","388304","0.0-44.0-1.0","""event"",""trial"",""time""
""fullscreenenter"",""0"",""7578""
","
","
","""event"",""trial"",""time""
""fullscreenenter"",""0"",""7578""
","
","295.30000001192093","","","","","","","","49","1,0,1","","","","","","","","","","","","","","","",""
"","html-keyboard-response","68","388966","0.0-45.0-0.0","""event"",""trial"",""time""
""fullscreenenter"",""0"",""7578""
","
","
","""event"",""trial"",""time""
""fullscreenenter"",""0"",""7578""
","
","660.9000000357628","<div class='center'><p><img src='run_exp/static/images/tutorial/prac_best_pirate.png'  height='500'></p></div>","49","","","","","","","","","","","","","","","","","","","","","","",""
"","html-keyboard-response","69","391598","0.0-46.0-0.0","""event"",""trial"",""time""
""fullscreenenter"",""0"",""7578""
","
","
","""event"",""trial"",""time""
""fullscreenenter"",""0"",""7578""
","
","2631.5","<div class='center'><p>That's correct! Red beard was the best.</p><p><b>[Press the space bar to continue]</b></p></div>","32","","","","","","","","","","","","","","","","","","","","","","",""
"","html-keyboard-response","70","394551","0.0-46.0-1.0","""event"",""trial"",""time""
""fullscreenenter"",""0"",""7578""
","
","
","""event"",""trial"",""time""
""fullscreenenter"",""0"",""7578""
","
","2952.100000023842","<div class='center'><p><img src='run_exp/static/images/tutorial/prac_source.png'  height='500'></p></div>","50","","","","","","","","","","","","","","","","","","","","","","",""
"","html-keyboard-response","71","395519","0.0-47.0-0.0","""event"",""trial"",""time""
""fullscreenenter"",""0"",""7578""
","
","
","""event"",""trial"",""time""
""fullscreenenter"",""0"",""7578""
","
","967.1000000238419","<div class='center'><p>That's correct! You saw this ship on the cavern island.</p><p><b>[Press the space bar to continue]</b></p></div>","32","","","","","","","","","","","","","","","","","","","","","","",""
"","quiz_beginning","72","406709","0.0-47.0-1.0","""event"",""trial"",""time""
""fullscreenenter"",""0"",""7578""
","
","
","""event"",""trial"",""time""
""fullscreenenter"",""0"",""7578""
","
","null","run_exp/static/audio/clip_16_quiz_intro.m4a","null","","","","","<div class='center'><p>Good job on the practice game! Now, you will be asked some true or false questions to make sure you really understand the rules of the game.</p><p> Press <b>'1'</b> on the keyboard for true and press <b>'2'</b> for false.</p></div>","","","","","","","","","","","","","","","","","",""
"","audio-keyboard-response","73","414663","0.0-47.0-2.0","""event"",""trial"",""time""
""fullscreenenter"",""0"",""7578""
","
","
","""event"",""trial"",""time""
""fullscreenenter"",""0"",""7578""
","
","7952.699999988079","run_exp/static/audio/clip_17_q1.m4a","50","","","","","","","","","","","","","","","","","","","","","","",""
"","q1_err","74","419549","0.0-48.0-0.0","""event"",""trial"",""time""
""fullscreenenter"",""0"",""7578""
","
","
","""event"",""trial"",""time""
""fullscreenenter"",""0"",""7578""
","
","null","run_exp/static/audio/clip_19_wrong_q1.m4a","null","","","","","<div class='center'><p>That’s incorrect. You win bonus money by collecting gold coins.</p></div>","","","","","","","","","","","","","","","","","",""
"","html-keyboard-response","75","419590","0.0-48.0-1.0","""event"",""trial"",""time""
""fullscreenenter"",""0"",""7578""
","
","
","""event"",""trial"",""time""
""fullscreenenter"",""0"",""7578""
","
","40.60000002384186","<div class='center'><p>That’s incorrect. You win bonus money by collecting gold coins.</p><p><b>[Press the space bar to continue]</b></p></div>","32","","","","","","","","","","","","","","","","","","","","","","",""
"","audio-keyboard-response","76","425398","0.0-48.0-2.0","""event"",""trial"",""time""
""fullscreenenter"",""0"",""7578""
","
","
","""event"",""trial"",""time""
""fullscreenenter"",""0"",""7578""
","
","5807.300000011921","run_exp/static/audio/clip_20_q2.m4a","50","","","","","","","","","","","","","","","","","","","","","","",""
"","correct","77","427809","0.0-49.0-0.0","""event"",""trial"",""time""
""fullscreenenter"",""0"",""7578""
","
","
","""event"",""trial"",""time""
""fullscreenenter"",""0"",""7578""
","
","null","run_exp/static/audio/clip_18_correct.m4a","null","","","","","<div class='center'><p>That's correct!</p></div>","","","","","","","","","","","","","","","","","",""
"","html-keyboard-response","78","428494","0.0-49.0-1.0","""event"",""trial"",""time""
""fullscreenenter"",""0"",""7578""
","
","
","""event"",""trial"",""time""
""fullscreenenter"",""0"",""7578""
","
","684.6000000238419","<div class='center'><p>That's correct!</p><p><b>[Press the space bar to continue]</b></p></div>","32","","","","","","","","","","","","","","","","","","","","","","",""
"","audio-keyboard-response","79","432518","0.0-49.0-2.0","""event"",""trial"",""time""
""fullscreenenter"",""0"",""7578""
","
","
","""event"",""trial"",""time""
""fullscreenenter"",""0"",""7578""
","
","4023.5","run_exp/static/audio/clip_22_q3.m4a","50","","","","","","","","","","","","","","","","","","","","","","",""
"","correct","80","434909","0.0-50.0-0.0","""event"",""trial"",""time""
""fullscreenenter"",""0"",""7578""
","
","
","""event"",""trial"",""time""
""fullscreenenter"",""0"",""7578""
","
","null","run_exp/static/audio/clip_18_correct.m4a","null","","","","","<div class='center'><p>That's correct!</p></div>","","","","","","","","","","","","","","","","","",""
"","html-keyboard-response","81","435006","0.0-50.0-1.0","""event"",""trial"",""time""
""fullscreenenter"",""0"",""7578""
","
","
","""event"",""trial"",""time""
""fullscreenenter"",""0"",""7578""
","
","96.20000004768372","<div class='center'><p>That's correct!</p><p><b>[Press the space bar to continue]</b></p></div>","32","","","","","","","","","","","","","","","","","","","","","","",""
"","audio-keyboard-response","82","439102","0.0-50.0-2.0","""event"",""trial"",""time""
""fullscreenenter"",""0"",""7578""
","
","
","""event"",""trial"",""time""
""fullscreenenter"",""0"",""7578""
","
","4096","run_exp/static/audio/clip_24_q4.m4a","49","","","","","","","","","","","","","","","","","","","","","","",""
"","correct","83","441489","0.0-51.0-0.0","""event"",""trial"",""time""
""fullscreenenter"",""0"",""7578""
","
","
","""event"",""trial"",""time""
""fullscreenenter"",""0"",""7578""
","
","null","run_exp/static/audio/clip_18_correct.m4a","null","","","","","<div class='center'><p>That's correct!</p></div>","","","","","","","","","","","","","","","","","",""
"","html-keyboard-response","84","441782","0.0-51.0-1.0","""event"",""trial"",""time""
""fullscreenenter"",""0"",""7578""
","
","
","""event"",""trial"",""time""
""fullscreenenter"",""0"",""7578""
","
","292.5","<div class='center'><p>That's correct!</p><p><b>[Press the space bar to continue]</b></p></div>","32","","","","","","","","","","","","","","","","","","","","","","",""
"","q_all_err","85","447969","0.0-52.0-0.0","""event"",""trial"",""time""
""fullscreenenter"",""0"",""7578""
","
","
","""event"",""trial"",""time""
""fullscreenenter"",""0"",""7578""
","
","null","run_exp/static/audio/clip_26_quiz_redo.m4a","null","","","","","<div class='center'><p>Oops, you missed some questions. Now that you’ve heard the correct answers. Try the quiz again! </p></div>","","","","","","","","","","","","","","","","","",""
"","html-keyboard-response","86","448998","0.0-52.0-1.0","""event"",""trial"",""time""
""fullscreenenter"",""0"",""7578""
","
","
","""event"",""trial"",""time""
""fullscreenenter"",""0"",""7578""
","
","1027.8999999761581","<div class='center'><p>Oops, you missed some questions. Now that you’ve heard the correct answers. Try the quiz again! </p><p><b>[Press the space bar to continue]</b></p></div>","32","","","","","","","","","","","","","","","","","","","","","","",""
"","audio-keyboard-response","87","450334","0.0-52.0-2.0","""event"",""trial"",""time""
""fullscreenenter"",""0"",""7578""
","
","
","""event"",""trial"",""time""
""fullscreenenter"",""0"",""7578""
","
","1335.800000011921","run_exp/static/audio/clip_17_q1.m4a","49","","","","","","","","","","","","","","","","","","","","","","",""
"","correct","88","452728","0.0-53.0-0.0","""event"",""trial"",""time""
""fullscreenenter"",""0"",""7578""
","
","
","""event"",""trial"",""time""
""fullscreenenter"",""0"",""7578""
","
","null","run_exp/static/audio/clip_18_correct.m4a","null","","","","","<div class='center'><p>That's correct!</p></div>","","","","","","","","","","","","","","","","","",""
"","html-keyboard-response","89","452838","0.0-53.0-1.0","""event"",""trial"",""time""
""fullscreenenter"",""0"",""7578""
","
","
","""event"",""trial"",""time""
""fullscreenenter"",""0"",""7578""
","
","109.30000001192093","<div class='center'><p>That's correct!</p><p><b>[Press the space bar to continue]</b></p></div>","32","","","","","","","","","","","","","","","","","","","","","","",""
"","audio-keyboard-response","90","456238","0.0-53.0-2.0","""event"",""trial"",""time""
""fullscreenenter"",""0"",""7578""
","
","
","""event"",""trial"",""time""
""fullscreenenter"",""0"",""7578""
","
","3399.199999988079","run_exp/static/audio/clip_20_q2.m4a","50","","","","","","","","","","","","","","","","","","","","","","",""
"","correct","91","458629","0.0-54.0-0.0","""event"",""trial"",""time""
""fullscreenenter"",""0"",""7578""
","
","
","""event"",""trial"",""time""
""fullscreenenter"",""0"",""7578""
","
","null","run_exp/static/audio/clip_18_correct.m4a","null","","","","","<div class='center'><p>That's correct!</p></div>","","","","","","","","","","","","","","","","","",""
"","html-keyboard-response","92","458806","0.0-54.0-1.0","""event"",""trial"",""time""
""fullscreenenter"",""0"",""7578""
","
","
","""event"",""trial"",""time""
""fullscreenenter"",""0"",""7578""
","
","177.10000002384186","<div class='center'><p>That's correct!</p><p><b>[Press the space bar to continue]</b></p></div>","32","","","","","","","","","","","","","","","","","","","","","","",""
"","audio-keyboard-response","93","465030","0.0-54.0-2.0","""event"",""trial"",""time""
""fullscreenenter"",""0"",""7578""
","
","
","""event"",""trial"",""time""
""fullscreenenter"",""0"",""7578""
","
","6223.100000023842","run_exp/static/audio/clip_22_q3.m4a","50","","","","","","","","","","","","","","","","","","","","","","",""
"","correct","94","467428","0.0-55.0-0.0","""event"",""trial"",""time""
""fullscreenenter"",""0"",""7578""
","
","
","""event"",""trial"",""time""
""fullscreenenter"",""0"",""7578""
","
","null","run_exp/static/audio/clip_18_correct.m4a","null","","","","","<div class='center'><p>That's correct!</p></div>","","","","","","","","","","","","","","","","","",""
"","html-keyboard-response","95","467775","0.0-55.0-1.0","""event"",""trial"",""time""
""fullscreenenter"",""0"",""7578""
","
","
","""event"",""trial"",""time""
""fullscreenenter"",""0"",""7578""
","
","345.9000000357628","<div class='center'><p>That's correct!</p><p><b>[Press the space bar to continue]</b></p></div>","32","","","","","","","","","","","","","","","","","","","","","","",""
"","audio-keyboard-response","96","469678","0.0-55.0-2.0","""event"",""trial"",""time""
""fullscreenenter"",""0"",""7578""
","
","
","""event"",""trial"",""time""
""fullscreenenter"",""0"",""7578""
","
","1902.4000000357628","run_exp/static/audio/clip_24_q4.m4a","49","","","","","","","","","","","","","","","","","","","","","","",""
"","correct","97","472109","0.0-56.0-0.0","""event"",""trial"",""time""
""fullscreenenter"",""0"",""7578""
","
","
","""event"",""trial"",""time""
""fullscreenenter"",""0"",""7578""
","
","null","run_exp/static/audio/clip_18_correct.m4a","null","","","","","<div class='center'><p>That's correct!</p></div>","","","","","","","","","","","","","","","","","",""
"","html-keyboard-response","98","473078","0.0-56.0-1.0","""event"",""trial"",""time""
""fullscreenenter"",""0"",""7578""
","
","
","""event"",""trial"",""time""
""fullscreenenter"",""0"",""7578""
","
","968.5","<div class='center'><p>That's correct!</p><p><b>[Press the space bar to continue]</b></p></div>","32","","","","","","","","","","","","","","","","","","","","","","",""
"","q_all_corr","99","481569","0.0-57.0-0.0","""event"",""trial"",""time""
""fullscreenenter"",""0"",""7578""
","
","
","""event"",""trial"",""time""
""fullscreenenter"",""0"",""7578""
","
","null","run_exp/static/audio/clip_27_quiz_all_correct.m4a","null","","","","","<div class='center'><p>Good job! You’re now ready to move on to the real game! Remember this game will be difficult but don't get discouraged and try your best!</p></div>","","","","","","","","","","","","","","","","","",""
"","html-keyboard-response","100","482534","0.0-57.0-1.0","""event"",""trial"",""time""
""fullscreenenter"",""0"",""7578""
","
","
","""event"",""trial"",""time""
""fullscreenenter"",""0"",""7578""
","
","964.3000000119209","<div class='center'><p>Good job! You’re now ready to move on to the real game! Remember this game will be difficult but don't get discouraged and try your best!</p><p><b>[Press the space bar to continue]</b></p></div>","32","","","","","","","","","","","","","","","","","","","","","","",""
"","do_welcome","101","486538","0.0-58.0-0.0","""event"",""trial"",""time""
""fullscreenenter"",""0"",""7578""
","
","
","""event"",""trial"",""time""
""fullscreenenter"",""0"",""7578""
","
","null","","","","","","","","null","","","","","","","","","","","","","","","","",""
"","do_trial","102","492022","0.0-59.0-0.0","""event"",""trial"",""time""
""fullscreenenter"",""0"",""7578""
","
","
","""event"",""trial"",""time""
""fullscreenenter"",""0"",""7578""
","
","931.3999999761581","","","","","","","","49","0,0,0","0","coast","0","probe-140","0.6","0.3","0.1","0","","","","","","","",""
"","html-keyboard-response","103","493036","0.0-59.0-1.0","""event"",""trial"",""time""
""fullscreenenter"",""0"",""7578""
","
","
","""event"",""trial"",""time""
""fullscreenenter"",""0"",""7578""
","
","null","<p></p>","null","","","","","","","","","","","","","","","","","","","","","","",""
"","do_trial","104","497936","0.0-60.0-0.0","""event"",""trial"",""time""
""fullscreenenter"",""0"",""7578""
","
","
","""event"",""trial"",""time""
""fullscreenenter"",""0"",""7578""
","
","363.80000001192093","","","","","","","","51","1,0,0","0","coast","1","probe-38","0.5839634974752551","0.3367977975001612","0.09567538069029582","0","","","","","","","",""
"","html-keyboard-response","105","498947","0.0-60.0-1.0","""event"",""trial"",""time""
""fullscreenenter"",""0"",""7578""
","
","
","""event"",""trial"",""time""
""fullscreenenter"",""0"",""7578""
","
","null","<p></p>","null","","","","","","","","","","","","","","","","","","","","","","",""
"","do_trial","106","503757","0.0-61.0-0.0","""event"",""trial"",""time""
""fullscreenenter"",""0"",""7578""
","
","
","""event"",""trial"",""time""
""fullscreenenter"",""0"",""7578""
","
","277.19999998807907","","","","","","","","50","1,1,0","0","coast","2","probe-210","0.5575393847899589","0.35187695115982565","0.09854795451144072","1","","","","","","","",""
"","html-keyboard-response","107","504770","0.0-61.0-1.0","""event"",""trial"",""time""
""fullscreenenter"",""0"",""7578""
","
","
","""event"",""trial"",""time""
""fullscreenenter"",""0"",""7578""
","
","null","<p></p>","null","","","","","","","","","","","","","","","","","","","","","","",""
"","do_trial","108","510281","0.0-62.0-0.0","""event"",""trial"",""time""
""fullscreenenter"",""0"",""7578""
","
","
","""event"",""trial"",""time""
""fullscreenenter"",""0"",""7578""
","
","970.8999999761581","","","","","","","","50","0,0,0","0","coast","3","probe-61","0.5550854306835021","0.41743416684196577","0.18168164238004203","0","","","","","","","",""
"","html-keyboard-response","109","511284","0.0-62.0-1.0","""event"",""trial"",""time""
""fullscreenenter"",""0"",""7578""
","
","
","""event"",""trial"",""time""
""fullscreenenter"",""0"",""7578""
","
","null","<p></p>","null","","","","","","","","","","","","","","","","","","","","","","",""
"","do_trial","110","516130","0.0-63.0-0.0","""event"",""trial"",""time""
""fullscreenenter"",""0"",""7578""
","
","
","""event"",""trial"",""time""
""fullscreenenter"",""0"",""7578""
","
","297.30000001192093","","","","","","","","49","1,1,0","0","coast","4","probe-21","0.6474306560205941","0.46199624756206203","0.09937634759787958","1","","","","","","","",""
"","html-keyboard-response","111","517142","0.0-63.0-1.0","""event"",""trial"",""time""
""fullscreenenter"",""0"",""7578""
","
","
","""event"",""trial"",""time""
""fullscreenenter"",""0"",""7578""
","
","null","<p></p>","null","","","","","","","","","","","","","","","","","","","","","","",""
"","do_trial","112","522039","0.0-64.0-0.0","""event"",""trial"",""time""
""fullscreenenter"",""0"",""7578""
","
","
","""event"",""trial"",""time""
""fullscreenenter"",""0"",""7578""
","
","354.9000000357628","","","","","","","","49","0,1,0","0","coast","5","probe-119","0.774989757393642","0.4673796413219477","0.09033418556380404","0","","","","","","","",""
"","html-keyboard-response","113","523050","0.0-64.0-1.0","""event"",""trial"",""time""
""fullscreenenter"",""0"",""7578""
","
","
","""event"",""trial"",""time""
""fullscreenenter"",""0"",""7578""
","
","null","<p></p>","null","","","","","","","","","","","","","","","","","","","","","","",""
"","do_trial","114","527587","0.0-65.0-0.0","""event"",""trial"",""time""
""fullscreenenter"",""0"",""7578""
","
","
","""event"",""trial"",""time""
""fullscreenenter"",""0"",""7578""
","
","0.10000002384185791","","","","","","","","51","1,0,0","0","coast","6","probe-96","0.5915544812690816","0.2957940121346824","0.09278784390147292","0","","","","","","","",""
"","html-keyboard-response","115","528597","0.0-65.0-1.0","""event"",""trial"",""time""
""fullscreenenter"",""0"",""7578""
","
","
","""event"",""trial"",""time""
""fullscreenenter"",""0"",""7578""
","
","null","<p></p>","null","","","","","","","","","","","","","","","","","","","","","","",""
"","do_trial","116","533576","0.0-66.0-0.0","""event"",""trial"",""time""
""fullscreenenter"",""0"",""7578""
","
","
","""event"",""trial"",""time""
""fullscreenenter"",""0"",""7578""
","
","442.60000002384186","","","","","","","","50","1,0,0","0","coast","7","probe-52","0.6989194566890953","0.22322808036361172","0.1316417722975166","0","","","","","","","",""
"","html-keyboard-response","117","534591","0.0-66.0-1.0","""event"",""trial"",""time""
""fullscreenenter"",""0"",""7578""
","
","
","""event"",""trial"",""time""
""fullscreenenter"",""0"",""7578""
","
","null","<p></p>","null","","","","","","","","","","","","","","","","","","","","","","",""
"","do_trial","118","539491","0.0-67.0-0.0","""event"",""trial"",""time""
""fullscreenenter"",""0"",""7578""
","
","
","""event"",""trial"",""time""
""fullscreenenter"",""0"",""7578""
","
","360.60000002384186","","","","","","","","49","0,0,1","0","coast","8","probe-58","0.5543423517230878","0.4054470545511816","0.2748017751098653","0","","","","","","","",""
"","html-keyboard-response","119","540504","0.0-67.0-1.0","""event"",""trial"",""time""
""fullscreenenter"",""0"",""7578""
","
","
","""event"",""trial"",""time""
""fullscreenenter"",""0"",""7578""
","
","null","<p></p>","null","","","","","","","","","","","","","","","","","","","","","","",""
"","do_trial","120","546000","0.0-68.0-0.0","""event"",""trial"",""time""
""fullscreenenter"",""0"",""7578""
","
","
","""event"",""trial"",""time""
""fullscreenenter"",""0"",""7578""
","
","959.9000000357628","","","","","","","","51","0,0,1","0","coast","9","probe-44","0.5578462794217071","0.4242853481688323","0.17673075050700557","1","","","","","","","",""
"","html-keyboard-response","121","547013","0.0-68.0-1.0","""event"",""trial"",""time""
""fullscreenenter"",""0"",""7578""
","
","
","""event"",""trial"",""time""
""fullscreenenter"",""0"",""7578""
","
","null","<p></p>","null","","","","","","","","","","","","","","","","","","","","","","",""
"","do_trial","122","552283","0.0-69.0-0.0","""event"",""trial"",""time""
""fullscreenenter"",""0"",""7578""
","
","
","""event"",""trial"",""time""
""fullscreenenter"",""0"",""7578""
","
","730.5","","","","","","","","50","0,0,0","0","coast","10","probe-137","0.5827104791853411","0.26224851093623336","0.08124327799927132","0","","","","","","","",""
"","html-keyboard-response","123","553298","0.0-69.0-1.0","""event"",""trial"",""time""
""fullscreenenter"",""0"",""7578""
","
","
","""event"",""trial"",""time""
""fullscreenenter"",""0"",""7578""
","
","null","<p></p>","null","","","","","","","","","","","","","","","","","","","","","","",""
"","do_trial","124","558108","0.0-70.0-0.0","""event"",""trial"",""time""
""fullscreenenter"",""0"",""7578""
","
","
","""event"",""trial"",""time""
""fullscreenenter"",""0"",""7578""
","
","270.80000001192093","","","","","","","","51","0,0,0","0","coast","11","probe-74","0.4950554672216547","0.18442719379928021","0.06391018994277578","0","","","","","","","",""
"","html-keyboard-response","125","559115","0.0-70.0-1.0","""event"",""trial"",""time""
""fullscreenenter"",""0"",""7578""
","
","
","""event"",""trial"",""time""
""fullscreenenter"",""0"",""7578""
","
","null","<p></p>","null","","","","","","","","","","","","","","","","","","","","","","",""
"","do_trial","126","565520","0.0-71.0-0.0","""event"",""trial"",""time""
""fullscreenenter"",""0"",""7578""
","
","
","""event"",""trial"",""time""
""fullscreenenter"",""0"",""7578""
","
","1867.9000000357628","","","","","","","","49","1,1,0","0","coast","12","probe-112","0.5227288988895858","0.20601557896680459","0.2172367870005142","1","","","","","","","",""
"","html-keyboard-response","127","566534","0.0-71.0-1.0","""event"",""trial"",""time""
""fullscreenenter"",""0"",""7578""
","
","
","""event"",""trial"",""time""
""fullscreenenter"",""0"",""7578""
","
","null","<p></p>","null","","","","","","","","","","","","","","","","","","","","","","",""
"","do_trial","128","573518","0.0-72.0-0.0","""event"",""trial"",""time""
""fullscreenenter"",""0"",""7578""
","
","
","""event"",""trial"",""time""
""fullscreenenter"",""0"",""7578""
","
","2448.399999976158","","","","","","","","51","1,0,0","0","coast","13","probe-144","0.5943036939901913","0.33431523474975955","0.0677661717888296","0","","","","","","","",""
"","html-keyboard-response","129","574532","0.0-72.0-1.0","""event"",""trial"",""time""
""fullscreenenter"",""0"",""7578""
","
","
","""event"",""trial"",""time""
""fullscreenenter"",""0"",""7578""
","
","null","<p></p>","null","","","","","","","","","","","","","","","","","","","","","","",""
"","do_trial","130","579257","0.0-73.0-0.0","""event"",""trial"",""time""
""fullscreenenter"",""0"",""7578""
","
","
","""event"",""trial"",""time""
""fullscreenenter"",""0"",""7578""
","
","179.69999998807907","","","","","","","","49","1,0,0","0","coast","14","probe-39","0.6006434584827585","0.2607476527451936","0.07097713772543592","1","","","","","","","",""
"","html-keyboard-response","131","580268","0.0-73.0-1.0","""event"",""trial"",""time""
""fullscreenenter"",""0"",""7578""
","
","
","""event"",""trial"",""time""
""fullscreenenter"",""0"",""7578""
","
","null","<p></p>","null","","","","","","","","","","","","","","","","","","","","","","",""
"","do_trial","132","585058","0.0-74.0-0.0","""event"",""trial"",""time""
""fullscreenenter"",""0"",""7578""
","
","
","""event"",""trial"",""time""
""fullscreenenter"",""0"",""7578""
","
","243.19999998807907","","","","","","","","49","1,1,0","0","coast","15","probe-190","0.5070266403291358","0.3564261358071601","0.21376506315504848","1","","","","","","","",""
"","html-keyboard-response","133","586073","0.0-74.0-1.0","""event"",""trial"",""time""
""fullscreenenter"",""0"",""7578""
","
","
","""event"",""trial"",""time""
""fullscreenenter"",""0"",""7578""
","
","null","<p></p>","null","","","","","","","","","","","","","","","","","","","","","","",""
"","do_trial","134","590772","0.0-75.0-0.0","""event"",""trial"",""time""
""fullscreenenter"",""0"",""7578""
","
","
","""event"",""trial"",""time""
""fullscreenenter"",""0"",""7578""
","
","164.69999998807907","","","","","","","","49","1,1,1","0","coast","16","probe-36","0.5760623823673386","0.2781688637797304","0.3017830176788481","1","","","","","","","",""
"","html-keyboard-response","135","591784","0.0-75.0-1.0","""event"",""trial"",""time""
""fullscreenenter"",""0"",""7578""
","
","
","""event"",""trial"",""time""
""fullscreenenter"",""0"",""7578""
","
","null","<p></p>","null","","","","","","","","","","","","","","","","","","","","","","",""
"","do_trial","136","596626","0.0-76.0-0.0","""event"",""trial"",""time""
""fullscreenenter"",""0"",""7578""
","
","
","""event"",""trial"",""time""
""fullscreenenter"",""0"",""7578""
","
","296.30000001192093","","","","","","","","49","1,0,0","0","coast","17","probe-160","0.6226528787065508","0.25923953304225267","0.2587587771907278","1","","","","","","","",""
"","html-keyboard-response","137","597638","0.0-76.0-1.0","""event"",""trial"",""time""
""fullscreenenter"",""0"",""7578""
","
","
","""event"",""trial"",""time""
""fullscreenenter"",""0"",""7578""
","
","null","<p></p>","null","","","","","","","","","","","","","","","","","","","","","","",""
"","do_trial","138","602427","0.0-77.0-0.0","""event"",""trial"",""time""
""fullscreenenter"",""0"",""7578""
","
","
","""event"",""trial"",""time""
""fullscreenenter"",""0"",""7578""
","
","248.5","","","","","","","","49","1,0,1","0","coast","18","probe-124","0.6892108016099373","0.2538045808316827","0.20594817409593777","1","","","","","","","",""
"","html-keyboard-response","139","603440","0.0-77.0-1.0","""event"",""trial"",""time""
""fullscreenenter"",""0"",""7578""
","
","
","""event"",""trial"",""time""
""fullscreenenter"",""0"",""7578""
","
","null","<p></p>","null","","","","","","","","","","","","","","","","","","","","","","",""
"","do_trial","140","608279","0.0-78.0-0.0","""event"",""trial"",""time""
""fullscreenenter"",""0"",""7578""
","
","
","""event"",""trial"",""time""
""fullscreenenter"",""0"",""7578""
","
","303.4000000357628","","","","","","","","49","1,1,0","0","coast","19","probe-126","0.6574784998809458","0.3554312897357248","0.10529697068750331","1","","","","","","","",""
"","html-keyboard-response","141","609286","0.0-78.0-1.0","""event"",""trial"",""time""
""fullscreenenter"",""0"",""7578""
","
","
","""event"",""trial"",""time""
""fullscreenenter"",""0"",""7578""
","
","null","<p></p>","null","","","","","","","","","","","","","","","","","","","","","","",""
"","do_trial","142","614102","0.0-79.0-0.0","""event"",""trial"",""time""
""fullscreenenter"",""0"",""7578""
","
","
","""event"",""trial"",""time""
""fullscreenenter"",""0"",""7578""
","
","280.80000001192093","","","","","","","","49","1,0,0","0","coast","20","probe-214","0.6616831800176943","0.4014344636884264","0.1049748710840626","1","","","","","","","",""
"","html-keyboard-response","143","615105","0.0-79.0-1.0","""event"",""trial"",""time""
""fullscreenenter"",""0"",""7578""
","
","
","""event"",""trial"",""time""
""fullscreenenter"",""0"",""7578""
","
","null","<p></p>","null","","","","","","","","","","","","","","","","","","","","","","",""
"","do_trial","144","619880","0.0-80.0-0.0","""event"",""trial"",""time""
""fullscreenenter"",""0"",""7578""
","
","
","""event"",""trial"",""time""
""fullscreenenter"",""0"",""7578""
","
","230.69999998807907","","","","","","","","49","1,0,1","0","coast","21","probe-06","0.5743994855283698","0.1896006715155843","0.09102600290171617","1","","","","","","","",""
"","html-keyboard-response","145","620894","0.0-80.0-1.0","""event"",""trial"",""time""
""fullscreenenter"",""0"",""7578""
","
","
","""event"",""trial"",""time""
""fullscreenenter"",""0"",""7578""
","
","null","<p></p>","null","","","","","","","","","","","","","","","","","","","","","","",""
"","do_trial","146","625747","0.0-81.0-0.0","""event"",""trial"",""time""
""fullscreenenter"",""0"",""7578""
","
","
","""event"",""trial"",""time""
""fullscreenenter"",""0"",""7578""
","
","321.19999998807907","","","","","","","","49","1,0,0","0","coast","22","probe-227","0.6576414389045587","0.2154415281394255","0.10229795244688744","1","","","","","","","",""
"","html-keyboard-response","147","626761","0.0-81.0-1.0","""event"",""trial"",""time""
""fullscreenenter"",""0"",""7578""
","
","
","""event"",""trial"",""time""
""fullscreenenter"",""0"",""7578""
","
","null","<p></p>","null","","","","","","","","","","","","","","","","","","","","","","",""
"","do_trial","148","631993","0.0-82.0-0.0","""event"",""trial"",""time""
""fullscreenenter"",""0"",""7578""
","
","
","""event"",""trial"",""time""
""fullscreenenter"",""0"",""7578""
","
","683","","","","","","","","49","0,0,1","0","coast","23","probe-212","0.6468206884098419","0.1766813251951666","0.21397696854732443","0","","","","","","","",""
"","html-keyboard-response","149","633005","0.0-82.0-1.0","""event"",""trial"",""time""
""fullscreenenter"",""0"",""7578""
","
","
","""event"",""trial"",""time""
""fullscreenenter"",""0"",""7578""
","
","null","<p></p>","null","","","","","","","","","","","","","","","","","","","","","","",""
"","do_trial","150","637920","0.0-83.0-0.0","""event"",""trial"",""time""
""fullscreenenter"",""0"",""7578""
","
","
","""event"",""trial"",""time""
""fullscreenenter"",""0"",""7578""
","
","369.19999998807907","","","","","","","","49","0,0,0","0","coast","24","probe-167","0.6157839731113439","0.2830315022291573","0.12019742988826786","0","","","","","","","",""
"","html-keyboard-response","151","638934","0.0-83.0-1.0","""event"",""trial"",""time""
""fullscreenenter"",""0"",""7578""
","
","
","""event"",""trial"",""time""
""fullscreenenter"",""0"",""7578""
","
","null","<p></p>","null","","","","","","","","","","","","","","","","","","","","","","",""
"","do_trial","152","643733","0.0-84.0-0.0","""event"",""trial"",""time""
""fullscreenenter"",""0"",""7578""
","
","
","""event"",""trial"",""time""
""fullscreenenter"",""0"",""7578""
","
","257","","","","","","","","49","1,0,0","0","coast","25","probe-185","0.5867052997059057","0.21291271281232513","0.21906716520618427","1","","","","","","","",""
"","html-keyboard-response","153","644749","0.0-84.0-1.0","""event"",""trial"",""time""
""fullscreenenter"",""0"",""7578""
","
","
","""event"",""trial"",""time""
""fullscreenenter"",""0"",""7578""
","
","null","<p></p>","null","","","","","","","","","","","","","","","","","","","","","","",""
"","do_trial","154","649525","0.0-85.0-0.0","""event"",""trial"",""time""
""fullscreenenter"",""0"",""7578""
","
","
","""event"",""trial"",""time""
""fullscreenenter"",""0"",""7578""
","
","238.30000001192093","","","","","","","","49","1,1,0","0","coast","26","probe-07","0.5671462336856956","0.1909312991807698","0.2502435721266969","1","","","","","","","",""
"","html-keyboard-response","155","650537","0.0-85.0-1.0","""event"",""trial"",""time""
""fullscreenenter"",""0"",""7578""
","
","
","""event"",""trial"",""time""
""fullscreenenter"",""0"",""7578""
","
","null","<p></p>","null","","","","","","","","","","","","","","","","","","","","","","",""
"","do_trial","156","655663","0.0-86.0-0.0","""event"",""trial"",""time""
""fullscreenenter"",""0"",""7578""
","
","
","""event"",""trial"",""time""
""fullscreenenter"",""0"",""7578""
","
","578.5","","","","","","","","49","0,0,0","0","coast","27","probe-229","0.41914377641920836","0.13449244496261067","0.14015305015983803","0","","","","","","","",""
"","html-keyboard-response","157","656679","0.0-86.0-1.0","""event"",""trial"",""time""
""fullscreenenter"",""0"",""7578""
","
","
","""event"",""trial"",""time""
""fullscreenenter"",""0"",""7578""
","
","null","<p></p>","null","","","","","","","","","","","","","","","","","","","","","","",""
"","do_trial","158","661370","0.0-87.0-0.0","""event"",""trial"",""time""
""fullscreenenter"",""0"",""7578""
","
","
","""event"",""trial"",""time""
""fullscreenenter"",""0"",""7578""
","
","149","","","","","","","","50","1,0,0","0","coast","28","probe-122","0.4056376929111425","0.10145571268029288","0.19794649915688076","0","","","","","","","",""
"","html-keyboard-response","159","662383","0.0-87.0-1.0","""event"",""trial"",""time""
""fullscreenenter"",""0"",""7578""
","
","
","""event"",""trial"",""time""
""fullscreenenter"",""0"",""7578""
","
","null","<p></p>","null","","","","","","","","","","","","","","","","","","","","","","",""
"","do_trial","160","667432","0.0-88.0-0.0","""event"",""trial"",""time""
""fullscreenenter"",""0"",""7578""
","
","
","""event"",""trial"",""time""
""fullscreenenter"",""0"",""7578""
","
","512","","","","","","","","51","1,0,0","0","coast","29","probe-91","0.44655214581671443","0.3340421110848863","0.21318301199474834","0","","","","","","","",""
"","html-keyboard-response","161","668433","0.0-88.0-1.0","""event"",""trial"",""time""
""fullscreenenter"",""0"",""7578""
","
","
","""event"",""trial"",""time""
""fullscreenenter"",""0"",""7578""
","
","null","<p></p>","null","","","","","","","","","","","","","","","","","","","","","","",""
"","do_bye","162","669948","0.0-89.0-0.0","""event"",""trial"",""time""
""fullscreenenter"",""0"",""7578""
""blur"",""163"",""680964""
""focus"",""163"",""688956""
","""event"",""trial"",""time""
""blur"",""163"",""680964""
","""event"",""trial"",""time""
""focus"",""163"",""688956""
","""event"",""trial"",""time""
""fullscreenenter"",""0"",""7578""
","
","null","","","","","","","","null","","","","","","","","","","","","","","","","",""
"","break","163","692910","0.0-89.0-1.0","""event"",""trial"",""time""
""fullscreenenter"",""0"",""7578""
""blur"",""163"",""680964""
""focus"",""163"",""688956""
","""event"",""trial"",""time""
""blur"",""163"",""680964""
","""event"",""trial"",""time""
""focus"",""163"",""688956""
","""event"",""trial"",""time""
""fullscreenenter"",""0"",""7578""
","
","22960.80000001192","<div class='center'><p>Time to take a quick break! You have 2 minutes to rest, but you can move on sooner if you'd like.</p><p> Press the <b>space bar</b> to continue.</p></div>","32","","","","","","","","","","","","","","","","","","","","","","",""
"","do_travel","164","701928","0.0-90.0-0.0","""event"",""trial"",""time""
""fullscreenenter"",""0"",""7578""
""blur"",""163"",""680964""
""focus"",""163"",""688956""
","""event"",""trial"",""time""
""blur"",""163"",""680964""
","""event"",""trial"",""time""
""focus"",""163"",""688956""
","""event"",""trial"",""time""
""fullscreenenter"",""0"",""7578""
","
","null","","","","","","","","null","","","","","","","","","","","","","","","","",""
"","do_welcome","165","705933","0.0-90.0-1.0","""event"",""trial"",""time""
""fullscreenenter"",""0"",""7578""
""blur"",""163"",""680964""
""focus"",""163"",""688956""
","""event"",""trial"",""time""
""blur"",""163"",""680964""
","""event"",""trial"",""time""
""focus"",""163"",""688956""
","""event"",""trial"",""time""
""fullscreenenter"",""0"",""7578""
","
","null","","","","","","","","null","","","","","","","","","","","","","","","","",""
"","do_trial","166","711265","0.0-91.0-0.0","""event"",""trial"",""time""
""fullscreenenter"",""0"",""7578""
""blur"",""163"",""680964""
""focus"",""163"",""688956""
","""event"",""trial"",""time""
""blur"",""163"",""680964""
","""event"",""trial"",""time""
""focus"",""163"",""688956""
","""event"",""trial"",""time""
""fullscreenenter"",""0"",""7578""
","
","794.5","","","","","","","","49","1,0,0","1","forest","30","probe-115","1","0.3586387404911118","0.11714369976749463","1","","","","","","","",""
"","html-keyboard-response","167","712275","0.0-91.0-1.0","""event"",""trial"",""time""
""fullscreenenter"",""0"",""7578""
""blur"",""163"",""680964""
""focus"",""163"",""688956""
","""event"",""trial"",""time""
""blur"",""163"",""680964""
","""event"",""trial"",""time""
""focus"",""163"",""688956""
","""event"",""trial"",""time""
""fullscreenenter"",""0"",""7578""
","
","null","<p></p>","null","","","","","","","","","","","","","","","","","","","","","","",""
"","do_trial","168","717111","0.0-92.0-0.0","""event"",""trial"",""time""
""fullscreenenter"",""0"",""7578""
""blur"",""163"",""680964""
""focus"",""163"",""688956""
","""event"",""trial"",""time""
""blur"",""163"",""680964""
","""event"",""trial"",""time""
""focus"",""163"",""688956""
","""event"",""trial"",""time""
""fullscreenenter"",""0"",""7578""
","
","291.60000002384186","","","","","","","","49","1,1,0","1","forest","31","probe-90","1","0.37713586410111","0.2015787518663482","1","","","","","","","",""
"","html-keyboard-response","169","718124","0.0-92.0-1.0","""event"",""trial"",""time""
""fullscreenenter"",""0"",""7578""
""blur"",""163"",""680964""
""focus"",""163"",""688956""
","""event"",""trial"",""time""
""blur"",""163"",""680964""
","""event"",""trial"",""time""
""focus"",""163"",""688956""
","""event"",""trial"",""time""
""fullscreenenter"",""0"",""7578""
","
","null","<p></p>","null","","","","","","","","","","","","","","","","","","","","","","",""
"","do_trial","170","722942","0.0-93.0-0.0","""event"",""trial"",""time""
""fullscreenenter"",""0"",""7578""
""blur"",""163"",""680964""
""focus"",""163"",""688956""
","""event"",""trial"",""time""
""blur"",""163"",""680964""
","""event"",""trial"",""time""
""focus"",""163"",""688956""
","""event"",""trial"",""time""
""fullscreenenter"",""0"",""7578""
","
","272.80000001192093","","","","","","","","49","1,0,0","1","forest","32","probe-211","1","0.3405411040205795","0.21459533702180542","1","","","","","","","",""
"","html-keyboard-response","171","723952","0.0-93.0-1.0","""event"",""trial"",""time""
""fullscreenenter"",""0"",""7578""
""blur"",""163"",""680964""
""focus"",""163"",""688956""
","""event"",""trial"",""time""
""blur"",""163"",""680964""
","""event"",""trial"",""time""
""focus"",""163"",""688956""
","""event"",""trial"",""time""
""fullscreenenter"",""0"",""7578""
","
","null","<p></p>","null","","","","","","","","","","","","","","","","","","","","","","",""
"","do_trial","172","728498","0.0-94.0-0.0","""event"",""trial"",""time""
""fullscreenenter"",""0"",""7578""
""blur"",""163"",""680964""
""focus"",""163"",""688956""
","""event"",""trial"",""time""
""blur"",""163"",""680964""
","""event"",""trial"",""time""
""focus"",""163"",""688956""
","""event"",""trial"",""time""
""fullscreenenter"",""0"",""7578""
","
","4.399999976158142","","","","","","","","49","1,0,0","1","forest","33","probe-77","0.8478104995400151","0.3384872690999152","0.061627404557779535","1","","","","","","","",""
"","html-keyboard-response","173","729510","0.0-94.0-1.0","""event"",""trial"",""time""
""fullscreenenter"",""0"",""7578""
""blur"",""163"",""680964""
""focus"",""163"",""688956""
","""event"",""trial"",""time""
""blur"",""163"",""680964""
","""event"",""trial"",""time""
""focus"",""163"",""688956""
","""event"",""trial"",""time""
""fullscreenenter"",""0"",""7578""
","
","null","<p></p>","null","","","","","","","","","","","","","","","","","","","","","","",""
"","do_trial","174","734270","0.0-95.0-0.0","""event"",""trial"",""time""
""fullscreenenter"",""0"",""7578""
""blur"",""163"",""680964""
""focus"",""163"",""688956""
","""event"",""trial"",""time""
""blur"",""163"",""680964""
","""event"",""trial"",""time""
""focus"",""163"",""688956""
","""event"",""trial"",""time""
""fullscreenenter"",""0"",""7578""
","
","210.79999995231628","","","","","","","","49","1,0,0","1","forest","34","probe-129","0.8303599839591855","0.36139849054600753","0.16011876822023938","1","","","","","","","",""
"","html-keyboard-response","175","735279","0.0-95.0-1.0","""event"",""trial"",""time""
""fullscreenenter"",""0"",""7578""
""blur"",""163"",""680964""
""focus"",""163"",""688956""
","""event"",""trial"",""time""
""blur"",""163"",""680964""
","""event"",""trial"",""time""
""focus"",""163"",""688956""
","""event"",""trial"",""time""
""fullscreenenter"",""0"",""7578""
","
","null","<p></p>","null","","","","","","","","","","","","","","","","","","","","","","",""
"","do_trial","176","740156","0.0-96.0-0.0","""event"",""trial"",""time""
""fullscreenenter"",""0"",""7578""
""blur"",""163"",""680964""
""focus"",""163"",""688956""
","""event"",""trial"",""time""
""blur"",""163"",""680964""
","""event"",""trial"",""time""
""focus"",""163"",""688956""
","""event"",""trial"",""time""
""fullscreenenter"",""0"",""7578""
","
","335.5999999642372","","","","","","","","49","1,0,0","1","forest","35","probe-42","0.7965247771519727","0.3433629304328656","0.14009989544881016","1","","","","","","","",""
"","html-keyboard-response","177","741164","0.0-96.0-1.0","""event"",""trial"",""time""
""fullscreenenter"",""0"",""7578""
""blur"",""163"",""680964""
""focus"",""163"",""688956""
","""event"",""trial"",""time""
""blur"",""163"",""680964""
","""event"",""trial"",""time""
""focus"",""163"",""688956""
","""event"",""trial"",""time""
""fullscreenenter"",""0"",""7578""
","
","null","<p></p>","null","","","","","","","","","","","","","","","","","","","","","","",""
"","do_trial","178","745936","0.0-97.0-0.0","""event"",""trial"",""time""
""fullscreenenter"",""0"",""7578""
""blur"",""163"",""680964""
""focus"",""163"",""688956""
","""event"",""trial"",""time""
""blur"",""163"",""680964""
","""event"",""trial"",""time""
""focus"",""163"",""688956""
","""event"",""trial"",""time""
""fullscreenenter"",""0"",""7578""
","
","231.29999995231628","","","","","","","","49","1,0,0","1","forest","36","probe-68","0.7255377026422025","0.37158963081717294","0.2869453904207487","1","","","","","","","",""
"","html-keyboard-response","179","746947","0.0-97.0-1.0","""event"",""trial"",""time""
""fullscreenenter"",""0"",""7578""
""blur"",""163"",""680964""
""focus"",""163"",""688956""
","""event"",""trial"",""time""
""blur"",""163"",""680964""
","""event"",""trial"",""time""
""focus"",""163"",""688956""
","""event"",""trial"",""time""
""fullscreenenter"",""0"",""7578""
","
","null","<p></p>","null","","","","","","","","","","","","","","","","","","","","","","",""
"","do_trial","180","751820","0.0-98.0-0.0","""event"",""trial"",""time""
""fullscreenenter"",""0"",""7578""
""blur"",""163"",""680964""
""focus"",""163"",""688956""
","""event"",""trial"",""time""
""blur"",""163"",""680964""
","""event"",""trial"",""time""
""focus"",""163"",""688956""
","""event"",""trial"",""time""
""fullscreenenter"",""0"",""7578""
","
","336.7999999523163","","","","","","","","49","1,0,0","1","forest","37","probe-205","0.648264756318804","0.31519170716205225","0.1653912901017888","1","","","","","","","",""
"","html-keyboard-response","181","752832","0.0-98.0-1.0","""event"",""trial"",""time""
""fullscreenenter"",""0"",""7578""
""blur"",""163"",""680964""
""focus"",""163"",""688956""
","""event"",""trial"",""time""
""blur"",""163"",""680964""
","""event"",""trial"",""time""
""focus"",""163"",""688956""
","""event"",""trial"",""time""
""fullscreenenter"",""0"",""7578""
","
","null","<p></p>","null","","","","","","","","","","","","","","","","","","","","","","",""
"","do_trial","182","757822","0.0-99.0-0.0","""event"",""trial"",""time""
""fullscreenenter"",""0"",""7578""
""blur"",""163"",""680964""
""focus"",""163"",""688956""
","""event"",""trial"",""time""
""blur"",""163"",""680964""
","""event"",""trial"",""time""
""focus"",""163"",""688956""
","""event"",""trial"",""time""
""fullscreenenter"",""0"",""7578""
","
","450.7999999523163","","","","","","","","49","0,0,0","1","forest","38","probe-05","0.7554924969922985","0.35632116676864345","0.11061576993899007","0","","","","","","","",""
"","html-keyboard-response","183","758837","0.0-99.0-1.0","""event"",""trial"",""time""
""fullscreenenter"",""0"",""7578""
""blur"",""163"",""680964""
""focus"",""163"",""688956""
","""event"",""trial"",""time""
""blur"",""163"",""680964""
","""event"",""trial"",""time""
""focus"",""163"",""688956""
","""event"",""trial"",""time""
""fullscreenenter"",""0"",""7578""
","
","null","<p></p>","null","","","","","","","","","","","","","","","","","","","","","","",""
"","do_trial","184","763510","0.0-100.0-0.0","""event"",""trial"",""time""
""fullscreenenter"",""0"",""7578""
""blur"",""163"",""680964""
""focus"",""163"",""688956""
","""event"",""trial"",""time""
""blur"",""163"",""680964""
","""event"",""trial"",""time""
""focus"",""163"",""688956""
","""event"",""trial"",""time""
""fullscreenenter"",""0"",""7578""
","
","135.30000001192093","","","","","","","","49","0,0,1","1","forest","39","probe-95","0.6192786459427496","0.2660212105541096","0.1350896956669708","0","","","","","","","",""
"","html-keyboard-response","185","764525","0.0-100.0-1.0","""event"",""trial"",""time""
""fullscreenenter"",""0"",""7578""
""blur"",""163"",""680964""
""focus"",""163"",""688956""
","""event"",""trial"",""time""
""blur"",""163"",""680964""
","""event"",""trial"",""time""
""focus"",""163"",""688956""
","""event"",""trial"",""time""
""fullscreenenter"",""0"",""7578""
","
","null","<p></p>","null","","","","","","","","","","","","","","","","","","","","","","",""
"","do_trial","186","769457","0.0-101.0-0.0","""event"",""trial"",""time""
""fullscreenenter"",""0"",""7578""
""blur"",""163"",""680964""
""focus"",""163"",""688956""
","""event"",""trial"",""time""
""blur"",""163"",""680964""
","""event"",""trial"",""time""
""focus"",""163"",""688956""
","""event"",""trial"",""time""
""fullscreenenter"",""0"",""7578""
","
","385.5999999642372","","","","","","","","50","1,0,0","1","forest","40","probe-165","0.44907379319286106","0.18751285036646878","0.11487609104387303","0","","","","","","","",""
"","html-keyboard-response","187","770471","0.0-101.0-1.0","""event"",""trial"",""time""
""fullscreenenter"",""0"",""7578""
""blur"",""163"",""680964""
""focus"",""163"",""688956""
","""event"",""trial"",""time""
""blur"",""163"",""680964""
","""event"",""trial"",""time""
""focus"",""163"",""688956""
","""event"",""trial"",""time""
""fullscreenenter"",""0"",""7578""
","
","null","<p></p>","null","","","","","","","","","","","","","","","","","","","","","","",""
"","do_trial","188","775242","0.0-102.0-0.0","""event"",""trial"",""time""
""fullscreenenter"",""0"",""7578""
""blur"",""163"",""680964""
""focus"",""163"",""688956""
","""event"",""trial"",""time""
""blur"",""163"",""680964""
","""event"",""trial"",""time""
""focus"",""163"",""688956""
","""event"",""trial"",""time""
""fullscreenenter"",""0"",""7578""
","
","231.39999997615814","","","","","","","","51","1,0,1","1","forest","41","probe-73","0.2805410896551508","0.22966569090521538","0.05983972694799746","1","","","","","","","",""
"","html-keyboard-response","189","776256","0.0-102.0-1.0","""event"",""trial"",""time""
""fullscreenenter"",""0"",""7578""
""blur"",""163"",""680964""
""focus"",""163"",""688956""
","""event"",""trial"",""time""
""blur"",""163"",""680964""
","""event"",""trial"",""time""
""focus"",""163"",""688956""
","""event"",""trial"",""time""
""fullscreenenter"",""0"",""7578""
","
","null","<p></p>","null","","","","","","","","","","","","","","","","","","","","","","",""
"","do_trial","190","781086","0.0-103.0-0.0","""event"",""trial"",""time""
""fullscreenenter"",""0"",""7578""
""blur"",""163"",""680964""
""focus"",""163"",""688956""
","""event"",""trial"",""time""
""blur"",""163"",""680964""
","""event"",""trial"",""time""
""focus"",""163"",""688956""
","""event"",""trial"",""time""
""fullscreenenter"",""0"",""7578""
","
","286.39999997615814","","","","","","","","51","0,0,0","1","forest","42","probe-189","0.2227452511834824","0.22398446885784673","0.221667722801171","0","","","","","","","",""
"","html-keyboard-response","191","782096","0.0-103.0-1.0","""event"",""trial"",""time""
""fullscreenenter"",""0"",""7578""
""blur"",""163"",""680964""
""focus"",""163"",""688956""
","""event"",""trial"",""time""
""blur"",""163"",""680964""
","""event"",""trial"",""time""
""focus"",""163"",""688956""
","""event"",""trial"",""time""
""fullscreenenter"",""0"",""7578""
","
","null","<p></p>","null","","","","","","","","","","","","","","","","","","","","","","",""
"","do_trial","192","786645","0.0-104.0-0.0","""event"",""trial"",""time""
""fullscreenenter"",""0"",""7578""
""blur"",""163"",""680964""
""focus"",""163"",""688956""
","""event"",""trial"",""time""
""blur"",""163"",""680964""
","""event"",""trial"",""time""
""focus"",""163"",""688956""
","""event"",""trial"",""time""
""fullscreenenter"",""0"",""7578""
","
","0.10000002384185791","","","","","","","","49","0,1,1","1","forest","43","probe-174","0.21759948669106066","0.19305275973502692","0.4893139297991181","0","","","","","","","",""
"","html-keyboard-response","193","787659","0.0-104.0-1.0","""event"",""trial"",""time""
""fullscreenenter"",""0"",""7578""
""blur"",""163"",""680964""
""focus"",""163"",""688956""
","""event"",""trial"",""time""
""blur"",""163"",""680964""
","""event"",""trial"",""time""
""focus"",""163"",""688956""
","""event"",""trial"",""time""
""fullscreenenter"",""0"",""7578""
","
","null","<p></p>","null","","","","","","","","","","","","","","","","","","","","","","",""
"","do_trial","194","792632","0.0-105.0-0.0","""event"",""trial"",""time""
""fullscreenenter"",""0"",""7578""
""blur"",""163"",""680964""
""focus"",""163"",""688956""
","""event"",""trial"",""time""
""blur"",""163"",""680964""
","""event"",""trial"",""time""
""focus"",""163"",""688956""
","""event"",""trial"",""time""
""fullscreenenter"",""0"",""7578""
","
","424.5","","","","","","","","49","0,0,0","1","forest","44","probe-163","0.3203642994399541","0.1605347211732919","0.5037817780634393","0","","","","","","","",""
"","html-keyboard-response","195","793635","0.0-105.0-1.0","""event"",""trial"",""time""
""fullscreenenter"",""0"",""7578""
""blur"",""163"",""680964""
""focus"",""163"",""688956""
","""event"",""trial"",""time""
""blur"",""163"",""680964""
","""event"",""trial"",""time""
""focus"",""163"",""688956""
","""event"",""trial"",""time""
""fullscreenenter"",""0"",""7578""
","
","null","<p></p>","null","","","","","","","","","","","","","","","","","","","","","","",""
"","do_trial","196","798249","0.0-106.0-0.0","""event"",""trial"",""time""
""fullscreenenter"",""0"",""7578""
""blur"",""163"",""680964""
""focus"",""163"",""688956""
","""event"",""trial"",""time""
""blur"",""163"",""680964""
","""event"",""trial"",""time""
""focus"",""163"",""688956""
","""event"",""trial"",""time""
""fullscreenenter"",""0"",""7578""
","
","68.5","","","","","","","","50","0,0,1","1","forest","45","probe-150","0.3602176236014333","0.1776821098422033","0.5404546479424924","0","","","","","","","",""
"","html-keyboard-response","197","799258","0.0-106.0-1.0","""event"",""trial"",""time""
""fullscreenenter"",""0"",""7578""
""blur"",""163"",""680964""
""focus"",""163"",""688956""
","""event"",""trial"",""time""
""blur"",""163"",""680964""
","""event"",""trial"",""time""
""focus"",""163"",""688956""
","""event"",""trial"",""time""
""fullscreenenter"",""0"",""7578""
","
","null","<p></p>","null","","","","","","","","","","","","","","","","","","","","","","",""
"","do_trial","198","804029","0.0-107.0-0.0","""event"",""trial"",""time""
""fullscreenenter"",""0"",""7578""
""blur"",""163"",""680964""
""focus"",""163"",""688956""
","""event"",""trial"",""time""
""blur"",""163"",""680964""
","""event"",""trial"",""time""
""focus"",""163"",""688956""
","""event"",""trial"",""time""
""fullscreenenter"",""0"",""7578""
","
","236.29999995231628","","","","","","","","51","1,0,0","1","forest","46","probe-175","0.3640202201542595","0.06494255924988362","0.6263247663066087","0","","","","","","","",""
"","html-keyboard-response","199","805031","0.0-107.0-1.0","""event"",""trial"",""time""
""fullscreenenter"",""0"",""7578""
""blur"",""163"",""680964""
""focus"",""163"",""688956""
","""event"",""trial"",""time""
""blur"",""163"",""680964""
","""event"",""trial"",""time""
""focus"",""163"",""688956""
","""event"",""trial"",""time""
""fullscreenenter"",""0"",""7578""
","
","null","<p></p>","null","","","","","","","","","","","","","","","","","","","","","","",""
"","do_trial","200","809778","0.0-108.0-0.0","""event"",""trial"",""time""
""fullscreenenter"",""0"",""7578""
""blur"",""163"",""680964""
""focus"",""163"",""688956""
","""event"",""trial"",""time""
""blur"",""163"",""680964""
","""event"",""trial"",""time""
""focus"",""163"",""688956""
","""event"",""trial"",""time""
""fullscreenenter"",""0"",""7578""
","
","207.19999998807907","","","","","","","","49","0,0,0","1","forest","47","probe-78","0.16971605361912842","0.15562400545468721","0.7069728802030908","0","","","","","","","",""
"","html-keyboard-response","201","810781","0.0-108.0-1.0","""event"",""trial"",""time""
""fullscreenenter"",""0"",""7578""
""blur"",""163"",""680964""
""focus"",""163"",""688956""
","""event"",""trial"",""time""
""blur"",""163"",""680964""
","""event"",""trial"",""time""
""focus"",""163"",""688956""
","""event"",""trial"",""time""
""fullscreenenter"",""0"",""7578""
","
","null","<p></p>","null","","","","","","","","","","","","","","","","","","","","","","",""
"","do_trial","202","815751","0.0-109.0-0.0","""event"",""trial"",""time""
""fullscreenenter"",""0"",""7578""
""blur"",""163"",""680964""
""focus"",""163"",""688956""
","""event"",""trial"",""time""
""blur"",""163"",""680964""
","""event"",""trial"",""time""
""focus"",""163"",""688956""
","""event"",""trial"",""time""
""fullscreenenter"",""0"",""7578""
","
","432.30000001192093","","","","","","","","49","1,0,1","1","forest","48","probe-81","0.21062155829051876","0.06474059722485655","0.6834496067401704","1","","","","","","","",""
"","html-keyboard-response","203","816763","0.0-109.0-1.0","""event"",""trial"",""time""
""fullscreenenter"",""0"",""7578""
""blur"",""163"",""680964""
""focus"",""163"",""688956""
","""event"",""trial"",""time""
""blur"",""163"",""680964""
","""event"",""trial"",""time""
""focus"",""163"",""688956""
","""event"",""trial"",""time""
""fullscreenenter"",""0"",""7578""
","
","null","<p></p>","null","","","","","","","","","","","","","","","","","","","","","","",""
"","do_trial","204","821518","0.0-110.0-0.0","""event"",""trial"",""time""
""fullscreenenter"",""0"",""7578""
""blur"",""163"",""680964""
""focus"",""163"",""688956""
","""event"",""trial"",""time""
""blur"",""163"",""680964""
","""event"",""trial"",""time""
""focus"",""163"",""688956""
","""event"",""trial"",""time""
""fullscreenenter"",""0"",""7578""
","
","219.5","","","","","","","","49","0,0,0","1","forest","49","probe-173","0.43943522656952155","0.08162447402950866","0.584771038177757","0","","","","","","","",""
"","html-keyboard-response","205","822530","0.0-110.0-1.0","""event"",""trial"",""time""
""fullscreenenter"",""0"",""7578""
""blur"",""163"",""680964""
""focus"",""163"",""688956""
","""event"",""trial"",""time""
""blur"",""163"",""680964""
","""event"",""trial"",""time""
""focus"",""163"",""688956""
","""event"",""trial"",""time""
""fullscreenenter"",""0"",""7578""
","
","null","<p></p>","null","","","","","","","","","","","","","","","","","","","","","","",""
"","do_trial","206","827296","0.0-111.0-0.0","""event"",""trial"",""time""
""fullscreenenter"",""0"",""7578""
""blur"",""163"",""680964""
""focus"",""163"",""688956""
","""event"",""trial"",""time""
""blur"",""163"",""680964""
","""event"",""trial"",""time""
""focus"",""163"",""688956""
","""event"",""trial"",""time""
""fullscreenenter"",""0"",""7578""
","
","228.30000001192093","","","","","","","","49","0,0,1","1","forest","50","probe-162","0.5582441849104081","0.13900345015636772","0.6026556990691834","0","","","","","","","",""
"","html-keyboard-response","207","828311","0.0-111.0-1.0","""event"",""trial"",""time""
""fullscreenenter"",""0"",""7578""
""blur"",""163"",""680964""
""focus"",""163"",""688956""
","""event"",""trial"",""time""
""blur"",""163"",""680964""
","""event"",""trial"",""time""
""focus"",""163"",""688956""
","""event"",""trial"",""time""
""fullscreenenter"",""0"",""7578""
","
","null","<p></p>","null","","","","","","","","","","","","","","","","","","","","","","",""
"","do_trial","208","833101","0.0-112.0-0.0","""event"",""trial"",""time""
""fullscreenenter"",""0"",""7578""
""blur"",""163"",""680964""
""focus"",""163"",""688956""
","""event"",""trial"",""time""
""blur"",""163"",""680964""
","""event"",""trial"",""time""
""focus"",""163"",""688956""
","""event"",""trial"",""time""
""fullscreenenter"",""0"",""7578""
","
","245.4000000357628","","","","","","","","50","1,0,1","1","forest","51","probe-54","0.4979506322406612","0.14585019336035454","0.5784902448551958","0","","","","","","","",""
"","html-keyboard-response","209","834112","0.0-112.0-1.0","""event"",""trial"",""time""
""fullscreenenter"",""0"",""7578""
""blur"",""163"",""680964""
""focus"",""163"",""688956""
","""event"",""trial"",""time""
""blur"",""163"",""680964""
","""event"",""trial"",""time""
""focus"",""163"",""688956""
","""event"",""trial"",""time""
""fullscreenenter"",""0"",""7578""
","
","null","<p></p>","null","","","","","","","","","","","","","","","","","","","","","","",""
"","do_trial","210","838957","0.0-113.0-0.0","""event"",""trial"",""time""
""fullscreenenter"",""0"",""7578""
""blur"",""163"",""680964""
""focus"",""163"",""688956""
","""event"",""trial"",""time""
""blur"",""163"",""680964""
","""event"",""trial"",""time""
""focus"",""163"",""688956""
","""event"",""trial"",""time""
""fullscreenenter"",""0"",""7578""
","
","309.80000001192093","","","","","","","","50","0,0,0","1","forest","52","probe-221","0.4138238992862635","0.1664170917135408","0.6656750518996241","0","","","","","","","",""
"","html-keyboard-response","211","839968","0.0-113.0-1.0","""event"",""trial"",""time""
""fullscreenenter"",""0"",""7578""
""blur"",""163"",""680964""
""focus"",""163"",""688956""
","""event"",""trial"",""time""
""blur"",""163"",""680964""
","""event"",""trial"",""time""
""focus"",""163"",""688956""
","""event"",""trial"",""time""
""fullscreenenter"",""0"",""7578""
","
","null","<p></p>","null","","","","","","","","","","","","","","","","","","","","","","",""
"","do_trial","212","844850","0.0-114.0-0.0","""event"",""trial"",""time""
""fullscreenenter"",""0"",""7578""
""blur"",""163"",""680964""
""focus"",""163"",""688956""
","""event"",""trial"",""time""
""blur"",""163"",""680964""
","""event"",""trial"",""time""
""focus"",""163"",""688956""
","""event"",""trial"",""time""
""fullscreenenter"",""0"",""7578""
","
","339.4000000357628","","","","","","","","51","0,0,1","1","forest","53","probe-87","0.3562273665059336","0.259369508398473","0.45254071356556863","1","","","","","","","",""
"","html-keyboard-response","213","845862","0.0-114.0-1.0","""event"",""trial"",""time""
""fullscreenenter"",""0"",""7578""
""blur"",""163"",""680964""
""focus"",""163"",""688956""
","""event"",""trial"",""time""
""blur"",""163"",""680964""
","""event"",""trial"",""time""
""focus"",""163"",""688956""
","""event"",""trial"",""time""
""fullscreenenter"",""0"",""7578""
","
","null","<p></p>","null","","","","","","","","","","","","","","","","","","","","","","",""
"","do_trial","214","850685","0.0-115.0-0.0","""event"",""trial"",""time""
""fullscreenenter"",""0"",""7578""
""blur"",""163"",""680964""
""focus"",""163"",""688956""
","""event"",""trial"",""time""
""blur"",""163"",""680964""
","""event"",""trial"",""time""
""focus"",""163"",""688956""
","""event"",""trial"",""time""
""fullscreenenter"",""0"",""7578""
","
","280.7999999523163","","","","","","","","51","1,0,0","1","forest","54","probe-40","0.3520609693383301","0.2795861632378895","0.537578399359825","0","","","","","","","",""
"","html-keyboard-response","215","851696","0.0-115.0-1.0","""event"",""trial"",""time""
""fullscreenenter"",""0"",""7578""
""blur"",""163"",""680964""
""focus"",""163"",""688956""
","""event"",""trial"",""time""
""blur"",""163"",""680964""
","""event"",""trial"",""time""
""focus"",""163"",""688956""
","""event"",""trial"",""time""
""fullscreenenter"",""0"",""7578""
","
","null","<p></p>","null","","","","","","","","","","","","","","","","","","","","","","",""
"","do_trial","216","856304","0.0-116.0-0.0","""event"",""trial"",""time""
""fullscreenenter"",""0"",""7578""
""blur"",""163"",""680964""
""focus"",""163"",""688956""
","""event"",""trial"",""time""
""blur"",""163"",""680964""
","""event"",""trial"",""time""
""focus"",""163"",""688956""
","""event"",""trial"",""time""
""fullscreenenter"",""0"",""7578""
","
","71.30000001192093","","","","","","","","51","0,0,0","1","forest","55","probe-34","0.15802036079430098","0.22690390465849708","0.5167839384084381","0","","","","","","","",""
"","html-keyboard-response","217","857314","0.0-116.0-1.0","""event"",""trial"",""time""
""fullscreenenter"",""0"",""7578""
""blur"",""163"",""680964""
""focus"",""163"",""688956""
","""event"",""trial"",""time""
""blur"",""163"",""680964""
","""event"",""trial"",""time""
""focus"",""163"",""688956""
","""event"",""trial"",""time""
""fullscreenenter"",""0"",""7578""
","
","null","<p></p>","null","","","","","","","","","","","","","","","","","","","","","","",""
"","do_trial","218","862046","0.0-117.0-0.0","""event"",""trial"",""time""
""fullscreenenter"",""0"",""7578""
""blur"",""163"",""680964""
""focus"",""163"",""688956""
","""event"",""trial"",""time""
""blur"",""163"",""680964""
","""event"",""trial"",""time""
""focus"",""163"",""688956""
","""event"",""trial"",""time""
""fullscreenenter"",""0"",""7578""
","
","188.30000001192093","","","","","","","","51","0,0,0","1","forest","56","probe-121","0.1741388709847484","0.2727151391939362","0.5608022701037736","0","","","","","","","",""
"","html-keyboard-response","219","863059","0.0-117.0-1.0","""event"",""trial"",""time""
""fullscreenenter"",""0"",""7578""
""blur"",""163"",""680964""
""focus"",""163"",""688956""
","""event"",""trial"",""time""
""blur"",""163"",""680964""
","""event"",""trial"",""time""
""focus"",""163"",""688956""
","""event"",""trial"",""time""
""fullscreenenter"",""0"",""7578""
","
","null","<p></p>","null","","","","","","","","","","","","","","","","","","","","","","",""
"","do_trial","220","867834","0.0-118.0-0.0","""event"",""trial"",""time""
""fullscreenenter"",""0"",""7578""
""blur"",""163"",""680964""
""focus"",""163"",""688956""
","""event"",""trial"",""time""
""blur"",""163"",""680964""
","""event"",""trial"",""time""
""focus"",""163"",""688956""
","""event"",""trial"",""time""
""fullscreenenter"",""0"",""7578""
","
","227.80000001192093","","","","","","","","49","0,0,0","1","forest","57","probe-191","0.08575843904817884","0.22970709515158586","0.6605194303518073","0","","","","","","","",""
"","html-keyboard-response","221","868844","0.0-118.0-1.0","""event"",""trial"",""time""
""fullscreenenter"",""0"",""7578""
""blur"",""163"",""680964""
""focus"",""163"",""688956""
","""event"",""trial"",""time""
""blur"",""163"",""680964""
","""event"",""trial"",""time""
""focus"",""163"",""688956""
","""event"",""trial"",""time""
""fullscreenenter"",""0"",""7578""
","
","null","<p></p>","null","","","","","","","","","","","","","","","","","","","","","","",""
"","do_trial","222","873543","0.0-119.0-0.0","""event"",""trial"",""time""
""fullscreenenter"",""0"",""7578""
""blur"",""163"",""680964""
""focus"",""163"",""688956""
","""event"",""trial"",""time""
""blur"",""163"",""680964""
","""event"",""trial"",""time""
""focus"",""163"",""688956""
","""event"",""trial"",""time""
""fullscreenenter"",""0"",""7578""
","
","160","","","","","","","","49","0,1,0","1","forest","58","probe-116","0.19244104158729286","0.16284257158906842","0.7128191744216535","0","","","","","","","",""
"","html-keyboard-response","223","874556","0.0-119.0-1.0","""event"",""trial"",""time""
""fullscreenenter"",""0"",""7578""
""blur"",""163"",""680964""
""focus"",""163"",""688956""
","""event"",""trial"",""time""
""blur"",""163"",""680964""
","""event"",""trial"",""time""
""focus"",""163"",""688956""
","""event"",""trial"",""time""
""fullscreenenter"",""0"",""7578""
","
","null","<p></p>","null","","","","","","","","","","","","","","","","","","","","","","",""
"","do_trial","224","879566","0.0-120.0-0.0","""event"",""trial"",""time""
""fullscreenenter"",""0"",""7578""
""blur"",""163"",""680964""
""focus"",""163"",""688956""
","""event"",""trial"",""time""
""blur"",""163"",""680964""
","""event"",""trial"",""time""
""focus"",""163"",""688956""
","""event"",""trial"",""time""
""fullscreenenter"",""0"",""7578""
","
","475.60000002384186","","","","","","","","50","1,0,1","1","forest","59","probe-181","0.30533446366099964","0.19062989793784835","0.6236389174206063","0","","","","","","","",""
"","html-keyboard-response","225","880578","0.0-120.0-1.0","""event"",""trial"",""time""
""fullscreenenter"",""0"",""7578""
""blur"",""163"",""680964""
""focus"",""163"",""688956""
","""event"",""trial"",""time""
""blur"",""163"",""680964""
","""event"",""trial"",""time""
""focus"",""163"",""688956""
","""event"",""trial"",""time""
""fullscreenenter"",""0"",""7578""
","
","null","<p></p>","null","","","","","","","","","","","","","","","","","","","","","","",""
"","do_trial","226","885397","0.0-121.0-0.0","""event"",""trial"",""time""
""fullscreenenter"",""0"",""7578""
""blur"",""163"",""680964""
""focus"",""163"",""688956""
","""event"",""trial"",""time""
