"success","trial_type","trial_index","time_elapsed","internal_node_id","interactions","blur_events","focus_events","fullscreenenter_events","fullscreenexit_events","rt","stimulus","key_press","subject_id","participant_id","age","gender","prompt","response","choice_outcomes","context_n","context_img_id","trial_n","probe_img_id","pR_red","pR_white","pR_black","outcome","contextArray_ind","validImageProbes","invalidImageProbes","pRew_Red","pRew_White","pRew_Black","availableForMemProbe","choice_blocks"
"true","fullscreen","0","3852","0.0-0.0","""event"",""trial"",""time""
""fullscreenenter"",""0"",""2874""
","
","
","""event"",""trial"",""time""
""fullscreenenter"",""0"",""2874""
","
","","","","","","","","","","","","","","","","","","","","","","","","","",""
"","pavlovia","1","3855","0.0-1.0","""event"",""trial"",""time""
""fullscreenenter"",""0"",""2874""
","
","
","""event"",""trial"",""time""
""fullscreenenter"",""0"",""2874""
","
","","","","","","","","","","","","","","","","","","","","","","","","","",""
"","instruc1","2","54196","0.0-2.0","""event"",""trial"",""time""
""fullscreenenter"",""0"",""2874""
","
","
","""event"",""trial"",""time""
""fullscreenenter"",""0"",""2874""
","
","null","run_exp/static/audio/clip_1_welcome.m4a","null","317","913","18","Male","<div class='center'><p>Welcome! This is the first part of the study. It will last ~30 minutes. In part 1 and part 2 of the study, you are the head captain of a pirate ship traveling around the world to different islands. You will play a few different games throughout these two parts. Here is an overview of them:</p><br><p>Part 1 (today)</p><p>1. Instructions, practice game, and quiz</p><p>2. Pick a pirate game on 6 different islands</p><br><p>Part 2 (tomorrow)</p><p>3. Pick a pirate game and memory game</p><p>4. Where did you see this ship? </p></div>","","","","","","","","","","","","","","","","","",""
"","html-keyboard-response","3","54937","0.0-3.0","""event"",""trial"",""time""
""fullscreenenter"",""0"",""2874""
","
","
","""event"",""trial"",""time""
""fullscreenenter"",""0"",""2874""
","
","739","<div class='center'><p>Welcome! This is the first part of the study. It will last ~30 minutes. In part 1 and part 2 of the study, you are the head captain of a pirate ship traveling around the world to different islands. You will play a few different games throughout these two parts. Here is an overview of them:</p><br><p>Part 1 (today)</p><p>1. Instructions, practice game, and quiz</p><p>2. Pick a pirate game on 6 different islands</p><br><p>Part 2 (tomorrow)</p><p>3. Pick a pirate game and memory game</p><p>4. Where did you see this ship? </p><p><b>[Press the space bar to continue]</b></p></div>","32","","","","","","","","","","","","","","","","","","","","","","",""
"","instruc2","4","60334","0.0-4.0","""event"",""trial"",""time""
""fullscreenenter"",""0"",""2874""
","
","
","""event"",""trial"",""time""
""fullscreenenter"",""0"",""2874""
","
","null","run_exp/static/audio/clip_2_different_places.m4a","null","","","","","<div class='center'><p>Today, you’ll visit these 6 islands on your journey. You'll be able to see these islands from your ship.</p><p><img src='run_exp/static/images/contexts/all_contexts.png' height='500'></p></div>","","","","","","","","","","","","","","","","","",""
"","html-keyboard-response","5","66744","0.0-5.0","""event"",""trial"",""time""
""fullscreenenter"",""0"",""2874""
","
","
","""event"",""trial"",""time""
""fullscreenenter"",""0"",""2874""
","
","6408.800000190735","<div class='center'><p>Today, you’ll visit these 6 islands on your journey. You'll be able to see these islands from your ship.</p><p><img src='run_exp/static/images/contexts/all_contexts.png' height='500'></p><p><b>[Press the space bar to continue]</b></p></div>","32","","","","","","","","","","","","","","","","","","","","","","",""
"","instruc3","6","76554","0.0-6.0","""event"",""trial"",""time""
""fullscreenenter"",""0"",""2874""
","
","
","""event"",""trial"",""time""
""fullscreenenter"",""0"",""2874""
","
","null","run_exp/static/audio/clip_3_goal_of_game_1.m4a","null","","","","","<div class='center'><p> The pirates on your ship will rob other ships as they leave the island.</p> These ships have just sold their goods to the islanders, so they will be filled with lots and lots of gold.</p><p><img src='run_exp/static/images/tutorial/ship_center.png' height='400'></p></div>","","","","","","","","","","","","","","","","","",""
"","html-keyboard-response","7","87543","0.0-7.0","""event"",""trial"",""time""
""fullscreenenter"",""0"",""2874""
","
","
","""event"",""trial"",""time""
""fullscreenenter"",""0"",""2874""
","
","10987.5","<div class='center'><p> The pirates on your ship will rob other ships as they leave the island.</p> These ships have just sold their goods to the islanders, so they will be filled with lots and lots of gold.</p><p><img src='run_exp/static/images/tutorial/ship_center.png' height='400'></p><p><b>[Press the space bar to continue]</b></p></div>","32","","","","","","","","","","","","","","","","","","","","","","",""
"","instruc4","8","115612","0.0-8.0","""event"",""trial"",""time""
""fullscreenenter"",""0"",""2874""
","
","
","""event"",""trial"",""time""
""fullscreenenter"",""0"",""2874""
","
","null","run_exp/static/audio/clip_4_goal_of_game_2.m4a","null","","","","","<div class='center'><p>As the head captain, you do not have to rob any ships yourself. Another pirate will be doing the robbing for you. First, you will choose a pirate to rob the next ship.</p><p><img src='run_exp/static/images/tutorial/pirates_all_crop.png' height='200'></p><p>Then, you'll see if the pirate successfully robbed the ship of their gold. If they were successful, then you'll get a stack of gold coins like this:</p><p><img src='run_exp/static/images/tutorial/reward.png' height='150'></p><p> If they were <b>not</b> successful, then you'll get no gold coins, and you'll see a big red x like this: </p><p><img src='run_exp/static/images/tutorial/reward_no.png' height='150'></p><p> How much bonus money you make is based on how many gold coins you collect.</p><div>","","","","","","","","","","","","","","","","","",""
"","html-keyboard-response","9","118089","0.0-9.0","""event"",""trial"",""time""
""fullscreenenter"",""0"",""2874""
","
","
","""event"",""trial"",""time""
""fullscreenenter"",""0"",""2874""
","
","2475.899999856949","<div class='center'><p>As the head captain, you do not have to rob any ships yourself. Another pirate will be doing the robbing for you. First, you will choose a pirate to rob the next ship.</p><p><img src='run_exp/static/images/tutorial/pirates_all_crop.png' height='200'></p><p>Then, you'll see if the pirate successfully robbed the ship of their gold. If they were successful, then you'll get a stack of gold coins like this:</p><p><img src='run_exp/static/images/tutorial/reward.png' height='150'></p><p> If they were <b>not</b> successful, then you'll get no gold coins, and you'll see a big red x like this: </p><p><img src='run_exp/static/images/tutorial/reward_no.png' height='150'></p><p> How much bonus money you make is based on how many gold coins you collect.</p<p><b>[Press the space bar to continue]</b></p></div>","32","","","","","","","","","","","","","","","","","","","","","","",""
"","instruc5","10","139936","0.0-10.0","""event"",""trial"",""time""
""fullscreenenter"",""0"",""2874""
","
","
","""event"",""trial"",""time""
""fullscreenenter"",""0"",""2874""
","
","21844.89999985695","run_exp/static/audio/clip_5_probabilistic.m4a","49","","","","","<div class='center'><p>Even the most skilled pirate can not rob EVERY ship.</p><p> Some ships will have very strong protections against pirate attacks.</p><p> Blue beard, here, is very, very good at robbing ships, but he won't be successful every time he tries to rob one.</p><p> You can press the <b>‘1’</b> key on the keyboard to choose him.</p><p> Try choosing him 10 times to see how often he succeeds at robbing a ship. </p><p><img src='run_exp/static/images/tutorial/blue.png' height='500'></p></div>","","","","","","","","","","","","","","","","","",""
"","html-keyboard-response","11","141438","0.0-11.0","""event"",""trial"",""time""
""fullscreenenter"",""0"",""2874""
","
","
","""event"",""trial"",""time""
""fullscreenenter"",""0"",""2874""
","
","null","<div class='center'><p><img src='run_exp/static/images/tutorial/blue_win.png' height='500'></p></div>","null","","","","","","","","","","","","","","","","","","","","","","",""
"","html-keyboard-response","12","143888","0.0-12.0","""event"",""trial"",""time""
""fullscreenenter"",""0"",""2874""
","
","
","""event"",""trial"",""time""
""fullscreenenter"",""0"",""2874""
","
","2449.4000000953674","<div class='center'><img src='run_exp/static/images/tutorial/blue.png' height='500'></p></div>","49","","","","","","","","","","","","","","","","","","","","","","",""
"","html-keyboard-response","13","145402","0.0-13.0","""event"",""trial"",""time""
""fullscreenenter"",""0"",""2874""
","
","
","""event"",""trial"",""time""
""fullscreenenter"",""0"",""2874""
","
","null","<div class='center'><p><img src='run_exp/static/images/tutorial/blue_win.png' height='500'></p></div>","null","","","","","","","","","","","","","","","","","","","","","","",""
"","html-keyboard-response","14","146536","0.0-14.0","""event"",""trial"",""time""
""fullscreenenter"",""0"",""2874""
","
","
","""event"",""trial"",""time""
""fullscreenenter"",""0"",""2874""
","
","1133.5999999046326","<div class='center'><img src='run_exp/static/images/tutorial/blue.png' height='500'></p></div>","49","","","","","","","","","","","","","","","","","","","","","","",""
"","html-keyboard-response","15","148049","0.0-15.0","""event"",""trial"",""time""
""fullscreenenter"",""0"",""2874""
","
","
","""event"",""trial"",""time""
""fullscreenenter"",""0"",""2874""
","
","null","<div class='center'><p><img src='run_exp/static/images/tutorial/blue_win.png' height='500'></p></div>","null","","","","","","","","","","","","","","","","","","","","","","",""
"","html-keyboard-response","16","148963","0.0-16.0","""event"",""trial"",""time""
""fullscreenenter"",""0"",""2874""
","
","
","""event"",""trial"",""time""
""fullscreenenter"",""0"",""2874""
","
","912.5999999046326","<div class='center'><img src='run_exp/static/images/tutorial/blue.png' height='500'></p></div>","49","","","","","","","","","","","","","","","","","","","","","","",""
"","html-keyboard-response","17","150467","0.0-17.0","""event"",""trial"",""time""
""fullscreenenter"",""0"",""2874""
","
","
","""event"",""trial"",""time""
""fullscreenenter"",""0"",""2874""
","
","null","<div class='center'><p><img src='run_exp/static/images/tutorial/blue_no_win.png' height='500'></p></div>","null","","","","","","","","","","","","","","","","","","","","","","",""
"","html-keyboard-response","18","153672","0.0-18.0","""event"",""trial"",""time""
""fullscreenenter"",""0"",""2874""
","
","
","""event"",""trial"",""time""
""fullscreenenter"",""0"",""2874""
","
","3203.2000000476837","<div class='center'><img src='run_exp/static/images/tutorial/blue.png' height='500'></p></div>","49","","","","","","","","","","","","","","","","","","","","","","",""
"","html-keyboard-response","19","155187","0.0-19.0","""event"",""trial"",""time""
""fullscreenenter"",""0"",""2874""
","
","
","""event"",""trial"",""time""
""fullscreenenter"",""0"",""2874""
","
","null","<div class='center'><p><img src='run_exp/static/images/tutorial/blue_win.png' height='500'></p></div>","null","","","","","","","","","","","","","","","","","","","","","","",""
"","html-keyboard-response","20","156456","0.0-20.0","""event"",""trial"",""time""
""fullscreenenter"",""0"",""2874""
","
","
","""event"",""trial"",""time""
""fullscreenenter"",""0"",""2874""
","
","1267.8999998569489","<div class='center'><img src='run_exp/static/images/tutorial/blue.png' height='500'></p></div>","49","","","","","","","","","","","","","","","","","","","","","","",""
"","html-keyboard-response","21","157965","0.0-21.0","""event"",""trial"",""time""
""fullscreenenter"",""0"",""2874""
","
","
","""event"",""trial"",""time""
""fullscreenenter"",""0"",""2874""
","
","null","<div class='center'><p><img src='run_exp/static/images/tutorial/blue_win.png' height='500'></p></div>","null","","","","","","","","","","","","","","","","","","","","","","",""
"","html-keyboard-response","22","159186","0.0-22.0","""event"",""trial"",""time""
""fullscreenenter"",""0"",""2874""
","
","
","""event"",""trial"",""time""
""fullscreenenter"",""0"",""2874""
","
","1220.2999999523163","<div class='center'><img src='run_exp/static/images/tutorial/blue.png' height='500'></p></div>","49","","","","","","","","","","","","","","","","","","","","","","",""
"","html-keyboard-response","23","160687","0.0-23.0","""event"",""trial"",""time""
""fullscreenenter"",""0"",""2874""
","
","
","""event"",""trial"",""time""
""fullscreenenter"",""0"",""2874""
","
","null","<div class='center'><p><img src='run_exp/static/images/tutorial/blue_win.png' height='500'></p></div>","null","","","","","","","","","","","","","","","","","","","","","","",""
"","html-keyboard-response","24","161850","0.0-24.0","""event"",""trial"",""time""
""fullscreenenter"",""0"",""2874""
","
","
","""event"",""trial"",""time""
""fullscreenenter"",""0"",""2874""
","
","1161.6000001430511","<div class='center'><img src='run_exp/static/images/tutorial/blue.png' height='500'></p></div>","49","","","","","","","","","","","","","","","","","","","","","","",""
"","html-keyboard-response","25","163357","0.0-25.0","""event"",""trial"",""time""
""fullscreenenter"",""0"",""2874""
","
","
","""event"",""trial"",""time""
""fullscreenenter"",""0"",""2874""
","
","null","<div class='center'><p><img src='run_exp/static/images/tutorial/blue_no_win.png' height='500'></p></div>","null","","","","","","","","","","","","","","","","","","","","","","",""
"","html-keyboard-response","26","164435","0.0-26.0","""event"",""trial"",""time""
""fullscreenenter"",""0"",""2874""
","
","
","""event"",""trial"",""time""
""fullscreenenter"",""0"",""2874""
","
","1077.5999999046326","<div class='center'><img src='run_exp/static/images/tutorial/blue.png' height='500'></p></div>","49","","","","","","","","","","","","","","","","","","","","","","",""
"","html-keyboard-response","27","165936","0.0-27.0","""event"",""trial"",""time""
""fullscreenenter"",""0"",""2874""
","
","
","""event"",""trial"",""time""
""fullscreenenter"",""0"",""2874""
","
","null","<div class='center'><p><img src='run_exp/static/images/tutorial/blue_win.png' height='500'></p></div>","null","","","","","","","","","","","","","","","","","","","","","","",""
"","html-keyboard-response","28","167058","0.0-28.0","""event"",""trial"",""time""
""fullscreenenter"",""0"",""2874""
","
","
","""event"",""trial"",""time""
""fullscreenenter"",""0"",""2874""
","
","1120.8000001907349","<div class='center'><img src='run_exp/static/images/tutorial/blue.png' height='500'></p></div>","49","","","","","","","","","","","","","","","","","","","","","","",""
"","html-keyboard-response","29","168564","0.0-29.0","""event"",""trial"",""time""
""fullscreenenter"",""0"",""2874""
","
","
","""event"",""trial"",""time""
""fullscreenenter"",""0"",""2874""
","
","null","<div class='center'><p><img src='run_exp/static/images/tutorial/blue_win.png' height='500'></p></div>","null","","","","","","","","","","","","","","","","","","","","","","",""
"","instruc6","30","174267","0.0-30.0","""event"",""trial"",""time""
""fullscreenenter"",""0"",""2874""
","
","
","""event"",""trial"",""time""
""fullscreenenter"",""0"",""2874""
","
","null","run_exp/static/audio/clip_6_blue_beard_outcome.m4a","null","","","","","<div class='center'><p> See, he succeeded in robbing the ships most of the time but not every time. </p></div>","","","","","","","","","","","","","","","","","",""
"","html-keyboard-response","31","176302","0.0-31.0","""event"",""trial"",""time""
""fullscreenenter"",""0"",""2874""
","
","
","""event"",""trial"",""time""
""fullscreenenter"",""0"",""2874""
","
","2034","<div class='center'><p> See, he succeeded in robbing the ships most of the time but not every time. </p><p><b>[Press the space bar to continue]</b></p></div>","32","","","","","","","","","","","","","","","","","","","","","","",""
"","audio-keyboard-response","32","188849","0.0-32.0","""event"",""trial"",""time""
""fullscreenenter"",""0"",""2874""
","
","
","""event"",""trial"",""time""
""fullscreenenter"",""0"",""2874""
","
","12545.5","run_exp/static/audio/clip_7_pick_pirate.m4a","49","","","","","","","","","","","","","","","","","","","","","","",""
"","audio-keyboard-response","33","195771","0.0-33.0-0.0","""event"",""trial"",""time""
""fullscreenenter"",""0"",""2874""
","
","
","""event"",""trial"",""time""
""fullscreenenter"",""0"",""2874""
","
","6921","run_exp/static/audio/clip_8_chosen_pirate_win.m4a","32","","","","","","","","","","","","","","","","","","","","","","",""
"","audio-keyboard-response","34","198171","0.0-33.0-1.0","""event"",""trial"",""time""
""fullscreenenter"",""0"",""2874""
","
","
","""event"",""trial"",""time""
""fullscreenenter"",""0"",""2874""
","
","2398.5999999046326","run_exp/static/audio/clip_9_pick_a_pirate_again.m4a","50","","","","","","","","","","","","","","","","","","","","","","",""
"","audio-keyboard-response","35","203769","0.0-34.0-0.0","""event"",""trial"",""time""
""fullscreenenter"",""0"",""2874""
","
","
","""event"",""trial"",""time""
""fullscreenenter"",""0"",""2874""
","
","5597","run_exp/static/audio/clip_10_chosen_pirate_loss.m4a","32","","","","","","","","","","","","","","","","","","","","","","",""
"","instruc9","36","209328","0.0-35.0-0.0","""event"",""trial"",""time""
""fullscreenenter"",""0"",""2874""
","
","
","""event"",""trial"",""time""
""fullscreenenter"",""0"",""2874""
","
","null","run_exp/static/audio/clip_11_time_out.m4a","null","","","","","<div class='center'><p>If you don’t make your choice fast enough, you’ll have to wait a few seconds before you can make another one. </p><p><img src='run_exp/static/images/miscellaneous/hurry_up.png' height='500'></p></div>","","","","","","","","","","","","","","","","","",""
"","html-keyboard-response","37","210431","0.0-35.0-1.0","""event"",""trial"",""time""
""fullscreenenter"",""0"",""2874""
","
","
","""event"",""trial"",""time""
""fullscreenenter"",""0"",""2874""
","
","1101.2000000476837","<div class='center'><p>If you don’t make your choice fast enough, you’ll have to wait a few seconds before you can make another one. </p><p><img src='run_exp/static/images/miscellaneous/hurry_up.png' height='500'></p><p><b>[Press the space bar to continue]</b></p></div>","32","","","","","","","","","","","","","","","","","","","","","","",""
"","instruc10","38","249608","0.0-35.0-2.0","""event"",""trial"",""time""
""fullscreenenter"",""0"",""2874""
","
","
","""event"",""trial"",""time""
""fullscreenenter"",""0"",""2874""
","
","null","run_exp/static/audio/clip_12_probe.m4a","null","","","","","<div class='center'><p>Once you've chosen a pirate, you’ll be shown the ship they are robbing. You will never rob the same ship twice. Ships can be told apart from one another by the image on them. These are the goods that they sell. See, this ship has a travel mug on it. </p><p> You’ll have to remember which island you saw each ship on. You will win more gold coins and hence more bonus money if you remember correctly! To help you remember, you can imagine a story. For example, here, you could imagine a mug full of water in the desert. Or, as another example, if on the forest island, your pirate robbed a ship with an apple on it, you could imagine an apple falling from a tree in the forest. </p><p><img src='run_exp/static/images/tutorial/example_probe.png' height='500'></p></div>","","","","","","","","","","","","","","","","","",""
"","html-keyboard-response","39","251466","0.0-35.0-3.0","""event"",""trial"",""time""
""fullscreenenter"",""0"",""2874""
","
","
","""event"",""trial"",""time""
""fullscreenenter"",""0"",""2874""
","
","1856.8999998569489","<div class='center'><p>Once you've chosen a pirate, you’ll be shown the ship they are robbing. You will never rob the same ship twice. Ships can be told apart from one another by the image on them. These are the goods that they sell. See, this ship has a travel mug on it. </p><p> You’ll have to remember which island you saw each ship on. You will win more gold coins and hence more bonus money if you remember correctly! To help you remember, you can imagine a story. For example, here, you could imagine a mug full of water in the desert. Or, as another example, if on the forest island, your pirate robbed a ship with an apple on it, you could imagine an apple falling from a tree in the forest. </p><p><img src='run_exp/static/images/tutorial/example_probe.png' height='500'></p><p><b>[Press the space bar to continue]</b></p></div>","32","","","","","","","","","","","","","","","","","","","","","","",""
"","instruc11","40","267947","0.0-35.0-4.0","""event"",""trial"",""time""
""fullscreenenter"",""0"",""2874""
","
","
","""event"",""trial"",""time""
""fullscreenenter"",""0"",""2874""
","
","null","run_exp/static/audio/clip_13_changepoint.m4a","null","","","","","<div class='center'><p>How successful a pirate is at robbing ships will depend on the island you’re on.</p><p> A pirate may have visited this island many times before and gained a lot of practice robbing ships there.</p><p>So, they’re more likely to be successful than a pirate who has never visited the island before.</p></div>","","","","","","","","","","","","","","","","","",""
"","html-keyboard-response","41","269009","0.0-35.0-5.0","""event"",""trial"",""time""
""fullscreenenter"",""0"",""2874""
","
","
","""event"",""trial"",""time""
""fullscreenenter"",""0"",""2874""
","
","1060.2000000476837","<div class='center'><p>How successful a pirate is at robbing ships will depend on the island you’re on.</p><p> A pirate may have visited this island many times before and gained a lot of practice robbing ships there.</p><p>So, they’re more likely to be successful than a pirate who has never visited the island before.</p><p><b>[Press the space bar to continue]</b></p></div>","32","","","","","","","","","","","","","","","","","","","","","","",""
"","instruc12","42","310207","0.0-35.0-6.0","""event"",""trial"",""time""
""fullscreenenter"",""0"",""2874""
","
","
","""event"",""trial"",""time""
""fullscreenenter"",""0"",""2874""
","
","null","run_exp/static/audio/clip_14_drift.m4a","null","","","","","<div class='center'><p>How successful a pirate is at robbing ships can also change over the time spent on the island. </p><p> Ships may hear from islanders about the pirates coming and will improve their protections against the attack. This may make it harder to rob them.</p><p> Ships may also become lazy and weaken the strength of their protections. This may make it easier to rob them.</p><br><p>Things are always changing on the high seas! So, try your best to pay attention!</p><p><img src='run_exp/static/images/tutorial/contingency.png' height='500'></p></div>","","","","","","","","","","","","","","","","","",""
"","html-keyboard-response","43","325880","0.0-35.0-7.0","""event"",""trial"",""time""
""fullscreenenter"",""0"",""2874""
","
","
","""event"",""trial"",""time""
""fullscreenenter"",""0"",""2874""
","
","15671.900000095367","<div class='center'><p>How successful a pirate is at robbing ships can also change over the time spent on the island. </p><p> Ships may hear from islanders about the pirates coming and will improve their protections against the attack. This may make it harder to rob them.</p><p> Ships may also become lazy and weaken the strength of their protections. This may make it easier to rob them.</p><br><p>Things are always changing on the high seas! So, try your best to pay attention!</p><p><img src='run_exp/static/images/tutorial/contingency.png' height='500'></p><p><b>[Press the space bar to continue]</b></p></div>","32","","","","","","","","","","","","","","","","","","","","","","",""
"","instruc13","44","361211","0.0-35.0-8.0","""event"",""trial"",""time""
""fullscreenenter"",""0"",""2874""
","
","
","""event"",""trial"",""time""
""fullscreenenter"",""0"",""2874""
","
","null","run_exp/static/audio/clip_15_summary.m4a","null","","","","","<div class='center'><p>Let's go over the instructions quickly again. You have two important things to do: </p><b><p> 1. Pick the pirate who is the best at robbing ships on the current island. </p></b><b><p> 2. Remember on which island a ship was robbed.</p> </b><p>The amount of bonus money you can win depends on both.</p><p><br><p>Let’s try a practice game. The game will start by showing you the pirates. First, pick a pirate using the <b> 1, 2, 3 </b> keys on your keyboard. When you are shown a ship, try to remember which island you’re on by making up a story.</p><p>This is just a practice game, so you’re not playing for money. </p><p> Good luck! This game will be very difficult but try your best!</p></div>","","","","","","","","","","","","","","","","","",""
"","html-keyboard-response","45","364138","0.0-35.0-9.0","""event"",""trial"",""time""
""fullscreenenter"",""0"",""2874""
","
","
","""event"",""trial"",""time""
""fullscreenenter"",""0"",""2874""
","
","2925.9000000953674","<div class='center'><p>Let's go over the instructions quickly again. You have two important things to do: </p><b><p> 1. Pick the pirate who is the best at robbing ships on the current island. </p></b><b><p> 2. Remember on which island a ship was robbed.</p> </b><p>The amount of bonus money you can win depends on both.</p><p><br><p>Let’s try a practice game. The game will start by showing you the pirates. First, pick a pirate using the <b> 1, 2, 3 </b> keys on your keyboard. When you are shown a ship, try to remember which island you’re on by making up a story.</p><p>This is just a practice game, so you’re not playing for money. </p><p> Good luck! This game will be very difficult but try your best!</p><p><b>[Press the space bar to continue]</b></p></div>","32","","","","","","","","","","","","","","","","","","","","","","",""
"","do_welcome","46","368156","0.0-35.0-10.0","""event"",""trial"",""time""
""fullscreenenter"",""0"",""2874""
","
","
","""event"",""trial"",""time""
""fullscreenenter"",""0"",""2874""
","
","null","","","","","","","","null","","","","","","","","","","","","","","","","",""
"","do_trial","47","373980","0.0-35.0-11.0","""event"",""trial"",""time""
""fullscreenenter"",""0"",""2874""
","
","
","""event"",""trial"",""time""
""fullscreenenter"",""0"",""2874""
","
","1315.6000001430511","","","","","","","","49","1,0,0","","","","","","","","","","","","","","","",""
"","html-keyboard-response","48","374988","0.0-36.0-0.0","""event"",""trial"",""time""
""fullscreenenter"",""0"",""2874""
","
","
","""event"",""trial"",""time""
""fullscreenenter"",""0"",""2874""
","
","null","<p></p>","null","","","","","","","","","","","","","","","","","","","","","","",""
"","do_trial","49","380969","0.0-36.0-1.0","""event"",""trial"",""time""
""fullscreenenter"",""0"",""2874""
","
","
","""event"",""trial"",""time""
""fullscreenenter"",""0"",""2874""
","
","1459.7000000476837","","","","","","","","49","1,1,0","","","","","","","","","","","","","","","",""
"","html-keyboard-response","50","381973","0.0-37.0-0.0","""event"",""trial"",""time""
""fullscreenenter"",""0"",""2874""
","
","
","""event"",""trial"",""time""
""fullscreenenter"",""0"",""2874""
","
","null","<p></p>","null","","","","","","","","","","","","","","","","","","","","","","",""
"","do_trial","51","387415","0.0-37.0-1.0","""event"",""trial"",""time""
""fullscreenenter"",""0"",""2874""
","
","
","""event"",""trial"",""time""
""fullscreenenter"",""0"",""2874""
","
","933.7000000476837","","","","","","","","49","1,0,1","","","","","","","","","","","","","","","",""
"","html-keyboard-response","52","388429","0.0-38.0-0.0","""event"",""trial"",""time""
""fullscreenenter"",""0"",""2874""
","
","
","""event"",""trial"",""time""
""fullscreenenter"",""0"",""2874""
","
","null","<p></p>","null","","","","","","","","","","","","","","","","","","","","","","",""
"","do_trial","53","394324","0.0-38.0-1.0","""event"",""trial"",""time""
""fullscreenenter"",""0"",""2874""
","
","
","""event"",""trial"",""time""
""fullscreenenter"",""0"",""2874""
","
","1388.2999999523163","","","","","","","","49","0,1,0","","","","","","","","","","","","","","","",""
"","html-keyboard-response","54","395334","0.0-39.0-0.0","""event"",""trial"",""time""
""fullscreenenter"",""0"",""2874""
","
","
","""event"",""trial"",""time""
""fullscreenenter"",""0"",""2874""
","
","null","<p></p>","null","","","","","","","","","","","","","","","","","","","","","","",""
"","do_trial","55","400923","0.0-39.0-1.0","""event"",""trial"",""time""
""fullscreenenter"",""0"",""2874""
","
","
","""event"",""trial"",""time""
""fullscreenenter"",""0"",""2874""
","
","1070.2000000476837","","","","","","","","49","1,0,0","","","","","","","","","","","","","","","",""
"","do_bye","56","402430","0.0-40.0-0.0","""event"",""trial"",""time""
""fullscreenenter"",""0"",""2874""
","
","
","""event"",""trial"",""time""
""fullscreenenter"",""0"",""2874""
","
","null","","","","","","","","null","","","","","","","","","","","","","","","","",""
"","do_travel","57","411447","0.0-40.0-1.0","""event"",""trial"",""time""
""fullscreenenter"",""0"",""2874""
","
","
","""event"",""trial"",""time""
""fullscreenenter"",""0"",""2874""
","
","null","","","","","","","","null","","","","","","","","","","","","","","","","",""
"","do_welcome","58","415454","0.0-40.0-2.0","""event"",""trial"",""time""
""fullscreenenter"",""0"",""2874""
","
","
","""event"",""trial"",""time""
""fullscreenenter"",""0"",""2874""
","
","null","","","","","","","","null","","","","","","","","","","","","","","","","",""
"","do_trial","59","421417","0.0-40.0-3.0","""event"",""trial"",""time""
""fullscreenenter"",""0"",""2874""
","
","
","""event"",""trial"",""time""
""fullscreenenter"",""0"",""2874""
","
","1446.5","","","","","","","","50","1,0,0","","","","","","","","","","","","","","","",""
"","html-keyboard-response","60","422428","0.0-41.0-0.0","""event"",""trial"",""time""
""fullscreenenter"",""0"",""2874""
","
","
","""event"",""trial"",""time""
""fullscreenenter"",""0"",""2874""
","
","null","<p></p>","null","","","","","","","","","","","","","","","","","","","","","","",""
"","do_trial","61","427541","0.0-41.0-1.0","""event"",""trial"",""time""
""fullscreenenter"",""0"",""2874""
","
","
","""event"",""trial"",""time""
""fullscreenenter"",""0"",""2874""
","
","605.7999999523163","","","","","","","","51","1,0,1","","","","","","","","","","","","","","","",""
"","html-keyboard-response","62","428550","0.0-42.0-0.0","""event"",""trial"",""time""
""fullscreenenter"",""0"",""2874""
","
","
","""event"",""trial"",""time""
""fullscreenenter"",""0"",""2874""
","
","null","<p></p>","null","","","","","","","","","","","","","","","","","","","","","","",""
"","do_trial","63","433435","0.0-42.0-1.0","""event"",""trial"",""time""
""fullscreenenter"",""0"",""2874""
","
","
","""event"",""trial"",""time""
""fullscreenenter"",""0"",""2874""
","
","372.2999999523163","","","","","","","","51","1,1,0","","","","","","","","","","","","","","","",""
"","html-keyboard-response","64","434444","0.0-43.0-0.0","""event"",""trial"",""time""
""fullscreenenter"",""0"",""2874""
","
","
","""event"",""trial"",""time""
""fullscreenenter"",""0"",""2874""
","
","null","<p></p>","null","","","","","","","","","","","","","","","","","","","","","","",""
"","do_trial","65","439817","0.0-43.0-1.0","""event"",""trial"",""time""
""fullscreenenter"",""0"",""2874""
","
","
","""event"",""trial"",""time""
""fullscreenenter"",""0"",""2874""
","
","863.0999999046326","","","","","","","","51","0,0,1","","","","","","","","","","","","","","","",""
"","html-keyboard-response","66","440828","0.0-44.0-0.0","""event"",""trial"",""time""
""fullscreenenter"",""0"",""2874""
","
","
","""event"",""trial"",""time""
""fullscreenenter"",""0"",""2874""
","
","null","<p></p>","null","","","","","","","","","","","","","","","","","","","","","","",""
"","do_trial","67","446116","0.0-44.0-1.0","""event"",""trial"",""time""
""fullscreenenter"",""0"",""2874""
","
","
","""event"",""trial"",""time""
""fullscreenenter"",""0"",""2874""
","
","768.7000000476837","","","","","","","","51","1,0,1","","","","","","","","","","","","","","","",""
"","html-keyboard-response","68","449942","0.0-45.0-0.0","""event"",""trial"",""time""
""fullscreenenter"",""0"",""2874""
","
","
","""event"",""trial"",""time""
""fullscreenenter"",""0"",""2874""
","
","3824.4000000953674","<div class='center'><p><img src='run_exp/static/images/tutorial/prac_best_pirate.png'  height='500'></p></div>","49","","","","","","","","","","","","","","","","","","","","","","",""
"","html-keyboard-response","69","452395","0.0-46.0-0.0","""event"",""trial"",""time""
""fullscreenenter"",""0"",""2874""
","
","
","""event"",""trial"",""time""
""fullscreenenter"",""0"",""2874""
","
","2452","<div class='center'><p>That's correct! Red beard was the best.</p><p><b>[Press the space bar to continue]</b></p></div>","32","","","","","","","","","","","","","","","","","","","","","","",""
"","html-keyboard-response","70","455340","0.0-46.0-1.0","""event"",""trial"",""time""
""fullscreenenter"",""0"",""2874""
","
","
","""event"",""trial"",""time""
""fullscreenenter"",""0"",""2874""
","
","2944.2999999523163","<div class='center'><p><img src='run_exp/static/images/tutorial/prac_source.png'  height='500'></p></div>","50","","","","","","","","","","","","","","","","","","","","","","",""
"","html-keyboard-response","71","457321","0.0-47.0-0.0","""event"",""trial"",""time""
""fullscreenenter"",""0"",""2874""
","
","
","""event"",""trial"",""time""
""fullscreenenter"",""0"",""2874""
","
","1979.8999998569489","<div class='center'><p>That's correct! You saw this ship on the cavern island.</p><p><b>[Press the space bar to continue]</b></p></div>","32","","","","","","","","","","","","","","","","","","","","","","",""
"","quiz_beginning","72","473849","0.0-47.0-1.0","""event"",""trial"",""time""
""fullscreenenter"",""0"",""2874""
","
","
","""event"",""trial"",""time""
""fullscreenenter"",""0"",""2874""
","
","null","run_exp/static/audio/clip_16_quiz_intro.m4a","null","","","","","<div class='center'><p>Good job on the practice game! Now, you will be asked some true or false questions to make sure you really understand the rules of the game.</p><p> Press <b>'1'</b> on the keyboard for true and press <b>'2'</b> for false.</p></div>","","","","","","","","","","","","","","","","","",""
"","audio-keyboard-response","73","477943","0.0-47.0-2.0","""event"",""trial"",""time""
""fullscreenenter"",""0"",""2874""
","
","
","""event"",""trial"",""time""
""fullscreenenter"",""0"",""2874""
","
","4092.7999999523163","run_exp/static/audio/clip_17_q1.m4a","49","","","","","","","","","","","","","","","","","","","","","","",""
"","correct","74","480410","0.0-48.0-0.0","""event"",""trial"",""time""
""fullscreenenter"",""0"",""2874""
","
","
","""event"",""trial"",""time""
""fullscreenenter"",""0"",""2874""
","
","null","run_exp/static/audio/clip_18_correct.m4a","null","","","","","<div class='center'><p>That's correct!</p></div>","","","","","","","","","","","","","","","","","",""
"","html-keyboard-response","75","481550","0.0-48.0-1.0","""event"",""trial"",""time""
""fullscreenenter"",""0"",""2874""
","
","
","""event"",""trial"",""time""
""fullscreenenter"",""0"",""2874""
","
","1139.2999999523163","<div class='center'><p>That's correct!</p><p><b>[Press the space bar to continue]</b></p></div>","32","","","","","","","","","","","","","","","","","","","","","","",""
"","audio-keyboard-response","76","487684","0.0-48.0-2.0","""event"",""trial"",""time""
""fullscreenenter"",""0"",""2874""
","
","
","""event"",""trial"",""time""
""fullscreenenter"",""0"",""2874""
","
","6133.400000095367","run_exp/static/audio/clip_20_q2.m4a","50","","","","","","","","","","","","","","","","","","","","","","",""
"","correct","77","490070","0.0-49.0-0.0","""event"",""trial"",""time""
""fullscreenenter"",""0"",""2874""
","
","
","""event"",""trial"",""time""
""fullscreenenter"",""0"",""2874""
","
","null","run_exp/static/audio/clip_18_correct.m4a","null","","","","","<div class='center'><p>That's correct!</p></div>","","","","","","","","","","","","","","","","","",""
"","html-keyboard-response","78","491036","0.0-49.0-1.0","""event"",""trial"",""time""
""fullscreenenter"",""0"",""2874""
","
","
","""event"",""trial"",""time""
""fullscreenenter"",""0"",""2874""
","
","964.4000000953674","<div class='center'><p>That's correct!</p><p><b>[Press the space bar to continue]</b></p></div>","32","","","","","","","","","","","","","","","","","","","","","","",""
"","audio-keyboard-response","79","494275","0.0-49.0-2.0","""event"",""trial"",""time""
""fullscreenenter"",""0"",""2874""
","
","
","""event"",""trial"",""time""
""fullscreenenter"",""0"",""2874""
","
","3237.5","run_exp/static/audio/clip_22_q3.m4a","50","","","","","","","","","","","","","","","","","","","","","","",""
"","correct","80","496671","0.0-50.0-0.0","""event"",""trial"",""time""
""fullscreenenter"",""0"",""2874""
","
","
","""event"",""trial"",""time""
""fullscreenenter"",""0"",""2874""
","
","null","run_exp/static/audio/clip_18_correct.m4a","null","","","","","<div class='center'><p>That's correct!</p></div>","","","","","","","","","","","","","","","","","",""
"","html-keyboard-response","81","497576","0.0-50.0-1.0","""event"",""trial"",""time""
""fullscreenenter"",""0"",""2874""
","
","
","""event"",""trial"",""time""
""fullscreenenter"",""0"",""2874""
","
","903.7999999523163","<div class='center'><p>That's correct!</p><p><b>[Press the space bar to continue]</b></p></div>","32","","","","","","","","","","","","","","","","","","","","","","",""
"","audio-keyboard-response","82","499658","0.0-50.0-2.0","""event"",""trial"",""time""
""fullscreenenter"",""0"",""2874""
","
","
","""event"",""trial"",""time""
""fullscreenenter"",""0"",""2874""
","
","2081","run_exp/static/audio/clip_24_q4.m4a","49","","","","","","","","","","","","","","","","","","","","","","",""
"","correct","83","502071","0.0-51.0-0.0","""event"",""trial"",""time""
""fullscreenenter"",""0"",""2874""
","
","
","""event"",""trial"",""time""
""fullscreenenter"",""0"",""2874""
","
","null","run_exp/static/audio/clip_18_correct.m4a","null","","","","","<div class='center'><p>That's correct!</p></div>","","","","","","","","","","","","","","","","","",""
"","html-keyboard-response","84","502807","0.0-51.0-1.0","""event"",""trial"",""time""
""fullscreenenter"",""0"",""2874""
","
","
","""event"",""trial"",""time""
""fullscreenenter"",""0"",""2874""
","
","735.3000001907349","<div class='center'><p>That's correct!</p><p><b>[Press the space bar to continue]</b></p></div>","32","","","","","","","","","","","","","","","","","","","","","","",""
"","q_all_corr","85","511351","0.0-52.0-0.0","""event"",""trial"",""time""
""fullscreenenter"",""0"",""2874""
","
","
","""event"",""trial"",""time""
""fullscreenenter"",""0"",""2874""
","
","null","run_exp/static/audio/clip_27_quiz_all_correct.m4a","null","","","","","<div class='center'><p>Good job! You’re now ready to move on to the real game! Remember this game will be difficult but don't get discouraged and try your best!</p></div>","","","","","","","","","","","","","","","","","",""
"","html-keyboard-response","86","512471","0.0-52.0-1.0","""event"",""trial"",""time""
""fullscreenenter"",""0"",""2874""
","
","
","""event"",""trial"",""time""
""fullscreenenter"",""0"",""2874""
","
","1118.5","<div class='center'><p>Good job! You’re now ready to move on to the real game! Remember this game will be difficult but don't get discouraged and try your best!</p><p><b>[Press the space bar to continue]</b></p></div>","32","","","","","","","","","","","","","","","","","","","","","","",""
"","do_welcome","87","516485","0.0-53.0-0.0","""event"",""trial"",""time""
""fullscreenenter"",""0"",""2874""
","
","
","""event"",""trial"",""time""
""fullscreenenter"",""0"",""2874""
","
","null","","","","","","","","null","","","","","","","","","","","","","","","","",""
"","do_trial","88","521752","0.0-54.0-0.0","""event"",""trial"",""time""
""fullscreenenter"",""0"",""2874""
","
","
","""event"",""trial"",""time""
""fullscreenenter"",""0"",""2874""
","
","736.7999999523163","","","","","","","","49","1,0,0","0","coast","0","probe-12","0.6","0.3","0.1","1","","","","","","","",""
"","html-keyboard-response","89","522768","0.0-54.0-1.0","""event"",""trial"",""time""
""fullscreenenter"",""0"",""2874""
","
","
","""event"",""trial"",""time""
""fullscreenenter"",""0"",""2874""
","
","null","<p></p>","null","","","","","","","","","","","","","","","","","","","","","","",""
"","do_trial","90","527816","0.0-55.0-0.0","""event"",""trial"",""time""
""fullscreenenter"",""0"",""2874""
","
","
","""event"",""trial"",""time""
""fullscreenenter"",""0"",""2874""
","
","512.7000000476837","","","","","","","","49","0,0,0","0","coast","1","probe-62","0.5449683489313016","0.3636321303155998","0.11199795433688818","0","","","","","","","",""
"","html-keyboard-response","91","528826","0.0-55.0-1.0","""event"",""trial"",""time""
""fullscreenenter"",""0"",""2874""
","
","
","""event"",""trial"",""time""
""fullscreenenter"",""0"",""2874""
","
","null","<p></p>","null","","","","","","","","","","","","","","","","","","","","","","",""
"","do_trial","92","533960","0.0-56.0-0.0","""event"",""trial"",""time""
""fullscreenenter"",""0"",""2874""
","
","
","""event"",""trial"",""time""
""fullscreenenter"",""0"",""2874""
","
","597.5999999046326","","","","","","","","49","1,0,0","0","coast","2","probe-172","0.4464100689254187","0.3845188501094188","0.147047598803145","1","","","","","","","",""
"","html-keyboard-response","93","534974","0.0-56.0-1.0","""event"",""trial"",""time""
""fullscreenenter"",""0"",""2874""
","
","
","""event"",""trial"",""time""
""fullscreenenter"",""0"",""2874""
","
","null","<p></p>","null","","","","","","","","","","","","","","","","","","","","","","",""
"","do_trial","94","539955","0.0-57.0-0.0","""event"",""trial"",""time""
""fullscreenenter"",""0"",""2874""
","
","
","""event"",""trial"",""time""
""fullscreenenter"",""0"",""2874""
","
","439.2999999523163","","","","","","","","49","0,0,0","0","coast","3","probe-154","0.4891449210495767","0.49987755163965136","0.12520687260032476","0","","","","","","","",""
"","html-keyboard-response","95","540967","0.0-57.0-1.0","""event"",""trial"",""time""
""fullscreenenter"",""0"",""2874""
","
","
","""event"",""trial"",""time""
""fullscreenenter"",""0"",""2874""
","
","null","<p></p>","null","","","","","","","","","","","","","","","","","","","","","","",""
"","do_trial","96","545777","0.0-58.0-0.0","""event"",""trial"",""time""
""fullscreenenter"",""0"",""2874""
","
","
","""event"",""trial"",""time""
""fullscreenenter"",""0"",""2874""
","
","279.40000009536743","","","","","","","","50","1,1,1","0","coast","4","probe-181","0.5338317638385052","0.462461279340353","0.1457703166805619","1","","","","","","","",""
"","html-keyboard-response","97","546779","0.0-58.0-1.0","""event"",""trial"",""time""
""fullscreenenter"",""0"",""2874""
","
","
","""event"",""trial"",""time""
""fullscreenenter"",""0"",""2874""
","
","null","<p></p>","null","","","","","","","","","","","","","","","","","","","","","","",""
"","do_trial","98","551722","0.0-59.0-0.0","""event"",""trial"",""time""
""fullscreenenter"",""0"",""2874""
","
","
","""event"",""trial"",""time""
""fullscreenenter"",""0"",""2874""
","
","397.09999990463257","","","","","","","","50","1,1,0","0","coast","5","probe-115","0.5695051434018857","0.4916651831436856","0.08850659150107579","1","","","","","","","",""
"","html-keyboard-response","99","552723","0.0-59.0-1.0","""event"",""trial"",""time""
""fullscreenenter"",""0"",""2874""
","
","
","""event"",""trial"",""time""
""fullscreenenter"",""0"",""2874""
","
","null","<p></p>","null","","","","","","","","","","","","","","","","","","","","","","",""
"","do_trial","100","558141","0.0-60.0-0.0","""event"",""trial"",""time""
""fullscreenenter"",""0"",""2874""
","
","
","""event"",""trial"",""time""
""fullscreenenter"",""0"",""2874""
","
","875.2000000476837","","","","","","","","50","1,0,0","0","coast","6","probe-85","0.4436455140472376","0.33799982467262113","0.1197943950346847","0","","","","","","","",""
"","html-keyboard-response","101","559151","0.0-60.0-1.0","""event"",""trial"",""time""
""fullscreenenter"",""0"",""2874""
","
","
","""event"",""trial"",""time""
""fullscreenenter"",""0"",""2874""
","
","null","<p></p>","null","","","","","","","","","","","","","","","","","","","","","","",""
"","do_trial","102","564399","0.0-61.0-0.0","""event"",""trial"",""time""
""fullscreenenter"",""0"",""2874""
","
","
","""event"",""trial"",""time""
""fullscreenenter"",""0"",""2874""
","
","714.5","","","","","","","","50","1,1,0","0","coast","7","probe-194","0.43267134389672407","0.30939523963478377","0.07239482352110418","1","","","","","","","",""
"","html-keyboard-response","103","565411","0.0-61.0-1.0","""event"",""trial"",""time""
""fullscreenenter"",""0"",""2874""
","
","
","""event"",""trial"",""time""
""fullscreenenter"",""0"",""2874""
","
","null","<p></p>","null","","","","","","","","","","","","","","","","","","","","","","",""
"","do_trial","104","570648","0.0-62.0-0.0","""event"",""trial"",""time""
""fullscreenenter"",""0"",""2874""
","
","
","""event"",""trial"",""time""
""fullscreenenter"",""0"",""2874""
","
","702.4000000953674","","","","","","","","50","0,0,0","0","coast","8","probe-01","0.513234717721922","0.2904314634725772","0.07955936635431134","0","","","","","","","",""
"","html-keyboard-response","105","571662","0.0-62.0-1.0","""event"",""trial"",""time""
""fullscreenenter"",""0"",""2874""
","
","
","""event"",""trial"",""time""
""fullscreenenter"",""0"",""2874""
","
","null","<p></p>","null","","","","","","","","","","","","","","","","","","","","","","",""
"","do_trial","106","576634","0.0-63.0-0.0","""event"",""trial"",""time""
""fullscreenenter"",""0"",""2874""
","
","
","""event"",""trial"",""time""
""fullscreenenter"",""0"",""2874""
","
","433","","","","","","","","51","1,0,1","0","coast","9","probe-176","0.6794960632751859","0.2681198159100028","0.1442236936889101","1","","","","","","","",""
"","html-keyboard-response","107","577649","0.0-63.0-1.0","""event"",""trial"",""time""
""fullscreenenter"",""0"",""2874""
","
","
","""event"",""trial"",""time""
""fullscreenenter"",""0"",""2874""
","
","null","<p></p>","null","","","","","","","","","","","","","","","","","","","","","","",""
"","do_trial","108","582806","0.0-64.0-0.0","""event"",""trial"",""time""
""fullscreenenter"",""0"",""2874""
","
","
","""event"",""trial"",""time""
""fullscreenenter"",""0"",""2874""
","
","611.2000000476837","","","","","","","","51","0,0,0","0","coast","10","probe-177","0.731568510859644","0.30708341931065225","0.14212185263445742","0","","","","","","","",""
"","html-keyboard-response","109","583817","0.0-64.0-1.0","""event"",""trial"",""time""
""fullscreenenter"",""0"",""2874""
","
","
","""event"",""trial"",""time""
""fullscreenenter"",""0"",""2874""
","
","null","<p></p>","null","","","","","","","","","","","","","","","","","","","","","","",""
"","do_trial","110","588995","0.0-65.0-0.0","""event"",""trial"",""time""
""fullscreenenter"",""0"",""2874""
","
","
","""event"",""trial"",""time""
""fullscreenenter"",""0"",""2874""
","
","641.2000000476837","","","","","","","","50","1,0,0","0","coast","11","probe-145","0.6544630809496762","0.17528424973883155","0.25299470663086226","0","","","","","","","",""
"","html-keyboard-response","111","590011","0.0-65.0-1.0","""event"",""trial"",""time""
""fullscreenenter"",""0"",""2874""
","
","
","""event"",""trial"",""time""
""fullscreenenter"",""0"",""2874""
","
","null","<p></p>","null","","","","","","","","","","","","","","","","","","","","","","",""
"","do_trial","112","594947","0.0-66.0-0.0","""event"",""trial"",""time""
""fullscreenenter"",""0"",""2874""
","
","
","""event"",""trial"",""time""
""fullscreenenter"",""0"",""2874""
","
","400.5","","","","","","","","49","1,0,0","0","coast","12","probe-141","0.7198035347638746","0.06509950583468112","0.12731007850267256","1","","","","","","","",""
"","html-keyboard-response","113","595959","0.0-66.0-1.0","""event"",""trial"",""time""
""fullscreenenter"",""0"",""2874""
","
","
","""event"",""trial"",""time""
""fullscreenenter"",""0"",""2874""
","
","null","<p></p>","null","","","","","","","","","","","","","","","","","","","","","","",""
"","do_trial","114","600949","0.0-67.0-0.0","""event"",""trial"",""time""
""fullscreenenter"",""0"",""2874""
","
","
","""event"",""trial"",""time""
""fullscreenenter"",""0"",""2874""
","
","455","","","","","","","","49","0,0,0","0","coast","13","probe-157","0.5442154896376526","0.13198435207646386","0.050606862730302446","0","","","","","","","",""
"","html-keyboard-response","115","601963","0.0-67.0-1.0","""event"",""trial"",""time""
""fullscreenenter"",""0"",""2874""
","
","
","""event"",""trial"",""time""
""fullscreenenter"",""0"",""2874""
","
","null","<p></p>","null","","","","","","","","","","","","","","","","","","","","","","",""
"","do_trial","116","606964","0.0-68.0-0.0","""event"",""trial"",""time""
""fullscreenenter"",""0"",""2874""
","
","
","""event"",""trial"",""time""
""fullscreenenter"",""0"",""2874""
","
","454.09999990463257","","","","","","","","51","1,1,0","0","coast","14","probe-162","0.6566908200217031","0.22979778447602572","0.06948885959406963","0","","","","","","","",""
"","html-keyboard-response","117","607980","0.0-68.0-1.0","""event"",""trial"",""time""
""fullscreenenter"",""0"",""2874""
","
","
","""event"",""trial"",""time""
""fullscreenenter"",""0"",""2874""
","
","null","<p></p>","null","","","","","","","","","","","","","","","","","","","","","","",""
"","do_trial","118","612834","0.0-69.0-0.0","""event"",""trial"",""time""
""fullscreenenter"",""0"",""2874""
","
","
","""event"",""trial"",""time""
""fullscreenenter"",""0"",""2874""
","
","321.89999985694885","","","","","","","","50","0,0,0","0","coast","15","probe-178","0.48376492840241","0.18382994475554154","0.0636051166257095","0","","","","","","","",""
"","html-keyboard-response","119","613845","0.0-69.0-1.0","""event"",""trial"",""time""
""fullscreenenter"",""0"",""2874""
","
","
","""event"",""trial"",""time""
""fullscreenenter"",""0"",""2874""
","
","null","<p></p>","null","","","","","","","","","","","","","","","","","","","","","","",""
"","do_trial","120","619030","0.0-70.0-0.0","""event"",""trial"",""time""
""fullscreenenter"",""0"",""2874""
","
","
","""event"",""trial"",""time""
""fullscreenenter"",""0"",""2874""
","
","649.8999998569489","","","","","","","","49","1,1,0","0","coast","16","probe-166","0.6395078003597627","0.18916528541874278","0.14851918825331498","1","","","","","","","",""
"","html-keyboard-response","121","620043","0.0-70.0-1.0","""event"",""trial"",""time""
""fullscreenenter"",""0"",""2874""
","
","
","""event"",""trial"",""time""
""fullscreenenter"",""0"",""2874""
","
","null","<p></p>","null","","","","","","","","","","","","","","","","","","","","","","",""
"","do_trial","122","625030","0.0-71.0-0.0","""event"",""trial"",""time""
""fullscreenenter"",""0"",""2874""
","
","
","""event"",""trial"",""time""
""fullscreenenter"",""0"",""2874""
","
","458.5","","","","","","","","49","1,0,0","0","coast","17","probe-160","0.6044809776135195","0.1784970472291454","0.18194361699143366","1","","","","","","","",""
"","html-keyboard-response","123","626041","0.0-71.0-1.0","""event"",""trial"",""time""
""fullscreenenter"",""0"",""2874""
","
","
","""event"",""trial"",""time""
""fullscreenenter"",""0"",""2874""
","
","null","<p></p>","null","","","","","","","","","","","","","","","","","","","","","","",""
"","do_trial","124","631415","0.0-72.0-0.0","""event"",""trial"",""time""
""fullscreenenter"",""0"",""2874""
","
","
","""event"",""trial"",""time""
""fullscreenenter"",""0"",""2874""
","
","839.9000000953674","","","","","","","","49","1,1,0","0","coast","18","probe-76","0.5999405849765226","0.36132924832879787","0.18786177423349018","1","","","","","","","",""
"","html-keyboard-response","125","632427","0.0-72.0-1.0","""event"",""trial"",""time""
""fullscreenenter"",""0"",""2874""
","
","
","""event"",""trial"",""time""
""fullscreenenter"",""0"",""2874""
","
","null","<p></p>","null","","","","","","","","","","","","","","","","","","","","","","",""
"","do_trial","126","637913","0.0-73.0-0.0","""event"",""trial"",""time""
""fullscreenenter"",""0"",""2874""
","
","
","""event"",""trial"",""time""
""fullscreenenter"",""0"",""2874""
","
","953.5","","","","","","","","49","0,0,0","0","coast","19","probe-33","0.6493679664351654","0.3990209535542008","0.09792304819194068","0","","","","","","","",""
"","html-keyboard-response","127","638923","0.0-73.0-1.0","""event"",""trial"",""time""
""fullscreenenter"",""0"",""2874""
","
","
","""event"",""trial"",""time""
""fullscreenenter"",""0"",""2874""
","
","null","<p></p>","null","","","","","","","","","","","","","","","","","","","","","","",""
"","do_trial","128","644120","0.0-74.0-0.0","""event"",""trial"",""time""
""fullscreenenter"",""0"",""2874""
","
","
","""event"",""trial"",""time""
""fullscreenenter"",""0"",""2874""
","
","667.0999999046326","","","","","","","","49","1,0,0","0","coast","20","probe-205","0.7403078904518985","0.16059791055106304","0.19104464866195167","1","","","","","","","",""
"","html-keyboard-response","129","645125","0.0-74.0-1.0","""event"",""trial"",""time""
""fullscreenenter"",""0"",""2874""
","
","
","""event"",""trial"",""time""
""fullscreenenter"",""0"",""2874""
","
","null","<p></p>","null","","","","","","","","","","","","","","","","","","","","","","",""
"","do_trial","130","650500","0.0-75.0-0.0","""event"",""trial"",""time""
""fullscreenenter"",""0"",""2874""
","
","
","""event"",""trial"",""time""
""fullscreenenter"",""0"",""2874""
","
","827.7999999523163","","","","","","","","50","0,0,0","0","coast","21","probe-70","0.5641277898593733","0.08161157259302504","0.07799432255213633","0","","","","","","","",""
"","html-keyboard-response","131","651504","0.0-75.0-1.0","""event"",""trial"",""time""
""fullscreenenter"",""0"",""2874""
","
","
","""event"",""trial"",""time""
""fullscreenenter"",""0"",""2874""
","
","null","<p></p>","null","","","","","","","","","","","","","","","","","","","","","","",""
"","do_trial","132","656497","0.0-76.0-0.0","""event"",""trial"",""time""
""fullscreenenter"",""0"",""2874""
","
","
","""event"",""trial"",""time""
""fullscreenenter"",""0"",""2874""
","
","462.39999985694885","","","","","","","","49","1,0,0","0","coast","22","probe-226","0.5964660200845368","0.15981991862286124","0.0788702130756503","1","","","","","","","",""
"","html-keyboard-response","133","657503","0.0-76.0-1.0","""event"",""trial"",""time""
""fullscreenenter"",""0"",""2874""
","
","
","""event"",""trial"",""time""
""fullscreenenter"",""0"",""2874""
","
","null","<p></p>","null","","","","","","","","","","","","","","","","","","","","","","",""
"","do_trial","134","662784","0.0-77.0-0.0","""event"",""trial"",""time""
""fullscreenenter"",""0"",""2874""
","
","
","""event"",""trial"",""time""
""fullscreenenter"",""0"",""2874""
","
","753.5999999046326","","","","","","","","49","0,0,0","0","coast","23","probe-174","0.6203081048569085","0.25566981817741335","0.05929256396769023","0","","","","","","","",""
"","html-keyboard-response","135","663793","0.0-77.0-1.0","""event"",""trial"",""time""
""fullscreenenter"",""0"",""2874""
","
","
","""event"",""trial"",""time""
""fullscreenenter"",""0"",""2874""
","
","null","<p></p>","null","","","","","","","","","","","","","","","","","","","","","","",""
"","do_trial","136","669040","0.0-78.0-0.0","""event"",""trial"",""time""
""fullscreenenter"",""0"",""2874""
","
","
","""event"",""trial"",""time""
""fullscreenenter"",""0"",""2874""
","
","711.9000000953674","","","","","","","","49","1,0,0","0","coast","24","probe-184","0.4906798809445396","0.22384520516050987","0.18637930995970783","1","","","","","","","",""
"","html-keyboard-response","137","670050","0.0-78.0-1.0","""event"",""trial"",""time""
""fullscreenenter"",""0"",""2874""
","
","
","""event"",""trial"",""time""
""fullscreenenter"",""0"",""2874""
","
","null","<p></p>","null","","","","","","","","","","","","","","","","","","","","","","",""
"","do_trial","138","675042","0.0-79.0-0.0","""event"",""trial"",""time""
""fullscreenenter"",""0"",""2874""
","
","
","""event"",""trial"",""time""
""fullscreenenter"",""0"",""2874""
","
","458.19999980926514","","","","","","","","49","1,0,1","0","coast","25","probe-196","0.5360888930521202","0.22387852370957023","0.152402492296283","1","","","","","","","",""
"","html-keyboard-response","139","676054","0.0-79.0-1.0","""event"",""trial"",""time""
""fullscreenenter"",""0"",""2874""
","
","
","""event"",""trial"",""time""
""fullscreenenter"",""0"",""2874""
","
","null","<p></p>","null","","","","","","","","","","","","","","","","","","","","","","",""
"","do_trial","140","681465","0.0-80.0-0.0","""event"",""trial"",""time""
""fullscreenenter"",""0"",""2874""
","
","
","""event"",""trial"",""time""
""fullscreenenter"",""0"",""2874""
","
","878.1000001430511","","","","","","","","49","0,1,0","0","coast","26","probe-37","0.6136702725965514","0.30903316415257953","0.0979263519970185","0","","","","","","","",""
"","html-keyboard-response","141","682474","0.0-80.0-1.0","""event"",""trial"",""time""
""fullscreenenter"",""0"",""2874""
","
","
","""event"",""trial"",""time""
""fullscreenenter"",""0"",""2874""
","
","null","<p></p>","null","","","","","","","","","","","","","","","","","","","","","","",""
"","do_trial","142","688520","0.0-81.0-0.0","""event"",""trial"",""time""
""fullscreenenter"",""0"",""2874""
","
","
","""event"",""trial"",""time""
""fullscreenenter"",""0"",""2874""
","
","null","","","","","","","","null","1,0,0","0","coast","27","probe-56","0.5671411332793479","0.15278935441010133","0.1611211380595341","","","","","","","","",""
"","html-keyboard-response","143","689535","0.0-81.0-1.0","""event"",""trial"",""time""
""fullscreenenter"",""0"",""2874""
","
","
","""event"",""trial"",""time""
""fullscreenenter"",""0"",""2874""
","
","null","<p></p>","null","","","","","","","","","","","","","","","","","","","","","","",""
"","do_trial","144","694699","0.0-82.0-0.0","""event"",""trial"",""time""
""fullscreenenter"",""0"",""2874""
","
","
","""event"",""trial"",""time""
""fullscreenenter"",""0"",""2874""
","
","618.6000001430511","","","","","","","","49","1,0,0","0","coast","28","probe-17","0.5516177736842803","0.1569631737228396","0.208446327735141","1","","","","","","","",""
"","html-keyboard-response","145","695710","0.0-82.0-1.0","""event"",""trial"",""time""
""fullscreenenter"",""0"",""2874""
","
","
","""event"",""trial"",""time""
""fullscreenenter"",""0"",""2874""
","
","null","<p></p>","null","","","","","","","","","","","","","","","","","","","","","","",""
"","do_trial","146","701069","0.0-83.0-0.0","""event"",""trial"",""time""
""fullscreenenter"",""0"",""2874""
","
","
","""event"",""trial"",""time""
""fullscreenenter"",""0"",""2874""
","
","813.1000001430511","","","","","","","","49","1,0,0","0","coast","29","probe-210","0.641324312565673","0.12246100292793369","0.2646915044192527","1","","","","","","","",""
"","html-keyboard-response","147","702079","0.0-83.0-1.0","""event"",""trial"",""time""
""fullscreenenter"",""0"",""2874""
","
","
","""event"",""trial"",""time""
""fullscreenenter"",""0"",""2874""
","
","null","<p></p>","null","","","","","","","","","","","","","","","","","","","","","","",""
"","do_bye","148","703590","0.0-84.0-0.0","""event"",""trial"",""time""
""fullscreenenter"",""0"",""2874""
","
","
","""event"",""trial"",""time""
""fullscreenenter"",""0"",""2874""
","
","null","","","","","","","","null","","","","","","","","","","","","","","","","",""
"","break","149","718208","0.0-84.0-1.0","""event"",""trial"",""time""
""fullscreenenter"",""0"",""2874""
","
","
","""event"",""trial"",""time""
""fullscreenenter"",""0"",""2874""
","
","14615.899999856949","<div class='center'><p>Time to take a quick break! You have 2 minutes to rest, but you can move on sooner if you'd like.</p><p> Press the <b>space bar</b> to continue.</p></div>","32","","","","","","","","","","","","","","","","","","","","","","",""
"","do_travel","150","727224","0.0-85.0-0.0","""event"",""trial"",""time""
""fullscreenenter"",""0"",""2874""
","
","
","""event"",""trial"",""time""
""fullscreenenter"",""0"",""2874""
","
","null","","","","","","","","null","","","","","","","","","","","","","","","","",""
"","do_welcome","151","731244","0.0-85.0-1.0","""event"",""trial"",""time""
""fullscreenenter"",""0"",""2874""
","
","
","""event"",""trial"",""time""
""fullscreenenter"",""0"",""2874""
","
","null","","","","","","","","null","","","","","","","","","","","","","","","","",""
"","do_trial","152","736335","0.0-86.0-0.0","""event"",""trial"",""time""
""fullscreenenter"",""0"",""2874""
","
","
","""event"",""trial"",""time""
""fullscreenenter"",""0"",""2874""
","
","553","","","","","","","","50","1,1,1","1","city","30","probe-14","1","0.24363568227001559","0.24988088620255292","1","","","","","","","",""
"","html-keyboard-response","153","737348","0.0-86.0-1.0","""event"",""trial"",""time""
""fullscreenenter"",""0"",""2874""
","
","
","""event"",""trial"",""time""
""fullscreenenter"",""0"",""2874""
","
","null","<p></p>","null","","","","","","","","","","","","","","","","","","","","","","",""
"","do_trial","154","742227","0.0-87.0-0.0","""event"",""trial"",""time""
""fullscreenenter"",""0"",""2874""
","
","
","""event"",""trial"",""time""
""fullscreenenter"",""0"",""2874""
","
","334.09999990463257","","","","","","","","50","1,0,1","1","city","31","probe-90","1","0.3480443753295524","0.20699287507731637","0","","","","","","","",""
"","html-keyboard-response","155","743242","0.0-87.0-1.0","""event"",""trial"",""time""
""fullscreenenter"",""0"",""2874""
","
","
","""event"",""trial"",""time""
""fullscreenenter"",""0"",""2874""
","
","null","<p></p>","null","","","","","","","","","","","","","","","","","","","","","","",""
"","do_trial","156","748142","0.0-88.0-0.0","""event"",""trial"",""time""
""fullscreenenter"",""0"",""2874""
","
","
","""event"",""trial"",""time""
""fullscreenenter"",""0"",""2874""
","
","359.60000014305115","","","","","","","","50","1,1,0","1","city","32","probe-129","1","0.36469385972954443","0.17406139747409094","1","","","","","","","",""
"","html-keyboard-response","157","749157","0.0-88.0-1.0","""event"",""trial"",""time""
""fullscreenenter"",""0"",""2874""
","
","
","""event"",""trial"",""time""
""fullscreenenter"",""0"",""2874""
","
","null","<p></p>","null","","","","","","","","","","","","","","","","","","","","","","",""
"","do_trial","158","754194","0.0-89.0-0.0","""event"",""trial"",""time""
""fullscreenenter"",""0"",""2874""
","
","
","""event"",""trial"",""time""
""fullscreenenter"",""0"",""2874""
","
","493.7000000476837","","","","","","","","50","1,0,1","1","city","33","probe-230","0.8276570026124966","0.20122379555318187","0.18395181542029262","0","","","","","","","",""
"","html-keyboard-response","159","755206","0.0-89.0-1.0","""event"",""trial"",""time""
""fullscreenenter"",""0"",""2874""
","
","
","""event"",""trial"",""time""
""fullscreenenter"",""0"",""2874""
","
","null","<p></p>","null","","","","","","","","","","","","","","","","","","","","","","",""
"","do_trial","160","760123","0.0-90.0-0.0","""event"",""trial"",""time""
""fullscreenenter"",""0"",""2874""
","
","
","""event"",""trial"",""time""
""fullscreenenter"",""0"",""2874""
","
","381.60000014305115","","","","","","","","51","1,0,1","1","city","34","probe-138","0.8484849925171885","0.35293412899210547","0.1796669985327573","1","","","","","","","",""
"","html-keyboard-response","161","761137","0.0-90.0-1.0","""event"",""trial"",""time""
""fullscreenenter"",""0"",""2874""
","
","
","""event"",""trial"",""time""
""fullscreenenter"",""0"",""2874""
","
","null","<p></p>","null","","","","","","","","","","","","","","","","","","","","","","",""
"","do_trial","162","766888","0.0-91.0-0.0","""event"",""trial"",""time""
""fullscreenenter"",""0"",""2874""
","
","
","""event"",""trial"",""time""
""fullscreenenter"",""0"",""2874""
","
","1212.4000000953674","","","","","","","","51","1,1,0","1","city","35","probe-88","0.6997678290341237","0.3264149235543256","0.1528642273716466","0","","","","","","","",""
"","html-keyboard-response","163","767898","0.0-91.0-1.0","""event"",""trial"",""time""
""fullscreenenter"",""0"",""2874""
","
","
","""event"",""trial"",""time""
""fullscreenenter"",""0"",""2874""
","
","null","<p></p>","null","","","","","","","","","","","","","","","","","","","","","","",""
"","do_trial","164","772822","0.0-92.0-0.0","""event"",""trial"",""time""
""fullscreenenter"",""0"",""2874""
","
","
","""event"",""trial"",""time""
""fullscreenenter"",""0"",""2874""
","
","384.90000009536743","","","","","","","","51","1,0,0","1","city","36","probe-189","0.7264917191843248","0.4384938770509465","0.3016160712917691","0","","","","","","","",""
"","html-keyboard-response","165","773837","0.0-92.0-1.0","""event"",""trial"",""time""
""fullscreenenter"",""0"",""2874""
","
","
","""event"",""trial"",""time""
""fullscreenenter"",""0"",""2874""
","
","null","<p></p>","null","","","","","","","","","","","","","","","","","","","","","","",""
"","do_trial","166","778717","0.0-93.0-0.0","""event"",""trial"",""time""
""fullscreenenter"",""0"",""2874""
","
","
","""event"",""trial"",""time""
""fullscreenenter"",""0"",""2874""
","
","347.60000014305115","","","","","","","","49","1,0,0","1","city","37","probe-151","0.7854305423289604","0.45687674062552847","0.19875475907447748","1","","","","","","","",""
"","html-keyboard-response","167","779731","0.0-93.0-1.0","""event"",""trial"",""time""
""fullscreenenter"",""0"",""2874""
","
","
","""event"",""trial"",""time""
""fullscreenenter"",""0"",""2874""
","
","null","<p></p>","null","","","","","","","","","","","","","","","","","","","","","","",""
"","do_trial","168","784668","0.0-94.0-0.0","""event"",""trial"",""time""
""fullscreenenter"",""0"",""2874""
","
","
","""event"",""trial"",""time""
""fullscreenenter"",""0"",""2874""
","
","388.90000009536743","","","","","","","","49","1,0,0","1","city","38","probe-20","0.7010386220696374","0.42114323740357024","0.23817889321474084","1","","","","","","","",""
"","html-keyboard-response","169","785676","0.0-94.0-1.0","""event"",""trial"",""time""
""fullscreenenter"",""0"",""2874""
","
","
","""event"",""trial"",""time""
""fullscreenenter"",""0"",""2874""
","
","null","<p></p>","null","","","","","","","","","","","","","","","","","","","","","","",""
"","do_trial","170","790886","0.0-95.0-0.0","""event"",""trial"",""time""
""fullscreenenter"",""0"",""2874""
","
","
","""event"",""trial"",""time""
""fullscreenenter"",""0"",""2874""
","
","668","","","","","","","","49","0,0,0","1","city","39","probe-186","0.666734853857526","0.4312802054916341","0.2212006131756115","0","","","","","","","",""
"","html-keyboard-response","171","791901","0.0-95.0-1.0","""event"",""trial"",""time""
""fullscreenenter"",""0"",""2874""
","
","
","""event"",""trial"",""time""
""fullscreenenter"",""0"",""2874""
","
","null","<p></p>","null","","","","","","","","","","","","","","","","","","","","","","",""
"","do_trial","172","799151","0.0-96.0-0.0","""event"",""trial"",""time""
""fullscreenenter"",""0"",""2874""
","
","
","""event"",""trial"",""time""
""fullscreenenter"",""0"",""2874""
","
","2719.5","","","","","","","","49","1,0,1","1","city","40","probe-77","0.5785809356757765","0.4442897990685383","0.3086189975607415","1","","","","","","","",""
"","html-keyboard-response","173","800164","0.0-96.0-1.0","""event"",""trial"",""time""
""fullscreenenter"",""0"",""2874""
","
","
","""event"",""trial"",""time""
""fullscreenenter"",""0"",""2874""
","
","null","<p></p>","null","","","","","","","","","","","","","","","","","","","","","","",""
"","do_trial","174","805189","0.0-97.0-0.0","""event"",""trial"",""time""
""fullscreenenter"",""0"",""2874""
","
","
","""event"",""trial"",""time""
""fullscreenenter"",""0"",""2874""
","
","491.30000019073486","","","","","","","","49","1,1,1","1","city","41","probe-111","0.4804436135106159","0.3324531704563299","0.4435116118292038","1","","","","","","","",""
"","html-keyboard-response","175","806190","0.0-97.0-1.0","""event"",""trial"",""time""
""fullscreenenter"",""0"",""2874""
","
","
","""event"",""trial"",""time""
""fullscreenenter"",""0"",""2874""
","
","null","<p></p>","null","","","","","","","","","","","","","","","","","","","","","","",""
"","do_trial","176","811386","0.0-98.0-0.0","""event"",""trial"",""time""
""fullscreenenter"",""0"",""2874""
","
","
","""event"",""trial"",""time""
""fullscreenenter"",""0"",""2874""
","
","649.7999999523163","","","","","","","","49","0,0,1","1","city","42","probe-153","0.21008999843833231","0.29537198011112153","0.3709997591886412","0","","","","","","","",""
"","html-keyboard-response","177","812402","0.0-98.0-1.0","""event"",""trial"",""time""
""fullscreenenter"",""0"",""2874""
","
","
","""event"",""trial"",""time""
""fullscreenenter"",""0"",""2874""
","
","null","<p></p>","null","","","","","","","","","","","","","","","","","","","","","","",""
"","do_trial","178","817332","0.0-99.0-0.0","""event"",""trial"",""time""
""fullscreenenter"",""0"",""2874""
","
","
","""event"",""trial"",""time""
""fullscreenenter"",""0"",""2874""
","
","398.09999990463257","","","","","","","","49","1,0,0","1","city","43","probe-06","0.19976326246492832","0.17367811867997632","0.45643306430521086","1","","","","","","","",""
"","html-keyboard-response","179","818344","0.0-99.0-1.0","""event"",""trial"",""time""
""fullscreenenter"",""0"",""2874""
","
","
","""event"",""trial"",""time""
""fullscreenenter"",""0"",""2874""
","
","null","<p></p>","null","","","","","","","","","","","","","","","","","","","","","","",""
"","do_trial","180","823616","0.0-100.0-0.0","""event"",""trial"",""time""
""fullscreenenter"",""0"",""2874""
","
","
","""event"",""trial"",""time""
""fullscreenenter"",""0"",""2874""
","
","736","","","","","","","","49","0,1,0","1","city","44","probe-225","0.09508294466667282","0.2192741791956263","0.5370093275643886","0","","","","","","","",""
"","html-keyboard-response","181","824629","0.0-100.0-1.0","""event"",""trial"",""time""
""fullscreenenter"",""0"",""2874""
","
","
","""event"",""trial"",""time""
""fullscreenenter"",""0"",""2874""
","
","null","<p></p>","null","","","","","","","","","","","","","","","","","","","","","","",""
"","do_trial","182","830682","0.0-101.0-0.0","""event"",""trial"",""time""
""fullscreenenter"",""0"",""2874""
","
","
","""event"",""trial"",""time""
""fullscreenenter"",""0"",""2874""
","
","null","","","","","","","","null","0,1,0","1","city","45","probe-123","0.1428527792597382","0.2514217652898029","0.45213296002634934","","","","","","","","",""
"","html-keyboard-response","183","831698","0.0-101.0-1.0","""event"",""trial"",""time""
""fullscreenenter"",""0"",""2874""
","
","
","""event"",""trial"",""time""
""fullscreenenter"",""0"",""2874""
","
","null","<p></p>","null","","","","","","","","","","","","","","","","","","","","","","",""
"","do_trial","184","836743","0.0-102.0-0.0","""event"",""trial"",""time""
""fullscreenenter"",""0"",""2874""
","
","
","""event"",""trial"",""time""
""fullscreenenter"",""0"",""2874""
","
","510.89999985694885","","","","","","","","49","0,0,1","1","city","46","probe-49","0.10448898740821992","0.3071809278226785","0.5658402626154474","0","","","","","","","",""
"","html-keyboard-response","185","837755","0.0-102.0-1.0","""event"",""trial"",""time""
""fullscreenenter"",""0"",""2874""
","
","
","""event"",""trial"",""time""
""fullscreenenter"",""0"",""2874""
","
","null","<p></p>","null","","","","","","","","","","","","","","","","","","","","","","",""
"","do_trial","186","842704","0.0-103.0-0.0","""event"",""trial"",""time""
""fullscreenenter"",""0"",""2874""
","
","
","""event"",""trial"",""time""
""fullscreenenter"",""0"",""2874""
","
","401.7000000476837","","","","","","","","50","0,1,0","1","city","47","probe-199","0.11997320974319708","0.35035428487339304","0.5331572307445025","1","","","","","","","",""
"","html-keyboard-response","187","843720","0.0-103.0-1.0","""event"",""trial"",""time""
""fullscreenenter"",""0"",""2874""
","
","
","""event"",""trial"",""time""
""fullscreenenter"",""0"",""2874""
","
","null","<p></p>","null","","","","","","","","","","","","","","","","","","","","","","",""
"","do_trial","188","848792","0.0-104.0-0.0","""event"",""trial"",""time""
""fullscreenenter"",""0"",""2874""
","
","
","""event"",""trial"",""time""
""fullscreenenter"",""0"",""2874""
","
","528.2999999523163","","","","","","","","50","1,1,1","1","city","48","probe-114","0.08488748931051796","0.2535602926330218","0.6125517228211022","1","","","","","","","",""
"","html-keyboard-response","189","849805","0.0-104.0-1.0","""event"",""trial"",""time""
""fullscreenenter"",""0"",""2874""
","
","
","""event"",""trial"",""time""
""fullscreenenter"",""0"",""2874""
","
","null","<p></p>","null","","","","","","","","","","","","","","","","","","","","","","",""
"","do_trial","190","857117","0.0-105.0-0.0","""event"",""trial"",""time""
""fullscreenenter"",""0"",""2874""
","
","
","""event"",""trial"",""time""
""fullscreenenter"",""0"",""2874""
","
","2774.100000143051","","","","","","","","50","0,0,1","1","city","49","probe-108","0.05849912156029012","0.1938534325424277","0.7214535205562561","0","","","","","","","",""
"","html-keyboard-response","191","858130","0.0-105.0-1.0","""event"",""trial"",""time""
""fullscreenenter"",""0"",""2874""
","
","
","""event"",""trial"",""time""
""fullscreenenter"",""0"",""2874""
","
","null","<p></p>","null","","","","","","","","","","","","","","","","","","","","","","",""
"","do_trial","192","863495","0.0-106.0-0.0","""event"",""trial"",""time""
""fullscreenenter"",""0"",""2874""
","
","
","""event"",""trial"",""time""
""fullscreenenter"",""0"",""2874""
","
","826.7000000476837","","","","","","","","49","0,0,0","1","city","50","probe-67","0.1154798926266843","0.27152904962928026","0.6786734463428203","0","","","","","","","",""
"","html-keyboard-response","193","864507","0.0-106.0-1.0","""event"",""trial"",""time""
""fullscreenenter"",""0"",""2874""
","
","
","""event"",""trial"",""time""
""fullscreenenter"",""0"",""2874""
","
","null","<p></p>","null","","","","","","","","","","","","","","","","","","","","","","",""
"","do_trial","194","869555","0.0-107.0-0.0","""event"",""trial"",""time""
""fullscreenenter"",""0"",""2874""
","
","
","""event"",""trial"",""time""
""fullscreenenter"",""0"",""2874""
","
","513","","","","","","","","50","0,0,1","1","city","51","probe-127","0.06509768690080218","0.12466360521375994","0.7760099884867139","0","","","","","","","",""
"","html-keyboard-response","195","870569","0.0-107.0-1.0","""event"",""trial"",""time""
""fullscreenenter"",""0"",""2874""
","
","
","""event"",""trial"",""time""
""fullscreenenter"",""0"",""2874""
","
","null","<p></p>","null","","","","","","","","","","","","","","","","","","","","","","",""
"","do_trial","196","875704","0.0-108.0-0.0","""event"",""trial"",""time""
""fullscreenenter"",""0"",""2874""
","
","
","""event"",""trial"",""time""
""fullscreenenter"",""0"",""2874""
","
","597.5999999046326","","","","","","","","49","0,0,1","1","city","52","probe-131","0.06064521014513512","0.13095423090228356","0.6730405280173329","0","","","","","","","",""
"","html-keyboard-response","197","876718","0.0-108.0-1.0","""event"",""trial"",""time""
""fullscreenenter"",""0"",""2874""
","
","
","""event"",""trial"",""time""
""fullscreenenter"",""0"",""2874""
","
","null","<p></p>","null","","","","","","","","","","","","","","","","","","","","","","",""
"","do_trial","198","881930","0.0-109.0-0.0","""event"",""trial"",""time""
""fullscreenenter"",""0"",""2874""
","
","
","""event"",""trial"",""time""
""fullscreenenter"",""0"",""2874""
","
","668.0999999046326","","","","","","","","51","0,0,1","1","city","53","probe-200","0.07126317733977919","0.17228827559055757","0.602561196096139","1","","","","","","","",""
"","html-keyboard-response","199","882942","0.0-109.0-1.0","""event"",""trial"",""time""
""fullscreenenter"",""0"",""2874""
","
","
","""event"",""trial"",""time""
""fullscreenenter"",""0"",""2874""
","
","null","<p></p>","null","","","","","","","","","","","","","","","","","","","","","","",""
"","do_trial","200","888288","0.0-110.0-0.0","""event"",""trial"",""time""
""fullscreenenter"",""0"",""2874""
","
","
","""event"",""trial"",""time""
""fullscreenenter"",""0"",""2874""
","
","809.4000000953674","","","","","","","","51","0,0,1","1","city","54","probe-24","0.14884736176743746","0.25563263358945604","0.7139358235636674","1","","","","","","","",""
"","html-keyboard-response","201","889298","0.0-110.0-1.0","""event"",""trial"",""time""
""fullscreenenter"",""0"",""2874""
","
","
","""event"",""trial"",""time""
""fullscreenenter"",""0"",""2874""
","
","null","<p></p>","null","","","","","","","","","","","","","","","","","","","","","","",""
"","do_trial","202","896320","0.0-111.0-0.0","""event"",""trial"",""time""
""fullscreenenter"",""0"",""2874""
","
","
","""event"",""trial"",""time""
""fullscreenenter"",""0"",""2874""
","
","2480","","","","","","","","51","0,0,1","1","city","55","probe-29","0.11296996771379478","0.23103722384754236","0.6434529855620389","1","","","","","","","",""
"","html-keyboard-response","203","897322","0.0-111.0-1.0","""event"",""trial"",""time""
""fullscreenenter"",""0"",""2874""
","
","
","""event"",""trial"",""time""
""fullscreenenter"",""0"",""2874""
","
","null","<p></p>","null","","","","","","","","","","","","","","","","","","","","","","",""
"","do_trial","204","902485","0.0-112.0-0.0","""event"",""trial"",""time""
""fullscreenenter"",""0"",""2874""
","
","
","""event"",""trial"",""time""
""fullscreenenter"",""0"",""2874""
","
","626","","","","","","","","51","0,1,0","1","city","56","probe-218","0.09151089106556773","0.3122311458861515","0.5833563275753969","0","","","","","","","",""
"","html-keyboard-response","205","903498","0.0-112.0-1.0","""event"",""trial"",""time""
""fullscreenenter"",""0"",""2874""
","
","
","""event"",""trial"",""time""
""fullscreenenter"",""0"",""2874""
","
","null","<p></p>","null","","","","","","","","","","","","","","","","","","","","","","",""
"","do_trial","206","909538","0.0-113.0-0.0","""event"",""trial"",""time""
""fullscreenenter"",""0"",""2874""
","
","
","""event"",""trial"",""time""
""fullscreenenter"",""0"",""2874""
","
","null","","","","","","","","null","0,0,1","1","city","57","probe-128","0.07714189709775196","0.41316833751725895","0.6632034397701965","","","","","","","","",""
"","html-keyboard-response","207","910551","0.0-113.0-1.0","""event"",""trial"",""time""
""fullscreenenter"",""0"",""2874""
","
","
","""event"",""trial"",""time""
""fullscreenenter"",""0"",""2874""
","
","null","<p></p>","null","","","","","","","","","","","","","","","","","","","","","","",""
"","do_trial","208","915695","0.0-114.0-0.0","""event"",""trial"",""time""
""fullscreenenter"",""0"",""2874""
","
","
","""event"",""trial"",""time""
""fullscreenenter"",""0"",""2874""
","
","609","","","","","","","","51","0,1,1","1","city","58","probe-223","0.09931211192118006","0.24790757468073385","0.5927885058973528","1","","","","","","","",""
"","html-keyboard-response","209","916707","0.0-114.0-1.0","""event"",""trial"",""time""
""fullscreenenter"",""0"",""2874""
","
","
","""event"",""trial"",""time""
""fullscreenenter"",""0"",""2874""
","
","null","<p></p>","null","","","","","","","","","","","","","","","","","","","","","","",""
"","do_trial","210","921951","0.0-115.0-0.0","""event"",""trial"",""time""
""fullscreenenter"",""0"",""2874""
","
","
","""event"",""trial"",""time""
""fullscreenenter"",""0"",""2874""
","
","707.1999998092651","","","","","","","","51","0,1,0","1","city","59","probe-195","0.0927769155494883","0.3355323215267859","0.6364864328819051","0","","","","","","","",""
"","html-keyboard-response","211","922962","0.0-115.0-1.0","""event"",""trial"",""time""
""fullscreenenter"",""0"",""2874""
","
","
","""event"",""trial"",""time""
""fullscreenenter"",""0"",""2874""
","
","null","<p></p>","null","","","","","","","","","","","","","","","","","","","","","","",""
"","do_trial","212","928513","0.0-116.0-0.0","""event"",""trial"",""time""
""fullscreenenter"",""0"",""2874""
","
","
","""event"",""trial"",""time""
""fullscreenenter"",""0"",""2874""
","
","1018.6000001430511","","","","","","","","51","0,1,1","1","city","60","probe-102","0.07899434987809559","0.3398333002847733","0.576038387834698","1","","","","","","","",""
"","html-keyboard-response","213","929524","0.0-116.0-1.0","""event"",""trial"",""time""
""fullscreenenter"",""0"",""2874""
","
","
","""event"",""trial"",""time""
""fullscreenenter"",""0"",""2874""
","
","null","<p></p>","null","","","","","","","","","","","","","","","","","","","","","","",""
"","do_trial","214","935545","0.0-117.0-0.0","""event"",""trial"",""time""
""fullscreenenter"",""0"",""2874""
","
","
","""event"",""trial"",""time""
""fullscreenenter"",""0"",""2874""
","
","1488.5999999046326","","","","","","","","51","0,1,1","1","city","61","probe-209","0.18954970812594968","0.2510431426483681","0.5477525373811858","1","","","","","","","",""
"","html-keyboard-response","215","936553","0.0-117.0-1.0","""event"",""trial"",""time""
""fullscreenenter"",""0"",""2874""
","
","
","""event"",""trial"",""time""
""fullscreenenter"",""0"",""2874""
","
","null","<p></p>","null","","","","","","","","","","","","","","","","","","","","","","",""
"","do_trial","216","941508","0.0-118.0-0.0","""event"",""trial"",""time""
""fullscreenenter"",""0"",""2874""
","
","
","""event"",""trial"",""time""
""fullscreenenter"",""0"",""2874""
","
","418.7999999523163","","","","","","","","51","1,0,1","1","city","62","probe-164","0.1624539180705179","0.35790214202507387","0.5623125612851462","1","","","","","","","",""
"","html-keyboard-response","217","942517","0.0-118.0-1.0","""event"",""trial"",""time""
""fullscreenenter"",""0"",""2874""
","
","
","""event"",""trial"",""time""
""fullscreenenter"",""0"",""2874""
","
","null","<p></p>","null","","","","","","","","","","","","","","","","","","","","","","",""
"","do_trial","218","947516","0.0-119.0-0.0","""event"",""trial"",""time""
""fullscreenenter"",""0"",""2874""
","
","
","""event"",""trial"",""time""
""fullscreenenter"",""0"",""2874""
","
","458.39999985694885","","","","","","","","51","0,0,0","1","city","63","probe-72","0.07563279850174061","0.33691302436749615","0.5882892626044951","0","","","","","","","",""
"","html-keyboard-response","219","948528","0.0-119.0-1.0","""event"",""trial"",""time""
""fullscreenenter"",""0"",""2874""
","
","
","""event"",""trial"",""time""
""fullscreenenter"",""0"",""2874""
","
","null","<p></p>","null","","","","","","","","","","","","","","","","","","","","","","",""
"","do_trial","220","955920","0.0-120.0-0.0","""event"",""trial"",""time""
""fullscreenenter"",""0"",""2874""
","
","
","""event"",""trial"",""time""
""fullscreenenter"",""0"",""2874""
","
","2855.5","","","","","","","","51","0,0,1","1","city","64","probe-144","0.09101358689574102","0.23532818802007227","0.49878249127194224","1","","","","","","","",""
"","html-keyboard-response","221","956930","0.0-120.0-1.0","""event"",""trial"",""time""
""fullscreenenter"",""0"",""2874""
","
","
","""event"",""trial"",""time""
""fullscreenenter"",""0"",""2874""
","
","null","<p></p>","null","","","","","","","","","","","","","","","","","","","","","","",""
"","do_trial","222","962970","0.0-121.0-0.0","""event"",""trial"",""time""
""fullscreenenter"",""0"",""2874""
","
","
","""event"",""trial"",""time""
""fullscreenenter"",""0"",""2874""
","
","null","","","","","","","","null","0,0,0","1","city","65","probe-179","0.07151365206170605","0.11022734659454665","0.5619226242610168","","","","","","","","",""
"","html-keyboard-response","223","963984","0.0-121.0-1.0","""event"",""trial"",""time""
""fullscreenenter"",""0"",""2874""
","
","
","""event"",""trial"",""time""
""fullscreenenter"",""0"",""2874""
","
","null","<p></p>","null","","","","","","","","","","","","","","","","","","","","","","",""
"","do_trial","224","969183","0.0-122.0-0.0","""event"",""trial"",""time""
""fullscreenenter"",""0"",""2874""
","
","
","""event"",""trial"",""time""
""fullscreenenter"",""0"",""2874""
","
","660.7999999523163","","","","","","","","51","0,1,0","1","city","66","probe-93","0.09604202890986567","0.20221164922017287","0.513992387908853","0","","","","","","","",""
"","html-keyboard-response","225","970194","0.0-122.0-1.0","""event"",""trial"",""time""
""fullscreenenter"",""0"",""2874""
","
","
","""event"",""trial"",""time""
""fullscreenenter"",""0"",""2874""
","
","null","<p></p>","null","","","","","","","","","","","","","","","","","","","","","","",""
"","do_trial","226","975101","0.0-123.0-0.0","""event"",""trial"",""time""
""fullscreenenter"",""0"",""2874""
","
","
","""event"",""trial"",""time""
""fullscreenenter"",""0"",""2874""
","
","374.2999999523163","","","","","","","","50","0,0,0","1","city","67","probe-105","0.060426880928729054","0.4700751076884566","0.6590274061603475","0","","","","","","","",""
"","html-keyboard-response","227","976114","0.0-123.0-1.0","""event"",""trial"",""time""
""fullscreenenter"",""0"",""2874""
","
","
","""event"",""trial"",""time""
""fullscreenenter"",""0"",""2874""
","
","null","<p></p>","null","","","","","","","","","","","","","","","","","","","","","","",""
"","do_trial","228","980977","0.0-124.0-0.0","""event"",""trial"",""time""
""fullscreenenter"",""0"",""2874""
","
","
","""event"",""trial"",""time""
""fullscreenenter"",""0"",""2874""
","
","334","","","","","","","","51","0,0,0","1","city","68","probe-190","0.14803088055202135","0.3945783555930038","0.5573702446916673","0","","","","","","","",""
"","html-keyboard-response","229","981990","0.0-124.0-1.0","""event"",""trial"",""time""
""fullscreenenter"",""0"",""2874""
","
","
","""event"",""trial"",""time""
""fullscreenenter"",""0"",""2874""
","
","null","<p></p>","null","","","","","","","","","","","","","","","","","","","","","","",""
"","do_trial","230","986955","0.0-125.0-0.0","""event"",""trial"",""time""
""fullscreenenter"",""0"",""2874""
","
","
","""event"",""trial"",""time""
""fullscreenenter"",""0"",""2874""
","
","426.2999999523163","","","","","","","","49","1,0,0","1","city","69","probe-35","0.10569979108129776","0.22557214331246514","0.5774375335567008","1","","","","","","","",""
"","html-keyboard-response","231","987970","0.0-125.0-1.0","""event"",""trial"",""time""
""fullscreenenter"",""0"",""2874""
","
","
","""event"",""trial"",""time""
""fullscreenenter"",""0"",""2874""
","
","null","<p></p>","null","","","","","","","","","","","","","","","","","","","","","","",""
"","do_bye","232","989482","0.0-126.0-0.0","""event"",""trial"",""time""
""fullscreenenter"",""0"",""2874""
","
","
","""event"",""trial"",""time""
""fullscreenenter"",""0"",""2874""
","
","null","","","","","","","","null","","","","","","","","","","","","","","","","",""
"","break","233","1009034","0.0-126.0-1.0","""event"",""trial"",""time""
""fullscreenenter"",""0"",""2874""
","
","
","""event"",""trial"",""time""
""fullscreenenter"",""0"",""2874""
","
","19550.5","<div class='center'><p>Time to take a quick break! You have 2 minutes to rest, but you can move on sooner if you'd like.</p><p> Press the <b>space bar</b> to continue.</p></div>","32","","","","","","","","","","","","","","","","","","","","","","",""
"","do_travel","234","1018042","0.0-127.0-0.0","""event"",""trial"",""time""
""fullscreenenter"",""0"",""2874""
","
","
","""event"",""trial"",""time""
""fullscreenenter"",""0"",""2874""
","
","null","","","","","","","","null","","","","","","","","","","","","","","","","",""
"","do_welcome","235","1022049","0.0-127.0-1.0","""event"",""trial"",""time""
""fullscreenenter"",""0"",""2874""
","
","
","""event"",""trial"",""time""
""fullscreenenter"",""0"",""2874""
","
","null","","","","","","","","null","","","","","","","","","","","","","","","","",""
"","do_trial","236","1027831","0.0-128.0-0.0","""event"",""trial"",""time""
""fullscreenenter"",""0"",""2874""
","
","
","""event"",""trial"",""time""
""fullscreenenter"",""0"",""2874""
","
","1236.5999999046326","","","","","","","","50","0,0,1","2","mountain","70","probe-23","0.1688955153052642","0.2125772332187497","1","0","","","","","","","",""
"","html-keyboard-response","237","1028845","0.0-128.0-1.0","""event"",""trial"",""time""
""fullscreenenter"",""0"",""2874""
","
","
","""event"",""trial"",""time""
""fullscreenenter"",""0"",""2874""
","
","null","<p></p>","null","","","","","","","","","","","","","","","","","","","","","","",""
"","do_trial","238","1033869","0.0-129.0-0.0","""event"",""trial"",""time""
""fullscreenenter"",""0"",""2874""
","
","
","""event"",""trial"",""time""
""fullscreenenter"",""0"",""2874""
","
","494.10000014305115","","","","","","","","50","1,0,1","2","mountain","71","probe-192","0.18181282171930974","0.2135289269435206","1","0","","","","","","","",""
"","html-keyboard-response","239","1034886","0.0-129.0-1.0","""event"",""trial"",""time""
""fullscreenenter"",""0"",""2874""
","
","
","""event"",""trial"",""time""
""fullscreenenter"",""0"",""2874""
","
","null","<p></p>","null","","","","","","","","","","","","","","","","","","","","","","",""
"","do_trial","240","1039702","0.0-130.0-0.0","""event"",""trial"",""time""
""fullscreenenter"",""0"",""2874""
","
","
","""event"",""trial"",""time""
""fullscreenenter"",""0"",""2874""
","
","270.60000014305115","","","","","","","","49","0,0,1","2","mountain","72","probe-19","0.06544373082817043","0.28687482032624434","0.7410996208398658","0","","","","","","","",""
"","html-keyboard-response","241","1040711","0.0-130.0-1.0","""event"",""trial"",""time""
""fullscreenenter"",""0"",""2874""
","
","
","""event"",""trial"",""time""
""fullscreenenter"",""0"",""2874""
","
","null","<p></p>","null","","","","","","","","","","","","","","","","","","","","","","",""
"","do_trial","242","1045414","0.0-131.0-0.0","""event"",""trial"",""time""
""fullscreenenter"",""0"",""2874""
","
","
","""event"",""trial"",""time""
""fullscreenenter"",""0"",""2874""
","
","169.29999995231628","","","","","","","","49","0,1,0","2","mountain","73","probe-75","0.07394952419771639","0.38751486072805463","0.6868380685146854","0","","","","","","","",""
"","html-keyboard-response","243","1046429","0.0-131.0-1.0","""event"",""trial"",""time""
""fullscreenenter"",""0"",""2874""
","
","
","""event"",""trial"",""time""
""fullscreenenter"",""0"",""2874""
","
","null","<p></p>","null","","","","","","","","","","","","","","","","","","","","","","",""
"","do_trial","244","1051998","0.0-132.0-0.0","""event"",""trial"",""time""
""fullscreenenter"",""0"",""2874""
","
","
","""event"",""trial"",""time""
""fullscreenenter"",""0"",""2874""
","
","1039.3999998569489","","","","","","","","50","0,0,1","2","mountain","74","probe-118","0.08468817256697142","0.21250714192854886","0.7824067466406427","0","","","","","","","",""
"","html-keyboard-response","245","1053005","0.0-132.0-1.0","""event"",""trial"",""time""
""fullscreenenter"",""0"",""2874""
","
","
","""event"",""trial"",""time""
""fullscreenenter"",""0"",""2874""
","
","null","<p></p>","null","","","","","","","","","","","","","","","","","","","","","","",""
"","do_trial","246","1057913","0.0-133.0-0.0","""event"",""trial"",""time""
""fullscreenenter"",""0"",""2874""
","
","
","""event"",""trial"",""time""
""fullscreenenter"",""0"",""2874""
","
","378.7999999523163","","","","","","","","51","0,1,1","2","mountain","75","probe-161","0.09449310342797672","0.23515788328351858","0.6164847276617066","1","","","","","","","",""
"","html-keyboard-response","247","1058928","0.0-133.0-1.0","""event"",""trial"",""time""
""fullscreenenter"",""0"",""2874""
","
","
","""event"",""trial"",""time""
""fullscreenenter"",""0"",""2874""
","
","null","<p></p>","null","","","","","","","","","","","","","","","","","","","","","","",""
"","do_trial","248","1063962","0.0-134.0-0.0","""event"",""trial"",""time""
""fullscreenenter"",""0"",""2874""
","
","
","""event"",""trial"",""time""
""fullscreenenter"",""0"",""2874""
","
","492","","","","","","","","51","0,0,0","2","mountain","76","probe-25","0.15455812062469285","0.20538389506806642","0.6749300115091864","0","","","","","","","",""
"","html-keyboard-response","249","1064973","0.0-134.0-1.0","""event"",""trial"",""time""
""fullscreenenter"",""0"",""2874""
","
","
","""event"",""trial"",""time""
""fullscreenenter"",""0"",""2874""
","
","null","<p></p>","null","","","","","","","","","","","","","","","","","","","","","","",""
"","do_trial","250","1070013","0.0-135.0-0.0","""event"",""trial"",""time""
""fullscreenenter"",""0"",""2874""
","
","
","""event"",""trial"",""time""
""fullscreenenter"",""0"",""2874""
","
","497.19999980926514","","","","","","","","51","0,0,1","2","mountain","77","probe-165","0.17142989090835098","0.3281239725444152","0.5782175347562482","1","","","","","","","",""
"","html-keyboard-response","251","1071026","0.0-135.0-1.0","""event"",""trial"",""time""
""fullscreenenter"",""0"",""2874""
","
","
","""event"",""trial"",""time""
""fullscreenenter"",""0"",""2874""
","
","null","<p></p>","null","","","","","","","","","","","","","","","","","","","","","","",""
"","do_trial","252","1076079","0.0-136.0-0.0","""event"",""trial"",""time""
""fullscreenenter"",""0"",""2874""
","
","
","""event"",""trial"",""time""
""fullscreenenter"",""0"",""2874""
","
","525.5","","","","","","","","51","0,0,1","2","mountain","78","probe-121","0.14284526095070507","0.3251390755754114","0.5367354353159182","1","","","","","","","",""
"","html-keyboard-response","253","1077095","0.0-136.0-1.0","""event"",""trial"",""time""
""fullscreenenter"",""0"",""2874""
","
","
","""event"",""trial"",""time""
""fullscreenenter"",""0"",""2874""
","
","null","<p></p>","null","","","","","","","","","","","","","","","","","","","","","","",""
"","do_trial","254","1082828","0.0-137.0-0.0","""event"",""trial"",""time""
""fullscreenenter"",""0"",""2874""
","
","
","""event"",""trial"",""time""
""fullscreenenter"",""0"",""2874""
","
","1188.1999998092651","","","","","","","","51","0,0,0","2","mountain","79","probe-54","0.14611064158002035","0.20265183463048903","0.4560041240290151","0","","","","","","","",""
"","html-keyboard-response","255","1083839","0.0-137.0-1.0","""event"",""trial"",""time""
""fullscreenenter"",""0"",""2874""
","
","
","""event"",""trial"",""time""
""fullscreenenter"",""0"",""2874""
","
","null","<p></p>","null","","","","","","","","","","","","","","","","","","","","","","",""
"","do_trial","256","1089028","0.0-138.0-0.0","""event"",""trial"",""time""
""fullscreenenter"",""0"",""2874""
","
","
","""event"",""trial"",""time""
""fullscreenenter"",""0"",""2874""
","
","650.7999999523163","","","","","","","","51","0,1,1","2","mountain","80","probe-60","0.17915155764104132","0.24327007235480672","0.5534915955432368","1","","","","","","","",""
"","html-keyboard-response","257","1090038","0.0-138.0-1.0","""event"",""trial"",""time""
""fullscreenenter"",""0"",""2874""
","
","
","""event"",""trial"",""time""
""fullscreenenter"",""0"",""2874""
","
","null","<p></p>","null","","","","","","","","","","","","","","","","","","","","","","",""
"","do_trial","258","1095553","0.0-139.0-0.0","""event"",""trial"",""time""
""fullscreenenter"",""0"",""2874""
","
","
","""event"",""trial"",""time""
""fullscreenenter"",""0"",""2874""
","
","976.7000000476837","","","","","","","","51","0,0,1","2","mountain","81","probe-119","0.12942502752283308","0.32925953826938453","0.5362367394846077","1","","","","","","","",""
"","html-keyboard-response","259","1096565","0.0-139.0-1.0","""event"",""trial"",""time""
""fullscreenenter"",""0"",""2874""
","
","
","""event"",""trial"",""time""
""fullscreenenter"",""0"",""2874""
","
","null","<p></p>","null","","","","","","","","","","","","","","","","","","","","","","",""
"","do_trial","260","1102179","0.0-140.0-0.0","""event"",""trial"",""time""
""fullscreenenter"",""0"",""2874""
","
","
","""event"",""trial"",""time""
""fullscreenenter"",""0"",""2874""
","
","1069.7000000476837","","","","","","","","51","0,1,0","2","mountain","82","probe-69","0.4110189650420247","0.35296577035866267","0.43028825729147","0","","","","","","","",""
"","html-keyboard-response","261","1103192","0.0-140.0-1.0","""event"",""trial"",""time""
""fullscreenenter"",""0"",""2874""
","
","
","""event"",""trial"",""time""
""fullscreenenter"",""0"",""2874""
","
","null","<p></p>","null","","","","","","","","","","","","","","","","","","","","","","",""
"","do_trial","262","1108173","0.0-141.0-0.0","""event"",""trial"",""time""
