success,trial_type,trial_index,time_elapsed,internal_node_id,interactions,blur_events,focus_events,fullscreenenter_events,fullscreenexit_events,rt,stimulus,key_press,subject_id,participant_id,age,gender,prompt,response,choice_outcomes,context_n,context_img_id,trial_n,probe_img_id,pR_red,pR_white,pR_black,outcome,contextArray_ind,validImageProbes,invalidImageProbes,pRew_Red,pRew_White,pRew_Black,availableForMemProbe,choice_blocks
TRUE,fullscreen,0,3407,0.0-0.0,"""event"",""trial"",""time""
""fullscreenenter"",""0"",""2489""
","
","
","""event"",""trial"",""time""
""fullscreenenter"",""0"",""2489""
","
",,,,,,,,,,,,,,,,,,,,,,,,,,
,pavlovia,1,3415,0.0-1.0,"""event"",""trial"",""time""
""fullscreenenter"",""0"",""2489""
","
","
","""event"",""trial"",""time""
""fullscreenenter"",""0"",""2489""
","
",,,,,,,,,,,,,,,,,,,,,,,,,,
,instruc1,2,49120,0.0-2.0,"""event"",""trial"",""time""
""fullscreenenter"",""0"",""2489""
","
","
","""event"",""trial"",""time""
""fullscreenenter"",""0"",""2489""
","
",null,run_exp/static/audio/clip_1_welcome.m4a,null,337,423,20,female,"<div class='center'><p>Welcome! This is the first part of the study. It will last ~30 minutes. In part 1 and part 2 of the study, you are the head captain of a pirate ship traveling around the world to different islands. You will play a few different games throughout these two parts. Here is an overview of them:</p><br><p>Part 1 (today)</p><p>1. Instructions, practice game, and quiz</p><p>2. Pick a pirate game on 6 different islands</p><br><p>Part 2 (tomorrow)</p><p>3. Pick a pirate game and memory game</p><p>4. Where did you see this ship? </p></div>",,,,,,,,,,,,,,,,,,
,html-keyboard-response,3,49328,0.0-3.0,"""event"",""trial"",""time""
""fullscreenenter"",""0"",""2489""
","
","
","""event"",""trial"",""time""
""fullscreenenter"",""0"",""2489""
","
",193,"<div class='center'><p>Welcome! This is the first part of the study. It will last ~30 minutes. In part 1 and part 2 of the study, you are the head captain of a pirate ship traveling around the world to different islands. You will play a few different games throughout these two parts. Here is an overview of them:</p><br><p>Part 1 (today)</p><p>1. Instructions, practice game, and quiz</p><p>2. Pick a pirate game on 6 different islands</p><br><p>Part 2 (tomorrow)</p><p>3. Pick a pirate game and memory game</p><p>4. Where did you see this ship? </p><p><b>[Press the space bar to continue]</b></p></div>",32,,,,,,,,,,,,,,,,,,,,,,,
,instruc2,4,54814,0.0-4.0,"""event"",""trial"",""time""
""fullscreenenter"",""0"",""2489""
","
","
","""event"",""trial"",""time""
""fullscreenenter"",""0"",""2489""
","
",null,run_exp/static/audio/clip_2_different_places.m4a,null,,,,,"<div class='center'><p>Today, you’ll visit these 6 islands on your journey. You'll be able to see these islands from your ship.</p><p><img src='run_exp/static/images/contexts/all_contexts.png' height='500'></p></div>",,,,,,,,,,,,,,,,,,
,html-keyboard-response,5,59530,0.0-5.0,"""event"",""trial"",""time""
""fullscreenenter"",""0"",""2489""
","
","
","""event"",""trial"",""time""
""fullscreenenter"",""0"",""2489""
","
",4712.8,"<div class='center'><p>Today, you’ll visit these 6 islands on your journey. You'll be able to see these islands from your ship.</p><p><img src='run_exp/static/images/contexts/all_contexts.png' height='500'></p><p><b>[Press the space bar to continue]</b></p></div>",32,,,,,,,,,,,,,,,,,,,,,,,
,instruc3,6,69406,0.0-6.0,"""event"",""trial"",""time""
""fullscreenenter"",""0"",""2489""
","
","
","""event"",""trial"",""time""
""fullscreenenter"",""0"",""2489""
","
",null,run_exp/static/audio/clip_3_goal_of_game_1.m4a,null,,,,,"<div class='center'><p> The pirates on your ship will rob other ships as they leave the island.</p> These ships have just sold their goods to the islanders, so they will be filled with lots and lots of gold.</p><p><img src='run_exp/static/images/tutorial/ship_center.png' height='400'></p></div>",,,,,,,,,,,,,,,,,,
,html-keyboard-response,7,70899,0.0-7.0,"""event"",""trial"",""time""
""fullscreenenter"",""0"",""2489""
","
","
","""event"",""trial"",""time""
""fullscreenenter"",""0"",""2489""
","
",1488.5,"<div class='center'><p> The pirates on your ship will rob other ships as they leave the island.</p> These ships have just sold their goods to the islanders, so they will be filled with lots and lots of gold.</p><p><img src='run_exp/static/images/tutorial/ship_center.png' height='400'></p><p><b>[Press the space bar to continue]</b></p></div>",32,,,,,,,,,,,,,,,,,,,,,,,
,instruc4,8,99058,0.0-8.0,"""event"",""trial"",""time""
""fullscreenenter"",""0"",""2489""
","
","
","""event"",""trial"",""time""
""fullscreenenter"",""0"",""2489""
","
",null,run_exp/static/audio/clip_4_goal_of_game_2.m4a,null,,,,,"<div class='center'><p>As the head captain, you do not have to rob any ships yourself. Another pirate will be doing the robbing for you. First, you will choose a pirate to rob the next ship.</p><p><img src='run_exp/static/images/tutorial/pirates_all_crop.png' height='200'></p><p>Then, you'll see if the pirate successfully robbed the ship of their gold. If they were successful, then you'll get a stack of gold coins like this:</p><p><img src='run_exp/static/images/tutorial/reward.png' height='150'></p><p> If they were <b>not</b> successful, then you'll get no gold coins, and you'll see a big red x like this: </p><p><img src='run_exp/static/images/tutorial/reward_no.png' height='150'></p><p> How much bonus money you make is based on how many gold coins you collect.</p><div>",,,,,,,,,,,,,,,,,,
,html-keyboard-response,9,100691,0.0-9.0,"""event"",""trial"",""time""
""fullscreenenter"",""0"",""2489""
","
","
","""event"",""trial"",""time""
""fullscreenenter"",""0"",""2489""
","
",1629,"<div class='center'><p>As the head captain, you do not have to rob any ships yourself. Another pirate will be doing the robbing for you. First, you will choose a pirate to rob the next ship.</p><p><img src='run_exp/static/images/tutorial/pirates_all_crop.png' height='200'></p><p>Then, you'll see if the pirate successfully robbed the ship of their gold. If they were successful, then you'll get a stack of gold coins like this:</p><p><img src='run_exp/static/images/tutorial/reward.png' height='150'></p><p> If they were <b>not</b> successful, then you'll get no gold coins, and you'll see a big red x like this: </p><p><img src='run_exp/static/images/tutorial/reward_no.png' height='150'></p><p> How much bonus money you make is based on how many gold coins you collect.</p<p><b>[Press the space bar to continue]</b></p></div>",32,,,,,,,,,,,,,,,,,,,,,,,
,instruc5,10,125026,0.0-10.0,"""event"",""trial"",""time""
""fullscreenenter"",""0"",""2489""
","
","
","""event"",""trial"",""time""
""fullscreenenter"",""0"",""2489""
","
",24334.2,run_exp/static/audio/clip_5_probabilistic.m4a,49,,,,,"<div class='center'><p>Even the most skilled pirate can not rob EVERY ship.</p><p> Some ships will have very strong protections against pirate attacks.</p><p> Blue beard, here, is very, very good at robbing ships, but he won't be successful every time he tries to rob one.</p><p> You can press the <b>‘1’</b> key on the keyboard to choose him.</p><p> Try choosing him 10 times to see how often he succeeds at robbing a ship. </p><p><img src='run_exp/static/images/tutorial/blue.png' height='500'></p></div>",,,,,,,,,,,,,,,,,,
,html-keyboard-response,11,126531,0.0-11.0,"""event"",""trial"",""time""
""fullscreenenter"",""0"",""2489""
","
","
","""event"",""trial"",""time""
""fullscreenenter"",""0"",""2489""
","
",null,<div class='center'><p><img src='run_exp/static/images/tutorial/blue_win.png' height='500'></p></div>,null,,,,,,,,,,,,,,,,,,,,,,,
,html-keyboard-response,12,129035,0.0-12.0,"""event"",""trial"",""time""
""fullscreenenter"",""0"",""2489""
","
","
","""event"",""trial"",""time""
""fullscreenenter"",""0"",""2489""
","
",2501.2,<div class='center'><img src='run_exp/static/images/tutorial/blue.png' height='500'></p></div>,49,,,,,,,,,,,,,,,,,,,,,,,
,html-keyboard-response,13,130538,0.0-13.0,"""event"",""trial"",""time""
""fullscreenenter"",""0"",""2489""
","
","
","""event"",""trial"",""time""
""fullscreenenter"",""0"",""2489""
","
",null,<div class='center'><p><img src='run_exp/static/images/tutorial/blue_win.png' height='500'></p></div>,null,,,,,,,,,,,,,,,,,,,,,,,
,html-keyboard-response,14,133225,0.0-14.0,"""event"",""trial"",""time""
""fullscreenenter"",""0"",""2489""
","
","
","""event"",""trial"",""time""
""fullscreenenter"",""0"",""2489""
","
",2685.6,<div class='center'><img src='run_exp/static/images/tutorial/blue.png' height='500'></p></div>,49,,,,,,,,,,,,,,,,,,,,,,,
,html-keyboard-response,15,134729,0.0-15.0,"""event"",""trial"",""time""
""fullscreenenter"",""0"",""2489""
","
","
","""event"",""trial"",""time""
""fullscreenenter"",""0"",""2489""
","
",null,<div class='center'><p><img src='run_exp/static/images/tutorial/blue_win.png' height='500'></p></div>,null,,,,,,,,,,,,,,,,,,,,,,,
,html-keyboard-response,16,145021,0.0-16.0,"""event"",""trial"",""time""
""fullscreenenter"",""0"",""2489""
","
","
","""event"",""trial"",""time""
""fullscreenenter"",""0"",""2489""
","
",10290.8,<div class='center'><img src='run_exp/static/images/tutorial/blue.png' height='500'></p></div>,49,,,,,,,,,,,,,,,,,,,,,,,
,html-keyboard-response,17,146530,0.0-17.0,"""event"",""trial"",""time""
""fullscreenenter"",""0"",""2489""
","
","
","""event"",""trial"",""time""
""fullscreenenter"",""0"",""2489""
","
",null,<div class='center'><p><img src='run_exp/static/images/tutorial/blue_no_win.png' height='500'></p></div>,null,,,,,,,,,,,,,,,,,,,,,,,
,html-keyboard-response,18,149646,0.0-18.0,"""event"",""trial"",""time""
""fullscreenenter"",""0"",""2489""
","
","
","""event"",""trial"",""time""
""fullscreenenter"",""0"",""2489""
","
",3114.7,<div class='center'><img src='run_exp/static/images/tutorial/blue.png' height='500'></p></div>,49,,,,,,,,,,,,,,,,,,,,,,,
,html-keyboard-response,19,151152,0.0-19.0,"""event"",""trial"",""time""
""fullscreenenter"",""0"",""2489""
","
","
","""event"",""trial"",""time""
""fullscreenenter"",""0"",""2489""
","
",null,<div class='center'><p><img src='run_exp/static/images/tutorial/blue_win.png' height='500'></p></div>,null,,,,,,,,,,,,,,,,,,,,,,,
,html-keyboard-response,20,157599,0.0-20.0,"""event"",""trial"",""time""
""fullscreenenter"",""0"",""2489""
","
","
","""event"",""trial"",""time""
""fullscreenenter"",""0"",""2489""
","
",6445.9,<div class='center'><img src='run_exp/static/images/tutorial/blue.png' height='500'></p></div>,49,,,,,,,,,,,,,,,,,,,,,,,
,html-keyboard-response,21,159103,0.0-21.0,"""event"",""trial"",""time""
""fullscreenenter"",""0"",""2489""
","
","
","""event"",""trial"",""time""
""fullscreenenter"",""0"",""2489""
","
",null,<div class='center'><p><img src='run_exp/static/images/tutorial/blue_win.png' height='500'></p></div>,null,,,,,,,,,,,,,,,,,,,,,,,
,html-keyboard-response,22,169168,0.0-22.0,"""event"",""trial"",""time""
""fullscreenenter"",""0"",""2489""
","
","
","""event"",""trial"",""time""
""fullscreenenter"",""0"",""2489""
","
",10063.7,<div class='center'><img src='run_exp/static/images/tutorial/blue.png' height='500'></p></div>,49,,,,,,,,,,,,,,,,,,,,,,,
,html-keyboard-response,23,170670,0.0-23.0,"""event"",""trial"",""time""
""fullscreenenter"",""0"",""2489""
","
","
","""event"",""trial"",""time""
""fullscreenenter"",""0"",""2489""
","
",null,<div class='center'><p><img src='run_exp/static/images/tutorial/blue_win.png' height='500'></p></div>,null,,,,,,,,,,,,,,,,,,,,,,,
,html-keyboard-response,24,172911,0.0-24.0,"""event"",""trial"",""time""
""fullscreenenter"",""0"",""2489""
","
","
","""event"",""trial"",""time""
""fullscreenenter"",""0"",""2489""
","
",2239.8,<div class='center'><img src='run_exp/static/images/tutorial/blue.png' height='500'></p></div>,49,,,,,,,,,,,,,,,,,,,,,,,
,html-keyboard-response,25,174416,0.0-25.0,"""event"",""trial"",""time""
""fullscreenenter"",""0"",""2489""
","
","
","""event"",""trial"",""time""
""fullscreenenter"",""0"",""2489""
","
",null,<div class='center'><p><img src='run_exp/static/images/tutorial/blue_no_win.png' height='500'></p></div>,null,,,,,,,,,,,,,,,,,,,,,,,
,html-keyboard-response,26,175784,0.0-26.0,"""event"",""trial"",""time""
""fullscreenenter"",""0"",""2489""
","
","
","""event"",""trial"",""time""
""fullscreenenter"",""0"",""2489""
","
",1366.5,<div class='center'><img src='run_exp/static/images/tutorial/blue.png' height='500'></p></div>,49,,,,,,,,,,,,,,,,,,,,,,,
,html-keyboard-response,27,177293,0.0-27.0,"""event"",""trial"",""time""
""fullscreenenter"",""0"",""2489""
","
","
","""event"",""trial"",""time""
""fullscreenenter"",""0"",""2489""
","
",null,<div class='center'><p><img src='run_exp/static/images/tutorial/blue_win.png' height='500'></p></div>,null,,,,,,,,,,,,,,,,,,,,,,,
,html-keyboard-response,28,178235,0.0-28.0,"""event"",""trial"",""time""
""fullscreenenter"",""0"",""2489""
","
","
","""event"",""trial"",""time""
""fullscreenenter"",""0"",""2489""
","
",940.3000001,<div class='center'><img src='run_exp/static/images/tutorial/blue.png' height='500'></p></div>,49,,,,,,,,,,,,,,,,,,,,,,,
,html-keyboard-response,29,179741,0.0-29.0,"""event"",""trial"",""time""
""fullscreenenter"",""0"",""2489""
","
","
","""event"",""trial"",""time""
""fullscreenenter"",""0"",""2489""
","
",null,<div class='center'><p><img src='run_exp/static/images/tutorial/blue_win.png' height='500'></p></div>,null,,,,,,,,,,,,,,,,,,,,,,,
,instruc6,30,185784,0.0-30.0,"""event"",""trial"",""time""
""fullscreenenter"",""0"",""2489""
","
","
","""event"",""trial"",""time""
""fullscreenenter"",""0"",""2489""
","
",null,run_exp/static/audio/clip_6_blue_beard_outcome.m4a,null,,,,,"<div class='center'><p> See, he succeeded in robbing the ships most of the time but not every time. </p></div>",,,,,,,,,,,,,,,,,,
,html-keyboard-response,31,188376,0.0-31.0,"""event"",""trial"",""time""
""fullscreenenter"",""0"",""2489""
","
","
","""event"",""trial"",""time""
""fullscreenenter"",""0"",""2489""
","
",2591,"<div class='center'><p> See, he succeeded in robbing the ships most of the time but not every time. </p><p><b>[Press the space bar to continue]</b></p></div>",32,,,,,,,,,,,,,,,,,,,,,,,
,audio-keyboard-response,32,205877,0.0-32.0,"""event"",""trial"",""time""
""fullscreenenter"",""0"",""2489""
","
","
","""event"",""trial"",""time""
""fullscreenenter"",""0"",""2489""
","
",17500,run_exp/static/audio/clip_7_pick_pirate.m4a,50,,,,,,,,,,,,,,,,,,,,,,,
,audio-keyboard-response,33,210929,0.0-33.0-0.0,"""event"",""trial"",""time""
""fullscreenenter"",""0"",""2489""
","
","
","""event"",""trial"",""time""
""fullscreenenter"",""0"",""2489""
","
",5048.4,run_exp/static/audio/clip_8_chosen_pirate_win.m4a,32,,,,,,,,,,,,,,,,,,,,,,,
,audio-keyboard-response,34,215081,0.0-33.0-1.0,"""event"",""trial"",""time""
""fullscreenenter"",""0"",""2489""
","
","
","""event"",""trial"",""time""
""fullscreenenter"",""0"",""2489""
","
",4150.1,run_exp/static/audio/clip_9_pick_a_pirate_again.m4a,51,,,,,,,,,,,,,,,,,,,,,,,
,audio-keyboard-response,35,221050,0.0-34.0-0.0,"""event"",""trial"",""time""
""fullscreenenter"",""0"",""2489""
","
","
","""event"",""trial"",""time""
""fullscreenenter"",""0"",""2489""
","
",5966.8,run_exp/static/audio/clip_10_chosen_pirate_loss.m4a,32,,,,,,,,,,,,,,,,,,,,,,,
,instruc9,36,226764,0.0-35.0-0.0,"""event"",""trial"",""time""
""fullscreenenter"",""0"",""2489""
","
","
","""event"",""trial"",""time""
""fullscreenenter"",""0"",""2489""
","
",null,run_exp/static/audio/clip_11_time_out.m4a,null,,,,,"<div class='center'><p>If you don’t make your choice fast enough, you’ll have to wait a few seconds before you can make another one. </p><p><img src='run_exp/static/images/miscellaneous/hurry_up.png' height='500'></p></div>",,,,,,,,,,,,,,,,,,
,html-keyboard-response,37,228047,0.0-35.0-1.0,"""event"",""trial"",""time""
""fullscreenenter"",""0"",""2489""
","
","
","""event"",""trial"",""time""
""fullscreenenter"",""0"",""2489""
","
",1280.8,"<div class='center'><p>If you don’t make your choice fast enough, you’ll have to wait a few seconds before you can make another one. </p><p><img src='run_exp/static/images/miscellaneous/hurry_up.png' height='500'></p><p><b>[Press the space bar to continue]</b></p></div>",32,,,,,,,,,,,,,,,,,,,,,,,
,instruc10,38,267360,0.0-35.0-2.0,"""event"",""trial"",""time""
""fullscreenenter"",""0"",""2489""
","
","
","""event"",""trial"",""time""
""fullscreenenter"",""0"",""2489""
","
",null,run_exp/static/audio/clip_12_probe.m4a,null,,,,,"<div class='center'><p>Once you've chosen a pirate, you’ll be shown the ship they are robbing. You will never rob the same ship twice. Ships can be told apart from one another by the image on them. These are the goods that they sell. See, this ship has a travel mug on it. </p><p> You’ll have to remember which island you saw each ship on. You will win more gold coins and hence more bonus money if you remember correctly! To help you remember, you can imagine a story. For example, here, you could imagine a mug full of water in the desert. Or, as another example, if on the forest island, your pirate robbed a ship with an apple on it, you could imagine an apple falling from a tree in the forest. </p><p><img src='run_exp/static/images/tutorial/example_probe.png' height='500'></p></div>",,,,,,,,,,,,,,,,,,
,html-keyboard-response,39,268692,0.0-35.0-3.0,"""event"",""trial"",""time""
""fullscreenenter"",""0"",""2489""
","
","
","""event"",""trial"",""time""
""fullscreenenter"",""0"",""2489""
","
",1329.2,"<div class='center'><p>Once you've chosen a pirate, you’ll be shown the ship they are robbing. You will never rob the same ship twice. Ships can be told apart from one another by the image on them. These are the goods that they sell. See, this ship has a travel mug on it. </p><p> You’ll have to remember which island you saw each ship on. You will win more gold coins and hence more bonus money if you remember correctly! To help you remember, you can imagine a story. For example, here, you could imagine a mug full of water in the desert. Or, as another example, if on the forest island, your pirate robbed a ship with an apple on it, you could imagine an apple falling from a tree in the forest. </p><p><img src='run_exp/static/images/tutorial/example_probe.png' height='500'></p><p><b>[Press the space bar to continue]</b></p></div>",32,,,,,,,,,,,,,,,,,,,,,,,
,instruc11,40,285300,0.0-35.0-4.0,"""event"",""trial"",""time""
""fullscreenenter"",""0"",""2489""
","
","
","""event"",""trial"",""time""
""fullscreenenter"",""0"",""2489""
","
",null,run_exp/static/audio/clip_13_changepoint.m4a,null,,,,,"<div class='center'><p>How successful a pirate is at robbing ships will depend on the island you’re on.</p><p> A pirate may have visited this island many times before and gained a lot of practice robbing ships there.</p><p>So, they’re more likely to be successful than a pirate who has never visited the island before.</p></div>",,,,,,,,,,,,,,,,,,
,html-keyboard-response,41,286963,0.0-35.0-5.0,"""event"",""trial"",""time""
""fullscreenenter"",""0"",""2489""
","
","
","""event"",""trial"",""time""
""fullscreenenter"",""0"",""2489""
","
",1659.5,"<div class='center'><p>How successful a pirate is at robbing ships will depend on the island you’re on.</p><p> A pirate may have visited this island many times before and gained a lot of practice robbing ships there.</p><p>So, they’re more likely to be successful than a pirate who has never visited the island before.</p><p><b>[Press the space bar to continue]</b></p></div>",32,,,,,,,,,,,,,,,,,,,,,,,
,instruc12,42,328286,0.0-35.0-6.0,"""event"",""trial"",""time""
""fullscreenenter"",""0"",""2489""
","
","
","""event"",""trial"",""time""
""fullscreenenter"",""0"",""2489""
","
",null,run_exp/static/audio/clip_14_drift.m4a,null,,,,,"<div class='center'><p>How successful a pirate is at robbing ships can also change over the time spent on the island. </p><p> Ships may hear from islanders about the pirates coming and will improve their protections against the attack. This may make it harder to rob them.</p><p> Ships may also become lazy and weaken the strength of their protections. This may make it easier to rob them.</p><br><p>Things are always changing on the high seas! So, try your best to pay attention!</p><p><img src='run_exp/static/images/tutorial/contingency.png' height='500'></p></div>",,,,,,,,,,,,,,,,,,
,html-keyboard-response,43,329707,0.0-35.0-7.0,"""event"",""trial"",""time""
""fullscreenenter"",""0"",""2489""
","
","
","""event"",""trial"",""time""
""fullscreenenter"",""0"",""2489""
","
",1418.4,"<div class='center'><p>How successful a pirate is at robbing ships can also change over the time spent on the island. </p><p> Ships may hear from islanders about the pirates coming and will improve their protections against the attack. This may make it harder to rob them.</p><p> Ships may also become lazy and weaken the strength of their protections. This may make it easier to rob them.</p><br><p>Things are always changing on the high seas! So, try your best to pay attention!</p><p><img src='run_exp/static/images/tutorial/contingency.png' height='500'></p><p><b>[Press the space bar to continue]</b></p></div>",32,,,,,,,,,,,,,,,,,,,,,,,
,instruc13,44,365127,0.0-35.0-8.0,"""event"",""trial"",""time""
""fullscreenenter"",""0"",""2489""
","
","
","""event"",""trial"",""time""
""fullscreenenter"",""0"",""2489""
","
",null,run_exp/static/audio/clip_15_summary.m4a,null,,,,,"<div class='center'><p>Let's go over the instructions quickly again. You have two important things to do: </p><b><p> 1. Pick the pirate who is the best at robbing ships on the current island. </p></b><b><p> 2. Remember on which island a ship was robbed.</p> </b><p>The amount of bonus money you can win depends on both.</p><p><br><p>Let’s try a practice game. The game will start by showing you the pirates. First, pick a pirate using the <b> 1, 2, 3 </b> keys on your keyboard. When you are shown a ship, try to remember which island you’re on by making up a story.</p><p>This is just a practice game, so you’re not playing for money. </p><p> Good luck! This game will be very difficult but try your best!</p></div>",,,,,,,,,,,,,,,,,,
,html-keyboard-response,45,366339,0.0-35.0-9.0,"""event"",""trial"",""time""
""fullscreenenter"",""0"",""2489""
","
","
","""event"",""trial"",""time""
""fullscreenenter"",""0"",""2489""
","
",1210.5,"<div class='center'><p>Let's go over the instructions quickly again. You have two important things to do: </p><b><p> 1. Pick the pirate who is the best at robbing ships on the current island. </p></b><b><p> 2. Remember on which island a ship was robbed.</p> </b><p>The amount of bonus money you can win depends on both.</p><p><br><p>Let’s try a practice game. The game will start by showing you the pirates. First, pick a pirate using the <b> 1, 2, 3 </b> keys on your keyboard. When you are shown a ship, try to remember which island you’re on by making up a story.</p><p>This is just a practice game, so you’re not playing for money. </p><p> Good luck! This game will be very difficult but try your best!</p><p><b>[Press the space bar to continue]</b></p></div>",32,,,,,,,,,,,,,,,,,,,,,,,
,do_welcome,46,370924,0.0-35.0-10.0,"""event"",""trial"",""time""
""fullscreenenter"",""0"",""2489""
","
","
","""event"",""trial"",""time""
""fullscreenenter"",""0"",""2489""
","
",null,,,,,,,,null,,,,,,,,,,,,,,,,,
,do_trial,47,376940,0.0-35.0-11.0,"""event"",""trial"",""time""
""fullscreenenter"",""0"",""2489""
","
","
","""event"",""trial"",""time""
""fullscreenenter"",""0"",""2489""
","
",null,,,,,,,,null,"1,0,0",,,,,,,,,,,,,,,,
,html-keyboard-response,48,377944,0.0-36.0-0.0,"""event"",""trial"",""time""
""fullscreenenter"",""0"",""2489""
","
","
","""event"",""trial"",""time""
""fullscreenenter"",""0"",""2489""
","
",null,<p></p>,null,,,,,,,,,,,,,,,,,,,,,,,
,do_trial,49,383406,0.0-36.0-1.0,"""event"",""trial"",""time""
""fullscreenenter"",""0"",""2489""
","
","
","""event"",""trial"",""time""
""fullscreenenter"",""0"",""2489""
","
",948.9000001,,,,,,,,50,"1,0,0",,,,,,,,,,,,,,,,
,html-keyboard-response,50,384415,0.0-37.0-0.0,"""event"",""trial"",""time""
""fullscreenenter"",""0"",""2489""
","
","
","""event"",""trial"",""time""
""fullscreenenter"",""0"",""2489""
","
",null,<p></p>,null,,,,,,,,,,,,,,,,,,,,,,,
,do_trial,51,390328,0.0-37.0-1.0,"""event"",""trial"",""time""
""fullscreenenter"",""0"",""2489""
","
","
","""event"",""trial"",""time""
""fullscreenenter"",""0"",""2489""
","
",1399.2,,,,,,,,51,"1,1,0",,,,,,,,,,,,,,,,
,html-keyboard-response,52,391338,0.0-38.0-0.0,"""event"",""trial"",""time""
""fullscreenenter"",""0"",""2489""
","
","
","""event"",""trial"",""time""
""fullscreenenter"",""0"",""2489""
","
",null,<p></p>,null,,,,,,,,,,,,,,,,,,,,,,,
,do_trial,53,396213,0.0-38.0-1.0,"""event"",""trial"",""time""
""fullscreenenter"",""0"",""2489""
","
","
","""event"",""trial"",""time""
""fullscreenenter"",""0"",""2489""
","
",364.1,,,,,,,,49,"1,0,1",,,,,,,,,,,,,,,,
,html-keyboard-response,54,397218,0.0-39.0-0.0,"""event"",""trial"",""time""
""fullscreenenter"",""0"",""2489""
","
","
","""event"",""trial"",""time""
""fullscreenenter"",""0"",""2489""
","
",null,<p></p>,null,,,,,,,,,,,,,,,,,,,,,,,
,do_trial,55,402789,0.0-39.0-1.0,"""event"",""trial"",""time""
""fullscreenenter"",""0"",""2489""
","
","
","""event"",""trial"",""time""
""fullscreenenter"",""0"",""2489""
","
",1055.7,,,,,,,,49,"0,1,0",,,,,,,,,,,,,,,,
,html-keyboard-response,56,403796,0.0-40.0-0.0,"""event"",""trial"",""time""
""fullscreenenter"",""0"",""2489""
","
","
","""event"",""trial"",""time""
""fullscreenenter"",""0"",""2489""
","
",null,<p></p>,null,,,,,,,,,,,,,,,,,,,,,,,
,do_trial,57,408637,0.0-40.0-1.0,"""event"",""trial"",""time""
""fullscreenenter"",""0"",""2489""
","
","
","""event"",""trial"",""time""
""fullscreenenter"",""0"",""2489""
","
",330.1,,,,,,,,51,"1,0,0",,,,,,,,,,,,,,,,
,do_bye,58,410148,0.0-41.0-0.0,"""event"",""trial"",""time""
""fullscreenenter"",""0"",""2489""
","
","
","""event"",""trial"",""time""
""fullscreenenter"",""0"",""2489""
","
",null,,,,,,,,null,,,,,,,,,,,,,,,,,
,do_travel,59,419158,0.0-41.0-1.0,"""event"",""trial"",""time""
""fullscreenenter"",""0"",""2489""
","
","
","""event"",""trial"",""time""
""fullscreenenter"",""0"",""2489""
","
",null,,,,,,,,null,,,,,,,,,,,,,,,,,
,do_welcome,60,423169,0.0-41.0-2.0,"""event"",""trial"",""time""
""fullscreenenter"",""0"",""2489""
","
","
","""event"",""trial"",""time""
""fullscreenenter"",""0"",""2489""
","
",null,,,,,,,,null,,,,,,,,,,,,,,,,,
,do_trial,61,429046,0.0-41.0-3.0,"""event"",""trial"",""time""
""fullscreenenter"",""0"",""2489""
","
","
","""event"",""trial"",""time""
""fullscreenenter"",""0"",""2489""
","
",1364,,,,,,,,50,"1,0,0",,,,,,,,,,,,,,,,
,html-keyboard-response,62,430051,0.0-42.0-0.0,"""event"",""trial"",""time""
""fullscreenenter"",""0"",""2489""
","
","
","""event"",""trial"",""time""
""fullscreenenter"",""0"",""2489""
","
",null,<p></p>,null,,,,,,,,,,,,,,,,,,,,,,,
,do_trial,63,435019,0.0-42.0-1.0,"""event"",""trial"",""time""
""fullscreenenter"",""0"",""2489""
","
","
","""event"",""trial"",""time""
""fullscreenenter"",""0"",""2489""
","
",454.5,,,,,,,,51,"1,0,1",,,,,,,,,,,,,,,,
,html-keyboard-response,64,436025,0.0-43.0-0.0,"""event"",""trial"",""time""
""fullscreenenter"",""0"",""2489""
","
","
","""event"",""trial"",""time""
""fullscreenenter"",""0"",""2489""
","
",null,<p></p>,null,,,,,,,,,,,,,,,,,,,,,,,
,do_trial,65,441694,0.0-43.0-1.0,"""event"",""trial"",""time""
""fullscreenenter"",""0"",""2489""
","
","
","""event"",""trial"",""time""
""fullscreenenter"",""0"",""2489""
","
",1154.4,,,,,,,,49,"1,1,0",,,,,,,,,,,,,,,,
,html-keyboard-response,66,442701,0.0-44.0-0.0,"""event"",""trial"",""time""
""fullscreenenter"",""0"",""2489""
","
","
","""event"",""trial"",""time""
""fullscreenenter"",""0"",""2489""
","
",null,<p></p>,null,,,,,,,,,,,,,,,,,,,,,,,
,do_trial,67,448452,0.0-44.0-1.0,"""event"",""trial"",""time""
""fullscreenenter"",""0"",""2489""
","
","
","""event"",""trial"",""time""
""fullscreenenter"",""0"",""2489""
","
",1238.8,,,,,,,,50,"0,0,1",,,,,,,,,,,,,,,,
,html-keyboard-response,68,449458,0.0-45.0-0.0,"""event"",""trial"",""time""
""fullscreenenter"",""0"",""2489""
","
","
","""event"",""trial"",""time""
""fullscreenenter"",""0"",""2489""
","
",null,<p></p>,null,,,,,,,,,,,,,,,,,,,,,,,
,do_trial,69,454333,0.0-45.0-1.0,"""event"",""trial"",""time""
""fullscreenenter"",""0"",""2489""
","
","
","""event"",""trial"",""time""
""fullscreenenter"",""0"",""2489""
","
",363,,,,,,,,51,"1,0,1",,,,,,,,,,,,,,,,
,html-keyboard-response,70,458879,0.0-46.0-0.0,"""event"",""trial"",""time""
""fullscreenenter"",""0"",""2489""
","
","
","""event"",""trial"",""time""
""fullscreenenter"",""0"",""2489""
","
",4542.6,<div class='center'><p><img src='run_exp/static/images/tutorial/prac_best_pirate.png'  height='500'></p></div>,51,,,,,,,,,,,,,,,,,,,,,,,
,html-keyboard-response,71,460667,0.0-47.0-0.0,"""event"",""trial"",""time""
""fullscreenenter"",""0"",""2489""
","
","
","""event"",""trial"",""time""
""fullscreenenter"",""0"",""2489""
","
",1786,<div class='center'><p>That's incorrect! Red beard was the best.</p><p><b>[Press the space bar to continue]</b></p></div>,32,,,,,,,,,,,,,,,,,,,,,,,
,html-keyboard-response,72,467383,0.0-47.0-1.0,"""event"",""trial"",""time""
""fullscreenenter"",""0"",""2489""
","
","
","""event"",""trial"",""time""
""fullscreenenter"",""0"",""2489""
","
",6715.1,<div class='center'><p><img src='run_exp/static/images/tutorial/prac_source.png'  height='500'></p></div>,50,,,,,,,,,,,,,,,,,,,,,,,
,html-keyboard-response,73,468943,0.0-48.0-0.0,"""event"",""trial"",""time""
""fullscreenenter"",""0"",""2489""
","
","
","""event"",""trial"",""time""
""fullscreenenter"",""0"",""2489""
","
",1558.9,<div class='center'><p>That's correct! You saw this ship on the cavern island.</p><p><b>[Press the space bar to continue]</b></p></div>,32,,,,,,,,,,,,,,,,,,,,,,,
,quiz_beginning,74,480759,0.0-48.0-1.0,"""event"",""trial"",""time""
""fullscreenenter"",""0"",""2489""
","
","
","""event"",""trial"",""time""
""fullscreenenter"",""0"",""2489""
","
",null,run_exp/static/audio/clip_16_quiz_intro.m4a,null,,,,,"<div class='center'><p>Good job on the practice game! Now, you will be asked some true or false questions to make sure you really understand the rules of the game.</p><p> Press <b>'1'</b> on the keyboard for true and press <b>'2'</b> for false.</p></div>",,,,,,,,,,,,,,,,,,
,audio-keyboard-response,75,505160,0.0-48.0-2.0,"""event"",""trial"",""time""
""fullscreenenter"",""0"",""2489""
","
","
","""event"",""trial"",""time""
""fullscreenenter"",""0"",""2489""
","
",24399.7,run_exp/static/audio/clip_17_q1.m4a,49,,,,,,,,,,,,,,,,,,,,,,,
,correct,76,508069,0.0-49.0-0.0,"""event"",""trial"",""time""
""fullscreenenter"",""0"",""2489""
","
","
","""event"",""trial"",""time""
""fullscreenenter"",""0"",""2489""
","
",null,run_exp/static/audio/clip_18_correct.m4a,null,,,,,<div class='center'><p>That's correct!</p></div>,,,,,,,,,,,,,,,,,,
,html-keyboard-response,77,509202,0.0-49.0-1.0,"""event"",""trial"",""time""
""fullscreenenter"",""0"",""2489""
","
","
","""event"",""trial"",""time""
""fullscreenenter"",""0"",""2489""
","
",1132.5,<div class='center'><p>That's correct!</p><p><b>[Press the space bar to continue]</b></p></div>,32,,,,,,,,,,,,,,,,,,,,,,,
,audio-keyboard-response,78,519205,0.0-49.0-2.0,"""event"",""trial"",""time""
""fullscreenenter"",""0"",""2489""
","
","
","""event"",""trial"",""time""
""fullscreenenter"",""0"",""2489""
","
",10001.7,run_exp/static/audio/clip_20_q2.m4a,49,,,,,,,,,,,,,,,,,,,,,,,
,q2_err,79,524900,0.0-50.0-0.0,"""event"",""trial"",""time""
""fullscreenenter"",""0"",""2489""
","
","
","""event"",""trial"",""time""
""fullscreenenter"",""0"",""2489""
","
",null,run_exp/static/audio/clip_21_wrong_q2.m4a,null,,,,,<div class='center'><p>That’s incorrect. Which pirate is the best may change during your time on the island.</p></div>,,,,,,,,,,,,,,,,,,
,html-keyboard-response,80,527210,0.0-50.0-1.0,"""event"",""trial"",""time""
""fullscreenenter"",""0"",""2489""
","
","
","""event"",""trial"",""time""
""fullscreenenter"",""0"",""2489""
","
",2308.7,<div class='center'><p>That’s incorrect. Which pirate is the best may change during your time on the island.</p><p><b>[Press the space bar to continue]</b></p></div>,32,,,,,,,,,,,,,,,,,,,,,,,
,audio-keyboard-response,81,534397,0.0-50.0-2.0,"""event"",""trial"",""time""
""fullscreenenter"",""0"",""2489""
","
","
","""event"",""trial"",""time""
""fullscreenenter"",""0"",""2489""
","
",7185.8,run_exp/static/audio/clip_22_q3.m4a,50,,,,,,,,,,,,,,,,,,,,,,,
,correct,82,536974,0.0-51.0-0.0,"""event"",""trial"",""time""
""fullscreenenter"",""0"",""2489""
","
","
","""event"",""trial"",""time""
""fullscreenenter"",""0"",""2489""
","
",null,run_exp/static/audio/clip_18_correct.m4a,null,,,,,<div class='center'><p>That's correct!</p></div>,,,,,,,,,,,,,,,,,,
,html-keyboard-response,83,538160,0.0-51.0-1.0,"""event"",""trial"",""time""
""fullscreenenter"",""0"",""2489""
","
","
","""event"",""trial"",""time""
""fullscreenenter"",""0"",""2489""
","
",1184.9,<div class='center'><p>That's correct!</p><p><b>[Press the space bar to continue]</b></p></div>,32,,,,,,,,,,,,,,,,,,,,,,,
,audio-keyboard-response,84,542794,0.0-51.0-2.0,"""event"",""trial"",""time""
""fullscreenenter"",""0"",""2489""
","
","
","""event"",""trial"",""time""
""fullscreenenter"",""0"",""2489""
","
",4632.5,run_exp/static/audio/clip_24_q4.m4a,49,,,,,,,,,,,,,,,,,,,,,,,
,correct,85,545379,0.0-52.0-0.0,"""event"",""trial"",""time""
""fullscreenenter"",""0"",""2489""
","
","
","""event"",""trial"",""time""
""fullscreenenter"",""0"",""2489""
","
",null,run_exp/static/audio/clip_18_correct.m4a,null,,,,,<div class='center'><p>That's correct!</p></div>,,,,,,,,,,,,,,,,,,
,html-keyboard-response,86,546615,0.0-52.0-1.0,"""event"",""trial"",""time""
""fullscreenenter"",""0"",""2489""
","
","
","""event"",""trial"",""time""
""fullscreenenter"",""0"",""2489""
","
",1234.6,<div class='center'><p>That's correct!</p><p><b>[Press the space bar to continue]</b></p></div>,32,,,,,,,,,,,,,,,,,,,,,,,
,q_all_err,87,553016,0.0-53.0-0.0,"""event"",""trial"",""time""
""fullscreenenter"",""0"",""2489""
","
","
","""event"",""trial"",""time""
""fullscreenenter"",""0"",""2489""
","
",null,run_exp/static/audio/clip_26_quiz_redo.m4a,null,,,,,"<div class='center'><p>Oops, you missed some questions. Now that you’ve heard the correct answers. Try the quiz again! </p></div>",,,,,,,,,,,,,,,,,,
,html-keyboard-response,88,554408,0.0-53.0-1.0,"""event"",""trial"",""time""
""fullscreenenter"",""0"",""2489""
","
","
","""event"",""trial"",""time""
""fullscreenenter"",""0"",""2489""
","
",1390.6,"<div class='center'><p>Oops, you missed some questions. Now that you’ve heard the correct answers. Try the quiz again! </p><p><b>[Press the space bar to continue]</b></p></div>",32,,,,,,,,,,,,,,,,,,,,,,,
,audio-keyboard-response,89,557588,0.0-53.0-2.0,"""event"",""trial"",""time""
""fullscreenenter"",""0"",""2489""
","
","
","""event"",""trial"",""time""
""fullscreenenter"",""0"",""2489""
","
",3179.2,run_exp/static/audio/clip_17_q1.m4a,49,,,,,,,,,,,,,,,,,,,,,,,
,correct,90,560163,0.0-54.0-0.0,"""event"",""trial"",""time""
""fullscreenenter"",""0"",""2489""
","
","
","""event"",""trial"",""time""
""fullscreenenter"",""0"",""2489""
","
",null,run_exp/static/audio/clip_18_correct.m4a,null,,,,,<div class='center'><p>That's correct!</p></div>,,,,,,,,,,,,,,,,,,
,html-keyboard-response,91,561618,0.0-54.0-1.0,"""event"",""trial"",""time""
""fullscreenenter"",""0"",""2489""
","
","
","""event"",""trial"",""time""
""fullscreenenter"",""0"",""2489""
","
",1454.4,<div class='center'><p>That's correct!</p><p><b>[Press the space bar to continue]</b></p></div>,32,,,,,,,,,,,,,,,,,,,,,,,
,audio-keyboard-response,92,570913,0.0-54.0-2.0,"""event"",""trial"",""time""
""fullscreenenter"",""0"",""2489""
","
","
","""event"",""trial"",""time""
""fullscreenenter"",""0"",""2489""
","
",9294.7,run_exp/static/audio/clip_20_q2.m4a,50,,,,,,,,,,,,,,,,,,,,,,,
,correct,93,573495,0.0-55.0-0.0,"""event"",""trial"",""time""
""fullscreenenter"",""0"",""2489""
","
","
","""event"",""trial"",""time""
""fullscreenenter"",""0"",""2489""
","
",null,run_exp/static/audio/clip_18_correct.m4a,null,,,,,<div class='center'><p>That's correct!</p></div>,,,,,,,,,,,,,,,,,,
,html-keyboard-response,94,574632,0.0-55.0-1.0,"""event"",""trial"",""time""
""fullscreenenter"",""0"",""2489""
","
","
","""event"",""trial"",""time""
""fullscreenenter"",""0"",""2489""
","
",1135.3,<div class='center'><p>That's correct!</p><p><b>[Press the space bar to continue]</b></p></div>,32,,,,,,,,,,,,,,,,,,,,,,,
,audio-keyboard-response,95,581560,0.0-55.0-2.0,"""event"",""trial"",""time""
""fullscreenenter"",""0"",""2489""
","
","
","""event"",""trial"",""time""
""fullscreenenter"",""0"",""2489""
","
",6927.7,run_exp/static/audio/clip_22_q3.m4a,50,,,,,,,,,,,,,,,,,,,,,,,
,correct,96,584141,0.0-56.0-0.0,"""event"",""trial"",""time""
""fullscreenenter"",""0"",""2489""
","
","
","""event"",""trial"",""time""
""fullscreenenter"",""0"",""2489""
","
",null,run_exp/static/audio/clip_18_correct.m4a,null,,,,,<div class='center'><p>That's correct!</p></div>,,,,,,,,,,,,,,,,,,
,html-keyboard-response,97,585289,0.0-56.0-1.0,"""event"",""trial"",""time""
""fullscreenenter"",""0"",""2489""
","
","
","""event"",""trial"",""time""
""fullscreenenter"",""0"",""2489""
","
",1146.8,<div class='center'><p>That's correct!</p><p><b>[Press the space bar to continue]</b></p></div>,32,,,,,,,,,,,,,,,,,,,,,,,
,audio-keyboard-response,98,590178,0.0-56.0-2.0,"""event"",""trial"",""time""
""fullscreenenter"",""0"",""2489""
","
","
","""event"",""trial"",""time""
""fullscreenenter"",""0"",""2489""
","
",4887.8,run_exp/static/audio/clip_24_q4.m4a,49,,,,,,,,,,,,,,,,,,,,,,,
,correct,99,592909,0.0-57.0-0.0,"""event"",""trial"",""time""
""fullscreenenter"",""0"",""2489""
","
","
","""event"",""trial"",""time""
""fullscreenenter"",""0"",""2489""
","
",null,run_exp/static/audio/clip_18_correct.m4a,null,,,,,<div class='center'><p>That's correct!</p></div>,,,,,,,,,,,,,,,,,,
,html-keyboard-response,100,594070,0.0-57.0-1.0,"""event"",""trial"",""time""
""fullscreenenter"",""0"",""2489""
","
","
","""event"",""trial"",""time""
""fullscreenenter"",""0"",""2489""
","
",1159.7,<div class='center'><p>That's correct!</p><p><b>[Press the space bar to continue]</b></p></div>,32,,,,,,,,,,,,,,,,,,,,,,,
,q_all_corr,101,602785,0.0-58.0-0.0,"""event"",""trial"",""time""
""fullscreenenter"",""0"",""2489""
","
","
","""event"",""trial"",""time""
""fullscreenenter"",""0"",""2489""
","
",null,run_exp/static/audio/clip_27_quiz_all_correct.m4a,null,,,,,<div class='center'><p>Good job! You’re now ready to move on to the real game! Remember this game will be difficult but don't get discouraged and try your best!</p></div>,,,,,,,,,,,,,,,,,,
,html-keyboard-response,102,604891,0.0-58.0-1.0,"""event"",""trial"",""time""
""fullscreenenter"",""0"",""2489""
","
","
","""event"",""trial"",""time""
""fullscreenenter"",""0"",""2489""
","
",2103.7,<div class='center'><p>Good job! You’re now ready to move on to the real game! Remember this game will be difficult but don't get discouraged and try your best!</p><p><b>[Press the space bar to continue]</b></p></div>,32,,,,,,,,,,,,,,,,,,,,,,,
,do_welcome,103,608903,0.0-59.0-0.0,"""event"",""trial"",""time""
""fullscreenenter"",""0"",""2489""
","
","
","""event"",""trial"",""time""
""fullscreenenter"",""0"",""2489""
","
",null,,,,,,,,null,,,,,,,,,,,,,,,,,
,do_trial,104,614859,0.0-60.0-0.0,"""event"",""trial"",""time""
""fullscreenenter"",""0"",""2489""
","
","
","""event"",""trial"",""time""
""fullscreenenter"",""0"",""2489""
","
",1391.9,,,,,,,,50,"1,0,0",0,forest,0,probe-14,0.6,0.3,0.1,0,,,,,,,,
,html-keyboard-response,105,615866,0.0-60.0-1.0,"""event"",""trial"",""time""
""fullscreenenter"",""0"",""2489""
","
","
","""event"",""trial"",""time""
""fullscreenenter"",""0"",""2489""
","
",null,<p></p>,null,,,,,,,,,,,,,,,,,,,,,,,
,do_trial,106,621081,0.0-61.0-0.0,"""event"",""trial"",""time""
""fullscreenenter"",""0"",""2489""
","
","
","""event"",""trial"",""time""
""fullscreenenter"",""0"",""2489""
","
",649.6999999,,,,,,,,51,"1,0,0",0,forest,1,probe-151,0.602359771,0.159636713,0.106228479,0,,,,,,,,
,html-keyboard-response,107,622087,0.0-61.0-1.0,"""event"",""trial"",""time""
""fullscreenenter"",""0"",""2489""
","
","
","""event"",""trial"",""time""
""fullscreenenter"",""0"",""2489""
","
",null,<p></p>,null,,,,,,,,,,,,,,,,,,,,,,,
,do_trial,108,627045,0.0-62.0-0.0,"""event"",""trial"",""time""
""fullscreenenter"",""0"",""2489""
","
","
","""event"",""trial"",""time""
""fullscreenenter"",""0"",""2489""
","
",391.8,,,,,,,,49,"1,0,0",0,forest,2,probe-126,0.62358558,0.206175116,0.106277851,1,,,,,,,,
,html-keyboard-response,109,628051,0.0-62.0-1.0,"""event"",""trial"",""time""
""fullscreenenter"",""0"",""2489""
","
","
","""event"",""trial"",""time""
""fullscreenenter"",""0"",""2489""
","
",null,<p></p>,null,,,,,,,,,,,,,,,,,,,,,,,
,do_trial,110,634269,0.0-63.0-0.0,"""event"",""trial"",""time""
""fullscreenenter"",""0"",""2489""
","
","
","""event"",""trial"",""time""
""fullscreenenter"",""0"",""2489""
","
",1570.3,,,,,,,,51,"1,0,0",0,forest,3,probe-142,0.555809283,0.234690919,0.062610918,0,,,,,,,,
,html-keyboard-response,111,635276,0.0-63.0-1.0,"""event"",""trial"",""time""
""fullscreenenter"",""0"",""2489""
","
","
","""event"",""trial"",""time""
""fullscreenenter"",""0"",""2489""
","
",null,<p></p>,null,,,,,,,,,,,,,,,,,,,,,,,
,do_trial,112,640193,0.0-64.0-0.0,"""event"",""trial"",""time""
""fullscreenenter"",""0"",""2489""
","
","
","""event"",""trial"",""time""
""fullscreenenter"",""0"",""2489""
","
",354,,,,,,,,50,"1,1,1",0,forest,4,probe-03,0.415982497,0.307166753,0.14476061,1,,,,,,,,
,html-keyboard-response,113,641195,0.0-64.0-1.0,"""event"",""trial"",""time""
""fullscreenenter"",""0"",""2489""
","
","
","""event"",""trial"",""time""
""fullscreenenter"",""0"",""2489""
","
",null,<p></p>,null,,,,,,,,,,,,,,,,,,,,,,,
,do_trial,114,646523,0.0-65.0-0.0,"""event"",""trial"",""time""
""fullscreenenter"",""0"",""2489""
","
","
","""event"",""trial"",""time""
""fullscreenenter"",""0"",""2489""
","
",766.4000001,,,,,,,,50,"0,0,0",0,forest,5,probe-10,0.51555716,0.52907591,0.132885987,0,,,,,,,,
,html-keyboard-response,115,647527,0.0-65.0-1.0,"""event"",""trial"",""time""
""fullscreenenter"",""0"",""2489""
","
","
","""event"",""trial"",""time""
""fullscreenenter"",""0"",""2489""
","
",null,<p></p>,null,,,,,,,,,,,,,,,,,,,,,,,
,do_trial,116,652623,0.0-66.0-0.0,"""event"",""trial"",""time""
""fullscreenenter"",""0"",""2489""
","
","
","""event"",""trial"",""time""
""fullscreenenter"",""0"",""2489""
","
",531.2,,,,,,,,49,"0,1,0",0,forest,6,probe-135,0.572780241,0.550595888,0.27715751,0,,,,,,,,
,html-keyboard-response,117,653629,0.0-66.0-1.0,"""event"",""trial"",""time""
""fullscreenenter"",""0"",""2489""
","
","
","""event"",""trial"",""time""
""fullscreenenter"",""0"",""2489""
","
",null,<p></p>,null,,,,,,,,,,,,,,,,,,,,,,,
,do_trial,118,658743,0.0-67.0-0.0,"""event"",""trial"",""time""
""fullscreenenter"",""0"",""2489""
","
","
","""event"",""trial"",""time""
""fullscreenenter"",""0"",""2489""
","
",549.9000001,,,,,,,,51,"1,1,0",0,forest,7,probe-154,0.532520238,0.521102261,0.086678837,0,,,,,,,,
,html-keyboard-response,119,659751,0.0-67.0-1.0,"""event"",""trial"",""time""
""fullscreenenter"",""0"",""2489""
","
","
","""event"",""trial"",""time""
""fullscreenenter"",""0"",""2489""
","
",null,<p></p>,null,,,,,,,,,,,,,,,,,,,,,,,
,do_trial,120,664691,0.0-68.0-0.0,"""event"",""trial"",""time""
""fullscreenenter"",""0"",""2489""
","
","
","""event"",""trial"",""time""
""fullscreenenter"",""0"",""2489""
","
",371.0999999,,,,,,,,50,"0,0,0",0,forest,8,probe-105,0.461100614,0.449177781,0.08919083,0,,,,,,,,
,html-keyboard-response,121,665697,0.0-68.0-1.0,"""event"",""trial"",""time""
""fullscreenenter"",""0"",""2489""
","
","
","""event"",""trial"",""time""
""fullscreenenter"",""0"",""2489""
","
",null,<p></p>,null,,,,,,,,,,,,,,,,,,,,,,,
,do_trial,122,670678,0.0-69.0-0.0,"""event"",""trial"",""time""
""fullscreenenter"",""0"",""2489""
","
","
","""event"",""trial"",""time""
""fullscreenenter"",""0"",""2489""
","
",415.9,,,,,,,,49,"1,1,0",0,forest,9,probe-50,0.625192608,0.465175256,0.07757554,1,,,,,,,,
,html-keyboard-response,123,671685,0.0-69.0-1.0,"""event"",""trial"",""time""
""fullscreenenter"",""0"",""2489""
","
","
","""event"",""trial"",""time""
""fullscreenenter"",""0"",""2489""
","
",null,<p></p>,null,,,,,,,,,,,,,,,,,,,,,,,
,do_trial,124,676752,0.0-70.0-0.0,"""event"",""trial"",""time""
""fullscreenenter"",""0"",""2489""
","
","
","""event"",""trial"",""time""
""fullscreenenter"",""0"",""2489""
","
",503.8,,,,,,,,49,"1,0,0",0,forest,10,probe-19,0.516463803,0.352252541,0.149063511,1,,,,,,,,
,html-keyboard-response,125,677758,0.0-70.0-1.0,"""event"",""trial"",""time""
""fullscreenenter"",""0"",""2489""
","
","
","""event"",""trial"",""time""
""fullscreenenter"",""0"",""2489""
","
",null,<p></p>,null,,,,,,,,,,,,,,,,,,,,,,,
,do_trial,126,682892,0.0-71.0-0.0,"""event"",""trial"",""time""
""fullscreenenter"",""0"",""2489""
","
","
","""event"",""trial"",""time""
""fullscreenenter"",""0"",""2489""
","
",572.8,,,,,,,,50,"1,0,0",0,forest,11,probe-27,0.614168744,0.35075403,0.152470238,0,,,,,,,,
,html-keyboard-response,127,683897,0.0-71.0-1.0,"""event"",""trial"",""time""
""fullscreenenter"",""0"",""2489""
","
","
","""event"",""trial"",""time""
""fullscreenenter"",""0"",""2489""
","
",null,<p></p>,null,,,,,,,,,,,,,,,,,,,,,,,
,do_trial,128,688902,0.0-72.0-0.0,"""event"",""trial"",""time""
""fullscreenenter"",""0"",""2489""
","
","
","""event"",""trial"",""time""
""fullscreenenter"",""0"",""2489""
","
",438.8,,,,,,,,49,"0,0,0",0,forest,12,probe-169,0.709366938,0.232721778,0.097466519,0,,,,,,,,
,html-keyboard-response,129,689908,0.0-72.0-1.0,"""event"",""trial"",""time""
""fullscreenenter"",""0"",""2489""
","
","
","""event"",""trial"",""time""
""fullscreenenter"",""0"",""2489""
","
",null,<p></p>,null,,,,,,,,,,,,,,,,,,,,,,,
,do_trial,130,694966,0.0-73.0-0.0,"""event"",""trial"",""time""
""fullscreenenter"",""0"",""2489""
","
","
","""event"",""trial"",""time""
""fullscreenenter"",""0"",""2489""
","
",496,,,,,,,,50,"1,0,0",0,forest,13,probe-195,0.642358127,0.215155124,0.195419259,0,,,,,,,,
,html-keyboard-response,131,695972,0.0-73.0-1.0,"""event"",""trial"",""time""
""fullscreenenter"",""0"",""2489""
","
","
","""event"",""trial"",""time""
""fullscreenenter"",""0"",""2489""
","
",null,<p></p>,null,,,,,,,,,,,,,,,,,,,,,,,
,do_trial,132,700927,0.0-74.0-0.0,"""event"",""trial"",""time""
""fullscreenenter"",""0"",""2489""
","
","
","""event"",""trial"",""time""
""fullscreenenter"",""0"",""2489""
","
",393.5,,,,,,,,51,"1,0,1",0,forest,14,probe-53,0.678744847,0.32056066,0.077898008,1,,,,,,,,
,html-keyboard-response,133,701934,0.0-74.0-1.0,"""event"",""trial"",""time""
""fullscreenenter"",""0"",""2489""
","
","
","""event"",""trial"",""time""
""fullscreenenter"",""0"",""2489""
","
",null,<p></p>,null,,,,,,,,,,,,,,,,,,,,,,,
,do_trial,134,706984,0.0-75.0-0.0,"""event"",""trial"",""time""
""fullscreenenter"",""0"",""2489""
","
","
","""event"",""trial"",""time""
""fullscreenenter"",""0"",""2489""
","
",433.6,,,,,,,,49,"1,0,1",0,forest,15,probe-98,0.62195154,0.221472885,0.221912673,1,,,,,,,,
,html-keyboard-response,135,707990,0.0-75.0-1.0,"""event"",""trial"",""time""
""fullscreenenter"",""0"",""2489""
","
","
","""event"",""trial"",""time""
""fullscreenenter"",""0"",""2489""
","
",null,<p></p>,null,,,,,,,,,,,,,,,,,,,,,,,
,do_trial,136,713094,0.0-76.0-0.0,"""event"",""trial"",""time""
""fullscreenenter"",""0"",""2489""
","
","
","""event"",""trial"",""time""
""fullscreenenter"",""0"",""2489""
","
",540.6,,,,,,,,49,"1,0,1",0,forest,16,probe-140,0.518254302,0.233447684,0.160703348,1,,,,,,,,
,html-keyboard-response,137,714100,0.0-76.0-1.0,"""event"",""trial"",""time""
""fullscreenenter"",""0"",""2489""
","
","
","""event"",""trial"",""time""
""fullscreenenter"",""0"",""2489""
","
",null,<p></p>,null,,,,,,,,,,,,,,,,,,,,,,,
,do_trial,138,719388,0.0-77.0-0.0,"""event"",""trial"",""time""
""fullscreenenter"",""0"",""2489""
","
","
","""event"",""trial"",""time""
""fullscreenenter"",""0"",""2489""
","
",708.6,,,,,,,,49,"0,1,0",0,forest,17,probe-106,0.401176859,0.335108299,0.174917114,0,,,,,,,,
,html-keyboard-response,139,720395,0.0-77.0-1.0,"""event"",""trial"",""time""
""fullscreenenter"",""0"",""2489""
","
","
","""event"",""trial"",""time""
""fullscreenenter"",""0"",""2489""
","
",null,<p></p>,null,,,,,,,,,,,,,,,,,,,,,,,
,do_trial,140,725504,0.0-78.0-0.0,"""event"",""trial"",""time""
""fullscreenenter"",""0"",""2489""
","
","
","""event"",""trial"",""time""
""fullscreenenter"",""0"",""2489""
","
",545.3,,,,,,,,51,"0,0,0",0,forest,18,probe-212,0.441001224,0.39304002,0.145851471,0,,,,,,,,
,html-keyboard-response,141,726506,0.0-78.0-1.0,"""event"",""trial"",""time""
""fullscreenenter"",""0"",""2489""
","
","
","""event"",""trial"",""time""
""fullscreenenter"",""0"",""2489""
","
",null,<p></p>,null,,,,,,,,,,,,,,,,,,,,,,,
,do_trial,142,731568,0.0-79.0-0.0,"""event"",""trial"",""time""
""fullscreenenter"",""0"",""2489""
","
","
","""event"",""trial"",""time""
""fullscreenenter"",""0"",""2489""
","
",524.2,,,,,,,,49,"0,1,0",0,forest,19,probe-174,0.455534907,0.4884128,0.132123081,0,,,,,,,,
,html-keyboard-response,143,732572,0.0-79.0-1.0,"""event"",""trial"",""time""
""fullscreenenter"",""0"",""2489""
","
","
","""event"",""trial"",""time""
""fullscreenenter"",""0"",""2489""
","
",null,<p></p>,null,,,,,,,,,,,,,,,,,,,,,,,
,do_trial,144,737502,0.0-80.0-0.0,"""event"",""trial"",""time""
""fullscreenenter"",""0"",""2489""
","
","
","""event"",""trial"",""time""
""fullscreenenter"",""0"",""2489""
","
",365,,,,,,,,50,"1,0,0",0,forest,20,probe-88,0.602116934,0.288414974,0.113288685,0,,,,,,,,
,html-keyboard-response,145,738508,0.0-80.0-1.0,"""event"",""trial"",""time""
""fullscreenenter"",""0"",""2489""
","
","
","""event"",""trial"",""time""
""fullscreenenter"",""0"",""2489""
","
",null,<p></p>,null,,,,,,,,,,,,,,,,,,,,,,,
,do_trial,146,743517,0.0-81.0-0.0,"""event"",""trial"",""time""
""fullscreenenter"",""0"",""2489""
","
","
","""event"",""trial"",""time""
""fullscreenenter"",""0"",""2489""
","
",437.9,,,,,,,,49,"0,1,0",0,forest,21,probe-85,0.494818966,0.314979714,0.059768122,0,,,,,,,,
,html-keyboard-response,147,744525,0.0-81.0-1.0,"""event"",""trial"",""time""
""fullscreenenter"",""0"",""2489""
","
","
","""event"",""trial"",""time""
""fullscreenenter"",""0"",""2489""
","
",null,<p></p>,null,,,,,,,,,,,,,,,,,,,,,,,
,do_trial,148,749501,0.0-82.0-0.0,"""event"",""trial"",""time""
""fullscreenenter"",""0"",""2489""
","
","
","""event"",""trial"",""time""
""fullscreenenter"",""0"",""2489""
","
",414.6,,,,,,,,51,"1,1,0",0,forest,22,probe-187,0.573161341,0.547936415,0.080699885,0,,,,,,,,
,html-keyboard-response,149,750507,0.0-82.0-1.0,"""event"",""trial"",""time""
""fullscreenenter"",""0"",""2489""
","
","
","""event"",""trial"",""time""
""fullscreenenter"",""0"",""2489""
","
",null,<p></p>,null,,,,,,,,,,,,,,,,,,,,,,,
,do_trial,150,755441,0.0-83.0-0.0,"""event"",""trial"",""time""
""fullscreenenter"",""0"",""2489""
","
","
","""event"",""trial"",""time""
""fullscreenenter"",""0"",""2489""
","
",372.3,,,,,,,,50,"0,1,0",0,forest,23,probe-100,0.538911875,0.389590475,0.145614218,1,,,,,,,,
,html-keyboard-response,151,756447,0.0-83.0-1.0,"""event"",""trial"",""time""
""fullscreenenter"",""0"",""2489""
","
","
","""event"",""trial"",""time""
""fullscreenenter"",""0"",""2489""
","
",null,<p></p>,null,,,,,,,,,,,,,,,,,,,,,,,
,do_trial,152,761406,0.0-84.0-0.0,"""event"",""trial"",""time""
""fullscreenenter"",""0"",""2489""
","
","
","""event"",""trial"",""time""
""fullscreenenter"",""0"",""2489""
","
",393.5,,,,,,,,49,"1,0,0",0,forest,24,probe-07,0.513972777,0.305829546,0.108985407,1,,,,,,,,
,html-keyboard-response,153,762411,0.0-84.0-1.0,"""event"",""trial"",""time""
""fullscreenenter"",""0"",""2489""
","
","
","""event"",""trial"",""time""
""fullscreenenter"",""0"",""2489""
","
",null,<p></p>,null,,,,,,,,,,,,,,,,,,,,,,,
,do_trial,154,768335,0.0-85.0-0.0,"""event"",""trial"",""time""
""fullscreenenter"",""0"",""2489""
","
","
","""event"",""trial"",""time""
""fullscreenenter"",""0"",""2489""
","
",1342.3,,,,,,,,49,"0,1,0",0,forest,25,probe-124,0.790549724,0.343164817,0.18622719,0,,,,,,,,
,html-keyboard-response,155,769339,0.0-85.0-1.0,"""event"",""trial"",""time""
""fullscreenenter"",""0"",""2489""
","
","
","""event"",""trial"",""time""
""fullscreenenter"",""0"",""2489""
","
",null,<p></p>,null,,,,,,,,,,,,,,,,,,,,,,,
,do_trial,156,774322,0.0-86.0-0.0,"""event"",""trial"",""time""
""fullscreenenter"",""0"",""2489""
","
","
","""event"",""trial"",""time""
""fullscreenenter"",""0"",""2489""
","
",422.3000001,,,,,,,,50,"1,0,0",0,forest,26,probe-136,0.689220839,0.53844371,0.275563999,0,,,,,,,,
,html-keyboard-response,157,775328,0.0-86.0-1.0,"""event"",""trial"",""time""
""fullscreenenter"",""0"",""2489""
","
","
","""event"",""trial"",""time""
""fullscreenenter"",""0"",""2489""
","
",null,<p></p>,null,,,,,,,,,,,,,,,,,,,,,,,
,do_trial,158,780293,0.0-87.0-0.0,"""event"",""trial"",""time""
""fullscreenenter"",""0"",""2489""
","
","
","""event"",""trial"",""time""
""fullscreenenter"",""0"",""2489""
","
",399.6,,,,,,,,51,"1,0,0",0,forest,27,probe-04,0.720429628,0.32381132,0.299750988,0,,,,,,,,
,html-keyboard-response,159,781300,0.0-87.0-1.0,"""event"",""trial"",""time""
""fullscreenenter"",""0"",""2489""
","
","
","""event"",""trial"",""time""
""fullscreenenter"",""0"",""2489""
","
",null,<p></p>,null,,,,,,,,,,,,,,,,,,,,,,,
,do_trial,160,786315,0.0-88.0-0.0,"""event"",""trial"",""time""
""fullscreenenter"",""0"",""2489""
","
","
","""event"",""trial"",""time""
""fullscreenenter"",""0"",""2489""
","
",450.9,,,,,,,,49,"1,0,1",0,forest,28,probe-168,0.559843653,0.248713875,0.345581788,1,,,,,,,,
,html-keyboard-response,161,787323,0.0-88.0-1.0,"""event"",""trial"",""time""
""fullscreenenter"",""0"",""2489""
","
","
","""event"",""trial"",""time""
""fullscreenenter"",""0"",""2489""
","
",null,<p></p>,null,,,,,,,,,,,,,,,,,,,,,,,
,do_trial,162,792373,0.0-89.0-0.0,"""event"",""trial"",""time""
""fullscreenenter"",""0"",""2489""
","
","
","""event"",""trial"",""time""
""fullscreenenter"",""0"",""2489""
","
",490.9,,,,,,,,49,"0,0,0",0,forest,29,probe-166,0.458640016,0.386506893,0.410130717,0,,,,,,,,
,html-keyboard-response,163,793379,0.0-89.0-1.0,"""event"",""trial"",""time""
""fullscreenenter"",""0"",""2489""
","
","
","""event"",""trial"",""time""
""fullscreenenter"",""0"",""2489""
","
",null,<p></p>,null,,,,,,,,,,,,,,,,,,,,,,,
,do_bye,164,794890,0.0-90.0-0.0,"""event"",""trial"",""time""
""fullscreenenter"",""0"",""2489""
","
","
","""event"",""trial"",""time""
""fullscreenenter"",""0"",""2489""
","
",null,,,,,,,,null,,,,,,,,,,,,,,,,,
,break,165,799166,0.0-90.0-1.0,"""event"",""trial"",""time""
""fullscreenenter"",""0"",""2489""
","
","
","""event"",""trial"",""time""
""fullscreenenter"",""0"",""2489""
","
",4274,"<div class='center'><p>Time to take a quick break! You have 2 minutes to rest, but you can move on sooner if you'd like.</p><p> Press the <b>space bar</b> to continue.</p></div>",32,,,,,,,,,,,,,,,,,,,,,,,
,do_travel,166,808171,0.0-91.0-0.0,"""event"",""trial"",""time""
""fullscreenenter"",""0"",""2489""
","
","
","""event"",""trial"",""time""
""fullscreenenter"",""0"",""2489""
","
",null,,,,,,,,null,,,,,,,,,,,,,,,,,
,do_welcome,167,812184,0.0-91.0-1.0,"""event"",""trial"",""time""
""fullscreenenter"",""0"",""2489""
","
","
","""event"",""trial"",""time""
""fullscreenenter"",""0"",""2489""
","
",null,,,,,,,,null,,,,,,,,,,,,,,,,,
,do_trial,168,818255,0.0-92.0-0.0,"""event"",""trial"",""time""
""fullscreenenter"",""0"",""2489""
","
","
","""event"",""trial"",""time""
""fullscreenenter"",""0"",""2489""
","
",null,,,,,,,,null,"1,0,0",1,mountain,30,probe-58,1,0.206589176,0.303396633,,,,,,,,,
,html-keyboard-response,169,819261,0.0-92.0-1.0,"""event"",""trial"",""time""
""fullscreenenter"",""0"",""2489""
","
","
","""event"",""trial"",""time""
""fullscreenenter"",""0"",""2489""
","
",null,<p></p>,null,,,,,,,,,,,,,,,,,,,,,,,
,do_trial,170,824278,0.0-93.0-0.0,"""event"",""trial"",""time""
""fullscreenenter"",""0"",""2489""
","
","
","""event"",""trial"",""time""
""fullscreenenter"",""0"",""2489""
","
",454.1999999,,,,,,,,49,"1,1,0",1,mountain,31,probe-90,1,0.281612625,0.294800611,1,,,,,,,,
,html-keyboard-response,171,825285,0.0-93.0-1.0,"""event"",""trial"",""time""
""fullscreenenter"",""0"",""2489""
","
","
","""event"",""trial"",""time""
""fullscreenenter"",""0"",""2489""
","
",null,<p></p>,null,,,,,,,,,,,,,,,,,,,,,,,
,do_trial,172,830307,0.0-94.0-0.0,"""event"",""trial"",""time""
""fullscreenenter"",""0"",""2489""
","
","
","""event"",""trial"",""time""
""fullscreenenter"",""0"",""2489""
","
",459.1,,,,,,,,50,"1,0,0",1,mountain,32,probe-66,1,0.333018063,0.145259717,0,,,,,,,,
,html-keyboard-response,173,831315,0.0-94.0-1.0,"""event"",""trial"",""time""
""fullscreenenter"",""0"",""2489""
","
","
","""event"",""trial"",""time""
""fullscreenenter"",""0"",""2489""
","
",null,<p></p>,null,,,,,,,,,,,,,,,,,,,,,,,
,do_trial,174,836335,0.0-95.0-0.0,"""event"",""trial"",""time""
""fullscreenenter"",""0"",""2489""
","
","
","""event"",""trial"",""time""
""fullscreenenter"",""0"",""2489""
","
",453.7,,,,,,,,51,"1,0,1",1,mountain,33,probe-68,0.720495147,0.270284066,0.076603272,1,,,,,,,,
,html-keyboard-response,175,837342,0.0-95.0-1.0,"""event"",""trial"",""time""
""fullscreenenter"",""0"",""2489""
","
","
","""event"",""trial"",""time""
""fullscreenenter"",""0"",""2489""
","
",null,<p></p>,null,,,,,,,,,,,,,,,,,,,,,,,
,do_trial,176,842372,0.0-96.0-0.0,"""event"",""trial"",""time""
""fullscreenenter"",""0"",""2489""
","
","
","""event"",""trial"",""time""
""fullscreenenter"",""0"",""2489""
","
",464.8000001,,,,,,,,49,"1,1,0",1,mountain,34,probe-213,0.822636756,0.410283821,0.088269308,1,,,,,,,,
,html-keyboard-response,177,843377,0.0-96.0-1.0,"""event"",""trial"",""time""
""fullscreenenter"",""0"",""2489""
","
","
","""event"",""trial"",""time""
""fullscreenenter"",""0"",""2489""
","
",null,<p></p>,null,,,,,,,,,,,,,,,,,,,,,,,
,do_trial,178,848904,0.0-97.0-0.0,"""event"",""trial"",""time""
""fullscreenenter"",""0"",""2489""
","
","
","""event"",""trial"",""time""
""fullscreenenter"",""0"",""2489""
","
",965.7,,,,,,,,49,"0,0,0",1,mountain,35,probe-138,0.637837069,0.338793444,0.101263903,0,,,,,,,,
,html-keyboard-response,179,849908,0.0-97.0-1.0,"""event"",""trial"",""time""
""fullscreenenter"",""0"",""2489""
","
","
","""event"",""trial"",""time""
""fullscreenenter"",""0"",""2489""
","
",null,<p></p>,null,,,,,,,,,,,,,,,,,,,,,,,
,do_trial,180,855124,0.0-98.0-0.0,"""event"",""trial"",""time""
""fullscreenenter"",""0"",""2489""
","
","
","""event"",""trial"",""time""
""fullscreenenter"",""0"",""2489""
","
",652.5,,,,,,,,51,"0,1,0",1,mountain,36,probe-148,0.575006439,0.429458719,0.194931268,0,,,,,,,,
,html-keyboard-response,181,856130,0.0-98.0-1.0,"""event"",""trial"",""time""
""fullscreenenter"",""0"",""2489""
","
","
","""event"",""trial"",""time""
""fullscreenenter"",""0"",""2489""
","
",null,<p></p>,null,,,,,,,,,,,,,,,,,,,,,,,
,do_trial,182,861268,0.0-99.0-0.0,"""event"",""trial"",""time""
""fullscreenenter"",""0"",""2489""
","
","
","""event"",""trial"",""time""
""fullscreenenter"",""0"",""2489""
","
",571.3,,,,,,,,49,"0,1,0",1,mountain,37,probe-145,0.527656656,0.491220026,0.157963571,0,,,,,,,,
,html-keyboard-response,183,862273,0.0-99.0-1.0,"""event"",""trial"",""time""
""fullscreenenter"",""0"",""2489""
","
","
","""event"",""trial"",""time""
""fullscreenenter"",""0"",""2489""
","
",null,<p></p>,null,,,,,,,,,,,,,,,,,,,,,,,
,do_trial,184,867647,0.0-100.0-0.0,"""event"",""trial"",""time""
""fullscreenenter"",""0"",""2489""
","
","
","""event"",""trial"",""time""
""fullscreenenter"",""0"",""2489""
","
",809.2,,,,,,,,50,"0,1,0",1,mountain,38,probe-220,0.47033166,0.600997314,0.185922875,1,,,,,,,,
,html-keyboard-response,185,868653,0.0-100.0-1.0,"""event"",""trial"",""time""
""fullscreenenter"",""0"",""2489""
","
","
","""event"",""trial"",""time""
""fullscreenenter"",""0"",""2489""
","
",null,<p></p>,null,,,,,,,,,,,,,,,,,,,,,,,
,do_trial,186,874442,0.0-101.0-0.0,"""event"",""trial"",""time""
""fullscreenenter"",""0"",""2489""
","
","
","""event"",""trial"",""time""
""fullscreenenter"",""0"",""2489""
","
",1224.7,,,,,,,,50,"1,0,0",1,mountain,39,probe-130,0.442244363,0.570308584,0.07210859,0,,,,,,,,
,html-keyboard-response,187,875447,0.0-101.0-1.0,"""event"",""trial"",""time""
""fullscreenenter"",""0"",""2489""
","
","
","""event"",""trial"",""time""
""fullscreenenter"",""0"",""2489""
","
",null,<p></p>,null,,,,,,,,,,,,,,,,,,,,,,,
,do_trial,188,880481,0.0-102.0-0.0,"""event"",""trial"",""time""
""fullscreenenter"",""0"",""2489""
","
","
","""event"",""trial"",""time""
""fullscreenenter"",""0"",""2489""
","
",470.5,,,,,,,,49,"0,1,0",1,mountain,40,probe-156,0.488543521,0.532176418,0.064646412,0,,,,,,,,
,html-keyboard-response,189,881487,0.0-102.0-1.0,"""event"",""trial"",""time""
""fullscreenenter"",""0"",""2489""
","
","
","""event"",""trial"",""time""
""fullscreenenter"",""0"",""2489""
","
",null,<p></p>,null,,,,,,,,,,,,,,,,,,,,,,,
,do_trial,190,886567,0.0-103.0-0.0,"""event"",""trial"",""time""
""fullscreenenter"",""0"",""2489""
","
","
","""event"",""trial"",""time""
""fullscreenenter"",""0"",""2489""
","
",519.6999999,,,,,,,,51,"1,1,0",1,mountain,41,probe-229,0.47666348,0.577012461,0.135791452,0,,,,,,,,
,html-keyboard-response,191,887573,0.0-103.0-1.0,"""event"",""trial"",""time""
""fullscreenenter"",""0"",""2489""
","
","
","""event"",""trial"",""time""
""fullscreenenter"",""0"",""2489""
","
",null,<p></p>,null,,,,,,,,,,,,,,,,,,,,,,,
,do_trial,192,892654,0.0-104.0-0.0,"""event"",""trial"",""time""
""fullscreenenter"",""0"",""2489""
","
","
","""event"",""trial"",""time""
""fullscreenenter"",""0"",""2489""
","
",517.4,,,,,,,,49,"0,0,1",1,mountain,42,probe-72,0.305662176,0.516955999,0.288497814,0,,,,,,,,
,html-keyboard-response,193,893660,0.0-104.0-1.0,"""event"",""trial"",""time""
""fullscreenenter"",""0"",""2489""
","
","
","""event"",""trial"",""time""
""fullscreenenter"",""0"",""2489""
","
",null,<p></p>,null,,,,,,,,,,,,,,,,,,,,,,,
,do_trial,194,898567,0.0-105.0-0.0,"""event"",""trial"",""time""
""fullscreenenter"",""0"",""2489""
","
","
","""event"",""trial"",""time""
""fullscreenenter"",""0"",""2489""
","
",347.1,,,,,,,,50,"0,1,0",1,mountain,43,probe-93,0.159958584,0.448955307,0.353905303,1,,,,,,,,
,html-keyboard-response,195,899575,0.0-105.0-1.0,"""event"",""trial"",""time""
""fullscreenenter"",""0"",""2489""
","
","
","""event"",""trial"",""time""
""fullscreenenter"",""0"",""2489""
","
",null,<p></p>,null,,,,,,,,,,,,,,,,,,,,,,,
,do_trial,196,904860,0.0-106.0-0.0,"""event"",""trial"",""time""
""fullscreenenter"",""0"",""2489""
","
","
","""event"",""trial"",""time""
""fullscreenenter"",""0"",""2489""
","
",720.6,,,,,,,,50,"0,1,1",1,mountain,44,probe-143,0.095534148,0.234773239,0.368135411,1,,,,,,,,
,html-keyboard-response,197,905866,0.0-106.0-1.0,"""event"",""trial"",""time""
""fullscreenenter"",""0"",""2489""
","
","
","""event"",""trial"",""time""
""fullscreenenter"",""0"",""2489""
","
",null,<p></p>,null,,,,,,,,,,,,,,,,,,,,,,,
,do_trial,198,911036,0.0-107.0-0.0,"""event"",""trial"",""time""
""fullscreenenter"",""0"",""2489""
","
","
","""event"",""trial"",""time""
""fullscreenenter"",""0"",""2489""
","
",604.3000001,,,,,,,,50,"0,0,1",1,mountain,45,probe-22,0.189521197,0.339905243,0.458644432,0,,,,,,,,
,html-keyboard-response,199,912042,0.0-107.0-1.0,"""event"",""trial"",""time""
""fullscreenenter"",""0"",""2489""
","
","
","""event"",""trial"",""time""
""fullscreenenter"",""0"",""2489""
","
",null,<p></p>,null,,,,,,,,,,,,,,,,,,,,,,,
,do_trial,200,917015,0.0-108.0-0.0,"""event"",""trial"",""time""
""fullscreenenter"",""0"",""2489""
","
","
","""event"",""trial"",""time""
""fullscreenenter"",""0"",""2489""
","
",410,,,,,,,,49,"0,0,1",1,mountain,46,probe-114,0.078583636,0.389402461,0.490598586,0,,,,,,,,
,html-keyboard-response,201,918018,0.0-108.0-1.0,"""event"",""trial"",""time""
""fullscreenenter"",""0"",""2489""
","
","
","""event"",""trial"",""time""
""fullscreenenter"",""0"",""2489""
","
",null,<p></p>,null,,,,,,,,,,,,,,,,,,,,,,,
,do_trial,202,923245,0.0-109.0-0.0,"""event"",""trial"",""time""
""fullscreenenter"",""0"",""2489""
","
","
","""event"",""trial"",""time""
""fullscreenenter"",""0"",""2489""
","
",666,,,,,,,,51,"0,1,1",1,mountain,47,probe-11,0.06388109,0.382848611,0.441117189,1,,,,,,,,
,html-keyboard-response,203,924253,0.0-109.0-1.0,"""event"",""trial"",""time""
""fullscreenenter"",""0"",""2489""
","
","
","""event"",""trial"",""time""
""fullscreenenter"",""0"",""2489""
","
",null,<p></p>,null,,,,,,,,,,,,,,,,,,,,,,,
,do_trial,204,929259,0.0-110.0-0.0,"""event"",""trial"",""time""
""fullscreenenter"",""0"",""2489""
","
","
","""event"",""trial"",""time""
""fullscreenenter"",""0"",""2489""
","
",429.4,,,,,,,,49,"0,1,0",1,mountain,48,probe-192,0.107768809,0.502563262,0.436182296,0,,,,,,,,
,html-keyboard-response,205,930268,0.0-110.0-1.0,"""event"",""trial"",""time""
""fullscreenenter"",""0"",""2489""
","
","
","""event"",""trial"",""time""
""fullscreenenter"",""0"",""2489""
","
",null,<p></p>,null,,,,,,,,,,,,,,,,,,,,,,,
,do_trial,206,935277,0.0-111.0-0.0,"""event"",""trial"",""time""
""fullscreenenter"",""0"",""2489""
","
","
","""event"",""trial"",""time""
""fullscreenenter"",""0"",""2489""
","
",442.6,,,,,,,,50,"1,1,0",1,mountain,49,probe-97,0.118781482,0.563486732,0.509057031,1,,,,,,,,
,html-keyboard-response,207,936282,0.0-111.0-1.0,"""event"",""trial"",""time""
""fullscreenenter"",""0"",""2489""
","
","
","""event"",""trial"",""time""
""fullscreenenter"",""0"",""2489""
","
",null,<p></p>,null,,,,,,,,,,,,,,,,,,,,,,,
,do_trial,208,941547,0.0-112.0-0.0,"""event"",""trial"",""time""
""fullscreenenter"",""0"",""2489""
","
","
","""event"",""trial"",""time""
""fullscreenenter"",""0"",""2489""
","
",699.0999999,,,,,,,,49,"1,0,1",1,mountain,50,probe-117,0.107449598,0.444189743,0.5689068,1,,,,,,,,
,html-keyboard-response,209,942551,0.0-112.0-1.0,"""event"",""trial"",""time""
""fullscreenenter"",""0"",""2489""
","
","
","""event"",""trial"",""time""
""fullscreenenter"",""0"",""2489""
","
",null,<p></p>,null,,,,,,,,,,,,,,,,,,,,,,,
,do_trial,210,947684,0.0-113.0-0.0,"""event"",""trial"",""time""
""fullscreenenter"",""0"",""2489""
","
","
","""event"",""trial"",""time""
""fullscreenenter"",""0"",""2489""
","
",567.6999999,,,,,,,,51,"1,0,0",1,mountain,51,probe-144,0.104975509,0.367586105,0.507821334,0,,,,,,,,
,html-keyboard-response,211,948691,0.0-113.0-1.0,"""event"",""trial"",""time""
""fullscreenenter"",""0"",""2489""
","
","
","""event"",""trial"",""time""
""fullscreenenter"",""0"",""2489""
","
",null,<p></p>,null,,,,,,,,,,,,,,,,,,,,,,,
,do_trial,212,953910,0.0-114.0-0.0,"""event"",""trial"",""time""
""fullscreenenter"",""0"",""2489""
","
","
","""event"",""trial"",""time""
""fullscreenenter"",""0"",""2489""
","
",651.8000001,,,,,,,,49,"0,0,0",1,mountain,52,probe-132,0.15222821,0.341685739,0.655801185,0,,,,,,,,
,html-keyboard-response,213,954916,0.0-114.0-1.0,"""event"",""trial"",""time""
""fullscreenenter"",""0"",""2489""
","
","
","""event"",""trial"",""time""
""fullscreenenter"",""0"",""2489""
","
",null,<p></p>,null,,,,,,,,,,,,,,,,,,,,,,,
,do_trial,214,959885,0.0-115.0-0.0,"""event"",""trial"",""time""
""fullscreenenter"",""0"",""2489""
","
","
","""event"",""trial"",""time""
""fullscreenenter"",""0"",""2489""
","
",405.7,,,,,,,,50,"0,0,0",1,mountain,53,probe-09,0.066333966,0.271451039,0.771051395,0,,,,,,,,
,html-keyboard-response,215,960891,0.0-115.0-1.0,"""event"",""trial"",""time""
""fullscreenenter"",""0"",""2489""
","
","
","""event"",""trial"",""time""
""fullscreenenter"",""0"",""2489""
","
",null,<p></p>,null,,,,,,,,,,,,,,,,,,,,,,,
,do_trial,216,966252,0.0-116.0-0.0,"""event"",""trial"",""time""
""fullscreenenter"",""0"",""2489""
","
","
","""event"",""trial"",""time""
""fullscreenenter"",""0"",""2489""
","
",800.3,,,,,,,,51,"0,1,0",1,mountain,54,probe-208,0.08297208,0.212880175,0.616487613,0,,,,,,,,
,html-keyboard-response,217,967258,0.0-116.0-1.0,"""event"",""trial"",""time""
""fullscreenenter"",""0"",""2489""
","
","
","""event"",""trial"",""time""
""fullscreenenter"",""0"",""2489""
","
",null,<p></p>,null,,,,,,,,,,,,,,,,,,,,,,,
,do_trial,218,972378,0.0-117.0-0.0,"""event"",""trial"",""time""
""fullscreenenter"",""0"",""2489""
","
","
","""event"",""trial"",""time""
""fullscreenenter"",""0"",""2489""
","
",555.3,,,,,,,,49,"1,1,1",1,mountain,55,probe-167,0.149529405,0.214734187,0.678915119,1,,,,,,,,
,html-keyboard-response,219,973384,0.0-117.0-1.0,"""event"",""trial"",""time""
""fullscreenenter"",""0"",""2489""
","
","
","""event"",""trial"",""time""
""fullscreenenter"",""0"",""2489""
","
",null,<p></p>,null,,,,,,,,,,,,,,,,,,,,,,,
,do_trial,220,979019,0.0-118.0-0.0,"""event"",""trial"",""time""
""fullscreenenter"",""0"",""2489""
","
","
","""event"",""trial"",""time""
""fullscreenenter"",""0"",""2489""
","
",1070.2,,,,,,,,49,"0,1,0",1,mountain,56,probe-99,0.121681936,0.336304241,0.649099151,0,,,,,,,,
,html-keyboard-response,221,980027,0.0-118.0-1.0,"""event"",""trial"",""time""
""fullscreenenter"",""0"",""2489""
","
","
","""event"",""trial"",""time""
""fullscreenenter"",""0"",""2489""
","
",null,<p></p>,null,,,,,,,,,,,,,,,,,,,,,,,
,do_trial,222,985025,0.0-119.0-0.0,"""event"",""trial"",""time""
""fullscreenenter"",""0"",""2489""
","
","
","""event"",""trial"",""time""
""fullscreenenter"",""0"",""2489""
","
",438.6999999,,,,,,,,50,"0,0,1",1,mountain,57,probe-86,0.052937123,0.204597636,0.621531269,0,,,,,,,,
,html-keyboard-response,223,986032,0.0-119.0-1.0,"""event"",""trial"",""time""
""fullscreenenter"",""0"",""2489""
","
","
","""event"",""trial"",""time""
""fullscreenenter"",""0"",""2489""
","
",null,<p></p>,null,,,,,,,,,,,,,,,,,,,,,,,
,do_trial,224,991256,0.0-120.0-0.0,"""event"",""trial"",""time""
""fullscreenenter"",""0"",""2489""
","
","
","""event"",""trial"",""time""
""fullscreenenter"",""0"",""2489""
","
",649.1,,,,,,,,51,"0,0,1",1,mountain,58,probe-215,0.134487547,0.271583024,0.639424856,1,,,,,,,,
,html-keyboard-response,225,992262,0.0-120.0-1.0,"""event"",""trial"",""time""
""fullscreenenter"",""0"",""2489""
","
","
","""event"",""trial"",""time""
""fullscreenenter"",""0"",""2489""
","
",null,<p></p>,null,,,,,,,,,,,,,,,,,,,,,,,
,do_trial,226,998389,0.0-121.0-0.0,"""event"",""trial"",""time""
""fullscreenenter"",""0"",""2489""
","
","
","""event"",""trial"",""time""
""fullscreenenter"",""0"",""2489""
","
",1563.3,,,,,,,,49,"0,1,1",1,mountain,59,probe-118,0.12248822,0.358268057,0.594769504,0,,,,,,,,
,html-keyboard-response,227,999395,0.0-121.0-1.0,"""event"",""trial"",""time""
""fullscreenenter"",""0"",""2489""
","
","
","""event"",""trial"",""time""
""fullscreenenter"",""0"",""2489""
","
",null,<p></p>,null,,,,,,,,,,,,,,,,,,,,,,,
,do_trial,228,1004324,0.0-122.0-0.0,"""event"",""trial"",""time""
""fullscreenenter"",""0"",""2489""
","
","
","""event"",""trial"",""time""
""fullscreenenter"",""0"",""2489""
","
",356.5,,,,,,,,50,"1,0,1",1,mountain,60,probe-177,0.105615369,0.294961967,0.649111537,0,,,,,,,,
,html-keyboard-response,229,1005330,0.0-122.0-1.0,"""event"",""trial"",""time""
""fullscreenenter"",""0"",""2489""
","
","
","""event"",""trial"",""time""
""fullscreenenter"",""0"",""2489""
","
",null,<p></p>,null,,,,,,,,,,,,,,,,,,,,,,,
,do_trial,230,1010356,0.0-123.0-0.0,"""event"",""trial"",""time""
""fullscreenenter"",""0"",""2489""
","
","
","""event"",""trial"",""time""
""fullscreenenter"",""0"",""2489""
","
",463.8000001,,,,,,,,51,"1,1,1",1,mountain,61,probe-73,0.050723401,0.283338685,0.539077948,1,,,,,,,,
,html-keyboard-response,231,1011364,0.0-123.0-1.0,"""event"",""trial"",""time""
""fullscreenenter"",""0"",""2489""
","
","
","""event"",""trial"",""time""
""fullscreenenter"",""0"",""2489""
","
",null,<p></p>,null,,,,,,,,,,,,,,,,,,,,,,,
,do_trial,232,1016308,0.0-124.0-0.0,"""event"",""trial"",""time""
""fullscreenenter"",""0"",""2489""
","
","
","""event"",""trial"",""time""
""fullscreenenter"",""0"",""2489""
","
",383.2,,,,,,,,49,"0,0,0",1,mountain,62,probe-223,0.119393775,0.201029357,0.577380577,0,,,,,,,,
,html-keyboard-response,233,1017316,0.0-124.0-1.0,"""event"",""trial"",""time""
""fullscreenenter"",""0"",""2489""
","
","
","""event"",""trial"",""time""
""fullscreenenter"",""0"",""2489""
","
",null,<p></p>,null,,,,,,,,,,,,,,,,,,,,,,,
,do_trial,234,1022362,0.0-125.0-0.0,"""event"",""trial"",""time""
""fullscreenenter"",""0"",""2489""
","
","
","""event"",""trial"",""time""
""fullscreenenter"",""0"",""2489""
","
",485.1999999,,,,,,,,50,"0,0,1",1,mountain,63,probe-102,0.156380281,0.166381654,0.529140259,0,,,,,,,,
,html-keyboard-response,235,1023369,0.0-125.0-1.0,"""event"",""trial"",""time""
""fullscreenenter"",""0"",""2489""
","
","
","""event"",""trial"",""time""
""fullscreenenter"",""0"",""2489""
","
",null,<p></p>,null,,,,,,,,,,,,,,,,,,,,,,,
,do_trial,236,1028412,0.0-126.0-0.0,"""event"",""trial"",""time""
""fullscreenenter"",""0"",""2489""
","
","
","""event"",""trial"",""time""
""fullscreenenter"",""0"",""2489""
","
",478.8,,,,,,,,51,"0,0,0",1,mountain,64,probe-198,0.063837043,0.206407883,0.521499841,0,,,,,,,,
,html-keyboard-response,237,1029418,0.0-126.0-1.0,"""event"",""trial"",""time""
""fullscreenenter"",""0"",""2489""
","
","
","""event"",""trial"",""time""
""fullscreenenter"",""0"",""2489""
","
",null,<p></p>,null,,,,,,,,,,,,,,,,,,,,,,,
,do_trial,238,1034382,0.0-127.0-0.0,"""event"",""trial"",""time""
""fullscreenenter"",""0"",""2489""
","
","
","""event"",""trial"",""time""
""fullscreenenter"",""0"",""2489""
","
",397.1999999,,,,,,,,49,"0,1,1",1,mountain,65,probe-211,0.056594748,0.311843336,0.690186118,0,,,,,,,,
,html-keyboard-response,239,1035387,0.0-127.0-1.0,"""event"",""trial"",""time""
""fullscreenenter"",""0"",""2489""
","
","
","""event"",""trial"",""time""
""fullscreenenter"",""0"",""2489""
","
",null,<p></p>,null,,,,,,,,,,,,,,,,,,,,,,,
,do_trial,240,1040283,0.0-128.0-0.0,"""event"",""trial"",""time""
""fullscreenenter"",""0"",""2489""
","
","
","""event"",""trial"",""time""
""fullscreenenter"",""0"",""2489""
","
",334.3,,,,,,,,50,"1,0,1",1,mountain,66,probe-21,0.097309186,0.474589162,0.647202136,0,,,,,,,,
,html-keyboard-response,241,1041290,0.0-128.0-1.0,"""event"",""trial"",""time""
""fullscreenenter"",""0"",""2489""
","
","
","""event"",""trial"",""time""
""fullscreenenter"",""0"",""2489""
","
",null,<p></p>,null,,,,,,,,,,,,,,,,,,,,,,,
,do_trial,242,1046283,0.0-129.0-0.0,"""event"",""trial"",""time""
""fullscreenenter"",""0"",""2489""
","
","
","""event"",""trial"",""time""
""fullscreenenter"",""0"",""2489""
","
",429.5,,,,,,,,49,"0,0,1",1,mountain,67,probe-20,0.135432268,0.394761491,0.677010159,0,,,,,,,,
,html-keyboard-response,243,1047290,0.0-129.0-1.0,"""event"",""trial"",""time""
""fullscreenenter"",""0"",""2489""
","
","
","""event"",""trial"",""time""
""fullscreenenter"",""0"",""2489""
","
",null,<p></p>,null,,,,,,,,,,,,,,,,,,,,,,,
,do_trial,244,1052275,0.0-130.0-0.0,"""event"",""trial"",""time""
""fullscreenenter"",""0"",""2489""
","
","
","""event"",""trial"",""time""
""fullscreenenter"",""0"",""2489""
","
",419.1999999,,,,,,,,51,"0,0,1",1,mountain,68,probe-178,0.128623491,0.421126768,0.696704673,1,,,,,,,,
,html-keyboard-response,245,1053281,0.0-130.0-1.0,"""event"",""trial"",""time""
""fullscreenenter"",""0"",""2489""
","
","
","""event"",""trial"",""time""
""fullscreenenter"",""0"",""2489""
","
",null,<p></p>,null,,,,,,,,,,,,,,,,,,,,,,,
,do_trial,246,1058740,0.0-131.0-0.0,"""event"",""trial"",""time""
""fullscreenenter"",""0"",""2489""
","
","
","""event"",""trial"",""time""
""fullscreenenter"",""0"",""2489""
","
",889.1,,,,,,,,50,"0,0,1",1,mountain,69,probe-180,0.236345498,0.451238313,0.637770258,0,,,,,,,,
,html-keyboard-response,247,1059745,0.0-131.0-1.0,"""event"",""trial"",""time""
""fullscreenenter"",""0"",""2489""
","
","
","""event"",""trial"",""time""
""fullscreenenter"",""0"",""2489""
","
",null,<p></p>,null,,,,,,,,,,,,,,,,,,,,,,,
,do_bye,248,1061258,0.0-132.0-0.0,"""event"",""trial"",""time""
""fullscreenenter"",""0"",""2489""
","
","
","""event"",""trial"",""time""
""fullscreenenter"",""0"",""2489""
","
",null,,,,,,,,null,,,,,,,,,,,,,,,,,
,break,249,1062992,0.0-132.0-1.0,"""event"",""trial"",""time""
""fullscreenenter"",""0"",""2489""
","
","
","""event"",""trial"",""time""
""fullscreenenter"",""0"",""2489""
","
",1732.8,"<div class='center'><p>Time to take a quick break! You have 2 minutes to rest, but you can move on sooner if you'd like.</p><p> Press the <b>space bar</b> to continue.</p></div>",32,,,,,,,,,,,,,,,,,,,,,,,
,do_travel,250,1072001,0.0-133.0-0.0,"""event"",""trial"",""time""
""fullscreenenter"",""0"",""2489""
","
","
","""event"",""trial"",""time""
""fullscreenenter"",""0"",""2489""
","
",null,,,,,,,,null,,,,,,,,,,,,,,,,,
,do_welcome,251,1076015,0.0-133.0-1.0,"""event"",""trial"",""time""
""fullscreenenter"",""0"",""2489""
","
","
","""event"",""trial"",""time""
""fullscreenenter"",""0"",""2489""
","
",null,,,,,,,,null,,,,,,,,,,,,,,,,,
,do_trial,252,1081198,0.0-134.0-0.0,"""event"",""trial"",""time""
""fullscreenenter"",""0"",""2489""
","
","
","""event"",""trial"",""time""
""fullscreenenter"",""0"",""2489""
","
",617.1999999,,,,,,,,49,"0,0,1",2,highway,70,probe-214,0.176670728,0.520883429,1,0,,,,,,,,
,html-keyboard-response,253,1082202,0.0-134.0-1.0,"""event"",""trial"",""time""
""fullscreenenter"",""0"",""2489""
","
","
","""event"",""trial"",""time""
""fullscreenenter"",""0"",""2489""
","
",null,<p></p>,null,,,,,,,,,,,,,,,,,,,,,,,
,do_trial,254,1087182,0.0-135.0-0.0,"""event"",""trial"",""time""
""fullscreenenter"",""0"",""2489""
","
","
","""event"",""trial"",""time""
""fullscreenenter"",""0"",""2489""
","
",420.1999999,,,,,,,,50,"0,1,1",2,highway,71,probe-152,0.12753808,0.421551885,1,1,,,,,,,,
,html-keyboard-response,255,1088191,0.0-135.0-1.0,"""event"",""trial"",""time""
""fullscreenenter"",""0"",""2489""
","
","
","""event"",""trial"",""time""
""fullscreenenter"",""0"",""2489""
","
",null,<p></p>,null,,,,,,,,,,,,,,,,,,,,,,,
,do_trial,256,1093191,0.0-136.0-0.0,"""event"",""trial"",""time""
""fullscreenenter"",""0"",""2489""
","
","
","""event"",""trial"",""time""
""fullscreenenter"",""0"",""2489""
","
",436.1,,,,,,,,51,"0,1,1",2,highway,72,probe-91,0.091133406,0.433296502,0.913010946,1,,,,,,,,
,html-keyboard-response,257,1094199,0.0-136.0-1.0,"""event"",""trial"",""time""
""fullscreenenter"",""0"",""2489""
","
","
","""event"",""trial"",""time""
""fullscreenenter"",""0"",""2489""
","
",null,<p></p>,null,,,,,,,,,,,,,,,,,,,,,,,
,do_trial,258,1099160,0.0-137.0-0.0,"""event"",""trial"",""time""
""fullscreenenter"",""0"",""2489""
","
","
","""event"",""trial"",""time""
""fullscreenenter"",""0"",""2489""
","
",391.6,,,,,,,,49,"0,0,0",2,highway,73,probe-05,0.110079113,0.491861582,0.724224407,0,,,,,,,,
,html-keyboard-response,259,1100169,0.0-137.0-1.0,"""event"",""trial"",""time""
""fullscreenenter"",""0"",""2489""
","
","
","""event"",""trial"",""time""
""fullscreenenter"",""0"",""2489""
","
",null,<p></p>,null,,,,,,,,,,,,,,,,,,,,,,,
,do_trial,260,1105116,0.0-138.0-0.0,"""event"",""trial"",""time""
""fullscreenenter"",""0"",""2489""
","
","
","""event"",""trial"",""time""
""fullscreenenter"",""0"",""2489""
","
",383.1999999,,,,,,,,50,"0,1,1",2,highway,74,probe-77,0.053141986,0.431428442,0.640218852,1,,,,,,,,
,html-keyboard-response,261,1106123,0.0-138.0-1.0,"""event"",""trial"",""time""
""fullscreenenter"",""0"",""2489""
","
","
","""event"",""trial"",""time""
""fullscreenenter"",""0"",""2489""
","
",null,<p></p>,null,,,,,,,,,,,,,,,,,,,,,,,
,do_trial,262,1111063,0.0-139.0-0.0,"""event"",""trial"",""time""
""fullscreenenter"",""0"",""2489""
","
","
","""event"",""trial"",""time""
""fullscreenenter"",""0"",""2489""
","
",377.3,,,,,,,,51,"0,1,0",2,highway,75,probe-221,0.063803977,0.442135112,0.712419542,0,,,,,,,,
,html-keyboard-response,263,1112070,0.0-139.0-1.0,"""event"",""trial"",""time""
""fullscreenenter"",""0"",""2489""
","
","
","""event"",""trial"",""time""
""fullscreenenter"",""0"",""2489""
","
",null,<p></p>,null,,,,,,,,,,,,,,,,,,,,,,,
,do_trial,264,1117055,0.0-140.0-0.0,"""event"",""trial"",""time""
""fullscreenenter"",""0"",""2489""
","
","
","""event"",""trial"",""time""
""fullscreenenter"",""0"",""2489""
","
",418.6,,,,,,,,49,"0,1,0",2,highway,76,probe-194,0.253701955,0.474242579,0.59481171,0,,,,,,,,
,html-keyboard-response,265,1118061,0.0-140.0-1.0,"""event"",""trial"",""time""
""fullscreenenter"",""0"",""2489""
","
","
","""event"",""trial"",""time""
""fullscreenenter"",""0"",""2489""
","
",null,<p></p>,null,,,,,,,,,,,,,,,,,,,,,,,
,do_trial,266,1123053,0.0-141.0-0.0,"""event"",""trial"",""time""
""fullscreenenter"",""0"",""2489""
","
","
","""event"",""trial"",""time""
""fullscreenenter"",""0"",""2489""
","
",428.5,,,,,,,,50,"1,0,1",2,highway,77,probe-119,0.32000486,0.310234686,0.572157328,0,,,,,,,,
,html-keyboard-response,267,1124059,0.0-141.0-1.0,"""event"",""trial"",""time""
""fullscreenenter"",""0"",""2489""
","
","
","""event"",""trial"",""time""
""fullscreenenter"",""0"",""2489""
","
",null,<p></p>,null,,,,,,,,,,,,,,,,,,,,,,,
,do_trial,268,1129010,0.0-142.0-0.0,"""event"",""trial"",""time""
""fullscreenenter"",""0"",""2489""
","
","
","""event"",""trial"",""time""
""fullscreenenter"",""0"",""2489""
","
",386.5,,,,,,,,49,"0,0,0",2,highway,78,probe-137,0.287106296,0.093244467,0.559804057,0,,,,,,,,
,html-keyboard-response,269,1130016,0.0-142.0-1.0,"""event"",""trial"",""time""
""fullscreenenter"",""0"",""2489""
","
","
","""event"",""trial"",""time""
""fullscreenenter"",""0"",""2489""
","
",null,<p></p>,null,,,,,,,,,,,,,,,,,,,,,,,
,do_trial,270,1135001,0.0-143.0-0.0,"""event"",""trial"",""time""
""fullscreenenter"",""0"",""2489""
","
","
","""event"",""trial"",""time""
""fullscreenenter"",""0"",""2489""
","
",419.4,,,,,,,,50,"0,0,1",2,highway,79,probe-71,0.116679678,0.232824096,0.555399475,0,,,,,,,,
,html-keyboard-response,271,1136006,0.0-143.0-1.0,"""event"",""trial"",""time""
""fullscreenenter"",""0"",""2489""
","
","
","""event"",""trial"",""time""
""fullscreenenter"",""0"",""2489""
","
",null,<p></p>,null,,,,,,,,,,,,,,,,,,,,,,,
,do_trial,272,1141131,0.0-144.0-0.0,"""event"",""trial"",""time""
""fullscreenenter"",""0"",""2489""
","
","
","""event"",""trial"",""time""
""fullscreenenter"",""0"",""2489""
","
",560.1,,,,,,,,51,"0,1,1",2,highway,80,probe-160,0.198729676,0.16859987,0.547542832,1,,,,,,,,
,html-keyboard-response,273,1142139,0.0-144.0-1.0,"""event"",""trial"",""time""
""fullscreenenter"",""0"",""2489""
","
","
","""event"",""trial"",""time""
""fullscreenenter"",""0"",""2489""
","
",null,<p></p>,null,,,,,,,,,,,,,,,,,,,,,,,
,do_trial,274,1147284,0.0-145.0-0.0,"""event"",""trial"",""time""
""fullscreenenter"",""0"",""2489""
","
","
","""event"",""trial"",""time""
""fullscreenenter"",""0"",""2489""
","
",582.4,,,,,,,,49,"0,0,1",2,highway,81,probe-183,0.241018796,0.134408176,0.44498127,0,,,,,,,,
,html-keyboard-response,275,1148291,0.0-145.0-1.0,"""event"",""trial"",""time""
""fullscreenenter"",""0"",""2489""
","
","
","""event"",""trial"",""time""
""fullscreenenter"",""0"",""2489""
","
",null,<p></p>,null,,,,,,,,,,,,,,,,,,,,,,,
,do_trial,276,1154088,0.0-146.0-0.0,"""event"",""trial"",""time""
""fullscreenenter"",""0"",""2489""
","
","
","""event"",""trial"",""time""
""fullscreenenter"",""0"",""2489""
","
",1232.8,,,,,,,,50,"0,0,0",2,highway,82,probe-112,0.435032705,0.114555983,0.334118365,0,,,,,,,,
,html-keyboard-response,277,1155094,0.0-146.0-1.0,"""event"",""trial"",""time""
""fullscreenenter"",""0"",""2489""
","
","
","""event"",""trial"",""time""
""fullscreenenter"",""0"",""2489""
","
",null,<p></p>,null,,,,,,,,,,,,,,,,,,,,,,,
,do_trial,278,1160567,0.0-147.0-0.0,"""event"",""trial"",""time""
""fullscreenenter"",""0"",""2489""
","
","
","""event"",""trial"",""time""
""fullscreenenter"",""0"",""2489""
","
",909.4,,,,,,,,51,"0,0,0",2,highway,83,probe-82,0.475243141,0.350120193,0.082054626,0,,,,,,,,
,html-keyboard-response,279,1161569,0.0-147.0-1.0,"""event"",""trial"",""time""
""fullscreenenter"",""0"",""2489""
","
","
","""event"",""trial"",""time""
""fullscreenenter"",""0"",""2489""
","
",null,<p></p>,null,,,,,,,,,,,,,,,,,,,,,,,
,do_trial,280,1166900,0.0-148.0-0.0,"""event"",""trial"",""time""
""fullscreenenter"",""0"",""2489""
","
","
","""event"",""trial"",""time""
""fullscreenenter"",""0"",""2489""
","
",765.8,,,,,,,,49,"1,0,0",2,highway,84,probe-16,0.562833202,0.343004064,0.145484948,1,,,,,,,,
,html-keyboard-response,281,1167902,0.0-148.0-1.0,"""event"",""trial"",""time""
""fullscreenenter"",""0"",""2489""
","
","
","""event"",""trial"",""time""
""fullscreenenter"",""0"",""2489""
","
",null,<p></p>,null,,,,,,,,,,,,,,,,,,,,,,,
,do_trial,282,1173123,0.0-149.0-0.0,"""event"",""trial"",""time""
""fullscreenenter"",""0"",""2489""
","
","
","""event"",""trial"",""time""
""fullscreenenter"",""0"",""2489""
","
",654.2,,,,,,,,50,"0,0,0",2,highway,85,probe-199,0.483999209,0.427198683,0.107295655,0,,,,,,,,
,html-keyboard-response,283,1174130,0.0-149.0-1.0,"""event"",""trial"",""time""
""fullscreenenter"",""0"",""2489""
","
","
","""event"",""trial"",""time""
""fullscreenenter"",""0"",""2489""
","
",null,<p></p>,null,,,,,,,,,,,,,,,,,,,,,,,
,do_trial,284,1179399,0.0-150.0-0.0,"""event"",""trial"",""time""
""fullscreenenter"",""0"",""2489""
","
","
","""event"",""trial"",""time""
""fullscreenenter"",""0"",""2489""
","
",705.6999999,,,,,,,,51,"1,0,0",2,highway,86,probe-52,0.406570442,0.301616182,0.070935423,0,,,,,,,,
,html-keyboard-response,285,1180405,0.0-150.0-1.0,"""event"",""trial"",""time""
""fullscreenenter"",""0"",""2489""
","
","
","""event"",""trial"",""time""
""fullscreenenter"",""0"",""2489""
","
",null,<p></p>,null,,,,,,,,,,,,,,,,,,,,,,,
,do_trial,286,1185648,0.0-151.0-0.0,"""event"",""trial"",""time""
""fullscreenenter"",""0"",""2489""
","
","
","""event"",""trial"",""time""
""fullscreenenter"",""0"",""2489""
","
",679.0999999,,,,,,,,49,"0,0,0",2,highway,87,probe-47,0.451421075,0.383725489,0.093634033,0,,,,,,,,
,html-keyboard-response,287,1186655,0.0-151.0-1.0,"""event"",""trial"",""time""
""fullscreenenter"",""0"",""2489""
","
","
","""event"",""trial"",""time""
""fullscreenenter"",""0"",""2489""
","
",null,<p></p>,null,,,,,,,,,,,,,,,,,,,,,,,
,do_trial,288,1191591,0.0-152.0-0.0,"""event"",""trial"",""time""
""fullscreenenter"",""0"",""2489""
","
","
","""event"",""trial"",""time""
""fullscreenenter"",""0"",""2489""
","
",372.9000001,,,,,,,,50,"1,1,0",2,highway,88,probe-69,0.574305064,0.34389327,0.115060124,1,,,,,,,,
,html-keyboard-response,289,1192597,0.0-152.0-1.0,"""event"",""trial"",""time""
""fullscreenenter"",""0"",""2489""
","
","
","""event"",""trial"",""time""
""fullscreenenter"",""0"",""2489""
","
",null,<p></p>,null,,,,,,,,,,,,,,,,,,,,,,,
,do_trial,290,1198438,0.0-153.0-0.0,"""event"",""trial"",""time""
""fullscreenenter"",""0"",""2489""
","
","
","""event"",""trial"",""time""
""fullscreenenter"",""0"",""2489""
","
",1274.1,,,,,,,,51,"1,0,0",2,highway,89,probe-131,0.62404694,0.289487112,0.097822738,0,,,,,,,,
,html-keyboard-response,291,1199447,0.0-153.0-1.0,"""event"",""trial"",""time""
""fullscreenenter"",""0"",""2489""
","
","
","""event"",""trial"",""time""
""fullscreenenter"",""0"",""2489""
","
",null,<p></p>,null,,,,,,,,,,,,,,,,,,,,,,,
,do_trial,292,1205324,0.0-154.0-0.0,"""event"",""trial"",""time""
""fullscreenenter"",""0"",""2489""
","
","
","""event"",""trial"",""time""
""fullscreenenter"",""0"",""2489""
","
",1315.9,,,,,,,,49,"1,1,0",2,highway,90,probe-210,0.627695578,0.354248419,0.169104326,1,,,,,,,,
,html-keyboard-response,293,1206331,0.0-154.0-1.0,"""event"",""trial"",""time""
""fullscreenenter"",""0"",""2489""
","
","
","""event"",""trial"",""time""
""fullscreenenter"",""0"",""2489""
","
",null,<p></p>,null,,,,,,,,,,,,,,,,,,,,,,,
,do_trial,294,1211845,0.0-155.0-0.0,"""event"",""trial"",""time""
""fullscreenenter"",""0"",""2489""
","
","
","""event"",""trial"",""time""
""fullscreenenter"",""0"",""2489""
","
",941.5999999,,,,,,,,50,"1,0,0",2,highway,91,probe-179,0.702675147,0.338892138,0.231492668,0,,,,,,,,
,html-keyboard-response,295,1212852,0.0-155.0-1.0,"""event"",""trial"",""time""
""fullscreenenter"",""0"",""2489""
","
","
","""event"",""trial"",""time""
""fullscreenenter"",""0"",""2489""
","
",null,<p></p>,null,,,,,,,,,,,,,,,,,,,,,,,
,do_trial,296,1218725,0.0-156.0-0.0,"""event"",""trial"",""time""
""fullscreenenter"",""0"",""2489""
","
","
","""event"",""trial"",""time""
""fullscreenenter"",""0"",""2489""
","
",1310.6,,,,,,,,51,"1,0,0",2,highway,92,probe-205,0.604131912,0.231761868,0.13304125,0,,,,,,,,
,html-keyboard-response,297,1219733,0.0-156.0-1.0,"""event"",""trial"",""time""
""fullscreenenter"",""0"",""2489""
","
","
","""event"",""trial"",""time""
""fullscreenenter"",""0"",""2489""
","
",null,<p></p>,null,,,,,,,,,,,,,,,,,,,,,,,
,do_trial,298,1224487,0.0-157.0-0.0,"""event"",""trial"",""time""
""fullscreenenter"",""0"",""2489""
","
","
","""event"",""trial"",""time""
""fullscreenenter"",""0"",""2489""
","
",187.5,,,,,,,,49,"1,0,0",2,highway,93,probe-30,0.61627846,0.292397771,0.068160917,1,,,,,,,,
,html-keyboard-response,299,1225494,0.0-157.0-1.0,"""event"",""trial"",""time""
""fullscreenenter"",""0"",""2489""
","
","
","""event"",""trial"",""time""
""fullscreenenter"",""0"",""2489""
","
",null,<p></p>,null,,,,,,,,,,,,,,,,,,,,,,,
,do_trial,300,1230059,0.0-158.0-0.0,"""event"",""trial"",""time""
""fullscreenenter"",""0"",""2489""
","
","
","""event"",""trial"",""time""
""fullscreenenter"",""0"",""2489""
","
",0.199999928,,,,,,,,50,"1,1,1",2,highway,94,probe-139,0.717487469,0.382511017,0.154888217,1,,,,,,,,
,html-keyboard-response,301,1231065,0.0-158.0-1.0,"""event"",""trial"",""time""
""fullscreenenter"",""0"",""2489""
","
","
","""event"",""trial"",""time""
""fullscreenenter"",""0"",""2489""
","
",null,<p></p>,null,,,,,,,,,,,,,,,,,,,,,,,
,do_trial,302,1237105,0.0-159.0-0.0,"""event"",""trial"",""time""
""fullscreenenter"",""0"",""2489""
","
","
","""event"",""trial"",""time""
""fullscreenenter"",""0"",""2489""
","
",1476.1,,,,,,,,51,"0,0,0",2,highway,95,probe-24,0.664420092,0.391121544,0.153714649,0,,,,,,,,
,html-keyboard-response,303,1238112,0.0-159.0-1.0,"""event"",""trial"",""time""
""fullscreenenter"",""0"",""2489""
","
","
","""event"",""trial"",""time""
""fullscreenenter"",""0"",""2489""
","
",null,<p></p>,null,,,,,,,,,,,,,,,,,,,,,,,
,do_trial,304,1242805,0.0-160.0-0.0,"""event"",""trial"",""time""
""fullscreenenter"",""0"",""2489""
","
","
","""event"",""trial"",""time""
""fullscreenenter"",""0"",""2489""
","
",127.5,,,,,,,,50,"1,1,0",2,highway,96,probe-189,0.602004992,0.326550171,0.139822105,1,,,,,,,,
,html-keyboard-response,305,1243811,0.0-160.0-1.0,"""event"",""trial"",""time""
""fullscreenenter"",""0"",""2489""
","
","
","""event"",""trial"",""time""
""fullscreenenter"",""0"",""2489""
","
",null,<p></p>,null,,,,,,,,,,,,,,,,,,,,,,,
,do_trial,306,1250925,0.0-161.0-0.0,"""event"",""trial"",""time""
""fullscreenenter"",""0"",""2489""
","
","
","""event"",""trial"",""time""
""fullscreenenter"",""0"",""2489""
","
",2552.7,,,,,,,,50,"1,0,0",2,highway,97,probe-32,0.63195728,0.289095573,0.061744863,0,,,,,,,,
,html-keyboard-response,307,1251931,0.0-161.0-1.0,"""event"",""trial"",""time""
""fullscreenenter"",""0"",""2489""
","
","
","""event"",""trial"",""time""
""fullscreenenter"",""0"",""2489""
","
",null,<p></p>,null,,,,,,,,,,,,,,,,,,,,,,,
,do_trial,308,1257142,0.0-162.0-0.0,"""event"",""trial"",""time""
""fullscreenenter"",""0"",""2489""
","
","
","""event"",""trial"",""time""
""fullscreenenter"",""0"",""2489""
","
",647.1999999,,,,,,,,49,"0,0,0",2,highway,98,probe-06,0.655944535,0.279967456,0.061748564,0,,,,,,,,
,html-keyboard-response,309,1258148,0.0-162.0-1.0,"""event"",""trial"",""time""
""fullscreenenter"",""0"",""2489""
","
","
","""event"",""trial"",""time""
""fullscreenenter"",""0"",""2489""
","
",null,<p></p>,null,,,,,,,,,,,,,,,,,,,,,,,
,do_trial,310,1262830,0.0-163.0-0.0,"""event"",""trial"",""time""
""fullscreenenter"",""0"",""2489""
","
","
","""event"",""trial"",""time""
""fullscreenenter"",""0"",""2489""
","
",116.7,,,,,,,,50,"1,1,0",2,highway,99,probe-81,0.633897057,0.274610798,0.079272595,1,,,,,,,,
,html-keyboard-response,311,1263839,0.0-163.0-1.0,"""event"",""trial"",""time""
""fullscreenenter"",""0"",""2489""
","
","
","""event"",""trial"",""time""
""fullscreenenter"",""0"",""2489""
","
",null,<p></p>,null,,,,,,,,,,,,,,,,,,,,,,,
,do_trial,312,1268922,0.0-164.0-0.0,"""event"",""trial"",""time""
""fullscreenenter"",""0"",""2489""
","
","
","""event"",""trial"",""time""
""fullscreenenter"",""0"",""2489""
","
",520.4000001,,,,,,,,51,"0,0,0",2,highway,100,probe-150,0.606215245,0.213204892,0.07156197,0,,,,,,,,
,html-keyboard-response,313,1269930,0.0-164.0-1.0,"""event"",""trial"",""time""
""fullscreenenter"",""0"",""2489""
","
","
","""event"",""trial"",""time""
""fullscreenenter"",""0"",""2489""
","
",null,<p></p>,null,,,,,,,,,,,,,,,,,,,,,,,
,do_trial,314,1275998,0.0-165.0-0.0,"""event"",""trial"",""time""
""fullscreenenter"",""0"",""2489""
","
","
","""event"",""trial"",""time""
""fullscreenenter"",""0"",""2489""
","
",null,,,,,,,,null,"1,0,0",2,highway,101,probe-60,0.46403496,0.231137099,0.062708107,,,,,,,,,
,html-keyboard-response,315,1277006,0.0-165.0-1.0,"""event"",""trial"",""time""
""fullscreenenter"",""0"",""2489""
","
","
","""event"",""trial"",""time""
""fullscreenenter"",""0"",""2489""
","
",null,<p></p>,null,,,,,,,,,,,,,,,,,,,,,,,
,do_trial,316,1284272,0.0-166.0-0.0,"""event"",""trial"",""time""
""fullscreenenter"",""0"",""2489""
","
","
","""event"",""trial"",""time""
""fullscreenenter"",""0"",""2489""
","
",2703,,,,,,,,49,"0,0,1",2,highway,102,probe-61,0.515891245,0.288533628,0.259450893,0,,,,,,,,
,html-keyboard-response,317,1285276,0.0-166.0-1.0,"""event"",""trial"",""time""
""fullscreenenter"",""0"",""2489""
","
","
","""event"",""trial"",""time""
""fullscreenenter"",""0"",""2489""
","
",null,<p></p>,null,,,,,,,,,,,,,,,,,,,,,,,
,do_trial,318,1292528,0.0-167.0-0.0,"""event"",""trial"",""time""
""fullscreenenter"",""0"",""2489""
","
","
","""event"",""trial"",""time""
""fullscreenenter"",""0"",""2489""
","
",2684.1,,,,,,,,49,"1,1,0",2,highway,103,probe-104,0.582337869,0.287845471,0.120896836,1,,,,,,,,
,html-keyboard-response,319,1293535,0.0-167.0-1.0,"""event"",""trial"",""time""
""fullscreenenter"",""0"",""2489""
","
","
","""event"",""trial"",""time""
""fullscreenenter"",""0"",""2489""
","
",null,<p></p>,null,,,,,,,,,,,,,,,,,,,,,,,
,do_trial,320,1298549,0.0-168.0-0.0,"""event"",""trial"",""time""
""fullscreenenter"",""0"",""2489""
","
","
","""event"",""trial"",""time""
""fullscreenenter"",""0"",""2489""
","
",442.5,,,,,,,,50,"1,1,0",2,highway,104,probe-113,0.497469592,0.168569243,0.082385792,1,,,,,,,,
,html-keyboard-response,321,1299557,0.0-168.0-1.0,"""event"",""trial"",""time""
""fullscreenenter"",""0"",""2489""
","
","
","""event"",""trial"",""time""
""fullscreenenter"",""0"",""2489""
","
",null,<p></p>,null,,,,,,,,,,,,,,,,,,,,,,,
,do_trial,322,1304591,0.0-169.0-0.0,"""event"",""trial"",""time""
""fullscreenenter"",""0"",""2489""
","
","
","""event"",""trial"",""time""
""fullscreenenter"",""0"",""2489""
","
",461.6,,,,,,,,49,"0,0,0",2,highway,105,probe-56,0.590433355,0.240208425,0.103125498,0,,,,,,,,
,html-keyboard-response,323,1305595,0.0-169.0-1.0,"""event"",""trial"",""time""
""fullscreenenter"",""0"",""2489""
","
","
","""event"",""trial"",""time""
""fullscreenenter"",""0"",""2489""
","
",null,<p></p>,null,,,,,,,,,,,,,,,,,,,,,,,
,do_trial,324,1311673,0.0-170.0-0.0,"""event"",""trial"",""time""
""fullscreenenter"",""0"",""2489""
","
","
","""event"",""trial"",""time""
""fullscreenenter"",""0"",""2489""
","
",null,,,,,,,,null,"1,0,0",2,highway,106,probe-121,0.499433801,0.297661515,0.132407146,,,,,,,,,
,html-keyboard-response,325,1312682,0.0-170.0-1.0,"""event"",""trial"",""time""
""fullscreenenter"",""0"",""2489""
","
","
","""event"",""trial"",""time""
""fullscreenenter"",""0"",""2489""
","
",null,<p></p>,null,,,,,,,,,,,,,,,,,,,,,,,
,do_trial,326,1320001,0.0-171.0-0.0,"""event"",""trial"",""time""
""fullscreenenter"",""0"",""2489""
","
","
","""event"",""trial"",""time""
""fullscreenenter"",""0"",""2489""
","
",2680.8,,,,,,,,49,"1,0,0",2,highway,107,probe-79,0.580352983,0.357864123,0.12266557,1,,,,,,,,
,html-keyboard-response,327,1321008,0.0-171.0-1.0,"""event"",""trial"",""time""
""fullscreenenter"",""0"",""2489""
","
","
","""event"",""trial"",""time""
""fullscreenenter"",""0"",""2489""
","
",null,<p></p>,null,,,,,,,,,,,,,,,,,,,,,,,
,do_trial,328,1326365,0.0-172.0-0.0,"""event"",""trial"",""time""
""fullscreenenter"",""0"",""2489""
","
","
","""event"",""trial"",""time""
""fullscreenenter"",""0"",""2489""
","
",776.1999999,,,,,,,,49,"1,0,1",2,highway,108,probe-203,0.587804028,0.267043025,0.065036212,1,,,,,,,,
,html-keyboard-response,329,1327370,0.0-172.0-1.0,"""event"",""trial"",""time""
""fullscreenenter"",""0"",""2489""
","
","
","""event"",""trial"",""time""
""fullscreenenter"",""0"",""2489""
","
",null,<p></p>,null,,,,,,,,,,,,,,,,,,,,,,,
