success,trial_type,trial_index,time_elapsed,internal_node_id,rt,stimulus,key_press,subject_id,participant_id,age,gender,prompt,response,choice_outcomes,context_n,context_img_id,trial_n,probe_img_id,pR_red,pR_white,pR_black,outcome,contextArray_ind,validImageProbes,invalidImageProbes,pRew_Red,pRew_White,pRew_Black,availableForMemProbe,choice_blocks
TRUE,fullscreen,0,2809,0.0-0.0,,,,,,,,,,,,,,,,,,,,,,,,,,
,pavlovia,1,2811,0.0-1.0,,,,,,,,,,,,,,,,,,,,,,,,,,
,instruc1,2,58904,0.0-2.0,null,run_exp/static/audio/clip_1_welcome.m4a,null,66,230,11,female,"<div class='center'><p>Welcome! This is the first part of the experiment. It will last ~30 minutes. In this experiment, you are the head captain of a pirate ship traveling around the world to different islands. You will play a few different games during this experiment. Here is an overview of these games:</p><br><p>Part 1 (today)</p><p>1. Instructions, practice game, and quiz</p><p>2. Pick a pirate game on 6 different islands</p><br><p>Part 2 (1 day later)</p><p>3. Pick a pirate game and memory game</p><p>4. Where did I see this ship? game</p><p>5. Which pirate was the best? game</p><br><p>Part 3 (1 week later)</p><p>6. Alien space mining game</p><p>7. Memory game</p></div>",,,,,,,,,,,,,,,,,,
,html-keyboard-response,3,59067,0.0-3.0,158.0999999,"<div class='center'><p>Welcome! This is the first part of the experiment. It will last ~30 minutes. In this experiment, you are the head captain of a pirate ship traveling around the world to different islands. You will play a few different games during this experiment. Here is an overview of these games:</p><br><p>Part 1 (today)</p><p>1. Instructions, practice game, and quiz</p><p>2. Pick a pirate game on 6 different islands</p><br><p>Part 2 (1 day later)</p><p>3. Pick a pirate game and memory game</p><p>4. Where did I see this ship? game</p><p>5. Which pirate was the best? game</p><br><p>Part 3 (1 week later)</p><p>6. Alien space mining game</p><p>7. Memory game</p><p><b>[Press the space bar to continue]</b></p></div>",32,,,,,,,,,,,,,,,,,,,,,,,
,instruc2,4,67077,0.0-4.0,null,run_exp/static/audio/clip_2_different_places.m4a,null,,,,,"<div class='center'><p>Today, you’ll visit these 6 islands on your journey. You'll be able to see these islands from your ship.</p><p><img src='run_exp/static/images/contexts/all_contexts.png' height='500'></p></div>",,,,,,,,,,,,,,,,,,
,html-keyboard-response,5,67617,0.0-5.0,538.8000002,"<div class='center'><p>Today, you’ll visit these 6 islands on your journey. You'll be able to see these islands from your ship.</p><p><img src='run_exp/static/images/contexts/all_contexts.png' height='500'></p><p><b>[Press the space bar to continue]</b></p></div>",32,,,,,,,,,,,,,,,,,,,,,,,
,instruc3,6,80196,0.0-6.0,null,run_exp/static/audio/clip_3_goal_of_game_1.m4a,null,,,,,"<div class='center'><p> The pirates on your ship will rob other ships as they leave the island</p> These ships have just sold their things to people on the island, so they will be filled with lots and lots of gold.</p><p><img src='run_exp/static/images/tutorial/ship_center.png' height='400'></p></div>",,,,,,,,,,,,,,,,,,
,html-keyboard-response,7,82018,0.0-7.0,1820.6,"<div class='center'><p> The pirates on your ship will rob other ships as they leave the island</p> These ships have just sold their things to people on the island, so they will be filled with lots and lots of gold.</p><p><img src='run_exp/static/images/tutorial/ship_center.png' height='400'></p><p><b>[Press the space bar to continue]</b></p></div>",32,,,,,,,,,,,,,,,,,,,,,,,
,instruc4,8,115258,0.0-8.0,null,run_exp/static/audio/clip_4_goal_of_game_2.m4a,null,,,,,"<div class='center'><p>As the head captain, you do not have to rob any ships yourself.</p><p>Another pirate will be doing the robbing for you. </p><p>First, you will  choose a pirate to rob the next ship.</p><p><img src='run_exp/static/images/tutorial/pirates_all_crop.png' height='200'></p><p>Then, you'll see if the pirate successfully robbed the ship of their gold. If they were successful, then you'll  get a stack of gold coins like this:</p><p><img src='run_exp/static/images/tutorial/reward.png' height='150'></p><p> If they were <b>not</b> successful, then you'll get no gold coins, and you'll see a big red x like this: </p><p><img src='run_exp/static/images/tutorial/reward_no.png' height='150'></p><p> How much bonus money you make is based on how many gold coins you collect.</p><div>",,,,,,,,,,,,,,,,,,
,html-keyboard-response,9,116917,0.0-9.0,1658,"<div class='center'><p>As the head captain, you do not have to rob any ships yourself.</p><p>Another pirate will be doing the robbing for you. </p><p>First, you will  choose a pirate to rob the next ship.</p><p><img src='run_exp/static/images/tutorial/pirates_all_crop.png' height='200'></p><p>Then, you'll see if the pirate successfully robbed the ship of their gold. If they were successful, then you'll  get a stack of gold coins like this:</p><p><img src='run_exp/static/images/tutorial/reward.png' height='150'></p><p> If they were <b>not</b> successful, then you'll get no gold coins, and you'll see a big red x like this: </p><p><img src='run_exp/static/images/tutorial/reward_no.png' height='150'></p><p> How much bonus money you make is based on how many gold coins you collect.</p<p><b>[Press the space bar to continue]</b></p></div>",32,,,,,,,,,,,,,,,,,,,,,,,
,instruc5,10,144444,0.0-10.0,27527.5,run_exp/static/audio/clip_5_probabilistic.m4a,49,,,,,"<div class='center'><p>Even the most skilled pirate can not rob EVERY ship.</p><p> Some ships will have very strong protections against pirate attacks.</p><p> Blue beard, here, is very, very good at robbing ships, but he won't be successful every time he tries to rob one.</p><p> You can press the <b>‘1’</b> key on the keyboard to choose him.</p><p> Try choosing him 10 times to see how often he succeeds at robbing a ship. </p><p><img src='run_exp/static/images/tutorial/blue.png' height='500'></p></div>",,,,,,,,,,,,,,,,,,
,html-keyboard-response,11,145946,0.0-11.0,null,<div class='center'><p><img src='run_exp/static/images/tutorial/blue_win.png' height='500'></p></div>,null,,,,,,,,,,,,,,,,,,,,,,,
,html-keyboard-response,12,146627,0.0-12.0,679.9000001,<div class='center'><img src='run_exp/static/images/tutorial/blue.png' height='500'></p></div>,49,,,,,,,,,,,,,,,,,,,,,,,
,html-keyboard-response,13,148129,0.0-13.0,null,<div class='center'><p><img src='run_exp/static/images/tutorial/blue_win.png' height='500'></p></div>,null,,,,,,,,,,,,,,,,,,,,,,,
,html-keyboard-response,14,148899,0.0-14.0,769.2999997,<div class='center'><img src='run_exp/static/images/tutorial/blue.png' height='500'></p></div>,49,,,,,,,,,,,,,,,,,,,,,,,
,html-keyboard-response,15,150402,0.0-15.0,null,<div class='center'><p><img src='run_exp/static/images/tutorial/blue_win.png' height='500'></p></div>,null,,,,,,,,,,,,,,,,,,,,,,,
,html-keyboard-response,16,150812,0.0-16.0,409.1000004,<div class='center'><img src='run_exp/static/images/tutorial/blue.png' height='500'></p></div>,49,,,,,,,,,,,,,,,,,,,,,,,
,html-keyboard-response,17,152314,0.0-17.0,null,<div class='center'><p><img src='run_exp/static/images/tutorial/blue_no_win.png' height='500'></p></div>,null,,,,,,,,,,,,,,,,,,,,,,,
,html-keyboard-response,18,152679,0.0-18.0,364.1999998,<div class='center'><img src='run_exp/static/images/tutorial/blue.png' height='500'></p></div>,49,,,,,,,,,,,,,,,,,,,,,,,
,html-keyboard-response,19,154185,0.0-19.0,null,<div class='center'><p><img src='run_exp/static/images/tutorial/blue_win.png' height='500'></p></div>,null,,,,,,,,,,,,,,,,,,,,,,,
,html-keyboard-response,20,154524,0.0-20.0,338.2999997,<div class='center'><img src='run_exp/static/images/tutorial/blue.png' height='500'></p></div>,49,,,,,,,,,,,,,,,,,,,,,,,
,html-keyboard-response,21,156029,0.0-21.0,null,<div class='center'><p><img src='run_exp/static/images/tutorial/blue_win.png' height='500'></p></div>,null,,,,,,,,,,,,,,,,,,,,,,,
,html-keyboard-response,22,156482,0.0-22.0,452.0999999,<div class='center'><img src='run_exp/static/images/tutorial/blue.png' height='500'></p></div>,49,,,,,,,,,,,,,,,,,,,,,,,
,html-keyboard-response,23,157987,0.0-23.0,null,<div class='center'><p><img src='run_exp/static/images/tutorial/blue_win.png' height='500'></p></div>,null,,,,,,,,,,,,,,,,,,,,,,,
,html-keyboard-response,24,158326,0.0-24.0,338.3000002,<div class='center'><img src='run_exp/static/images/tutorial/blue.png' height='500'></p></div>,49,,,,,,,,,,,,,,,,,,,,,,,
,html-keyboard-response,25,159827,0.0-25.0,null,<div class='center'><p><img src='run_exp/static/images/tutorial/blue_no_win.png' height='500'></p></div>,null,,,,,,,,,,,,,,,,,,,,,,,
,html-keyboard-response,26,163456,0.0-26.0,3628.3,<div class='center'><img src='run_exp/static/images/tutorial/blue.png' height='500'></p></div>,49,,,,,,,,,,,,,,,,,,,,,,,
,html-keyboard-response,27,164958,0.0-27.0,null,<div class='center'><p><img src='run_exp/static/images/tutorial/blue_win.png' height='500'></p></div>,null,,,,,,,,,,,,,,,,,,,,,,,
,html-keyboard-response,28,165324,0.0-28.0,365.4000001,<div class='center'><img src='run_exp/static/images/tutorial/blue.png' height='500'></p></div>,49,,,,,,,,,,,,,,,,,,,,,,,
,html-keyboard-response,29,166830,0.0-29.0,null,<div class='center'><p><img src='run_exp/static/images/tutorial/blue_win.png' height='500'></p></div>,null,,,,,,,,,,,,,,,,,,,,,,,
,instruc6,30,173469,0.0-30.0,null,run_exp/static/audio/clip_6_blue_beard_outcome.m4a,null,,,,,"<div class='center'><p> See, he succeeded in robbing the ships most of the time but not every time. </p></div>",,,,,,,,,,,,,,,,,,
,html-keyboard-response,31,176642,0.0-31.0,3172.5,"<div class='center'><p> See, he succeeded in robbing the ships most of the time but not every time. </p><p><b>[Press the space bar to continue]</b></p></div>",32,,,,,,,,,,,,,,,,,,,,,,,
,audio-keyboard-response,32,195757,0.0-32.0,19113.9,run_exp/static/audio/clip_7_pick_pirate.m4a,49,,,,,,,,,,,,,,,,,,,,,,,
,audio-keyboard-response,33,198029,0.0-33.0-0.0,2270.9,run_exp/static/audio/clip_8_chosen_pirate_win.m4a,32,,,,,,,,,,,,,,,,,,,,,,,
,audio-keyboard-response,34,200583,0.0-33.0-1.0,2553.2,run_exp/static/audio/clip_9_pick_a_pirate_again.m4a,49,,,,,,,,,,,,,,,,,,,,,,,
,audio-keyboard-response,35,202439,0.0-34.0-0.0,1855.1,run_exp/static/audio/clip_10_chosen_pirate_loss.m4a,32,,,,,,,,,,,,,,,,,,,,,,,
,instruc9,36,209575,0.0-35.0-0.0,null,run_exp/static/audio/clip_11_time_out.m4a,null,,,,,"<div class='center'><p>If you don’t make your choice fast enough, you’ll have to wait a few seconds before you can make another one. </p><p><img src='run_exp/static/images/miscellaneous/hurry_up.png' height='500'></p></div>",,,,,,,,,,,,,,,,,,
,html-keyboard-response,37,211091,0.0-35.0-1.0,1514.9,"<div class='center'><p>If you don’t make your choice fast enough, you’ll have to wait a few seconds before you can make another one. </p><p><img src='run_exp/static/images/miscellaneous/hurry_up.png' height='500'></p><p><b>[Press the space bar to continue]</b></p></div>",32,,,,,,,,,,,,,,,,,,,,,,,
,instruc10,38,259730,0.0-35.0-2.0,null,run_exp/static/audio/clip_12_probe.m4a,null,,,,,"<div class='center'><p>Once you've choose a pirate, you’ll be shown the ship they are robbing.</p><p>You will never rob the same ship twice. After all, ships that have already been robbed won’t have gold on them. </p><p>Ships can be told apart from one another by the image on them. See, this one has a travel mug on it. </p><p> You’ll have to remember which island you saw each ship on.You will win more bonus money if you remember correctly! To help you remember, you can imagine a story. For example, here, you could imagine a mug full of water in the desert. Or, as another example, if on the forest island, your pirate robbed a ship with an apple on it, you could imagine an apple falling from a tree in the forest. </p><p><img src='run_exp/static/images/tutorial/example_probe.png' height='500'></p></div>",,,,,,,,,,,,,,,,,,
,html-keyboard-response,39,262594,0.0-35.0-3.0,2863.2,"<div class='center'><p>Once you've choose a pirate, you’ll be shown the ship they are robbing.</p><p>You will never rob the same ship twice. After all, ships that have already been robbed won’t have gold on them. </p><p>Ships can be told apart from one another by the image on them. See, this one has a travel mug on it. </p><p> You’ll have to remember which island you saw each ship on.You will win more bonus money if you remember correctly! To help you remember, you can imagine a story. For example, here, you could imagine a mug full of water in the desert. Or, as another example, if on the forest island, your pirate robbed a ship with an apple on it, you could imagine an apple falling from a tree in the forest. </p><p><img src='run_exp/static/images/tutorial/example_probe.png' height='500'></p><p><b>[Press the space bar to continue]</b></p></div>",32,,,,,,,,,,,,,,,,,,,,,,,
,instruc11,40,283487,0.0-35.0-4.0,null,run_exp/static/audio/clip_13_changepoint.m4a,null,,,,,"<div class='center'><p>How successful a pirate is at robbing ships will depend on the island you’re on.</p><p> A pirate may have visited this island many times before and gained a lot of practice robbing ships there.</p><p>So, they’re more likely to be successful than a pirate who has never visited the island before.</p></div>",,,,,,,,,,,,,,,,,,
,html-keyboard-response,41,284535,0.0-35.0-5.0,1047.1,"<div class='center'><p>How successful a pirate is at robbing ships will depend on the island you’re on.</p><p> A pirate may have visited this island many times before and gained a lot of practice robbing ships there.</p><p>So, they’re more likely to be successful than a pirate who has never visited the island before.</p><p><b>[Press the space bar to continue]</b></p></div>",32,,,,,,,,,,,,,,,,,,,,,,,
,instruc12,42,312561,0.0-35.0-6.0,null,run_exp/static/audio/clip_14_drift.m4a,null,,,,,"<div class='center'><p>How successful a pirate is at robbing ships can also change over the time spent on the island. </p><p> Ships may hear from islanders about the pirates coming and will improve their protections against the attack. This may make it harder to rob them.</p><p> Ships may also become lazy and weaken the strength of their protections. This may make it easier to rob them.</p><br><p>Things are always changing on the high seas! So, try your best to pay attention!</p><p><img src='run_exp/static/images/tutorial/contingency.png' height='500'></p></div>",,,,,,,,,,,,,,,,,,
,html-keyboard-response,43,313530,0.0-35.0-7.0,968.3000002,"<div class='center'><p>How successful a pirate is at robbing ships can also change over the time spent on the island. </p><p> Ships may hear from islanders about the pirates coming and will improve their protections against the attack. This may make it harder to rob them.</p><p> Ships may also become lazy and weaken the strength of their protections. This may make it easier to rob them.</p><br><p>Things are always changing on the high seas! So, try your best to pay attention!</p><p><img src='run_exp/static/images/tutorial/contingency.png' height='500'></p><p><b>[Press the space bar to continue]</b></p></div>",32,,,,,,,,,,,,,,,,,,,,,,,
,instruc13,44,358188,0.0-35.0-8.0,null,run_exp/static/audio/clip_15_summary.m4a,null,,,,,"<div class='center'><p>Let's go over the instructions quickly again. You have two important things to do: </p><b><p> 1. Pick the pirate who is the best at robbing ships on the current island. This way you'll collect more gold coins!</p></b><b><p> 2. Remember on which island a ship was robbed.</p> </b><p>The amount of bonus money you can win depends on both.</p><p><br><p>Let’s try a practice game. The game will start by showing you the pirates. First, pick a pirate using the <b> 1, 2, 3 </b> keys on your keyboard. When you are shown a ship, try to remember which island you’re on by making up a story.</p><p>This is just a practice game, so you’re not playing for money. </p><p> Good luck!</p></div>",,,,,,,,,,,,,,,,,,
,html-keyboard-response,45,358835,0.0-35.0-9.0,646.1999998,"<div class='center'><p>Let's go over the instructions quickly again. You have two important things to do: </p><b><p> 1. Pick the pirate who is the best at robbing ships on the current island. This way you'll collect more gold coins!</p></b><b><p> 2. Remember on which island a ship was robbed.</p> </b><p>The amount of bonus money you can win depends on both.</p><p><br><p>Let’s try a practice game. The game will start by showing you the pirates. First, pick a pirate using the <b> 1, 2, 3 </b> keys on your keyboard. When you are shown a ship, try to remember which island you’re on by making up a story.</p><p>This is just a practice game, so you’re not playing for money. </p><p> Good luck!</p><p><b>[Press the space bar to continue]</b></p></div>",32,,,,,,,,,,,,,,,,,,,,,,,
,do_welcome,46,360339,0.0-35.0-10.0,null,,,,,,,,null,,,,,,,,,,,,,,,,,
,do_trial,47,366735,0.0-35.0-11.0,1889.9,,,,,,,,49,"1,0,0",,,,,,,,,,,,,,,,
,html-keyboard-response,48,367739,0.0-36.0-0.0,null,<p></p>,null,,,,,,,,,,,,,,,,,,,,,,,
,do_trial,49,372654,0.0-36.0-1.0,407.5,,,,,,,,49,"1,1,0",,,,,,,,,,,,,,,,
,html-keyboard-response,50,373656,0.0-37.0-0.0,null,<p></p>,null,,,,,,,,,,,,,,,,,,,,,,,
,do_trial,51,378730,0.0-37.0-1.0,565.3000002,,,,,,,,49,"1,0,1",,,,,,,,,,,,,,,,
,html-keyboard-response,52,379734,0.0-38.0-0.0,null,<p></p>,null,,,,,,,,,,,,,,,,,,,,,,,
,do_trial,53,384737,0.0-38.0-1.0,495.2999997,,,,,,,,49,"0,1,0",,,,,,,,,,,,,,,,
,html-keyboard-response,54,385743,0.0-39.0-0.0,null,<p></p>,null,,,,,,,,,,,,,,,,,,,,,,,
,do_trial,55,391083,0.0-39.0-1.0,831.3999996,,,,,,,,50,"1,0,0",,,,,,,,,,,,,,,,
,do_bye,56,392589,0.0-40.0-0.0,null,,,,,,,,null,,,,,,,,,,,,,,,,,
,do_travel,57,398595,0.0-40.0-1.0,null,,,,,,,,null,,,,,,,,,,,,,,,,,
,do_welcome,58,400103,0.0-40.0-2.0,null,,,,,,,,null,,,,,,,,,,,,,,,,,
,do_trial,59,406066,0.0-40.0-3.0,1456.5,,,,,,,,49,"1,0,0",,,,,,,,,,,,,,,,
,html-keyboard-response,60,407069,0.0-41.0-0.0,null,<p></p>,null,,,,,,,,,,,,,,,,,,,,,,,
,do_trial,61,411941,0.0-41.0-1.0,363.3999996,,,,,,,,49,"1,0,1",,,,,,,,,,,,,,,,
,html-keyboard-response,62,412945,0.0-42.0-0.0,null,<p></p>,null,,,,,,,,,,,,,,,,,,,,,,,
,do_trial,63,418926,0.0-42.0-1.0,1473.9,,,,,,,,49,"1,1,0",,,,,,,,,,,,,,,,
,html-keyboard-response,64,419932,0.0-43.0-0.0,null,<p></p>,null,,,,,,,,,,,,,,,,,,,,,,,
,do_trial,65,424954,0.0-43.0-1.0,516.0999999,,,,,,,,49,"0,0,1",,,,,,,,,,,,,,,,
,html-keyboard-response,66,425955,0.0-44.0-0.0,null,<p></p>,null,,,,,,,,,,,,,,,,,,,,,,,
,do_trial,67,432315,0.0-44.0-1.0,1851,,,,,,,,50,"1,0,1",,,,,,,,,,,,,,,,
,html-keyboard-response,68,434852,0.0-45.0-0.0,2535.6,<div class='center'><p><img src='run_exp/static/images/tutorial/prac_best_pirate.png'  height='500'></p></div>,49,,,,,,,,,,,,,,,,,,,,,,,
,html-keyboard-response,69,436562,0.0-46.0-0.0,1709.2,<div class='center'><p>That's correct! Red beard was the best.</p><p><b>[Press the space bar to continue]</b></p></div>,32,,,,,,,,,,,,,,,,,,,,,,,
,html-keyboard-response,70,442975,0.0-46.0-1.0,6412.6,<div class='center'><p><img src='run_exp/static/images/tutorial/prac_source.png'  height='500'></p></div>,50,,,,,,,,,,,,,,,,,,,,,,,
,html-keyboard-response,71,445630,0.0-47.0-0.0,2653.8,<div class='center'><p>That's correct! You saw this ship on the cavern island.</p><p><b>[Press the space bar to continue]</b></p></div>,32,,,,,,,,,,,,,,,,,,,,,,,
,quiz_beginning,72,459221,0.0-47.0-1.0,null,run_exp/static/audio/clip_16_quiz_intro.m4a,null,,,,,"<div class='center'><p>Good job on the practice game! Now, you will be asked some true or false questions to make sure you really understand the rules of the game.</p><p> Press <b>'1'</b> on the keyboard for true and press <b>'2'</b> for false.</p></div>",,,,,,,,,,,,,,,,,,
,audio-keyboard-response,73,464553,0.0-47.0-2.0,5331,run_exp/static/audio/clip_17_q1.m4a,50,,,,,,,,,,,,,,,,,,,,,,,
,correct,74,467534,0.0-48.0-0.0,null,run_exp/static/audio/clip_18_correct.m4a,null,,,,,<div class='center'><p>That's correct!</p></div>,,,,,,,,,,,,,,,,,,
,html-keyboard-response,75,467996,0.0-48.0-1.0,460.7999997,<div class='center'><p>That's correct!</p><p><b>[Press the space bar to continue]</b></p></div>,32,,,,,,,,,,,,,,,,,,,,,,,
,audio-keyboard-response,76,473328,0.0-48.0-2.0,5332.4,run_exp/static/audio/clip_20_q2.m4a,50,,,,,,,,,,,,,,,,,,,,,,,
,correct,77,476288,0.0-49.0-0.0,null,run_exp/static/audio/clip_18_correct.m4a,null,,,,,<div class='center'><p>That's correct!</p></div>,,,,,,,,,,,,,,,,,,
,html-keyboard-response,78,476636,0.0-49.0-1.0,347.5,<div class='center'><p>That's correct!</p><p><b>[Press the space bar to continue]</b></p></div>,32,,,,,,,,,,,,,,,,,,,,,,,
,audio-keyboard-response,79,482621,0.0-49.0-2.0,5985,run_exp/static/audio/clip_22_q3.m4a,50,,,,,,,,,,,,,,,,,,,,,,,
,correct,80,485576,0.0-50.0-0.0,null,run_exp/static/audio/clip_18_correct.m4a,null,,,,,<div class='center'><p>That's correct!</p></div>,,,,,,,,,,,,,,,,,,
,html-keyboard-response,81,485940,0.0-50.0-1.0,363.5,<div class='center'><p>That's correct!</p><p><b>[Press the space bar to continue]</b></p></div>,32,,,,,,,,,,,,,,,,,,,,,,,
,audio-keyboard-response,82,488955,0.0-50.0-2.0,3014.5,run_exp/static/audio/clip_24_q4.m4a,49,,,,,,,,,,,,,,,,,,,,,,,
,correct,83,491938,0.0-51.0-0.0,null,run_exp/static/audio/clip_18_correct.m4a,null,,,,,<div class='center'><p>That's correct!</p></div>,,,,,,,,,,,,,,,,,,
,html-keyboard-response,84,492679,0.0-51.0-1.0,740.0999999,<div class='center'><p>That's correct!</p><p><b>[Press the space bar to continue]</b></p></div>,32,,,,,,,,,,,,,,,,,,,,,,,
,q_all_corr,85,499670,0.0-52.0-0.0,null,run_exp/static/audio/clip_27_quiz_all_correct.m4a,null,,,,,<div class='center'><p>Good job! You’re now ready to move on to the real game!</p></div>,,,,,,,,,,,,,,,,,,
,html-keyboard-response,86,500216,0.0-52.0-1.0,545.4000001,<div class='center'><p>Good job! You’re now ready to move on to the real game!</p><p><b>[Press the space bar to continue]</b></p></div>,32,,,,,,,,,,,,,,,,,,,,,,,
,do_welcome,87,501720,0.0-53.0-0.0,null,,,,,,,,null,,,,,,,,,,,,,,,,,
,do_trial,88,507667,0.0-54.0-0.0,1408.6,,,,,,,,49,"0,0,0",0,countryside,0,probe-98,0.6,0.3,0.1,0,,,,,,,,
,html-keyboard-response,89,508671,0.0-54.0-1.0,null,<p></p>,null,,,,,,,,,,,,,,,,,,,,,,,
,do_trial,90,513709,0.0-55.0-0.0,500.0999999,,,,,,,,50,"0,0,0",0,countryside,1,probe-33,0.693369616,0.294213464,0.239406645,0,,,,,,,,
,html-keyboard-response,91,514715,0.0-55.0-1.0,null,<p></p>,null,,,,,,,,,,,,,,,,,,,,,,,
,do_trial,92,520450,0.0-56.0-0.0,1195.2,,,,,,,,51,"0,0,0",0,countryside,2,probe-96,0.689127036,0.187674312,0.151036012,0,,,,,,,,
,html-keyboard-response,93,521451,0.0-56.0-1.0,null,<p></p>,null,,,,,,,,,,,,,,,,,,,,,,,
,do_trial,94,526508,0.0-57.0-0.0,522.3000002,,,,,,,,49,"1,0,0",0,countryside,3,probe-195,0.67393052,0.271977028,0.163549778,1,,,,,,,,
,html-keyboard-response,95,527512,0.0-57.0-1.0,null,<p></p>,null,,,,,,,,,,,,,,,,,,,,,,,
,do_trial,96,533804,0.0-58.0-0.0,1752.1,,,,,,,,49,"0,0,0",0,countryside,4,probe-166,0.690751324,0.276721956,0.148756409,0,,,,,,,,
,html-keyboard-response,97,534808,0.0-58.0-1.0,null,<p></p>,null,,,,,,,,,,,,,,,,,,,,,,,
,do_trial,98,540193,0.0-59.0-0.0,844.9000001,,,,,,,,50,"0,0,1",0,countryside,5,probe-101,0.533532979,0.156317895,0.059124714,0,,,,,,,,
,html-keyboard-response,99,541199,0.0-59.0-1.0,null,<p></p>,null,,,,,,,,,,,,,,,,,,,,,,,
,do_trial,100,548154,0.0-60.0-0.0,2419.8,,,,,,,,51,"0,0,0",0,countryside,6,probe-11,0.604886157,0.089275174,0.083537375,0,,,,,,,,
,html-keyboard-response,101,549156,0.0-60.0-1.0,null,<p></p>,null,,,,,,,,,,,,,,,,,,,,,,,
,do_trial,102,556382,0.0-61.0-0.0,2686.6,,,,,,,,49,"1,0,0",0,countryside,7,probe-54,0.73364089,0.215761934,0.127723545,1,,,,,,,,
,html-keyboard-response,103,557385,0.0-61.0-1.0,null,<p></p>,null,,,,,,,,,,,,,,,,,,,,,,,
,do_trial,104,564694,0.0-62.0-0.0,2771.6,,,,,,,,50,"1,0,0",0,countryside,8,probe-41,0.736519715,0.199743624,0.166358006,0,,,,,,,,
,html-keyboard-response,105,565698,0.0-62.0-1.0,null,<p></p>,null,,,,,,,,,,,,,,,,,,,,,,,
,do_trial,106,571739,0.0-63.0-0.0,null,,,,,,,,null,"1,0,0",0,countryside,9,probe-146,0.770772723,0.310014023,0.210136978,,,,,,,,,
,html-keyboard-response,107,572742,0.0-63.0-1.0,null,<p></p>,null,,,,,,,,,,,,,,,,,,,,,,,
,do_trial,108,578666,0.0-64.0-0.0,1386.9,,,,,,,,49,"0,1,1",0,countryside,10,probe-215,0.687681184,0.269572767,0.058574121,0,,,,,,,,
,html-keyboard-response,109,579669,0.0-64.0-1.0,null,<p></p>,null,,,,,,,,,,,,,,,,,,,,,,,
,do_trial,110,584866,0.0-65.0-0.0,659.7999997,,,,,,,,50,"1,1,0",0,countryside,11,probe-61,0.657582833,0.38782716,0.062018254,1,,,,,,,,
,html-keyboard-response,111,585868,0.0-65.0-1.0,null,<p></p>,null,,,,,,,,,,,,,,,,,,,,,,,
,do_trial,112,590875,0.0-66.0-0.0,468,,,,,,,,50,"1,1,0",0,countryside,12,probe-07,0.60748617,0.441673979,0.059048114,1,,,,,,,,
,html-keyboard-response,113,591879,0.0-66.0-1.0,null,<p></p>,null,,,,,,,,,,,,,,,,,,,,,,,
,do_trial,114,596935,0.0-67.0-0.0,521.5999999,,,,,,,,50,"1,0,0",0,countryside,13,probe-137,0.605681087,0.51643328,0.067342673,0,,,,,,,,
,html-keyboard-response,115,597938,0.0-67.0-1.0,null,<p></p>,null,,,,,,,,,,,,,,,,,,,,,,,
,do_trial,116,603015,0.0-68.0-0.0,537.5,,,,,,,,51,"1,1,0",0,countryside,14,probe-15,0.60758816,0.443539442,0.144127702,0,,,,,,,,
,html-keyboard-response,117,604017,0.0-68.0-1.0,null,<p></p>,null,,,,,,,,,,,,,,,,,,,,,,,
,do_trial,118,609200,0.0-69.0-0.0,646,,,,,,,,49,"1,1,0",0,countryside,15,probe-118,0.699450479,0.259080543,0.177310835,1,,,,,,,,
,html-keyboard-response,119,610206,0.0-69.0-1.0,null,<p></p>,null,,,,,,,,,,,,,,,,,,,,,,,
,do_trial,120,616016,0.0-70.0-0.0,1275,,,,,,,,49,"0,0,0",0,countryside,16,probe-167,0.578264062,0.173262882,0.121140019,0,,,,,,,,
,html-keyboard-response,121,617018,0.0-70.0-1.0,null,<p></p>,null,,,,,,,,,,,,,,,,,,,,,,,
,do_trial,122,622230,0.0-71.0-0.0,672.4000001,,,,,,,,50,"0,0,1",0,countryside,17,probe-160,0.641905622,0.297659521,0.218932433,0,,,,,,,,
,html-keyboard-response,123,623233,0.0-71.0-1.0,null,<p></p>,null,,,,,,,,,,,,,,,,,,,,,,,
,do_trial,124,629385,0.0-72.0-0.0,1612.9,,,,,,,,49,"1,0,0",0,countryside,18,probe-209,0.546035634,0.242296348,0.178839678,1,,,,,,,,
,html-keyboard-response,125,630388,0.0-72.0-1.0,null,<p></p>,null,,,,,,,,,,,,,,,,,,,,,,,
,do_trial,126,636383,0.0-73.0-0.0,1454.7,,,,,,,,49,"0,0,0",0,countryside,19,probe-151,0.621646017,0.22962838,0.140789707,0,,,,,,,,
,html-keyboard-response,127,637387,0.0-73.0-1.0,null,<p></p>,null,,,,,,,,,,,,,,,,,,,,,,,
,do_trial,128,643605,0.0-74.0-0.0,1678.5,,,,,,,,50,"1,1,0",0,countryside,20,probe-145,0.636514336,0.426853042,0.17108899,1,,,,,,,,
,html-keyboard-response,129,644608,0.0-74.0-1.0,null,<p></p>,null,,,,,,,,,,,,,,,,,,,,,,,
,do_trial,130,649890,0.0-75.0-0.0,746.0999999,,,,,,,,50,"1,1,1",0,countryside,21,probe-194,0.631550058,0.361262866,0.077881983,1,,,,,,,,
,html-keyboard-response,131,650895,0.0-75.0-1.0,null,<p></p>,null,,,,,,,,,,,,,,,,,,,,,,,
,do_trial,132,657078,0.0-76.0-0.0,1648.1,,,,,,,,50,"1,0,0",0,countryside,22,probe-35,0.709644554,0.329290386,0.112018142,0,,,,,,,,
,html-keyboard-response,133,658082,0.0-76.0-1.0,null,<p></p>,null,,,,,,,,,,,,,,,,,,,,,,,
,do_trial,134,664705,0.0-77.0-0.0,2088.9,,,,,,,,51,"1,0,0",0,countryside,23,probe-178,0.590655498,0.40842883,0.10268164,0,,,,,,,,
,html-keyboard-response,135,665709,0.0-77.0-1.0,null,<p></p>,null,,,,,,,,,,,,,,,,,,,,,,,
,do_trial,136,671349,0.0-78.0-0.0,1100,,,,,,,,49,"1,0,0",0,countryside,24,probe-191,0.471753486,0.437619998,0.248813244,1,,,,,,,,
,html-keyboard-response,137,672350,0.0-78.0-1.0,null,<p></p>,null,,,,,,,,,,,,,,,,,,,,,,,
,do_trial,138,677365,0.0-79.0-0.0,477.4000001,,,,,,,,50,"1,1,0",0,countryside,25,probe-45,0.499486159,0.394275563,0.19520279,1,,,,,,,,
,html-keyboard-response,139,678368,0.0-79.0-1.0,null,<p></p>,null,,,,,,,,,,,,,,,,,,,,,,,
,do_trial,140,683397,0.0-80.0-0.0,489.5,,,,,,,,51,"0,1,0",0,countryside,26,probe-116,0.548787735,0.326633822,0.084271107,0,,,,,,,,
,html-keyboard-response,141,684399,0.0-80.0-1.0,null,<p></p>,null,,,,,,,,,,,,,,,,,,,,,,,
,do_trial,142,690169,0.0-81.0-0.0,1231.1,,,,,,,,49,"0,0,0",0,countryside,27,probe-172,0.451790985,0.324735788,0.07999698,0,,,,,,,,
,html-keyboard-response,143,691175,0.0-81.0-1.0,null,<p></p>,null,,,,,,,,,,,,,,,,,,,,,,,
,do_trial,144,697455,0.0-82.0-0.0,1745.3,,,,,,,,50,"1,0,0",0,countryside,28,probe-111,0.387905672,0.357788956,0.171293367,0,,,,,,,,
,html-keyboard-response,145,698459,0.0-82.0-1.0,null,<p></p>,null,,,,,,,,,,,,,,,,,,,,,,,
,do_trial,146,704635,0.0-83.0-0.0,1639.4,,,,,,,,50,"0,0,0",0,countryside,29,probe-169,0.440644655,0.293949546,0.150632966,0,,,,,,,,
,html-keyboard-response,147,705639,0.0-83.0-1.0,null,<p></p>,null,,,,,,,,,,,,,,,,,,,,,,,
,do_bye,148,707147,0.0-84.0-0.0,null,,,,,,,,null,,,,,,,,,,,,,,,,,
,do_travel,149,713148,0.0-85.0-0.0,null,,,,,,,,null,,,,,,,,,,,,,,,,,
,do_welcome,150,714651,0.0-85.0-1.0,null,,,,,,,,null,,,,,,,,,,,,,,,,,
,do_trial,151,720782,0.0-86.0-0.0,1591.6,,,,,,,,49,"1,0,0",1,highway,30,probe-186,1,0.249741756,0.116115821,1,,,,,,,,
,html-keyboard-response,152,721786,0.0-86.0-1.0,null,<p></p>,null,,,,,,,,,,,,,,,,,,,,,,,
,do_trial,153,726685,0.0-87.0-0.0,362.7999997,,,,,,,,49,"1,0,0",1,highway,31,probe-72,1,0.196013588,0.138661401,1,,,,,,,,
,html-keyboard-response,154,727691,0.0-87.0-1.0,null,<p></p>,null,,,,,,,,,,,,,,,,,,,,,,,
,do_trial,155,732616,0.0-88.0-0.0,386.5999999,,,,,,,,49,"1,0,1",1,highway,32,probe-94,1,0.349158573,0.338779155,1,,,,,,,,
,html-keyboard-response,156,733619,0.0-88.0-1.0,null,<p></p>,null,,,,,,,,,,,,,,,,,,,,,,,
,do_trial,157,738508,0.0-89.0-0.0,352.8999996,,,,,,,,49,"1,0,0",1,highway,33,probe-174,0.763419325,0.303927317,0.35818065,1,,,,,,,,
,html-keyboard-response,158,739511,0.0-89.0-1.0,null,<p></p>,null,,,,,,,,,,,,,,,,,,,,,,,
,do_trial,159,744428,0.0-90.0-0.0,379.6999998,,,,,,,,49,"0,0,1",1,highway,34,probe-198,0.756332755,0.298624615,0.231479493,0,,,,,,,,
,html-keyboard-response,160,745429,0.0-90.0-1.0,null,<p></p>,null,,,,,,,,,,,,,,,,,,,,,,,
,do_trial,161,751337,0.0-91.0-0.0,1368.4,,,,,,,,49,"1,0,0",1,highway,35,probe-29,0.837992846,0.290138532,0.248013962,1,,,,,,,,
,html-keyboard-response,162,752340,0.0-91.0-1.0,null,<p></p>,null,,,,,,,,,,,,,,,,,,,,,,,
,do_trial,163,757667,0.0-92.0-0.0,791.5999999,,,,,,,,49,"0,0,0",1,highway,36,probe-77,0.767563058,0.216744952,0.220843696,0,,,,,,,,
,html-keyboard-response,164,758670,0.0-92.0-1.0,null,<p></p>,null,,,,,,,,,,,,,,,,,,,,,,,
,do_trial,165,764376,0.0-93.0-0.0,1166.5,,,,,,,,49,"0,1,0",1,highway,37,probe-213,0.676220448,0.154036572,0.168173635,0,,,,,,,,
,html-keyboard-response,166,765382,0.0-93.0-1.0,null,<p></p>,null,,,,,,,,,,,,,,,,,,,,,,,
,do_trial,167,770249,0.0-94.0-0.0,327,,,,,,,,49,"1,0,0",1,highway,38,probe-79,0.607767743,0.065842783,0.099870048,1,,,,,,,,
,html-keyboard-response,168,771250,0.0-94.0-1.0,null,<p></p>,null,,,,,,,,,,,,,,,,,,,,,,,
,do_trial,169,776455,0.0-95.0-0.0,669.5,,,,,,,,49,"1,0,1",1,highway,39,probe-122,0.563649985,0.220269985,0.180736755,1,,,,,,,,
,html-keyboard-response,170,777458,0.0-95.0-1.0,null,<p></p>,null,,,,,,,,,,,,,,,,,,,,,,,
,do_trial,171,784278,0.0-96.0-0.0,2279.8,,,,,,,,49,"0,0,0",1,highway,40,probe-80,0.566847878,0.170649303,0.227144389,0,,,,,,,,
,html-keyboard-response,172,785283,0.0-96.0-1.0,null,<p></p>,null,,,,,,,,,,,,,,,,,,,,,,,
,do_trial,173,790308,0.0-97.0-0.0,484.5999999,,,,,,,,49,"0,1,0",1,highway,41,probe-84,0.591919734,0.127555592,0.130560571,0,,,,,,,,
,html-keyboard-response,174,791311,0.0-97.0-1.0,null,<p></p>,null,,,,,,,,,,,,,,,,,,,,,,,
,do_trial,175,797349,0.0-98.0-0.0,null,,,,,,,,null,"0,0,1",1,highway,42,probe-50,0.378539517,0.215061302,0.34502783,,,,,,,,,
,html-keyboard-response,176,798350,0.0-98.0-1.0,null,<p></p>,null,,,,,,,,,,,,,,,,,,,,,,,
,do_trial,177,803582,0.0-99.0-0.0,694.1999998,,,,,,,,49,"0,0,0",1,highway,43,probe-34,0.250276035,0.216266658,0.464014004,0,,,,,,,,
,html-keyboard-response,178,804585,0.0-99.0-1.0,null,<p></p>,null,,,,,,,,,,,,,,,,,,,,,,,
,do_trial,179,810412,0.0-100.0-0.0,1287.4,,,,,,,,49,"0,1,0",1,highway,44,probe-73,0.104302373,0.196108841,0.543100816,0,,,,,,,,
,html-keyboard-response,180,811414,0.0-100.0-1.0,null,<p></p>,null,,,,,,,,,,,,,,,,,,,,,,,
,do_trial,181,817904,0.0-101.0-0.0,1950.9,,,,,,,,49,"1,1,1",1,highway,45,probe-01,0.096700638,0.23480861,0.56033838,1,,,,,,,,
,html-keyboard-response,182,818910,0.0-101.0-1.0,null,<p></p>,null,,,,,,,,,,,,,,,,,,,,,,,
,do_trial,183,826375,0.0-102.0-0.0,2924.2,,,,,,,,49,"0,1,1",1,highway,46,probe-112,0.054794983,0.503609791,0.545040259,0,,,,,,,,
,html-keyboard-response,184,827380,0.0-102.0-1.0,null,<p></p>,null,,,,,,,,,,,,,,,,,,,,,,,
,do_trial,185,833809,0.0-103.0-0.0,1892.6,,,,,,,,50,"0,0,1",1,highway,47,probe-86,0.092895566,0.265132684,0.622582491,0,,,,,,,,
,html-keyboard-response,186,834814,0.0-103.0-1.0,null,<p></p>,null,,,,,,,,,,,,,,,,,,,,,,,
,do_trial,187,840514,0.0-104.0-0.0,1162.9,,,,,,,,49,"0,0,1",1,highway,48,probe-199,0.10350876,0.227350211,0.687212106,0,,,,,,,,
,html-keyboard-response,188,841517,0.0-104.0-1.0,null,<p></p>,null,,,,,,,,,,,,,,,,,,,,,,,
,do_trial,189,846970,0.0-105.0-0.0,918.3000002,,,,,,,,49,"0,1,0",1,highway,49,probe-113,0.205424608,0.225133693,0.589665182,0,,,,,,,,
,html-keyboard-response,190,847971,0.0-105.0-1.0,null,<p></p>,null,,,,,,,,,,,,,,,,,,,,,,,
,do_trial,191,854108,0.0-106.0-0.0,1597.1,,,,,,,,49,"0,1,1",1,highway,50,probe-207,0.143276841,0.276856112,0.611492025,0,,,,,,,,
,html-keyboard-response,192,855111,0.0-106.0-1.0,null,<p></p>,null,,,,,,,,,,,,,,,,,,,,,,,
,do_trial,193,861148,0.0-107.0-0.0,null,,,,,,,,null,"0,0,0",1,highway,51,probe-130,0.193354545,0.407015644,0.675815797,,,,,,,,,
,html-keyboard-response,194,862149,0.0-107.0-1.0,null,<p></p>,null,,,,,,,,,,,,,,,,,,,,,,,
,do_trial,195,867493,0.0-108.0-0.0,806.8999996,,,,,,,,49,"0,0,1",1,highway,52,probe-214,0.082466242,0.46435168,0.598692048,0,,,,,,,,
,html-keyboard-response,196,868498,0.0-108.0-1.0,null,<p></p>,null,,,,,,,,,,,,,,,,,,,,,,,
,do_trial,197,875591,0.0-109.0-0.0,2557.7,,,,,,,,49,"0,1,0",1,highway,53,probe-91,0.136032182,0.561072872,0.399151212,0,,,,,,,,
,html-keyboard-response,198,876594,0.0-109.0-1.0,null,<p></p>,null,,,,,,,,,,,,,,,,,,,,,,,
,do_trial,199,882638,0.0-110.0-0.0,null,,,,,,,,null,"0,1,0",1,highway,54,probe-223,0.123774567,0.339480282,0.556200941,,,,,,,,,
,html-keyboard-response,200,883641,0.0-110.0-1.0,null,<p></p>,null,,,,,,,,,,,,,,,,,,,,,,,
,do_trial,201,888180,0.0-111.0-0.0,0.199999809,,,,,,,,50,"0,0,1",1,highway,55,probe-173,0.114623841,0.352059737,0.559354711,0,,,,,,,,
,html-keyboard-response,202,889184,0.0-111.0-1.0,null,<p></p>,null,,,,,,,,,,,,,,,,,,,,,,,
,do_trial,203,894200,0.0-112.0-0.0,480.2000003,,,,,,,,49,"0,0,1",1,highway,56,probe-189,0.135246864,0.318214159,0.660075605,0,,,,,,,,
,html-keyboard-response,204,895203,0.0-112.0-1.0,null,<p></p>,null,,,,,,,,,,,,,,,,,,,,,,,
,do_trial,205,900096,0.0-113.0-0.0,355.7999997,,,,,,,,51,"1,0,0",1,highway,57,probe-165,0.219974075,0.200782907,0.772928728,0,,,,,,,,
,html-keyboard-response,206,901099,0.0-113.0-1.0,null,<p></p>,null,,,,,,,,,,,,,,,,,,,,,,,
,do_trial,207,906419,0.0-114.0-0.0,783.1999998,,,,,,,,49,"0,0,1",1,highway,58,probe-27,0.09172961,0.195446267,0.677905401,0,,,,,,,,
,html-keyboard-response,208,907422,0.0-114.0-1.0,null,<p></p>,null,,,,,,,,,,,,,,,,,,,,,,,
,do_trial,209,914733,0.0-115.0-0.0,2773.6,,,,,,,,49,"0,0,1",1,highway,59,probe-92,0.093236202,0.16371998,0.49896926,0,,,,,,,,
,html-keyboard-response,210,915736,0.0-115.0-1.0,null,<p></p>,null,,,,,,,,,,,,,,,,,,,,,,,
,do_trial,211,921779,0.0-116.0-0.0,null,,,,,,,,null,"0,1,0",1,highway,60,probe-47,0.09310616,0.210212198,0.570865165,,,,,,,,,
,html-keyboard-response,212,922783,0.0-116.0-1.0,null,<p></p>,null,,,,,,,,,,,,,,,,,,,,,,,
,do_trial,213,927908,0.0-117.0-0.0,586.8000002,,,,,,,,49,"0,1,1",1,highway,61,probe-149,0.147861287,0.309555363,0.627534818,0,,,,,,,,
,html-keyboard-response,214,928913,0.0-117.0-1.0,null,<p></p>,null,,,,,,,,,,,,,,,,,,,,,,,
,do_trial,215,935691,0.0-118.0-0.0,2242,,,,,,,,50,"1,0,1",1,highway,62,probe-32,0.078519248,0.286279547,0.631038397,0,,,,,,,,
,html-keyboard-response,216,936694,0.0-118.0-1.0,null,<p></p>,null,,,,,,,,,,,,,,,,,,,,,,,
,do_trial,217,942195,0.0-119.0-0.0,962.8000002,,,,,,,,49,"0,1,1",1,highway,63,probe-144,0.220346833,0.08995166,0.635092655,0,,,,,,,,
,html-keyboard-response,218,943198,0.0-119.0-1.0,null,<p></p>,null,,,,,,,,,,,,,,,,,,,,,,,
,do_trial,219,948665,0.0-120.0-0.0,928.7999997,,,,,,,,49,"0,0,0",1,highway,64,probe-90,0.247479557,0.139192866,0.452192455,0,,,,,,,,
,html-keyboard-response,220,949668,0.0-120.0-1.0,null,<p></p>,null,,,,,,,,,,,,,,,,,,,,,,,
,do_trial,221,955244,0.0-121.0-0.0,1039.4,,,,,,,,49,"0,0,0",1,highway,65,probe-226,0.344348318,0.180718013,0.411266414,0,,,,,,,,
,html-keyboard-response,222,956245,0.0-121.0-1.0,null,<p></p>,null,,,,,,,,,,,,,,,,,,,,,,,
,do_trial,223,961717,0.0-122.0-0.0,931.9000001,,,,,,,,49,"0,0,0",1,highway,66,probe-95,0.301286757,0.189283173,0.577711363,0,,,,,,,,
,html-keyboard-response,224,962721,0.0-122.0-1.0,null,<p></p>,null,,,,,,,,,,,,,,,,,,,,,,,
,do_trial,225,968013,0.0-123.0-0.0,755.5,,,,,,,,49,"0,1,1",1,highway,67,probe-183,0.142544866,0.151135967,0.607387425,0,,,,,,,,
,html-keyboard-response,226,969019,0.0-123.0-1.0,null,<p></p>,null,,,,,,,,,,,,,,,,,,,,,,,
,do_trial,227,975528,0.0-124.0-0.0,1973.3,,,,,,,,51,"1,0,1",1,highway,68,probe-60,0.280419413,0.34963585,0.560043899,1,,,,,,,,
,html-keyboard-response,228,976533,0.0-124.0-1.0,null,<p></p>,null,,,,,,,,,,,,,,,,,,,,,,,
,do_trial,229,981255,0.0-125.0-0.0,185.4000001,,,,,,,,50,"0,0,1",1,highway,69,probe-133,0.141190017,0.309542895,0.59167771,0,,,,,,,,
,html-keyboard-response,230,982258,0.0-125.0-1.0,null,<p></p>,null,,,,,,,,,,,,,,,,,,,,,,,
,do_bye,231,983762,0.0-126.0-0.0,null,,,,,,,,null,,,,,,,,,,,,,,,,,
,do_travel,232,989767,0.0-127.0-0.0,null,,,,,,,,null,,,,,,,,,,,,,,,,,
,do_welcome,233,991276,0.0-127.0-1.0,null,,,,,,,,null,,,,,,,,,,,,,,,,,
,do_trial,234,996614,0.0-128.0-0.0,799.3000002,,,,,,,,50,"0,0,1",2,coast,70,probe-136,0.108680402,0.254774129,1,0,,,,,,,,
,html-keyboard-response,235,997617,0.0-128.0-1.0,null,<p></p>,null,,,,,,,,,,,,,,,,,,,,,,,
,do_trial,236,1002734,0.0-129.0-0.0,578.0999999,,,,,,,,50,"0,0,1",2,coast,71,probe-206,0.092566087,0.171187562,1,0,,,,,,,,
,html-keyboard-response,237,1003738,0.0-129.0-1.0,null,<p></p>,null,,,,,,,,,,,,,,,,,,,,,,,
,do_trial,238,1009484,0.0-130.0-0.0,1207.7,,,,,,,,50,"1,0,1",2,coast,72,probe-82,0.126344965,0.296300248,0.842698739,0,,,,,,,,
,html-keyboard-response,239,1010489,0.0-130.0-1.0,null,<p></p>,null,,,,,,,,,,,,,,,,,,,,,,,
,do_trial,240,1015669,0.0-131.0-0.0,644.1999998,,,,,,,,50,"0,0,1",2,coast,73,probe-117,0.120304991,0.253191995,0.824773158,0,,,,,,,,
,html-keyboard-response,241,1016671,0.0-131.0-1.0,null,<p></p>,null,,,,,,,,,,,,,,,,,,,,,,,
,do_trial,242,1021483,0.0-132.0-0.0,278.2999997,,,,,,,,51,"0,1,0",2,coast,74,probe-36,0.135911089,0.244707909,0.649741642,0,,,,,,,,
,html-keyboard-response,243,1022486,0.0-132.0-1.0,null,<p></p>,null,,,,,,,,,,,,,,,,,,,,,,,
,do_trial,244,1027099,0.0-133.0-0.0,76.5,,,,,,,,51,"0,1,0",2,coast,75,probe-103,0.134347985,0.379776993,0.620813628,0,,,,,,,,
,html-keyboard-response,245,1028102,0.0-133.0-1.0,null,<p></p>,null,,,,,,,,,,,,,,,,,,,,,,,
,do_trial,246,1032694,0.0-134.0-0.0,52.4000001,,,,,,,,49,"0,0,1",2,coast,76,probe-64,0.25600779,0.267014347,0.651829135,0,,,,,,,,
,html-keyboard-response,247,1033697,0.0-134.0-1.0,null,<p></p>,null,,,,,,,,,,,,,,,,,,,,,,,
,do_trial,248,1038472,0.0-135.0-0.0,238.2000003,,,,,,,,49,"0,0,1",2,coast,77,probe-187,0.231029582,0.221239112,0.685956427,0,,,,,,,,
,html-keyboard-response,249,1039473,0.0-135.0-1.0,null,<p></p>,null,,,,,,,,,,,,,,,,,,,,,,,
,do_trial,250,1044820,0.0-136.0-0.0,807.1999998,,,,,,,,49,"0,1,0",2,coast,78,probe-134,0.262860764,0.255914578,0.772224719,0,,,,,,,,
,html-keyboard-response,251,1045824,0.0-136.0-1.0,null,<p></p>,null,,,,,,,,,,,,,,,,,,,,,,,
,do_trial,252,1050361,0.0-137.0-0.0,0.200000286,,,,,,,,50,"0,0,1",2,coast,79,probe-26,0.164487174,0.354405651,0.710926943,0,,,,,,,,
,html-keyboard-response,253,1051362,0.0-137.0-1.0,null,<p></p>,null,,,,,,,,,,,,,,,,,,,,,,,
,do_trial,254,1056034,0.0-138.0-0.0,135.6000004,,,,,,,,49,"0,1,0",2,coast,80,probe-153,0.207900483,0.290168607,0.642747261,0,,,,,,,,
,html-keyboard-response,255,1057036,0.0-138.0-1.0,null,<p></p>,null,,,,,,,,,,,,,,,,,,,,,,,
,do_trial,256,1062190,0.0-139.0-0.0,615.2999997,,,,,,,,50,"0,0,1",2,coast,81,probe-129,0.188020063,0.236018791,0.689765688,0,,,,,,,,
,html-keyboard-response,257,1063194,0.0-139.0-1.0,null,<p></p>,null,,,,,,,,,,,,,,,,,,,,,,,
,do_trial,258,1068019,0.0-140.0-0.0,283.7000003,,,,,,,,50,"1,0,0",2,coast,82,probe-109,0.316807154,0.119456347,0.67600923,0,,,,,,,,
,html-keyboard-response,259,1069025,0.0-140.0-1.0,null,<p></p>,null,,,,,,,,,,,,,,,,,,,,,,,
,do_trial,260,1073698,0.0-141.0-0.0,135.8000002,,,,,,,,50,"0,0,1",2,coast,83,probe-204,0.399177889,0.246585041,0.459434857,0,,,,,,,,
,html-keyboard-response,261,1074699,0.0-141.0-1.0,null,<p></p>,null,,,,,,,,,,,,,,,,,,,,,,,
,do_trial,262,1079466,0.0-142.0-0.0,229.9000001,,,,,,,,49,"0,0,0",2,coast,84,probe-67,0.472185016,0.186252752,0.249975394,0,,,,,,,,
,html-keyboard-response,263,1080469,0.0-142.0-1.0,null,<p></p>,null,,,,,,,,,,,,,,,,,,,,,,,
,do_trial,264,1085524,0.0-143.0-0.0,515.7000003,,,,,,,,51,"0,1,1",2,coast,85,probe-140,0.598084956,0.1482754,0.273182979,1,,,,,,,,
,html-keyboard-response,265,1086530,0.0-143.0-1.0,null,<p></p>,null,,,,,,,,,,,,,,,,,,,,,,,
,do_trial,266,1091159,0.0-144.0-0.0,90.0999999,,,,,,,,49,"1,0,0",2,coast,86,probe-161,0.624982405,0.16743822,0.164756201,1,,,,,,,,
,html-keyboard-response,267,1092162,0.0-144.0-1.0,null,<p></p>,null,,,,,,,,,,,,,,,,,,,,,,,
,do_trial,268,1097021,0.0-145.0-0.0,320.7000003,,,,,,,,50,"0,0,0",2,coast,87,probe-37,0.612613315,0.145573637,0.215769709,0,,,,,,,,
,html-keyboard-response,269,1098024,0.0-145.0-1.0,null,<p></p>,null,,,,,,,,,,,,,,,,,,,,,,,
,do_trial,270,1102755,0.0-146.0-0.0,195.5999999,,,,,,,,51,"0,0,0",2,coast,88,probe-119,0.604036011,0.134941778,0.141322338,0,,,,,,,,
,html-keyboard-response,271,1103758,0.0-146.0-1.0,null,<p></p>,null,,,,,,,,,,,,,,,,,,,,,,,
,do_trial,272,1108841,0.0-147.0-0.0,548.0999999,,,,,,,,50,"1,0,0",2,coast,89,probe-25,0.554169284,0.21939415,0.133601596,0,,,,,,,,
,html-keyboard-response,273,1109842,0.0-147.0-1.0,null,<p></p>,null,,,,,,,,,,,,,,,,,,,,,,,
,do_trial,274,1115066,0.0-148.0-0.0,686.2000003,,,,,,,,49,"1,0,0",2,coast,90,probe-220,0.58708626,0.203869248,0.087356508,1,,,,,,,,
,html-keyboard-response,275,1116070,0.0-148.0-1.0,null,<p></p>,null,,,,,,,,,,,,,,,,,,,,,,,
,do_trial,276,1123210,0.0-149.0-0.0,2603.8,,,,,,,,49,"1,1,0",2,coast,91,probe-02,0.566001403,0.093941044,0.234577299,1,,,,,,,,
,html-keyboard-response,277,1124212,0.0-149.0-1.0,null,<p></p>,null,,,,,,,,,,,,,,,,,,,,,,,
,do_trial,278,1128746,0.0-150.0-0.0,0.200000286,,,,,,,,50,"1,0,0",2,coast,92,probe-218,0.671111237,0.092811483,0.283749625,0,,,,,,,,
,html-keyboard-response,279,1129749,0.0-150.0-1.0,null,<p></p>,null,,,,,,,,,,,,,,,,,,,,,,,
,do_trial,280,1135794,0.0-151.0-0.0,null,,,,,,,,null,"1,1,0",2,coast,93,probe-135,0.770749518,0.199014349,0.329906262,,,,,,,,,
,html-keyboard-response,281,1136797,0.0-151.0-1.0,null,<p></p>,null,,,,,,,,,,,,,,,,,,,,,,,
,do_trial,282,1142840,0.0-152.0-0.0,null,,,,,,,,null,"1,1,1",2,coast,94,probe-04,0.762558944,0.317165227,0.284053415,,,,,,,,,
,html-keyboard-response,283,1143843,0.0-152.0-1.0,null,<p></p>,null,,,,,,,,,,,,,,,,,,,,,,,
,do_trial,284,1148477,0.0-153.0-0.0,98,,,,,,,,50,"1,1,0",2,coast,95,probe-196,0.790667795,0.225927437,0.282471777,1,,,,,,,,
,html-keyboard-response,285,1149481,0.0-153.0-1.0,null,<p></p>,null,,,,,,,,,,,,,,,,,,,,,,,
,do_trial,286,1155524,0.0-154.0-0.0,null,,,,,,,,null,"1,0,1",2,coast,96,probe-30,0.692361717,0.094896085,0.314899213,,,,,,,,,
,html-keyboard-response,287,1156527,0.0-154.0-1.0,null,<p></p>,null,,,,,,,,,,,,,,,,,,,,,,,
,do_trial,288,1162532,0.0-155.0-0.0,1465,,,,,,,,49,"0,0,0",2,coast,97,probe-57,0.672433927,0.185769573,0.331560767,0,,,,,,,,
,html-keyboard-response,289,1163535,0.0-155.0-1.0,null,<p></p>,null,,,,,,,,,,,,,,,,,,,,,,,
,do_trial,290,1169300,0.0-156.0-0.0,1230,,,,,,,,50,"0,0,1",2,coast,98,probe-123,0.550547004,0.147590388,0.354267976,0,,,,,,,,
,html-keyboard-response,291,1170304,0.0-156.0-1.0,null,<p></p>,null,,,,,,,,,,,,,,,,,,,,,,,
,do_trial,292,1175492,0.0-157.0-0.0,649.4000001,,,,,,,,50,"1,0,0",2,coast,99,probe-81,0.568519253,0.196063789,0.300737241,0,,,,,,,,
,html-keyboard-response,293,1176495,0.0-157.0-1.0,null,<p></p>,null,,,,,,,,,,,,,,,,,,,,,,,
,do_trial,294,1181702,0.0-158.0-0.0,668.5,,,,,,,,50,"1,0,0",2,coast,100,probe-175,0.486204739,0.162061896,0.210336074,0,,,,,,,,
,html-keyboard-response,295,1182707,0.0-158.0-1.0,null,<p></p>,null,,,,,,,,,,,,,,,,,,,,,,,
,do_trial,296,1188093,0.0-159.0-0.0,845.6999998,,,,,,,,50,"1,0,0",2,coast,101,probe-142,0.60645091,0.064630842,0.212230982,0,,,,,,,,
,html-keyboard-response,297,1189096,0.0-159.0-1.0,null,<p></p>,null,,,,,,,,,,,,,,,,,,,,,,,
,do_trial,298,1195201,0.0-160.0-0.0,1567.5,,,,,,,,49,"1,0,1",2,coast,102,probe-163,0.530764056,0.090580995,0.281507452,1,,,,,,,,
,html-keyboard-response,299,1196204,0.0-160.0-1.0,null,<p></p>,null,,,,,,,,,,,,,,,,,,,,,,,
,do_trial,300,1202240,0.0-161.0-0.0,null,,,,,,,,null,"1,0,0",2,coast,103,probe-120,0.664511253,0.07774844,0.413017045,,,,,,,,,
,html-keyboard-response,301,1203242,0.0-161.0-1.0,null,<p></p>,null,,,,,,,,,,,,,,,,,,,,,,,
,do_trial,302,1207806,0.0-162.0-0.0,24.19999981,,,,,,,,51,"1,0,1",2,coast,104,probe-125,0.609728328,0.085374215,0.462130762,1,,,,,,,,
,html-keyboard-response,303,1208808,0.0-162.0-1.0,null,<p></p>,null,,,,,,,,,,,,,,,,,,,,,,,
,do_trial,304,1214844,0.0-163.0-0.0,null,,,,,,,,null,"0,0,1",2,coast,105,probe-192,0.612680254,0.203990547,0.441776032,,,,,,,,,
,html-keyboard-response,305,1215845,0.0-163.0-1.0,null,<p></p>,null,,,,,,,,,,,,,,,,,,,,,,,
,do_trial,306,1220527,0.0-164.0-0.0,140.4000001,,,,,,,,49,"1,0,1",2,coast,106,probe-38,0.55730738,0.104707877,0.390421576,1,,,,,,,,
,html-keyboard-response,307,1221533,0.0-164.0-1.0,null,<p></p>,null,,,,,,,,,,,,,,,,,,,,,,,
,do_trial,308,1226203,0.0-165.0-0.0,135.8000002,,,,,,,,49,"1,0,0",2,coast,107,probe-141,0.59235582,0.163620769,0.252561999,1,,,,,,,,
,html-keyboard-response,309,1227207,0.0-165.0-1.0,null,<p></p>,null,,,,,,,,,,,,,,,,,,,,,,,
,do_trial,310,1232942,0.0-166.0-0.0,1200.9,,,,,,,,51,"0,0,0",2,coast,108,probe-59,0.631597303,0.08934663,0.334680546,0,,,,,,,,
,html-keyboard-response,311,1233943,0.0-166.0-1.0,null,<p></p>,null,,,,,,,,,,,,,,,,,,,,,,,
,do_trial,312,1238715,0.0-167.0-0.0,235.3000002,,,,,,,,51,"1,0,1",2,coast,109,probe-48,0.673453107,0.128688973,0.339824057,1,,,,,,,,
,html-keyboard-response,313,1239719,0.0-167.0-1.0,null,<p></p>,null,,,,,,,,,,,,,,,,,,,,,,,
,do_bye,314,1241227,0.0-168.0-0.0,null,,,,,,,,null,,,,,,,,,,,,,,,,,
,do_travel,315,1247230,0.0-169.0-0.0,null,,,,,,,,null,,,,,,,,,,,,,,,,,
,do_welcome,316,1248738,0.0-169.0-1.0,null,,,,,,,,null,,,,,,,,,,,,,,,,,
,do_trial,317,1255883,0.0-170.0-0.0,2609.5,,,,,,,,49,"1,0,0",3,mountain,110,probe-08,1,0.159539486,0.345621302,1,,,,,,,,
,html-keyboard-response,318,1256886,0.0-170.0-1.0,null,<p></p>,null,,,,,,,,,,,,,,,,,,,,,,,
,do_trial,319,1262322,0.0-171.0-0.0,895.4000001,,,,,,,,49,"1,0,1",3,mountain,111,probe-66,1,0.054559633,0.472799678,1,,,,,,,,
,html-keyboard-response,320,1263325,0.0-171.0-1.0,null,<p></p>,null,,,,,,,,,,,,,,,,,,,,,,,
,do_trial,321,1268493,0.0-172.0-0.0,633.7999997,,,,,,,,49,"1,0,0",3,mountain,112,probe-171,0.902478471,0.058827201,0.358639589,1,,,,,,,,
,html-keyboard-response,322,1269496,0.0-172.0-1.0,null,<p></p>,null,,,,,,,,,,,,,,,,,,,,,,,
,do_trial,323,1274547,0.0-173.0-0.0,515,,,,,,,,49,"1,0,0",3,mountain,113,probe-105,0.758760826,0.110317775,0.273632101,1,,,,,,,,
,html-keyboard-response,324,1275550,0.0-173.0-1.0,null,<p></p>,null,,,,,,,,,,,,,,,,,,,,,,,
,do_trial,325,1281746,0.0-174.0-0.0,1661.5,,,,,,,,49,"1,1,0",3,mountain,114,probe-225,0.673177869,0.141315185,0.393564528,1,,,,,,,,
,html-keyboard-response,326,1282749,0.0-174.0-1.0,null,<p></p>,null,,,,,,,,,,,,,,,,,,,,,,,
,do_trial,327,1288744,0.0-175.0-0.0,1459.4,,,,,,,,49,"1,0,0",3,mountain,115,probe-06,0.682591515,0.099331352,0.30800758,1,,,,,,,,
,html-keyboard-response,328,1289745,0.0-175.0-1.0,null,<p></p>,null,,,,,,,,,,,,,,,,,,,,,,,
,do_trial,329,1294599,0.0-176.0-0.0,313.9000001,,,,,,,,49,"1,0,0",3,mountain,116,probe-51,0.530535262,0.222156433,0.293911231,1,,,,,,,,
,html-keyboard-response,330,1295601,0.0-176.0-1.0,null,<p></p>,null,,,,,,,,,,,,,,,,,,,,,,,
,do_trial,331,1301967,0.0-177.0-0.0,1826.2,,,,,,,,49,"1,0,0",3,mountain,117,probe-210,0.502096727,0.096306092,0.261765864,1,,,,,,,,
,html-keyboard-response,332,1302971,0.0-177.0-1.0,null,<p></p>,null,,,,,,,,,,,,,,,,,,,,,,,
,do_trial,333,1308152,0.0-178.0-0.0,643.2000003,,,,,,,,49,"0,0,0",3,mountain,118,probe-106,0.528637018,0.087203384,0.262202666,0,,,,,,,,
,html-keyboard-response,334,1309156,0.0-178.0-1.0,null,<p></p>,null,,,,,,,,,,,,,,,,,,,,,,,
,do_trial,335,1313712,0.0-179.0-0.0,16.80000019,,,,,,,,49,"0,0,0",3,mountain,119,probe-217,0.533418222,0.183101572,0.346881175,0,,,,,,,,
,html-keyboard-response,336,1314714,0.0-179.0-1.0,null,<p></p>,null,,,,,,,,,,,,,,,,,,,,,,,
,do_trial,337,1320530,0.0-180.0-0.0,1274.4,,,,,,,,49,"0,1,0",3,mountain,120,probe-124,0.369771387,0.274599668,0.289815833,0,,,,,,,,
,html-keyboard-response,338,1321536,0.0-180.0-1.0,null,<p></p>,null,,,,,,,,,,,,,,,,,,,,,,,
,do_trial,339,1327007,0.0-181.0-0.0,934.5999999,,,,,,,,49,"1,0,0",3,mountain,121,probe-227,0.361314537,0.337453298,0.380981601,1,,,,,,,,
,html-keyboard-response,340,1328010,0.0-181.0-1.0,null,<p></p>,null,,,,,,,,,,,,,,,,,,,,,,,
,do_trial,341,1333547,0.0-182.0-0.0,1000.7,,,,,,,,49,"0,0,0",3,mountain,122,probe-104,0.190071621,0.495290096,0.280009481,0,,,,,,,,
,html-keyboard-response,342,1334550,0.0-182.0-1.0,null,<p></p>,null,,,,,,,,,,,,,,,,,,,,,,,
,do_trial,343,1340959,0.0-183.0-0.0,1871,,,,,,,,49,"1,1,0",3,mountain,123,probe-108,0.170453194,0.631002337,0.415597669,1,,,,,,,,
,html-keyboard-response,344,1341962,0.0-183.0-1.0,null,<p></p>,null,,,,,,,,,,,,,,,,,,,,,,,
,do_trial,345,1348159,0.0-184.0-0.0,1658.4,,,,,,,,49,"0,0,1",3,mountain,124,probe-158,0.165320283,0.794761829,0.235547696,0,,,,,,,,
,html-keyboard-response,346,1349163,0.0-184.0-1.0,null,<p></p>,null,,,,,,,,,,,,,,,,,,,,,,,
,do_trial,347,1354773,0.0-185.0-0.0,1073.9,,,,,,,,49,"0,1,0",3,mountain,125,probe-22,0.096330252,0.642363018,0.26048768,0,,,,,,,,
,html-keyboard-response,348,1355776,0.0-185.0-1.0,null,<p></p>,null,,,,,,,,,,,,,,,,,,,,,,,
,do_trial,349,1361355,0.0-186.0-0.0,1041.4,,,,,,,,49,"0,1,0",3,mountain,126,probe-150,0.118738899,0.616992123,0.067057055,0,,,,,,,,
,html-keyboard-response,350,1362358,0.0-186.0-1.0,null,<p></p>,null,,,,,,,,,,,,,,,,,,,,,,,
,do_trial,351,1367756,0.0-187.0-0.0,861,,,,,,,,49,"0,1,0",3,mountain,127,probe-224,0.176835386,0.610644429,0.10350182,0,,,,,,,,
,html-keyboard-response,352,1368759,0.0-187.0-1.0,null,<p></p>,null,,,,,,,,,,,,,,,,,,,,,,,
,do_trial,353,1375824,0.0-188.0-0.0,2526.5,,,,,,,,49,"0,1,1",3,mountain,128,probe-40,0.157666212,0.380439854,0.173415029,0,,,,,,,,
,html-keyboard-response,354,1376826,0.0-188.0-1.0,null,<p></p>,null,,,,,,,,,,,,,,,,,,,,,,,
,do_trial,355,1382863,0.0-189.0-0.0,null,,,,,,,,null,"0,0,0",3,mountain,129,probe-205,0.102309471,0.465225757,0.192373665,,,,,,,,,
,html-keyboard-response,356,1383866,0.0-189.0-1.0,null,<p></p>,null,,,,,,,,,,,,,,,,,,,,,,,
,do_trial,357,1388525,0.0-190.0-0.0,119.7999997,,,,,,,,49,"0,0,0",3,mountain,130,probe-156,0.250840332,0.501435861,0.231869866,0,,,,,,,,
,html-keyboard-response,358,1389529,0.0-190.0-1.0,null,<p></p>,null,,,,,,,,,,,,,,,,,,,,,,,
,do_trial,359,1396352,0.0-191.0-0.0,2288.4,,,,,,,,49,"1,1,0",3,mountain,131,probe-14,0.226773501,0.608617516,0.285747538,1,,,,,,,,
,html-keyboard-response,360,1397354,0.0-191.0-1.0,null,<p></p>,null,,,,,,,,,,,,,,,,,,,,,,,
,do_trial,361,1403532,0.0-192.0-0.0,1639.3,,,,,,,,49,"0,1,1",3,mountain,132,probe-188,0.120798552,0.479560407,0.344114527,0,,,,,,,,
,html-keyboard-response,362,1404535,0.0-192.0-1.0,null,<p></p>,null,,,,,,,,,,,,,,,,,,,,,,,
,do_trial,363,1410574,0.0-193.0-0.0,null,,,,,,,,null,"0,0,0",3,mountain,133,probe-202,0.155810545,0.593937302,0.362862976,,,,,,,,,
,html-keyboard-response,364,1411580,0.0-193.0-1.0,null,<p></p>,null,,,,,,,,,,,,,,,,,,,,,,,
,do_trial,365,1417570,0.0-194.0-0.0,1453.4,,,,,,,,49,"0,0,1",3,mountain,134,probe-56,0.060259319,0.579194255,0.315599124,0,,,,,,,,
,html-keyboard-response,366,1418575,0.0-194.0-1.0,null,<p></p>,null,,,,,,,,,,,,,,,,,,,,,,,
,do_trial,367,1424331,0.0-195.0-0.0,1219.7,,,,,,,,49,"0,0,0",3,mountain,135,probe-185,0.165652545,0.748976354,0.311220275,0,,,,,,,,
,html-keyboard-response,368,1425335,0.0-195.0-1.0,null,<p></p>,null,,,,,,,,,,,,,,,,,,,,,,,
,do_trial,369,1430385,0.0-196.0-0.0,513.7000003,,,,,,,,49,"0,0,1",3,mountain,136,probe-100,0.110663104,0.594692702,0.277493137,0,,,,,,,,
,html-keyboard-response,370,1431389,0.0-196.0-1.0,null,<p></p>,null,,,,,,,,,,,,,,,,,,,,,,,
,do_trial,371,1437550,0.0-197.0-0.0,1625.2,,,,,,,,50,"0,0,0",3,mountain,137,probe-211,0.084070555,0.630002492,0.12796778,0,,,,,,,,
,html-keyboard-response,372,1438553,0.0-197.0-1.0,null,<p></p>,null,,,,,,,,,,,,,,,,,,,,,,,
,do_trial,373,1444631,0.0-198.0-0.0,1538.9,,,,,,,,50,"0,1,0",3,mountain,138,probe-53,0.05416756,0.606560481,0.217435792,1,,,,,,,,
,html-keyboard-response,374,1445636,0.0-198.0-1.0,null,<p></p>,null,,,,,,,,,,,,,,,,,,,,,,,
,do_trial,375,1451424,0.0-199.0-0.0,1243.7,,,,,,,,50,"0,1,0",3,mountain,139,probe-88,0.068533094,0.689535539,0.256078167,1,,,,,,,,
,html-keyboard-response,376,1452429,0.0-199.0-1.0,null,<p></p>,null,,,,,,,,,,,,,,,,,,,,,,,
,do_trial,377,1457332,0.0-200.0-0.0,363.8000002,,,,,,,,49,"0,1,1",3,mountain,140,probe-69,0.100920357,0.64227732,0.360938006,0,,,,,,,,
,html-keyboard-response,378,1458336,0.0-200.0-1.0,null,<p></p>,null,,,,,,,,,,,,,,,,,,,,,,,
,do_trial,379,1462980,0.0-201.0-0.0,104.5,,,,,,,,49,"0,1,0",3,mountain,141,probe-203,0.054931373,0.641868915,0.417718205,0,,,,,,,,
,html-keyboard-response,380,1463982,0.0-201.0-1.0,null,<p></p>,null,,,,,,,,,,,,,,,,,,,,,,,
,do_trial,381,1468647,0.0-202.0-0.0,127.6999998,,,,,,,,50,"0,0,1",3,mountain,142,probe-78,0.073656291,0.606561819,0.416595671,0,,,,,,,,
,html-keyboard-response,382,1469650,0.0-202.0-1.0,null,<p></p>,null,,,,,,,,,,,,,,,,,,,,,,,
,do_trial,383,1474371,0.0-203.0-0.0,186,,,,,,,,49,"1,0,0",3,mountain,143,probe-55,0.181437534,0.469410639,0.527422874,1,,,,,,,,
,html-keyboard-response,384,1475377,0.0-203.0-1.0,null,<p></p>,null,,,,,,,,,,,,,,,,,,,,,,,
,do_trial,385,1479941,0.0-204.0-0.0,27.19999981,,,,,,,,49,"0,1,0",3,mountain,144,probe-148,0.065902737,0.425919271,0.636094418,0,,,,,,,,
,html-keyboard-response,386,1480943,0.0-204.0-1.0,null,<p></p>,null,,,,,,,,,,,,,,,,,,,,,,,
,do_trial,387,1485679,0.0-205.0-0.0,199,,,,,,,,49,"0,0,1",3,mountain,145,probe-76,0.112827253,0.436469392,0.537027953,0,,,,,,,,
,html-keyboard-response,388,1486685,0.0-205.0-1.0,null,<p></p>,null,,,,,,,,,,,,,,,,,,,,,,,
,do_trial,389,1492275,0.0-206.0-0.0,1050.5,,,,,,,,50,"1,1,0",3,mountain,146,probe-219,0.118016317,0.441712021,0.331925993,1,,,,,,,,
,html-keyboard-response,390,1493277,0.0-206.0-1.0,null,<p></p>,null,,,,,,,,,,,,,,,,,,,,,,,
,do_trial,391,1497968,0.0-207.0-0.0,152.4000001,,,,,,,,51,"0,0,0",3,mountain,147,probe-139,0.104776574,0.742642909,0.322130185,0,,,,,,,,
,html-keyboard-response,392,1498975,0.0-207.0-1.0,null,<p></p>,null,,,,,,,,,,,,,,,,,,,,,,,
,do_trial,393,1503746,0.0-208.0-0.0,234.4000001,,,,,,,,51,"1,0,0",3,mountain,148,probe-09,0.076101443,0.519224107,0.232772139,0,,,,,,,,
,html-keyboard-response,394,1504751,0.0-208.0-1.0,null,<p></p>,null,,,,,,,,,,,,,,,,,,,,,,,
,do_trial,395,1509992,0.0-209.0-0.0,703.1999998,,,,,,,,49,"0,0,1",3,mountain,149,probe-23,0.051064352,0.59304861,0.241983117,0,,,,,,,,
,html-keyboard-response,396,1510998,0.0-209.0-1.0,null,<p></p>,null,,,,,,,,,,,,,,,,,,,,,,,
,do_bye,397,1512502,0.0-210.0-0.0,null,,,,,,,,null,,,,,,,,,,,,,,,,,
,do_travel,398,1518505,0.0-211.0-0.0,null,,,,,,,,null,,,,,,,,,,,,,,,,,
,do_welcome,399,1520008,0.0-211.0-1.0,null,,,,,,,,null,,,,,,,,,,,,,,,,,
,do_trial,400,1527048,0.0-212.0-0.0,2501.6,,,,,,,,49,"0,1,0",4,forest,150,probe-228,0.106583481,1,0.210562837,0,,,,,,,,
,html-keyboard-response,401,1528051,0.0-212.0-1.0,null,<p></p>,null,,,,,,,,,,,,,,,,,,,,,,,
,do_trial,402,1533505,0.0-213.0-0.0,915.9000001,,,,,,,,49,"0,1,0",4,forest,151,probe-177,0.096159995,1,0.257902669,0,,,,,,,,
,html-keyboard-response,403,1534506,0.0-213.0-1.0,null,<p></p>,null,,,,,,,,,,,,,,,,,,,,,,,
,do_trial,404,1539983,0.0-214.0-0.0,941.2999997,,,,,,,,50,"0,1,0",4,forest,152,probe-229,0.058853913,0.848510242,0.276307595,1,,,,,,,,
,html-keyboard-response,405,1540989,0.0-214.0-1.0,null,<p></p>,null,,,,,,,,,,,,,,,,,,,,,,,
,do_trial,406,1546308,0.0-215.0-0.0,781.6999998,,,,,,,,49,"0,1,0",4,forest,153,probe-159,0.070002311,0.797566714,0.285548508,0,,,,,,,,
,html-keyboard-response,407,1547314,0.0-215.0-1.0,null,<p></p>,null,,,,,,,,,,,,,,,,,,,,,,,
,do_trial,408,1553376,0.0-216.0-0.0,1521.5,,,,,,,,50,"0,1,1",4,forest,154,probe-28,0.108245237,0.704914393,0.406426287,1,,,,,,,,
,html-keyboard-response,409,1554379,0.0-216.0-1.0,null,<p></p>,null,,,,,,,,,,,,,,,,,,,,,,,
,do_trial,410,1560981,0.0-217.0-0.0,2061.8,,,,,,,,49,"0,0,0",4,forest,155,probe-31,0.180098085,0.623963795,0.38534583,0,,,,,,,,
,html-keyboard-response,411,1561983,0.0-217.0-1.0,null,<p></p>,null,,,,,,,,,,,,,,,,,,,,,,,
,do_trial,412,1566583,0.0-218.0-0.0,61,,,,,,,,50,"1,0,0",4,forest,156,probe-216,0.218662531,0.620939334,0.365408043,0,,,,,,,,
,html-keyboard-response,413,1567587,0.0-218.0-1.0,null,<p></p>,null,,,,,,,,,,,,,,,,,,,,,,,
,do_trial,414,1572230,0.0-219.0-0.0,105,,,,,,,,51,"0,1,1",4,forest,157,probe-18,0.055812345,0.709190122,0.277190509,1,,,,,,,,
,html-keyboard-response,415,1573232,0.0-219.0-1.0,null,<p></p>,null,,,,,,,,,,,,,,,,,,,,,,,
,do_trial,416,1577953,0.0-220.0-0.0,184.8999996,,,,,,,,51,"0,1,0",4,forest,158,probe-127,0.204791251,0.661598463,0.27701917,0,,,,,,,,
,html-keyboard-response,417,1578958,0.0-220.0-1.0,null,<p></p>,null,,,,,,,,,,,,,,,,,,,,,,,
,do_trial,418,1583781,0.0-221.0-0.0,285.6999998,,,,,,,,51,"0,0,0",4,forest,159,probe-63,0.093390568,0.548112839,0.272171238,0,,,,,,,,
,html-keyboard-response,419,1584784,0.0-221.0-1.0,null,<p></p>,null,,,,,,,,,,,,,,,,,,,,,,,
,do_trial,420,1589427,0.0-222.0-0.0,107.6999998,,,,,,,,51,"1,1,0",4,forest,160,probe-42,0.254195483,0.462266431,0.274912407,0,,,,,,,,
,html-keyboard-response,421,1590429,0.0-222.0-1.0,null,<p></p>,null,,,,,,,,,,,,,,,,,,,,,,,
,do_trial,422,1595338,0.0-223.0-0.0,369.7000003,,,,,,,,50,"0,0,0",4,forest,161,probe-10,0.164731612,0.520411189,0.092463158,0,,,,,,,,
,html-keyboard-response,423,1596340,0.0-223.0-1.0,null,<p></p>,null,,,,,,,,,,,,,,,,,,,,,,,
,do_trial,424,1603393,0.0-224.0-0.0,2513.5,,,,,,,,50,"0,0,0",4,forest,162,probe-201,0.317619576,0.335786322,0.205497263,0,,,,,,,,
,html-keyboard-response,425,1604400,0.0-224.0-1.0,null,<p></p>,null,,,,,,,,,,,,,,,,,,,,,,,
,do_trial,426,1609511,0.0-225.0-0.0,574.6999998,,,,,,,,50,"1,1,0",4,forest,163,probe-03,0.407413159,0.358686005,0.24632703,1,,,,,,,,
,html-keyboard-response,427,1610513,0.0-225.0-1.0,null,<p></p>,null,,,,,,,,,,,,,,,,,,,,,,,
,do_trial,428,1616219,0.0-226.0-0.0,1165.3,,,,,,,,50,"1,0,1",4,forest,164,probe-168,0.437138036,0.321022971,0.221080064,0,,,,,,,,
,html-keyboard-response,429,1617223,0.0-226.0-1.0,null,<p></p>,null,,,,,,,,,,,,,,,,,,,,,,,
,do_trial,430,1622210,0.0-227.0-0.0,451.5,,,,,,,,51,"0,0,1",4,forest,165,probe-97,0.449327122,0.210195389,0.28420026,1,,,,,,,,
,html-keyboard-response,431,1623215,0.0-227.0-1.0,null,<p></p>,null,,,,,,,,,,,,,,,,,,,,,,,
,do_trial,432,1629258,0.0-228.0-0.0,null,,,,,,,,null,"1,0,0",4,forest,166,probe-16,0.461097956,0.394654852,0.129540985,,,,,,,,,
,html-keyboard-response,433,1630260,0.0-228.0-1.0,null,<p></p>,null,,,,,,,,,,,,,,,,,,,,,,,
,do_trial,434,1636301,0.0-229.0-0.0,null,,,,,,,,null,"0,0,0",4,forest,167,probe-182,0.459404843,0.359572536,0.179589061,,,,,,,,,
,html-keyboard-response,435,1637305,0.0-229.0-1.0,null,<p></p>,null,,,,,,,,,,,,,,,,,,,,,,,
,do_trial,436,1644015,0.0-230.0-0.0,2172.2,,,,,,,,49,"1,0,0",4,forest,168,probe-221,0.595977375,0.18970941,0.247938126,1,,,,,,,,
,html-keyboard-response,437,1645021,0.0-230.0-1.0,null,<p></p>,null,,,,,,,,,,,,,,,,,,,,,,,
,do_trial,438,1651768,0.0-231.0-0.0,2209.3,,,,,,,,50,"1,0,0",4,forest,169,probe-21,0.552930735,0.195468892,0.074405811,0,,,,,,,,
,html-keyboard-response,439,1652771,0.0-231.0-1.0,null,<p></p>,null,,,,,,,,,,,,,,,,,,,,,,,
,do_trial,440,1657705,0.0-232.0-0.0,398.0999999,,,,,,,,50,"1,0,0",4,forest,170,probe-52,0.561071259,0.316338209,0.11195206,0,,,,,,,,
,html-keyboard-response,441,1658707,0.0-232.0-1.0,null,<p></p>,null,,,,,,,,,,,,,,,,,,,,,,,
,do_trial,442,1664744,0.0-233.0-0.0,null,,,,,,,,null,"1,0,0",4,forest,171,probe-46,0.689865837,0.385922724,0.075937325,,,,,,,,,
,html-keyboard-response,443,1665746,0.0-233.0-1.0,null,<p></p>,null,,,,,,,,,,,,,,,,,,,,,,,
,do_trial,444,1671789,0.0-234.0-0.0,null,,,,,,,,null,"1,0,0",4,forest,172,probe-197,0.693489677,0.308553404,0.149940047,,,,,,,,,
,html-keyboard-response,445,1672791,0.0-234.0-1.0,null,<p></p>,null,,,,,,,,,,,,,,,,,,,,,,,
,do_trial,446,1678830,0.0-235.0-0.0,null,,,,,,,,null,"0,0,0",4,forest,173,probe-62,0.611579407,0.229655936,0.085598675,,,,,,,,,
,html-keyboard-response,447,1679831,0.0-235.0-1.0,null,<p></p>,null,,,,,,,,,,,,,,,,,,,,,,,
,do_trial,448,1686697,0.0-236.0-0.0,2329.9,,,,,,,,50,"1,0,0",4,forest,174,probe-44,0.601753212,0.297459148,0.086066644,0,,,,,,,,
,html-keyboard-response,449,1687703,0.0-236.0-1.0,null,<p></p>,null,,,,,,,,,,,,,,,,,,,,,,,
,do_trial,450,1693012,0.0-237.0-0.0,769.4000001,,,,,,,,50,"1,1,0",4,forest,175,probe-99,0.624552938,0.205530077,0.076993756,1,,,,,,,,
,html-keyboard-response,451,1694018,0.0-237.0-1.0,null,<p></p>,null,,,,,,,,,,,,,,,,,,,,,,,
,do_trial,452,1699713,0.0-238.0-0.0,1159.2,,,,,,,,51,"1,0,0",4,forest,176,probe-12,0.787258586,0.258126106,0.068640414,0,,,,,,,,
,html-keyboard-response,453,1700714,0.0-238.0-1.0,null,<p></p>,null,,,,,,,,,,,,,,,,,,,,,,,
,do_trial,454,1707678,0.0-239.0-0.0,2428.5,,,,,,,,51,"1,1,0",4,forest,177,probe-114,0.609006484,0.424010603,0.092379608,0,,,,,,,,
,html-keyboard-response,455,1708682,0.0-239.0-1.0,null,<p></p>,null,,,,,,,,,,,,,,,,,,,,,,,
,do_trial,456,1713792,0.0-240.0-0.0,569.8000002,,,,,,,,50,"0,0,1",4,forest,178,probe-115,0.445203527,0.340560525,0.101033695,0,,,,,,,,
,html-keyboard-response,457,1714794,0.0-240.0-1.0,null,<p></p>,null,,,,,,,,,,,,,,,,,,,,,,,
,do_trial,458,1720236,0.0-241.0-0.0,904.8000002,,,,,,,,51,"1,0,0",4,forest,179,probe-193,0.534518063,0.284689498,0.196161502,0,,,,,,,,
,html-keyboard-response,459,1721237,0.0-241.0-1.0,null,<p></p>,null,,,,,,,,,,,,,,,,,,,,,,,
,do_trial,460,1727279,0.0-242.0-0.0,null,,,,,,,,null,"0,0,0",4,forest,180,probe-68,0.526030627,0.352009846,0.165803045,,,,,,,,,
,html-keyboard-response,461,1728286,0.0-242.0-1.0,null,<p></p>,null,,,,,,,,,,,,,,,,,,,,,,,
,do_trial,462,1732836,0.0-243.0-0.0,13.79999971,,,,,,,,49,"1,0,0",4,forest,181,probe-93,0.526588228,0.325559701,0.060626148,1,,,,,,,,
,html-keyboard-response,463,1733838,0.0-243.0-1.0,null,<p></p>,null,,,,,,,,,,,,,,,,,,,,,,,
,do_trial,464,1740511,0.0-244.0-0.0,2133.3,,,,,,,,49,"0,0,0",4,forest,182,probe-138,0.452755154,0.32000956,0.07051545,0,,,,,,,,
,html-keyboard-response,465,1741514,0.0-244.0-1.0,null,<p></p>,null,,,,,,,,,,,,,,,,,,,,,,,
,do_trial,466,1746449,0.0-245.0-0.0,396.0999999,,,,,,,,50,"0,1,1",4,forest,183,probe-208,0.608591392,0.355225155,0.243317642,1,,,,,,,,
,html-keyboard-response,467,1747454,0.0-245.0-1.0,null,<p></p>,null,,,,,,,,,,,,,,,,,,,,,,,
,do_trial,468,1753345,0.0-246.0-0.0,1354.1,,,,,,,,49,"1,0,0",4,forest,184,probe-110,0.672303072,0.358995308,0.200930064,1,,,,,,,,
,html-keyboard-response,469,1754346,0.0-246.0-1.0,null,<p></p>,null,,,,,,,,,,,,,,,,,,,,,,,
,do_trial,470,1760094,0.0-247.0-0.0,1211.9,,,,,,,,50,"0,0,0",4,forest,185,probe-180,0.497182028,0.423632162,0.293576105,0,,,,,,,,
,html-keyboard-response,471,1761098,0.0-247.0-1.0,null,<p></p>,null,,,,,,,,,,,,,,,,,,,,,,,
,do_trial,472,1766465,0.0-248.0-0.0,826.2999997,,,,,,,,49,"0,1,0",4,forest,186,probe-89,0.723828579,0.264809447,0.24462766,0,,,,,,,,
,html-keyboard-response,473,1767471,0.0-248.0-1.0,null,<p></p>,null,,,,,,,,,,,,,,,,,,,,,,,
,do_trial,474,1773325,0.0-249.0-0.0,1317.3,,,,,,,,49,"1,0,0",4,forest,187,probe-75,0.545098505,0.187743895,0.076084317,1,,,,,,,,
,html-keyboard-response,475,1774328,0.0-249.0-1.0,null,<p></p>,null,,,,,,,,,,,,,,,,,,,,,,,
,do_trial,476,1779601,0.0-250.0-0.0,738.4000001,,,,,,,,49,"1,0,1",4,forest,188,probe-147,0.712007143,0.225617376,0.087812921,1,,,,,,,,
,html-keyboard-response,477,1780607,0.0-250.0-1.0,null,<p></p>,null,,,,,,,,,,,,,,,,,,,,,,,
,do_trial,478,1785677,0.0-251.0-0.0,534.4000001,,,,,,,,49,"1,1,0",4,forest,189,probe-132,0.681503968,0.342953077,0.07881512,1,,,,,,,,
,html-keyboard-response,479,1786680,0.0-251.0-1.0,null,<p></p>,null,,,,,,,,,,,,,,,,,,,,,,,
,do_bye,480,1788184,0.0-252.0-0.0,null,,,,,,,,null,,,,,,,,,,,,,,,,,
,do_travel,481,1794187,0.0-253.0-0.0,null,,,,,,,,null,,,,,,,,,,,,,,,,,
,do_welcome,482,1795694,0.0-253.0-1.0,null,,,,,,,,null,,,,,,,,,,,,,,,,,
,do_trial,483,1802238,0.0-254.0-0.0,2005.8,,,,,,,,49,"1,0,0",5,city,190,probe-58,1,0.185792072,0.062318821,1,,,,,,,,
,html-keyboard-response,484,1803241,0.0-254.0-1.0,null,<p></p>,null,,,,,,,,,,,,,,,,,,,,,,,
,do_trial,485,1807799,0.0-255.0-0.0,17,,,,,,,,50,"1,0,0",5,city,191,probe-13,1,0.240259738,0.076720765,0,,,,,,,,
,html-keyboard-response,486,1808801,0.0-255.0-1.0,null,<p></p>,null,,,,,,,,,,,,,,,,,,,,,,,
,do_trial,487,1814837,0.0-256.0-0.0,null,,,,,,,,null,"1,0,0",5,city,192,probe-131,0.91182109,0.276973714,0.169575856,,,,,,,,,
,html-keyboard-response,488,1815839,0.0-256.0-1.0,null,<p></p>,null,,,,,,,,,,,,,,,,,,,,,,,
,do_trial,489,1821542,0.0-257.0-0.0,1166,,,,,,,,51,"1,1,1",5,city,193,probe-128,0.772132867,0.268219828,0.202855169,1,,,,,,,,
,html-keyboard-response,490,1822543,0.0-257.0-1.0,null,<p></p>,null,,,,,,,,,,,,,,,,,,,,,,,
,do_trial,491,1827234,0.0-258.0-0.0,154.6999998,,,,,,,,49,"0,0,0",5,city,194,probe-190,0.658678546,0.162274617,0.206719263,0,,,,,,,,
,html-keyboard-response,492,1828235,0.0-258.0-1.0,null,<p></p>,null,,,,,,,,,,,,,,,,,,,,,,,
,do_trial,493,1832938,0.0-259.0-0.0,168.2000003,,,,,,,,49,"1,1,0",5,city,195,probe-65,0.660992628,0.213446642,0.18379268,1,,,,,,,,
,html-keyboard-response,494,1833941,0.0-259.0-1.0,null,<p></p>,null,,,,,,,,,,,,,,,,,,,,,,,
,do_trial,495,1838711,0.0-260.0-0.0,233.3000002,,,,,,,,49,"0,0,0",5,city,196,probe-87,0.583978763,0.163290033,0.145677528,0,,,,,,,,
,html-keyboard-response,496,1839713,0.0-260.0-1.0,null,<p></p>,null,,,,,,,,,,,,,,,,,,,,,,,
,do_trial,497,1844428,0.0-261.0-0.0,177.2000003,,,,,,,,49,"1,1,0",5,city,197,probe-83,0.64622181,0.252751229,0.054692141,1,,,,,,,,
,html-keyboard-response,498,1845432,0.0-261.0-1.0,null,<p></p>,null,,,,,,,,,,,,,,,,,,,,,,,
,do_trial,499,1850154,0.0-262.0-0.0,183.3000002,,,,,,,,50,"1,0,0",5,city,198,probe-20,0.63610708,0.331469688,0.178724241,0,,,,,,,,
,html-keyboard-response,500,1851160,0.0-262.0-1.0,null,<p></p>,null,,,,,,,,,,,,,,,,,,,,,,,
,do_trial,501,1855888,0.0-263.0-0.0,193.3000002,,,,,,,,50,"1,1,0",5,city,199,probe-39,0.692816959,0.370064149,0.053854341,1,,,,,,,,
,html-keyboard-response,502,1856891,0.0-263.0-1.0,null,<p></p>,null,,,,,,,,,,,,,,,,,,,,,,,
,do_trial,503,1862058,0.0-264.0-0.0,626.9000001,,,,,,,,51,"1,1,0",5,city,200,probe-49,0.741692818,0.41932467,0.128399115,0,,,,,,,,
,html-keyboard-response,504,1863061,0.0-264.0-1.0,null,<p></p>,null,,,,,,,,,,,,,,,,,,,,,,,
,do_trial,505,1868504,0.0-265.0-0.0,903.2000003,,,,,,,,49,"0,1,0",5,city,201,probe-162,0.636168198,0.49860041,0.240290213,0,,,,,,,,
,html-keyboard-response,506,1869506,0.0-265.0-1.0,null,<p></p>,null,,,,,,,,,,,,,,,,,,,,,,,
,do_trial,507,1874350,0.0-266.0-0.0,309.4000001,,,,,,,,49,"1,0,0",5,city,202,probe-152,0.555293687,0.3520204,0.380075776,1,,,,,,,,
,html-keyboard-response,508,1875356,0.0-266.0-1.0,null,<p></p>,null,,,,,,,,,,,,,,,,,,,,,,,
,do_trial,509,1880102,0.0-267.0-0.0,207,,,,,,,,51,"1,0,1",5,city,203,probe-19,0.406056259,0.246965542,0.429699395,1,,,,,,,,
,html-keyboard-response,510,1881107,0.0-267.0-1.0,null,<p></p>,null,,,,,,,,,,,,,,,,,,,,,,,
,do_trial,511,1885818,0.0-268.0-0.0,170.5999999,,,,,,,,51,"0,0,0",5,city,204,probe-143,0.309331694,0.220576212,0.4163854,0,,,,,,,,
,html-keyboard-response,512,1886822,0.0-268.0-1.0,null,<p></p>,null,,,,,,,,,,,,,,,,,,,,,,,
,do_trial,513,1891811,0.0-269.0-0.0,453.4000001,,,,,,,,49,"0,0,0",5,city,205,probe-154,0.442129693,0.092550572,0.550198588,0,,,,,,,,
,html-keyboard-response,514,1892813,0.0-269.0-1.0,null,<p></p>,null,,,,,,,,,,,,,,,,,,,,,,,
,do_trial,515,1898003,0.0-270.0-0.0,649.6999998,,,,,,,,49,"0,0,1",5,city,206,probe-164,0.342849513,0.055302641,0.672898288,0,,,,,,,,
,html-keyboard-response,516,1899005,0.0-270.0-1.0,null,<p></p>,null,,,,,,,,,,,,,,,,,,,,,,,
,do_trial,517,1905043,0.0-271.0-0.0,null,,,,,,,,null,"0,0,1",5,city,207,probe-212,0.287306699,0.233024661,0.47692939,,,,,,,,,
,html-keyboard-response,518,1906046,0.0-271.0-1.0,null,<p></p>,null,,,,,,,,,,,,,,,,,,,,,,,
,do_trial,519,1911104,0.0-272.0-0.0,523,,,,,,,,50,"0,0,0",5,city,208,probe-121,0.171769672,0.083435071,0.522304088,0,,,,,,,,
,html-keyboard-response,520,1912106,0.0-272.0-1.0,null,<p></p>,null,,,,,,,,,,,,,,,,,,,,,,,
,do_trial,521,1918478,0.0-273.0-0.0,1832.8,,,,,,,,50,"1,0,1",5,city,209,probe-222,0.282919725,0.132540906,0.461491209,0,,,,,,,,
,html-keyboard-response,522,1919483,0.0-273.0-1.0,null,<p></p>,null,,,,,,,,,,,,,,,,,,,,,,,
,do_trial,523,1925337,0.0-274.0-0.0,1316.6,,,,,,,,50,"0,0,0",5,city,210,probe-85,0.264309067,0.149757368,0.621980251,0,,,,,,,,
,html-keyboard-response,524,1926340,0.0-274.0-1.0,null,<p></p>,null,,,,,,,,,,,,,,,,,,,,,,,
,do_trial,525,1932246,0.0-275.0-0.0,1368.4,,,,,,,,50,"0,0,1",5,city,211,probe-230,0.202494382,0.103306783,0.64512349,0,,,,,,,,
,html-keyboard-response,526,1933251,0.0-275.0-1.0,null,<p></p>,null,,,,,,,,,,,,,,,,,,,,,,,
,do_trial,527,1939595,0.0-276.0-0.0,1803.4,,,,,,,,51,"0,0,1",5,city,212,probe-181,0.072884351,0.072388676,0.652486373,1,,,,,,,,
,html-keyboard-response,528,1940599,0.0-276.0-1.0,null,<p></p>,null,,,,,,,,,,,,,,,,,,,,,,,
,do_trial,529,1946264,0.0-277.0-0.0,1127.3,,,,,,,,50,"0,0,0",5,city,213,probe-17,0.207882251,0.138985609,0.659411829,0,,,,,,,,
,html-keyboard-response,530,1947267,0.0-277.0-1.0,null,<p></p>,null,,,,,,,,,,,,,,,,,,,,,,,
,do_trial,531,1952404,0.0-278.0-0.0,601.1999998,,,,,,,,50,"1,0,1",5,city,214,probe-170,0.314436824,0.164757155,0.769696496,0,,,,,,,,
,html-keyboard-response,532,1953410,0.0-278.0-1.0,null,<p></p>,null,,,,,,,,,,,,,,,,,,,,,,,
,do_trial,533,1959358,0.0-279.0-0.0,1411.9,,,,,,,,50,"0,0,1",5,city,215,probe-176,0.383623638,0.057893496,0.84550961,0,,,,,,,,
,html-keyboard-response,534,1960364,0.0-279.0-1.0,null,<p></p>,null,,,,,,,,,,,,,,,,,,,,,,,
,do_trial,535,1966321,0.0-280.0-0.0,1420.9,,,,,,,,50,"1,0,1",5,city,216,probe-184,0.420433665,0.10081821,0.654579885,0,,,,,,,,
,html-keyboard-response,536,1967324,0.0-280.0-1.0,null,<p></p>,null,,,,,,,,,,,,,,,,,,,,,,,
,do_trial,537,1972783,0.0-281.0-0.0,919.6999998,,,,,,,,50,"0,0,0",5,city,217,probe-05,0.396473761,0.164243296,0.639975166,0,,,,,,,,
,html-keyboard-response,538,1973789,0.0-281.0-1.0,null,<p></p>,null,,,,,,,,,,,,,,,,,,,,,,,
,do_trial,539,1980680,0.0-282.0-0.0,2352.7,,,,,,,,49,"0,0,1",5,city,218,probe-24,0.338345528,0.10705979,0.713859144,0,,,,,,,,
,html-keyboard-response,540,1981683,0.0-282.0-1.0,null,<p></p>,null,,,,,,,,,,,,,,,,,,,,,,,
,do_trial,541,1986743,0.0-283.0-0.0,523.8000002,,,,,,,,49,"1,1,1",5,city,219,probe-102,0.347827294,0.099119207,0.616471938,1,,,,,,,,
,html-keyboard-response,542,1987748,0.0-283.0-1.0,null,<p></p>,null,,,,,,,,,,,,,,,,,,,,,,,
,do_trial,543,1993718,0.0-284.0-0.0,1431.9,,,,,,,,50,"0,0,1",5,city,220,probe-126,0.435896352,0.159179225,0.58025765,0,,,,,,,,
,html-keyboard-response,544,1994719,0.0-284.0-1.0,null,<p></p>,null,,,,,,,,,,,,,,,,,,,,,,,
,do_trial,545,1999423,0.0-285.0-0.0,163.8000002,,,,,,,,49,"0,0,1",5,city,221,probe-155,0.347518152,0.238402272,0.579229546,0,,,,,,,,
,html-keyboard-response,546,2000429,0.0-285.0-1.0,null,<p></p>,null,,,,,,,,,,,,,,,,,,,,,,,
,do_trial,547,2004967,0.0-286.0-0.0,0.099999905,,,,,,,,49,"0,0,0",5,city,222,probe-157,0.378189565,0.215242601,0.569761471,0,,,,,,,,
,html-keyboard-response,548,2005972,0.0-286.0-1.0,null,<p></p>,null,,,,,,,,,,,,,,,,,,,,,,,
,do_trial,549,2012031,0.0-287.0-0.0,1523.3,,,,,,,,50,"0,0,0",5,city,223,probe-74,0.440527405,0.102869552,0.498957037,0,,,,,,,,
,html-keyboard-response,550,2013032,0.0-287.0-1.0,null,<p></p>,null,,,,,,,,,,,,,,,,,,,,,,,
,do_trial,551,2017623,0.0-288.0-0.0,53.0999999,,,,,,,,51,"1,0,0",5,city,224,probe-107,0.323859852,0.073831835,0.389975418,0,,,,,,,,
,html-keyboard-response,552,2018628,0.0-288.0-1.0,null,<p></p>,null,,,,,,,,,,,,,,,,,,,,,,,
,do_trial,553,2024668,0.0-289.0-0.0,null,,,,,,,,null,"0,0,0",5,city,225,probe-43,0.246523188,0.060128677,0.446779615,,,,,,,,,
,html-keyboard-response,554,2025670,0.0-289.0-1.0,null,<p></p>,null,,,,,,,,,,,,,,,,,,,,,,,
,do_trial,555,2031066,0.0-290.0-0.0,860.4000001,,,,,,,,49,"0,0,1",5,city,226,probe-200,0.37446193,0.102027549,0.415773687,0,,,,,,,,
,html-keyboard-response,556,2032070,0.0-290.0-1.0,null,<p></p>,null,,,,,,,,,,,,,,,,,,,,,,,
,do_trial,557,2036614,0.0-291.0-0.0,5.299999714,,,,,,,,50,"1,0,1",5,city,227,probe-71,0.352318627,0.123161025,0.550673126,0,,,,,,,,
,html-keyboard-response,558,2037616,0.0-291.0-1.0,null,<p></p>,null,,,,,,,,,,,,,,,,,,,,,,,
,do_trial,559,2043285,0.0-292.0-0.0,1131.5,,,,,,,,49,"0,0,1",5,city,228,probe-179,0.392236042,0.109151571,0.426940588,0,,,,,,,,
,html-keyboard-response,560,2044288,0.0-292.0-1.0,null,<p></p>,null,,,,,,,,,,,,,,,,,,,,,,,
,do_trial,561,2048826,0.0-293.0-0.0,0.200000286,,,,,,,,50,"0,1,0",5,city,229,probe-70,0.312237392,0.15486131,0.603646356,1,,,,,,,,
,html-keyboard-response,562,2049831,0.0-293.0-1.0,null,<p></p>,null,,,,,,,,,,,,,,,,,,,,,,,
,do_bye,563,2051335,0.0-294.0-0.0,null,,,,,,,,null,,,,,,,,,,,,,,,,,
,audio-keyboard-response,564,2055253,0.0-294.0-1.0,3916.9,run_exp/static/audio/clip_28_all_done_day_1.m4a,32,,,,,,,,,,,,,,,,"1,4,0,2,3,5","97,32,95,194,165,100,10,53,40,145,214,60,6,136,14,117,166,159,208,150,144,193,34,177,190,44,115,171,110,168,185,71,93,173,197,28,76,212,78,121,79,83,49,33,72,0,111,85,198,112,206,129,213,90,222,172,188,164,26,91,46,148,31,143,89,225,94,182,59,132,135,205,81,116,35,102,63,186,133,25,152,128,108,203,66,139,160,36,118,24,219,1,217,134,3,195,29,56,122,80,174,141,162,119,124,191,37,140,58,47,7,65,170,104,224,5,50,209,105,216,123,226,103,107,157,21,149,223,39,204,155,13,187,201,55,184,99,210,52,87,68,202,77,54,147,75,218,138,8,22,227,176,228,158,27,30,215,17,126,62,41,9,200,2,167,96,15,181,220,20,51,45,196,61,43,98,11,113,114,192,67,92,137,207,109,179,88,74,146,131,57,12,130,127,189,64,86,82,19,38,48,161,151,18,142,153,163,211,120,221,84,229,180,16,169,175,183,4,23,101,125,154,156,73,106,42,199,70,178,69","3,11,6,24,1,10,14,17,7,12,19,22,0,13,9,16,8,5,23,2,20,21,4,18,15","0.29388341191962325,0.3074381837653733,0.13406746974387132,0.3185489698329833,0.18520697435887803,0.1557866801181355,0.19187495164469529,0.06446538141781787,0.2382325218048421,0.16157996228371713,0.11184843448440564,0.11973412239857266,0.26727299293001083,0.41173961671827886,0.574354827700128,0.6077306349550176,0.6183623235662792,0.5414082911424657,0.5412206226171385,0.6783809207703335,0.7881826547347341,0.4858144717961882,0.4030180607806256,0.5976559150104279,0.5998499467471842,0.6383475196985543,0.4769825879895072,0.43022251919414656,0.5070457637211426,0.6323038204179301,0.5242932834640311,0.551942128366962,0.5622590338433319,0.6079612233699132,0.5799648734617043,0.5710867386449835,0.552931557870423,0.6716858291499256,0.576951727712622,0.6306691338009734,0.6222789026515092,0.6995478829360987,0.7476621860959953,0.6412400148742117,0.5610789966993545,0.5001979600965343,0.47455630174478625,0.5679430680694948,0.6016357529905911,0.5178159124423641,0.5934413934263983,0.6450392750415889,0.5133971251304409,0.3386658849802144,0.38828885465178054,0.4158100692028016,0.29509332091664275,0.36575395070472966,0.3787375611575887,0.2869449428186143,0.37205848297673766,0.4340509096710518,0.4977428902960192,0.4953725921700231,0.44893636492710615,0.37934156886095516,0.44494461211483183,0.42987150547400094,0.35168557754079316,0.28772729846670014,0.48902665029614484,0.3034461219809644,0.33263905560671736,0.44206959443429145,0.370695950251108,0.3044708222649777,0.2982721591186018,0.3832517498133429,0.2988961970156923,0.3901991525490224,0.2877792312111047,0.4615464513742798,0.4407006635682989,0.5145629597078291,0.3875624400471279,0.25841223326441737,0.2540432067933009,0.24043330341028127,0.2668859786261512,0.3704912756677271,0.49150268677909176,0.6594673603911485,0.7127182436529311,0.6041779342348808,0.4501462242659852,0.5231325191619073,0.5199454932305508,0.6002256613234183,0.5599435552623547,0.5733313182058377,0.590379542627642,0.5585387575892986,0.6052973899031142,0.3583704220753271,0.7246038284374348,0.653743031131457,0.7997289820150979,0.7701202423906058,0.7266687713394613,0.7155948790176788,0.6460317236860122,0.595155720622947,0.6864253678839703,0.6765689755245472,0.7247891731547526,0.6870990804187379,0.6589544499128417,0.6693668987461409,0.6450572422333142,0.7633320158570404,0.7206174538334683,0.7913082127417097,0.7237478201425935,0.5983545848761344,0.6584843329687418,0.7054152454593914,0.8833023902179512,0.7199226451146622,0.61792340616002,0.6296996450529226,0.60369793565823,0.5144820328735681,0.47013111810563407,0.4617206300570399,0.3393618234070227,0.20896720143816794,0.13029267198870906,0.21134661908315053,0.294717416133687,0.22938702543828002,0.4109884641962004,0.2918783761498412,0.3036534915370898,0.22231872150299165,0.38950582941996686,0.4441822252039691,0.2796721950435643,0.26504071292627596,0.24693152643039512,0.3681445965812711,0.28318231718474635,0.07106248538535777,0.05225724214490194,0.21725288973293322,0.1555835385373046,0.23779331051983427,0.22086004368944817,0.254006286047445,0.30000813894847383,0.2793393890572863,0.2612232459787506,0.3754520926679376,0.22466908047161965,0.24750177150665806,0.3940694501399906,0.35676893669547804,0.2637984136862958,0.43625776790458776,0.32990962697268883,0.3673462269176318,0.35560348565133615,0.3203727554504328,0.3429963307703566,0.32306335827848637,0.3232030562756294,0.34223769924070746,0.28811673317461806,0.3458528425483187,0.30096096141382406,0.3566765532430179,0.3315723833567452,0.283234107302385,0.2217738397453822,0.20286900673851554,0.3170305969254079,0.47333289548565194,0.4292230273587246,0.43866767688578995,0.42065780912843276,0.367285466766517,0.35608081337791264,0.3101840646578377,0.2773811992390339,0.20197901459059875,0.29666399821203576,0.27595484588007974,0.3861558920550987,0.32052614413877933,0.36155736294716134,0.30667362423433936,0.3675044779997309,0.34424558268557454,0.3366330367560806,0.34977213021885073,0.27298449217165094,0.37046499614494866,0.37347566924791264,0.3198195501304171,0.4095557905928882,0.39470412801824895,0.36915263371636087,0.571614359073237,0.5142006370674929,0.37923633732377793,0.318119132535583,0.43165911091203923,0.2902842397354321,0.21324494954391612,0.27095908562627125,0.29479385268546293,0.2823722226726349,0.3619332599765132,0.3336443592454168,0.2311688966381552,0.37635965427005685,0.32170514729704913,0.2643312257986126,0.2083495241489075,0.27120339415455297,0.48172236589626,0.5100360118183019,0.3885115589597526,0.42688503441151987,0.3885535716807034,0.3982985044254771,0.28459021479431895,0.2964703057927809,0.2909946430356176,0.1689443339739191,0.2538799935298788,0.22813547789979333,0.3634762823784692,0.2846221270735922,0.3633780820870902,0.27033834324094136,0.3778781969340688,0.3019150962205239,0.3452442147270757,0.32134649833516465,0.2704221592015098","0.21703056282520677,0.17185619444126343,0.12156005720791388,0.14827956407206375,0.14467007066452062,0.07437721733329991,0.10203338278701615,0.20585616741376966,0.31639246122754805,0.19317762975075967,0.13414380318068791,0.1176140876325397,0.2031642005595797,0.40800106801970953,0.38147089216036434,0.3608336015739469,0.3104596873529479,0.24535994085261376,0.23328026787303477,0.21855412233798505,0.26868744665750316,0.21124355243808332,0.1891866396175326,0.19091239347218525,0.1745850185818835,0.21052533319265437,0.2875080118641793,0.27510529631173647,0.268051520956855,0.535493659150072,0.4569619698678451,0.4450229860777343,0.3697447087395312,0.33786942102267914,0.4131867459459786,0.15741497592829157,0.23075012046400292,0.2368322335353847,0.21431019785005093,0.25974712375060355,0.1697148252533117,0.2709878800805377,0.27573183197941503,0.17586516203259214,0.08039542072481502,0.05041350282358824,0.1527773395503728,0.2784121254903525,0.15972027340211026,0.3204896007019167,0.4448890700490323,0.58087267868355,0.5875465200211203,0.5406293530250873,0.5304769673123624,0.6126169158786692,0.49653779439514084,0.5433201281460412,0.6329361083116625,0.7682196279201152,0.690534284144458,0.6235748733073098,0.6517857793618593,0.6398017288148843,0.6384492375242815,0.7181452291602416,0.6468451438336434,0.6304125110751234,0.6093661028913828,0.4891466018714279,0.3181326064451285,0.352488625759018,0.4616897486975363,0.4728573888819232,0.47437647781685294,0.6088525131930801,0.6984575716683545,0.6218776737046926,0.6183017301892072,0.6347281229934789,0.5769427289543495,0.5259562210304268,0.5171960813574819,0.5030913908679787,0.6170510440712934,0.6580318949953936,0.6651547144904304,0.6398450323197734,0.6439256413759677,0.7228990406354787,0.5909987954059177,0.7158336930222439,0.6263308896427843,0.4272956270677372,0.4719704018307255,0.3575997521619628,0.4948086519004023,0.46040137358621525,0.4854614078737355,0.23841366440777598,0.18484595600505382,0.14435676908727219,0.18845180309827925,0.2745572281041641,0.08492386628694046,0.11800945737649705,0.11106835141649313,0.20173510117133703,0.23556267432803707,0.16298012188803807,0.14189961193763814,0.22442158888092284,0.19991792968190425,0.2923039381700325,0.25855016007945236,0.12667118852470083,0.09565009698373081,0.1270182513613377,0.38325548382038854,0.31598870099577897,0.2592433741731934,0.34668428533436163,0.24522215424114416,0.16529618155077516,0.336002476285582,0.2758467372530063,0.264268768125454,0.1814624405960133,0.19976401243204095,0.15978554400756334,0.1865944215061321,0.1212367019942002,0.08623898827778582,0.18452908768108198,0.05251208625749351,0.08302336700924096,0.1620339568306487,0.09874543372834861,0.149643699206027,0.2722298794511063,0.2922095181879342,0.2233400338648547,0.25480928841725936,0.09429720275162705,0.052439630908662715,0.09046393387868772,0.07418442005973887,0.1214952984233203,0.054332877688053,0.20078322348005556,0.2386031865307461,0.057845221594174386,0.14579294821830874,0.12123272034891094,0.10867472940510528,0.0702701558863242,0.09375271596171983,0.08096055330423109,0.07619470978420094,0.11877905336265503,0.1208312658030715,0.2607094303925429,0.1301256667777183,0.22068781130997867,0.2514593758672016,0.20616549510922738,0.2726786216142796,0.12725763097133663,0.055779932719917574,0.08776259138103075,0.07352862310918472,0.07378779189140251,0.24945870237920328,0.4608828809105205,0.5250277928545467,0.7155671437920083,0.6812534712969733,0.6755141717901685,0.574868273676582,0.6715520304852997,0.7237702355674926,0.6437740692953186,0.7343122201620562,0.7127601508526253,0.6279909976118364,0.6448717079081493,0.7700149207203307,0.6297426442781708,0.6156413522745715,0.6046412785099368,0.6702301719368142,0.7396866568054358,0.6823727343163266,0.5218194068030193,0.5633255963993181,0.515745462934164,0.6960065426033252,0.6017066770853261,0.7095422035793126,0.6450365762817626,0.6459100260203228,0.4571847548502529,0.42608353951648187,0.49489117864186605,0.5435982583569972,0.5465623376055362,0.6368787609522266,0.6248330415426532,0.5403552923282556,0.7016377694592592,0.7747470298045643,0.8061961252641365,0.6253623290880931,0.39360852252569445,0.23871783945656222,0.15078837112573118,0.13051030360285623,0.22431832566137547,0.2964225716211222,0.3566665168274088,0.232909709669083,0.09125152287641894,0.09352445955955718,0.14757014619575556,0.1792793324034388,0.09630857823100294,0.07289582685841021,0.0946474360839362,0.12448597534351481,0.1897652131287395,0.30460024492370624,0.24602905184816426,0.26876262826161124,0.24809840354107457,0.26178775960442663,0.28138307675758895,0.4139260048000488,0.2831570890007932,0.2839887746271524,0.2705534035642253,0.2213465076501153,0.1275864779733265,0.08861562534578762,0.1336589729902727,0.17758253750087022,0.12224861974216135,0.18903674567524648,0.17187537472251574,0.17538503096877037,0.2422904615861151","0.5512618623281634,0.5054777842266879,0.6161022049421545,0.5311016398407697,0.600568420642064,0.6602995668129689,0.6891150655165252,0.6487203321897534,0.6556222670977871,0.6550741907614477,0.5905645988564734,0.5565456574912506,0.3754481867577577,0.4217074798901001,0.36425889020423663,0.324313884952796,0.16917895352367818,0.05635123891570189,0.13509535985704757,0.10521344956703287,0.16057763222273477,0.0745657970036431,0.0713049968728178,0.06678283860092941,0.08350626162184291,0.13269117779232853,0.2153270054302609,0.1047876264551828,0.19778705717010675,0.24206724138483182,0.1625754093461087,0.08406295497134664,0.15781577653498755,0.21679648182434746,0.16572837444505775,0.058712324260720566,0.07661268802350628,0.11801794406538318,0.09045150127019058,0.11626477718740567,0.09839175524410569,0.1071294261084339,0.16443778137192483,0.17728236981642806,0.197917861447688,0.1887075238862144,0.13026010174125552,0.09296550360613379,0.1504247615661828,0.2052145954889965,0.20408429472647743,0.10157588371603335,0.20562679562632208,0.05252929048333707,0.18435529500467737,0.20870558228143526,0.1198667914474957,0.17916420257918111,0.14115184648669515,0.20679012585810114,0.12527132864025428,0.138665851558595,0.15117897852952053,0.20753246787519972,0.21872588789329783,0.22139942698164813,0.15252933903801263,0.2131943139849961,0.2571182331177241,0.09418686862152241,0.07769521658303605,0.08322271898341126,0.05978215642462034,0.15496625056752333,0.24957537290441617,0.26506782409265006,0.17798389651826077,0.21726265695093283,0.09530828849226758,0.13724669805681075,0.17476255202346797,0.15435028721698213,0.1154102830790933,0.171994731528082,0.2430679621680777,0.15197550794338793,0.15022547697461833,0.23547243840866716,0.052886814627624366,0.13158148717500226,0.22705742174636498,0.2922882408495214,0.26968013196339224,0.12274662260390833,0.07116167949609509,0.06138701272174231,0.12457758587413124,0.08853227307290422,0.0719281442786777,0.13745693640544518,0.17577015244172242,0.1619961984585869,0.05126061882847092,0.164304361572314,0.08110691607501329,0.2069105355488494,0.08519750198237151,0.12180888606484111,0.241564484781024,0.05287479937072355,0.06384264277329402,0.07148925229128648,0.12663474415376766,0.07795024573178966,0.06426494637870475,0.10368920473355965,0.08348595398413361,0.17351883010689123,0.08028662087953235,0.0844532830705441,0.1334093788247711,0.11649714933645701,0.2362715231715068,0.2546872590218347,0.21901668386674464,0.1297967519152851,0.2370399508813123,0.21185405989288936,0.24787900753337133,0.24890427391842967,0.3535382710572004,0.4726786747650327,0.4246915457870227,0.5896063370693598,0.5961898771728156,0.7358441229410129,0.7919093871289944,0.7066965516091409,0.6238884778000976,0.7197342479941236,0.7078734029380912,0.5302796013794006,0.5019174074458035,0.5477622312557497,0.6375897336840004,0.5108684619526838,0.5039993865456759,0.3872892673881305,0.4845216936451147,0.5659711649705611,0.5987499849338069,0.5383921281445845,0.4939897295016257,0.6235982213526231,0.6107325432514331,0.7173688951395188,0.6264241669860823,0.6420951779554013,0.6062115340912088,0.6440295831326189,0.6303421565385419,0.5345933147948415,0.6394401953427832,0.6371892460883081,0.5560434770567396,0.5668337481565894,0.5632813855460639,0.5593709684217724,0.6360391771904986,0.7004045087583384,0.6385443713528859,0.5853273933040594,0.4417551409708096,0.2498462004830305,0.2013081079154848,0.16888676464531166,0.15989270804717248,0.26222323084196025,0.2713850653643478,0.2532890590306825,0.34189943033364145,0.17672033967574374,0.07667350818343666,0.05520754721815177,0.20023297864751066,0.11122449676767093,0.07539724098891806,0.07264450167393159,0.06228183142744562,0.0973683651853208,0.16329050773305073,0.062031417956717134,0.07808493644550656,0.06637284059057323,0.10462509800881932,0.08324522013374304,0.2308562673647764,0.2451715203608801,0.18012454094327068,0.057246725036102064,0.09275500348027692,0.13870697075867017,0.2120292382893746,0.19613325118890065,0.05556100666501521,0.07763751215485684,0.10593306184503964,0.2488849256824147,0.15683983485261577,0.13406247573280372,0.354157531028105,0.3972254381777632,0.44288998446053834,0.5367593155721626,0.48930422371996535,0.4982696736956843,0.5145423008376181,0.5589268349003335,0.5942892171636832,0.4922913724008794,0.6269061005709328,0.5972977577287297,0.5455724575397644,0.6024538981096997,0.617657545431595,0.6319355868390583,0.617262354861843,0.6062035125507952,0.65744375182731,0.49939561429289603,0.515732999991211,0.6705506419533254,0.669708843219357,0.6492845039011106,0.7104270731732053,0.6885996856090952,0.7287344605573649,0.662311488176124,0.5549610193823581,0.5566612085220224,0.5462821428906469,0.6255523559257882,0.514942788001907,0.5968831190281102,0.6994781406435057,0.5785298900888481,0.6743490838277428,0.5388161214268077,0.7115961206266295,0.5671276512430972","88,205,206,127,162,169,86,41,128,168,200,203,208,47,125,83,45,49,126,44,82,89,48,165,121,209,80,120,201,123,43,161,163,85,202,84,164,46,204,122,160,81,87,40,124","14,1,5,2,1,1,2,3,5,7,2,3,1,2,2,1,5,6,2,7,1,1,4,1,1,1,6,5,1,1,1,2,7,6,4,3,1,4,7,1,1,1,3,1,2,5,1,3,6,1,5,4,7,1,1,7,1,1,4,5"