success,trial_type,trial_index,time_elapsed,internal_node_id,interactions,blur_events,focus_events,fullscreenenter_events,fullscreenexit_events,rt,stimulus,key_press,subject_id,participant_id,age,gender,prompt,response,choice_outcomes,context_n,context_img_id,trial_n,probe_img_id,pR_red,pR_white,pR_black,outcome,contextArray_ind,validImageProbes,invalidImageProbes,pRew_Red,pRew_White,pRew_Black,availableForMemProbe,choice_blocks
TRUE,fullscreen,0,5459,0.0-0.0,"""event"",""trial"",""time""
""fullscreenenter"",""0"",""4487""
","
","
","""event"",""trial"",""time""
""fullscreenenter"",""0"",""4487""
","
",,,,,,,,,,,,,,,,,,,,,,,,,,
,pavlovia,1,5461,0.0-1.0,"""event"",""trial"",""time""
""fullscreenenter"",""0"",""4487""
","
","
","""event"",""trial"",""time""
""fullscreenenter"",""0"",""4487""
","
",,,,,,,,,,,,,,,,,,,,,,,,,,
,instruc1,2,50604,0.0-2.0,"""event"",""trial"",""time""
""fullscreenenter"",""0"",""4487""
","
","
","""event"",""trial"",""time""
""fullscreenenter"",""0"",""4487""
","
",null,run_exp/static/audio/clip_1_welcome.m4a,null,344,478,21,Female,"<div class='center'><p>Welcome! This is the first part of the study. It will last ~30 minutes. In part 1 and part 2 of the study, you are the head captain of a pirate ship traveling around the world to different islands. You will play a few different games throughout these two parts. Here is an overview of them:</p><br><p>Part 1 (today)</p><p>1. Instructions, practice game, and quiz</p><p>2. Pick a pirate game on 6 different islands</p><br><p>Part 2 (tomorrow)</p><p>3. Pick a pirate game and memory game</p><p>4. Where did you see this ship? </p></div>",,,,,,,,,,,,,,,,,,
,html-keyboard-response,3,71345,0.0-3.0,"""event"",""trial"",""time""
""fullscreenenter"",""0"",""4487""
","
","
","""event"",""trial"",""time""
""fullscreenenter"",""0"",""4487""
","
",20770.2,"<div class='center'><p>Welcome! This is the first part of the study. It will last ~30 minutes. In part 1 and part 2 of the study, you are the head captain of a pirate ship traveling around the world to different islands. You will play a few different games throughout these two parts. Here is an overview of them:</p><br><p>Part 1 (today)</p><p>1. Instructions, practice game, and quiz</p><p>2. Pick a pirate game on 6 different islands</p><br><p>Part 2 (tomorrow)</p><p>3. Pick a pirate game and memory game</p><p>4. Where did you see this ship? </p><p><b>[Press the space bar to continue]</b></p></div>",32,,,,,,,,,,,,,,,,,,,,,,,
,instruc2,4,76698,0.0-4.0,"""event"",""trial"",""time""
""fullscreenenter"",""0"",""4487""
","
","
","""event"",""trial"",""time""
""fullscreenenter"",""0"",""4487""
","
",null,run_exp/static/audio/clip_2_different_places.m4a,null,,,,,"<div class='center'><p>Today, you’ll visit these 6 islands on your journey. You'll be able to see these islands from your ship.</p><p><img src='run_exp/static/images/contexts/all_contexts.png' height='500'></p></div>",,,,,,,,,,,,,,,,,,
,html-keyboard-response,5,78703,0.0-5.0,"""event"",""trial"",""time""
""fullscreenenter"",""0"",""4487""
","
","
","""event"",""trial"",""time""
""fullscreenenter"",""0"",""4487""
","
",2005.4,"<div class='center'><p>Today, you’ll visit these 6 islands on your journey. You'll be able to see these islands from your ship.</p><p><img src='run_exp/static/images/contexts/all_contexts.png' height='500'></p><p><b>[Press the space bar to continue]</b></p></div>",32,,,,,,,,,,,,,,,,,,,,,,,
,instruc3,6,88383,0.0-6.0,"""event"",""trial"",""time""
""fullscreenenter"",""0"",""4487""
","
","
","""event"",""trial"",""time""
""fullscreenenter"",""0"",""4487""
","
",null,run_exp/static/audio/clip_3_goal_of_game_1.m4a,null,,,,,"<div class='center'><p> The pirates on your ship will rob other ships as they leave the island.</p> These ships have just sold their goods to the islanders, so they will be filled with lots and lots of gold.</p><p><img src='run_exp/static/images/tutorial/ship_center.png' height='400'></p></div>",,,,,,,,,,,,,,,,,,
,html-keyboard-response,7,95126,0.0-7.0,"""event"",""trial"",""time""
""fullscreenenter"",""0"",""4487""
","
","
","""event"",""trial"",""time""
""fullscreenenter"",""0"",""4487""
","
",6743.4,"<div class='center'><p> The pirates on your ship will rob other ships as they leave the island.</p> These ships have just sold their goods to the islanders, so they will be filled with lots and lots of gold.</p><p><img src='run_exp/static/images/tutorial/ship_center.png' height='400'></p><p><b>[Press the space bar to continue]</b></p></div>",32,,,,,,,,,,,,,,,,,,,,,,,
,instruc4,8,123109,0.0-8.0,"""event"",""trial"",""time""
""fullscreenenter"",""0"",""4487""
","
","
","""event"",""trial"",""time""
""fullscreenenter"",""0"",""4487""
","
",null,run_exp/static/audio/clip_4_goal_of_game_2.m4a,null,,,,,"<div class='center'><p>As the head captain, you do not have to rob any ships yourself. Another pirate will be doing the robbing for you. First, you will choose a pirate to rob the next ship.</p><p><img src='run_exp/static/images/tutorial/pirates_all_crop.png' height='200'></p><p>Then, you'll see if the pirate successfully robbed the ship of their gold. If they were successful, then you'll get a stack of gold coins like this:</p><p><img src='run_exp/static/images/tutorial/reward.png' height='150'></p><p> If they were <b>not</b> successful, then you'll get no gold coins, and you'll see a big red x like this: </p><p><img src='run_exp/static/images/tutorial/reward_no.png' height='150'></p><p> How much bonus money you make is based on how many gold coins you collect.</p><div>",,,,,,,,,,,,,,,,,,
,html-keyboard-response,9,125007,0.0-9.0,"""event"",""trial"",""time""
""fullscreenenter"",""0"",""4487""
","
","
","""event"",""trial"",""time""
""fullscreenenter"",""0"",""4487""
","
",1896.3,"<div class='center'><p>As the head captain, you do not have to rob any ships yourself. Another pirate will be doing the robbing for you. First, you will choose a pirate to rob the next ship.</p><p><img src='run_exp/static/images/tutorial/pirates_all_crop.png' height='200'></p><p>Then, you'll see if the pirate successfully robbed the ship of their gold. If they were successful, then you'll get a stack of gold coins like this:</p><p><img src='run_exp/static/images/tutorial/reward.png' height='150'></p><p> If they were <b>not</b> successful, then you'll get no gold coins, and you'll see a big red x like this: </p><p><img src='run_exp/static/images/tutorial/reward_no.png' height='150'></p><p> How much bonus money you make is based on how many gold coins you collect.</p<p><b>[Press the space bar to continue]</b></p></div>",32,,,,,,,,,,,,,,,,,,,,,,,
,instruc5,10,146213,0.0-10.0,"""event"",""trial"",""time""
""fullscreenenter"",""0"",""4487""
","
","
","""event"",""trial"",""time""
""fullscreenenter"",""0"",""4487""
","
",21204.6,run_exp/static/audio/clip_5_probabilistic.m4a,49,,,,,"<div class='center'><p>Even the most skilled pirate can not rob EVERY ship.</p><p> Some ships will have very strong protections against pirate attacks.</p><p> Blue beard, here, is very, very good at robbing ships, but he won't be successful every time he tries to rob one.</p><p> You can press the <b>‘1’</b> key on the keyboard to choose him.</p><p> Try choosing him 10 times to see how often he succeeds at robbing a ship. </p><p><img src='run_exp/static/images/tutorial/blue.png' height='500'></p></div>",,,,,,,,,,,,,,,,,,
,html-keyboard-response,11,147714,0.0-11.0,"""event"",""trial"",""time""
""fullscreenenter"",""0"",""4487""
","
","
","""event"",""trial"",""time""
""fullscreenenter"",""0"",""4487""
","
",null,<div class='center'><p><img src='run_exp/static/images/tutorial/blue_win.png' height='500'></p></div>,null,,,,,,,,,,,,,,,,,,,,,,,
,html-keyboard-response,12,148814,0.0-12.0,"""event"",""trial"",""time""
""fullscreenenter"",""0"",""4487""
","
","
","""event"",""trial"",""time""
""fullscreenenter"",""0"",""4487""
","
",1098.1,<div class='center'><img src='run_exp/static/images/tutorial/blue.png' height='500'></p></div>,49,,,,,,,,,,,,,,,,,,,,,,,
,html-keyboard-response,13,150318,0.0-13.0,"""event"",""trial"",""time""
""fullscreenenter"",""0"",""4487""
","
","
","""event"",""trial"",""time""
""fullscreenenter"",""0"",""4487""
","
",null,<div class='center'><p><img src='run_exp/static/images/tutorial/blue_win.png' height='500'></p></div>,null,,,,,,,,,,,,,,,,,,,,,,,
,html-keyboard-response,14,150801,0.0-14.0,"""event"",""trial"",""time""
""fullscreenenter"",""0"",""4487""
","
","
","""event"",""trial"",""time""
""fullscreenenter"",""0"",""4487""
","
",481.9,<div class='center'><img src='run_exp/static/images/tutorial/blue.png' height='500'></p></div>,49,,,,,,,,,,,,,,,,,,,,,,,
,html-keyboard-response,15,152305,0.0-15.0,"""event"",""trial"",""time""
""fullscreenenter"",""0"",""4487""
","
","
","""event"",""trial"",""time""
""fullscreenenter"",""0"",""4487""
","
",null,<div class='center'><p><img src='run_exp/static/images/tutorial/blue_win.png' height='500'></p></div>,null,,,,,,,,,,,,,,,,,,,,,,,
,html-keyboard-response,16,152612,0.0-16.0,"""event"",""trial"",""time""
""fullscreenenter"",""0"",""4487""
","
","
","""event"",""trial"",""time""
""fullscreenenter"",""0"",""4487""
","
",305.6,<div class='center'><img src='run_exp/static/images/tutorial/blue.png' height='500'></p></div>,49,,,,,,,,,,,,,,,,,,,,,,,
,html-keyboard-response,17,154113,0.0-17.0,"""event"",""trial"",""time""
""fullscreenenter"",""0"",""4487""
","
","
","""event"",""trial"",""time""
""fullscreenenter"",""0"",""4487""
","
",null,<div class='center'><p><img src='run_exp/static/images/tutorial/blue_no_win.png' height='500'></p></div>,null,,,,,,,,,,,,,,,,,,,,,,,
,html-keyboard-response,18,154447,0.0-18.0,"""event"",""trial"",""time""
""fullscreenenter"",""0"",""4487""
","
","
","""event"",""trial"",""time""
""fullscreenenter"",""0"",""4487""
","
",332.4,<div class='center'><img src='run_exp/static/images/tutorial/blue.png' height='500'></p></div>,49,,,,,,,,,,,,,,,,,,,,,,,
,html-keyboard-response,19,155949,0.0-19.0,"""event"",""trial"",""time""
""fullscreenenter"",""0"",""4487""
","
","
","""event"",""trial"",""time""
""fullscreenenter"",""0"",""4487""
","
",null,<div class='center'><p><img src='run_exp/static/images/tutorial/blue_win.png' height='500'></p></div>,null,,,,,,,,,,,,,,,,,,,,,,,
,html-keyboard-response,20,156812,0.0-20.0,"""event"",""trial"",""time""
""fullscreenenter"",""0"",""4487""
","
","
","""event"",""trial"",""time""
""fullscreenenter"",""0"",""4487""
","
",861.2,<div class='center'><img src='run_exp/static/images/tutorial/blue.png' height='500'></p></div>,49,,,,,,,,,,,,,,,,,,,,,,,
,html-keyboard-response,21,158318,0.0-21.0,"""event"",""trial"",""time""
""fullscreenenter"",""0"",""4487""
","
","
","""event"",""trial"",""time""
""fullscreenenter"",""0"",""4487""
","
",null,<div class='center'><p><img src='run_exp/static/images/tutorial/blue_win.png' height='500'></p></div>,null,,,,,,,,,,,,,,,,,,,,,,,
,html-keyboard-response,22,158827,0.0-22.0,"""event"",""trial"",""time""
""fullscreenenter"",""0"",""4487""
","
","
","""event"",""trial"",""time""
""fullscreenenter"",""0"",""4487""
","
",508.7,<div class='center'><img src='run_exp/static/images/tutorial/blue.png' height='500'></p></div>,49,,,,,,,,,,,,,,,,,,,,,,,
,html-keyboard-response,23,160329,0.0-23.0,"""event"",""trial"",""time""
""fullscreenenter"",""0"",""4487""
","
","
","""event"",""trial"",""time""
""fullscreenenter"",""0"",""4487""
","
",null,<div class='center'><p><img src='run_exp/static/images/tutorial/blue_win.png' height='500'></p></div>,null,,,,,,,,,,,,,,,,,,,,,,,
,html-keyboard-response,24,160759,0.0-24.0,"""event"",""trial"",""time""
""fullscreenenter"",""0"",""4487""
","
","
","""event"",""trial"",""time""
""fullscreenenter"",""0"",""4487""
","
",429.5,<div class='center'><img src='run_exp/static/images/tutorial/blue.png' height='500'></p></div>,49,,,,,,,,,,,,,,,,,,,,,,,
,html-keyboard-response,25,162265,0.0-25.0,"""event"",""trial"",""time""
""fullscreenenter"",""0"",""4487""
","
","
","""event"",""trial"",""time""
""fullscreenenter"",""0"",""4487""
","
",null,<div class='center'><p><img src='run_exp/static/images/tutorial/blue_no_win.png' height='500'></p></div>,null,,,,,,,,,,,,,,,,,,,,,,,
,html-keyboard-response,26,162694,0.0-26.0,"""event"",""trial"",""time""
""fullscreenenter"",""0"",""4487""
","
","
","""event"",""trial"",""time""
""fullscreenenter"",""0"",""4487""
","
",427.4,<div class='center'><img src='run_exp/static/images/tutorial/blue.png' height='500'></p></div>,49,,,,,,,,,,,,,,,,,,,,,,,
,html-keyboard-response,27,164195,0.0-27.0,"""event"",""trial"",""time""
""fullscreenenter"",""0"",""4487""
","
","
","""event"",""trial"",""time""
""fullscreenenter"",""0"",""4487""
","
",null,<div class='center'><p><img src='run_exp/static/images/tutorial/blue_win.png' height='500'></p></div>,null,,,,,,,,,,,,,,,,,,,,,,,
,html-keyboard-response,28,164636,0.0-28.0,"""event"",""trial"",""time""
""fullscreenenter"",""0"",""4487""
","
","
","""event"",""trial"",""time""
""fullscreenenter"",""0"",""4487""
","
",439.4,<div class='center'><img src='run_exp/static/images/tutorial/blue.png' height='500'></p></div>,49,,,,,,,,,,,,,,,,,,,,,,,
,html-keyboard-response,29,166142,0.0-29.0,"""event"",""trial"",""time""
""fullscreenenter"",""0"",""4487""
","
","
","""event"",""trial"",""time""
""fullscreenenter"",""0"",""4487""
","
",null,<div class='center'><p><img src='run_exp/static/images/tutorial/blue_win.png' height='500'></p></div>,null,,,,,,,,,,,,,,,,,,,,,,,
,instruc6,30,171586,0.0-30.0,"""event"",""trial"",""time""
""fullscreenenter"",""0"",""4487""
","
","
","""event"",""trial"",""time""
""fullscreenenter"",""0"",""4487""
","
",null,run_exp/static/audio/clip_6_blue_beard_outcome.m4a,null,,,,,"<div class='center'><p> See, he succeeded in robbing the ships most of the time but not every time. </p></div>",,,,,,,,,,,,,,,,,,
,html-keyboard-response,31,173723,0.0-31.0,"""event"",""trial"",""time""
""fullscreenenter"",""0"",""4487""
","
","
","""event"",""trial"",""time""
""fullscreenenter"",""0"",""4487""
","
",2135.9,"<div class='center'><p> See, he succeeded in robbing the ships most of the time but not every time. </p><p><b>[Press the space bar to continue]</b></p></div>",32,,,,,,,,,,,,,,,,,,,,,,,
,audio-keyboard-response,32,190333,0.0-32.0,"""event"",""trial"",""time""
""fullscreenenter"",""0"",""4487""
","
","
","""event"",""trial"",""time""
""fullscreenenter"",""0"",""4487""
","
",16608.9,run_exp/static/audio/clip_7_pick_pirate.m4a,49,,,,,,,,,,,,,,,,,,,,,,,
,audio-keyboard-response,33,194735,0.0-33.0-0.0,"""event"",""trial"",""time""
""fullscreenenter"",""0"",""4487""
","
","
","""event"",""trial"",""time""
""fullscreenenter"",""0"",""4487""
","
",4401.2,run_exp/static/audio/clip_8_chosen_pirate_win.m4a,32,,,,,,,,,,,,,,,,,,,,,,,
,audio-keyboard-response,34,197083,0.0-33.0-1.0,"""event"",""trial"",""time""
""fullscreenenter"",""0"",""4487""
","
","
","""event"",""trial"",""time""
""fullscreenenter"",""0"",""4487""
","
",2346.8,run_exp/static/audio/clip_9_pick_a_pirate_again.m4a,50,,,,,,,,,,,,,,,,,,,,,,,
,audio-keyboard-response,35,201605,0.0-34.0-0.0,"""event"",""trial"",""time""
""fullscreenenter"",""0"",""4487""
","
","
","""event"",""trial"",""time""
""fullscreenenter"",""0"",""4487""
","
",4520.9,run_exp/static/audio/clip_10_chosen_pirate_loss.m4a,32,,,,,,,,,,,,,,,,,,,,,,,
,instruc9,36,207084,0.0-35.0-0.0,"""event"",""trial"",""time""
""fullscreenenter"",""0"",""4487""
","
","
","""event"",""trial"",""time""
""fullscreenenter"",""0"",""4487""
","
",null,run_exp/static/audio/clip_11_time_out.m4a,null,,,,,"<div class='center'><p>If you don’t make your choice fast enough, you’ll have to wait a few seconds before you can make another one. </p><p><img src='run_exp/static/images/miscellaneous/hurry_up.png' height='500'></p></div>",,,,,,,,,,,,,,,,,,
,html-keyboard-response,37,208429,0.0-35.0-1.0,"""event"",""trial"",""time""
""fullscreenenter"",""0"",""4487""
","
","
","""event"",""trial"",""time""
""fullscreenenter"",""0"",""4487""
","
",1343.3,"<div class='center'><p>If you don’t make your choice fast enough, you’ll have to wait a few seconds before you can make another one. </p><p><img src='run_exp/static/images/miscellaneous/hurry_up.png' height='500'></p><p><b>[Press the space bar to continue]</b></p></div>",32,,,,,,,,,,,,,,,,,,,,,,,
,instruc10,38,247511,0.0-35.0-2.0,"""event"",""trial"",""time""
""fullscreenenter"",""0"",""4487""
","
","
","""event"",""trial"",""time""
""fullscreenenter"",""0"",""4487""
","
",null,run_exp/static/audio/clip_12_probe.m4a,null,,,,,"<div class='center'><p>Once you've chosen a pirate, you’ll be shown the ship they are robbing. You will never rob the same ship twice. Ships can be told apart from one another by the image on them. These are the goods that they sell. See, this ship has a travel mug on it. </p><p> You’ll have to remember which island you saw each ship on. You will win more gold coins and hence more bonus money if you remember correctly! To help you remember, you can imagine a story. For example, here, you could imagine a mug full of water in the desert. Or, as another example, if on the forest island, your pirate robbed a ship with an apple on it, you could imagine an apple falling from a tree in the forest. </p><p><img src='run_exp/static/images/tutorial/example_probe.png' height='500'></p></div>",,,,,,,,,,,,,,,,,,
,html-keyboard-response,39,251430,0.0-35.0-3.0,"""event"",""trial"",""time""
""fullscreenenter"",""0"",""4487""
","
","
","""event"",""trial"",""time""
""fullscreenenter"",""0"",""4487""
","
",3918.4,"<div class='center'><p>Once you've chosen a pirate, you’ll be shown the ship they are robbing. You will never rob the same ship twice. Ships can be told apart from one another by the image on them. These are the goods that they sell. See, this ship has a travel mug on it. </p><p> You’ll have to remember which island you saw each ship on. You will win more gold coins and hence more bonus money if you remember correctly! To help you remember, you can imagine a story. For example, here, you could imagine a mug full of water in the desert. Or, as another example, if on the forest island, your pirate robbed a ship with an apple on it, you could imagine an apple falling from a tree in the forest. </p><p><img src='run_exp/static/images/tutorial/example_probe.png' height='500'></p><p><b>[Press the space bar to continue]</b></p></div>",32,,,,,,,,,,,,,,,,,,,,,,,
,instruc11,40,267841,0.0-35.0-4.0,"""event"",""trial"",""time""
""fullscreenenter"",""0"",""4487""
","
","
","""event"",""trial"",""time""
""fullscreenenter"",""0"",""4487""
","
",null,run_exp/static/audio/clip_13_changepoint.m4a,null,,,,,"<div class='center'><p>How successful a pirate is at robbing ships will depend on the island you’re on.</p><p> A pirate may have visited this island many times before and gained a lot of practice robbing ships there.</p><p>So, they’re more likely to be successful than a pirate who has never visited the island before.</p></div>",,,,,,,,,,,,,,,,,,
,html-keyboard-response,41,272278,0.0-35.0-5.0,"""event"",""trial"",""time""
""fullscreenenter"",""0"",""4487""
","
","
","""event"",""trial"",""time""
""fullscreenenter"",""0"",""4487""
","
",4436.5,"<div class='center'><p>How successful a pirate is at robbing ships will depend on the island you’re on.</p><p> A pirate may have visited this island many times before and gained a lot of practice robbing ships there.</p><p>So, they’re more likely to be successful than a pirate who has never visited the island before.</p><p><b>[Press the space bar to continue]</b></p></div>",32,,,,,,,,,,,,,,,,,,,,,,,
,instruc12,42,313366,0.0-35.0-6.0,"""event"",""trial"",""time""
""fullscreenenter"",""0"",""4487""
","
","
","""event"",""trial"",""time""
""fullscreenenter"",""0"",""4487""
","
",null,run_exp/static/audio/clip_14_drift.m4a,null,,,,,"<div class='center'><p>How successful a pirate is at robbing ships can also change over the time spent on the island. </p><p> Ships may hear from islanders about the pirates coming and will improve their protections against the attack. This may make it harder to rob them.</p><p> Ships may also become lazy and weaken the strength of their protections. This may make it easier to rob them.</p><br><p>Things are always changing on the high seas! So, try your best to pay attention!</p><p><img src='run_exp/static/images/tutorial/contingency.png' height='500'></p></div>",,,,,,,,,,,,,,,,,,
,html-keyboard-response,43,331801,0.0-35.0-7.0,"""event"",""trial"",""time""
""fullscreenenter"",""0"",""4487""
","
","
","""event"",""trial"",""time""
""fullscreenenter"",""0"",""4487""
","
",18434.1,"<div class='center'><p>How successful a pirate is at robbing ships can also change over the time spent on the island. </p><p> Ships may hear from islanders about the pirates coming and will improve their protections against the attack. This may make it harder to rob them.</p><p> Ships may also become lazy and weaken the strength of their protections. This may make it easier to rob them.</p><br><p>Things are always changing on the high seas! So, try your best to pay attention!</p><p><img src='run_exp/static/images/tutorial/contingency.png' height='500'></p><p><b>[Press the space bar to continue]</b></p></div>",32,,,,,,,,,,,,,,,,,,,,,,,
,instruc13,44,367023,0.0-35.0-8.0,"""event"",""trial"",""time""
""fullscreenenter"",""0"",""4487""
","
","
","""event"",""trial"",""time""
""fullscreenenter"",""0"",""4487""
","
",null,run_exp/static/audio/clip_15_summary.m4a,null,,,,,"<div class='center'><p>Let's go over the instructions quickly again. You have two important things to do: </p><b><p> 1. Pick the pirate who is the best at robbing ships on the current island. </p></b><b><p> 2. Remember on which island a ship was robbed.</p> </b><p>The amount of bonus money you can win depends on both.</p><p><br><p>Let’s try a practice game. The game will start by showing you the pirates. First, pick a pirate using the <b> 1, 2, 3 </b> keys on your keyboard. When you are shown a ship, try to remember which island you’re on by making up a story.</p><p>This is just a practice game, so you’re not playing for money. </p><p> Good luck! This game will be very difficult but try your best!</p></div>",,,,,,,,,,,,,,,,,,
,html-keyboard-response,45,378459,0.0-35.0-9.0,"""event"",""trial"",""time""
""fullscreenenter"",""0"",""4487""
","
","
","""event"",""trial"",""time""
""fullscreenenter"",""0"",""4487""
","
",11435.5,"<div class='center'><p>Let's go over the instructions quickly again. You have two important things to do: </p><b><p> 1. Pick the pirate who is the best at robbing ships on the current island. </p></b><b><p> 2. Remember on which island a ship was robbed.</p> </b><p>The amount of bonus money you can win depends on both.</p><p><br><p>Let’s try a practice game. The game will start by showing you the pirates. First, pick a pirate using the <b> 1, 2, 3 </b> keys on your keyboard. When you are shown a ship, try to remember which island you’re on by making up a story.</p><p>This is just a practice game, so you’re not playing for money. </p><p> Good luck! This game will be very difficult but try your best!</p><p><b>[Press the space bar to continue]</b></p></div>",32,,,,,,,,,,,,,,,,,,,,,,,
,do_welcome,46,382465,0.0-35.0-10.0,"""event"",""trial"",""time""
""fullscreenenter"",""0"",""4487""
","
","
","""event"",""trial"",""time""
""fullscreenenter"",""0"",""4487""
","
",null,,,,,,,,null,,,,,,,,,,,,,,,,,
,do_trial,47,388085,0.0-35.0-11.0,"""event"",""trial"",""time""
""fullscreenenter"",""0"",""4487""
","
","
","""event"",""trial"",""time""
""fullscreenenter"",""0"",""4487""
","
",1109.3,,,,,,,,50,"1,0,0",,,,,,,,,,,,,,,,
,html-keyboard-response,48,389087,0.0-36.0-0.0,"""event"",""trial"",""time""
""fullscreenenter"",""0"",""4487""
","
","
","""event"",""trial"",""time""
""fullscreenenter"",""0"",""4487""
","
",null,<p></p>,null,,,,,,,,,,,,,,,,,,,,,,,
,do_trial,49,394638,0.0-36.0-1.0,"""event"",""trial"",""time""
""fullscreenenter"",""0"",""4487""
","
","
","""event"",""trial"",""time""
""fullscreenenter"",""0"",""4487""
","
",1040.7,,,,,,,,50,"1,1,0",,,,,,,,,,,,,,,,
,html-keyboard-response,50,395643,0.0-37.0-0.0,"""event"",""trial"",""time""
""fullscreenenter"",""0"",""4487""
","
","
","""event"",""trial"",""time""
""fullscreenenter"",""0"",""4487""
","
",null,<p></p>,null,,,,,,,,,,,,,,,,,,,,,,,
,do_trial,51,401030,0.0-37.0-1.0,"""event"",""trial"",""time""
""fullscreenenter"",""0"",""4487""
","
","
","""event"",""trial"",""time""
""fullscreenenter"",""0"",""4487""
","
",875,,,,,,,,49,"1,0,1",,,,,,,,,,,,,,,,
,html-keyboard-response,52,402036,0.0-38.0-0.0,"""event"",""trial"",""time""
""fullscreenenter"",""0"",""4487""
","
","
","""event"",""trial"",""time""
""fullscreenenter"",""0"",""4487""
","
",null,<p></p>,null,,,,,,,,,,,,,,,,,,,,,,,
,do_trial,53,407205,0.0-38.0-1.0,"""event"",""trial"",""time""
""fullscreenenter"",""0"",""4487""
","
","
","""event"",""trial"",""time""
""fullscreenenter"",""0"",""4487""
","
",659,,,,,,,,49,"0,1,0",,,,,,,,,,,,,,,,
,html-keyboard-response,54,408211,0.0-39.0-0.0,"""event"",""trial"",""time""
""fullscreenenter"",""0"",""4487""
","
","
","""event"",""trial"",""time""
""fullscreenenter"",""0"",""4487""
","
",null,<p></p>,null,,,,,,,,,,,,,,,,,,,,,,,
,do_trial,55,413322,0.0-39.0-1.0,"""event"",""trial"",""time""
""fullscreenenter"",""0"",""4487""
","
","
","""event"",""trial"",""time""
""fullscreenenter"",""0"",""4487""
","
",600.4,,,,,,,,51,"1,0,0",,,,,,,,,,,,,,,,
,do_bye,56,414832,0.0-40.0-0.0,"""event"",""trial"",""time""
""fullscreenenter"",""0"",""4487""
","
","
","""event"",""trial"",""time""
""fullscreenenter"",""0"",""4487""
","
",null,,,,,,,,null,,,,,,,,,,,,,,,,,
,do_travel,57,423839,0.0-40.0-1.0,"""event"",""trial"",""time""
""fullscreenenter"",""0"",""4487""
","
","
","""event"",""trial"",""time""
""fullscreenenter"",""0"",""4487""
","
",null,,,,,,,,null,,,,,,,,,,,,,,,,,
,do_welcome,58,427847,0.0-40.0-2.0,"""event"",""trial"",""time""
""fullscreenenter"",""0"",""4487""
","
","
","""event"",""trial"",""time""
""fullscreenenter"",""0"",""4487""
","
",null,,,,,,,,null,,,,,,,,,,,,,,,,,
,do_trial,59,432974,0.0-40.0-3.0,"""event"",""trial"",""time""
""fullscreenenter"",""0"",""4487""
","
","
","""event"",""trial"",""time""
""fullscreenenter"",""0"",""4487""
","
",619.7,,,,,,,,49,"1,0,0",,,,,,,,,,,,,,,,
,html-keyboard-response,60,433980,0.0-41.0-0.0,"""event"",""trial"",""time""
""fullscreenenter"",""0"",""4487""
","
","
","""event"",""trial"",""time""
""fullscreenenter"",""0"",""4487""
","
",null,<p></p>,null,,,,,,,,,,,,,,,,,,,,,,,
,do_trial,61,438574,0.0-41.0-1.0,"""event"",""trial"",""time""
""fullscreenenter"",""0"",""4487""
","
","
","""event"",""trial"",""time""
""fullscreenenter"",""0"",""4487""
","
",88.3,,,,,,,,49,"1,0,1",,,,,,,,,,,,,,,,
,html-keyboard-response,62,439580,0.0-42.0-0.0,"""event"",""trial"",""time""
""fullscreenenter"",""0"",""4487""
","
","
","""event"",""trial"",""time""
""fullscreenenter"",""0"",""4487""
","
",null,<p></p>,null,,,,,,,,,,,,,,,,,,,,,,,
,do_trial,63,445087,0.0-42.0-1.0,"""event"",""trial"",""time""
""fullscreenenter"",""0"",""4487""
","
","
","""event"",""trial"",""time""
""fullscreenenter"",""0"",""4487""
","
",995.1,,,,,,,,49,"1,1,0",,,,,,,,,,,,,,,,
,html-keyboard-response,64,446092,0.0-43.0-0.0,"""event"",""trial"",""time""
""fullscreenenter"",""0"",""4487""
","
","
","""event"",""trial"",""time""
""fullscreenenter"",""0"",""4487""
","
",null,<p></p>,null,,,,,,,,,,,,,,,,,,,,,,,
,do_trial,65,450789,0.0-43.0-1.0,"""event"",""trial"",""time""
""fullscreenenter"",""0"",""4487""
","
","
","""event"",""trial"",""time""
""fullscreenenter"",""0"",""4487""
","
",190.4,,,,,,,,49,"0,0,1",,,,,,,,,,,,,,,,
,html-keyboard-response,66,451791,0.0-44.0-0.0,"""event"",""trial"",""time""
""fullscreenenter"",""0"",""4487""
","
","
","""event"",""trial"",""time""
""fullscreenenter"",""0"",""4487""
","
",null,<p></p>,null,,,,,,,,,,,,,,,,,,,,,,,
,do_trial,67,456864,0.0-44.0-1.0,"""event"",""trial"",""time""
""fullscreenenter"",""0"",""4487""
","
","
","""event"",""trial"",""time""
""fullscreenenter"",""0"",""4487""
","
",562.8,,,,,,,,49,"1,0,1",,,,,,,,,,,,,,,,
,html-keyboard-response,68,459315,0.0-45.0-0.0,"""event"",""trial"",""time""
""fullscreenenter"",""0"",""4487""
","
","
","""event"",""trial"",""time""
""fullscreenenter"",""0"",""4487""
","
",2449.3,<div class='center'><p><img src='run_exp/static/images/tutorial/prac_best_pirate.png'  height='500'></p></div>,49,,,,,,,,,,,,,,,,,,,,,,,
,html-keyboard-response,69,461013,0.0-46.0-0.0,"""event"",""trial"",""time""
""fullscreenenter"",""0"",""4487""
","
","
","""event"",""trial"",""time""
""fullscreenenter"",""0"",""4487""
","
",1696.7,<div class='center'><p>That's correct! Red beard was the best.</p><p><b>[Press the space bar to continue]</b></p></div>,32,,,,,,,,,,,,,,,,,,,,,,,
,html-keyboard-response,70,463164,0.0-46.0-1.0,"""event"",""trial"",""time""
""fullscreenenter"",""0"",""4487""
","
","
","""event"",""trial"",""time""
""fullscreenenter"",""0"",""4487""
","
",2150.3,<div class='center'><p><img src='run_exp/static/images/tutorial/prac_source.png'  height='500'></p></div>,50,,,,,,,,,,,,,,,,,,,,,,,
,html-keyboard-response,71,464580,0.0-47.0-0.0,"""event"",""trial"",""time""
""fullscreenenter"",""0"",""4487""
","
","
","""event"",""trial"",""time""
""fullscreenenter"",""0"",""4487""
","
",1415.2,<div class='center'><p>That's correct! You saw this ship on the cavern island.</p><p><b>[Press the space bar to continue]</b></p></div>,32,,,,,,,,,,,,,,,,,,,,,,,
,quiz_beginning,72,475822,0.0-47.0-1.0,"""event"",""trial"",""time""
""fullscreenenter"",""0"",""4487""
","
","
","""event"",""trial"",""time""
""fullscreenenter"",""0"",""4487""
","
",null,run_exp/static/audio/clip_16_quiz_intro.m4a,null,,,,,"<div class='center'><p>Good job on the practice game! Now, you will be asked some true or false questions to make sure you really understand the rules of the game.</p><p> Press <b>'1'</b> on the keyboard for true and press <b>'2'</b> for false.</p></div>",,,,,,,,,,,,,,,,,,
,audio-keyboard-response,73,479885,0.0-47.0-2.0,"""event"",""trial"",""time""
""fullscreenenter"",""0"",""4487""
","
","
","""event"",""trial"",""time""
""fullscreenenter"",""0"",""4487""
","
",4061.8,run_exp/static/audio/clip_17_q1.m4a,49,,,,,,,,,,,,,,,,,,,,,,,
,correct,74,482286,0.0-48.0-0.0,"""event"",""trial"",""time""
""fullscreenenter"",""0"",""4487""
","
","
","""event"",""trial"",""time""
""fullscreenenter"",""0"",""4487""
","
",null,run_exp/static/audio/clip_18_correct.m4a,null,,,,,<div class='center'><p>That's correct!</p></div>,,,,,,,,,,,,,,,,,,
,html-keyboard-response,75,483090,0.0-48.0-1.0,"""event"",""trial"",""time""
""fullscreenenter"",""0"",""4487""
","
","
","""event"",""trial"",""time""
""fullscreenenter"",""0"",""4487""
","
",803.3,<div class='center'><p>That's correct!</p><p><b>[Press the space bar to continue]</b></p></div>,32,,,,,,,,,,,,,,,,,,,,,,,
,audio-keyboard-response,76,490879,0.0-48.0-2.0,"""event"",""trial"",""time""
""fullscreenenter"",""0"",""4487""
","
","
","""event"",""trial"",""time""
""fullscreenenter"",""0"",""4487""
","
",7787.8,run_exp/static/audio/clip_20_q2.m4a,50,,,,,,,,,,,,,,,,,,,,,,,
,correct,77,493273,0.0-49.0-0.0,"""event"",""trial"",""time""
""fullscreenenter"",""0"",""4487""
","
","
","""event"",""trial"",""time""
""fullscreenenter"",""0"",""4487""
","
",null,run_exp/static/audio/clip_18_correct.m4a,null,,,,,<div class='center'><p>That's correct!</p></div>,,,,,,,,,,,,,,,,,,
,html-keyboard-response,78,494205,0.0-49.0-1.0,"""event"",""trial"",""time""
""fullscreenenter"",""0"",""4487""
","
","
","""event"",""trial"",""time""
""fullscreenenter"",""0"",""4487""
","
",931.8,<div class='center'><p>That's correct!</p><p><b>[Press the space bar to continue]</b></p></div>,32,,,,,,,,,,,,,,,,,,,,,,,
,audio-keyboard-response,79,500514,0.0-49.0-2.0,"""event"",""trial"",""time""
""fullscreenenter"",""0"",""4487""
","
","
","""event"",""trial"",""time""
""fullscreenenter"",""0"",""4487""
","
",6307.8,run_exp/static/audio/clip_22_q3.m4a,50,,,,,,,,,,,,,,,,,,,,,,,
,correct,80,502915,0.0-50.0-0.0,"""event"",""trial"",""time""
""fullscreenenter"",""0"",""4487""
","
","
","""event"",""trial"",""time""
""fullscreenenter"",""0"",""4487""
","
",null,run_exp/static/audio/clip_18_correct.m4a,null,,,,,<div class='center'><p>That's correct!</p></div>,,,,,,,,,,,,,,,,,,
,html-keyboard-response,81,503704,0.0-50.0-1.0,"""event"",""trial"",""time""
""fullscreenenter"",""0"",""4487""
","
","
","""event"",""trial"",""time""
""fullscreenenter"",""0"",""4487""
","
",788.1,<div class='center'><p>That's correct!</p><p><b>[Press the space bar to continue]</b></p></div>,32,,,,,,,,,,,,,,,,,,,,,,,
,audio-keyboard-response,82,509716,0.0-50.0-2.0,"""event"",""trial"",""time""
""fullscreenenter"",""0"",""4487""
","
","
","""event"",""trial"",""time""
""fullscreenenter"",""0"",""4487""
","
",6011.9,run_exp/static/audio/clip_24_q4.m4a,49,,,,,,,,,,,,,,,,,,,,,,,
,correct,83,512153,0.0-51.0-0.0,"""event"",""trial"",""time""
""fullscreenenter"",""0"",""4487""
","
","
","""event"",""trial"",""time""
""fullscreenenter"",""0"",""4487""
","
",null,run_exp/static/audio/clip_18_correct.m4a,null,,,,,<div class='center'><p>That's correct!</p></div>,,,,,,,,,,,,,,,,,,
,html-keyboard-response,84,512948,0.0-51.0-1.0,"""event"",""trial"",""time""
""fullscreenenter"",""0"",""4487""
","
","
","""event"",""trial"",""time""
""fullscreenenter"",""0"",""4487""
","
",794.2,<div class='center'><p>That's correct!</p><p><b>[Press the space bar to continue]</b></p></div>,32,,,,,,,,,,,,,,,,,,,,,,,
,q_all_corr,85,521433,0.0-52.0-0.0,"""event"",""trial"",""time""
""fullscreenenter"",""0"",""4487""
","
","
","""event"",""trial"",""time""
""fullscreenenter"",""0"",""4487""
","
",null,run_exp/static/audio/clip_27_quiz_all_correct.m4a,null,,,,,<div class='center'><p>Good job! You’re now ready to move on to the real game! Remember this game will be difficult but don't get discouraged and try your best!</p></div>,,,,,,,,,,,,,,,,,,
,html-keyboard-response,86,522191,0.0-52.0-1.0,"""event"",""trial"",""time""
""fullscreenenter"",""0"",""4487""
","
","
","""event"",""trial"",""time""
""fullscreenenter"",""0"",""4487""
","
",757.4,<div class='center'><p>Good job! You’re now ready to move on to the real game! Remember this game will be difficult but don't get discouraged and try your best!</p><p><b>[Press the space bar to continue]</b></p></div>,32,,,,,,,,,,,,,,,,,,,,,,,
,do_welcome,87,526199,0.0-53.0-0.0,"""event"",""trial"",""time""
""fullscreenenter"",""0"",""4487""
","
","
","""event"",""trial"",""time""
""fullscreenenter"",""0"",""4487""
","
",null,,,,,,,,null,,,,,,,,,,,,,,,,,
,do_trial,88,531497,0.0-54.0-0.0,"""event"",""trial"",""time""
""fullscreenenter"",""0"",""4487""
","
","
","""event"",""trial"",""time""
""fullscreenenter"",""0"",""4487""
","
",757,,,,,,,,49,"0,0,0",0,highway,0,probe-123,0.6,0.3,0.1,0,,,,,,,,
,html-keyboard-response,89,532501,0.0-54.0-1.0,"""event"",""trial"",""time""
""fullscreenenter"",""0"",""4487""
","
","
","""event"",""trial"",""time""
""fullscreenenter"",""0"",""4487""
","
",null,<p></p>,null,,,,,,,,,,,,,,,,,,,,,,,
,do_trial,90,537584,0.0-55.0-0.0,"""event"",""trial"",""time""
""fullscreenenter"",""0"",""4487""
","
","
","""event"",""trial"",""time""
""fullscreenenter"",""0"",""4487""
","
",542.4,,,,,,,,49,"0,1,0",0,highway,1,probe-214,0.52449903,0.332357933,0.08929286,0,,,,,,,,
,html-keyboard-response,91,538586,0.0-55.0-1.0,"""event"",""trial"",""time""
""fullscreenenter"",""0"",""4487""
","
","
","""event"",""trial"",""time""
""fullscreenenter"",""0"",""4487""
","
",null,<p></p>,null,,,,,,,,,,,,,,,,,,,,,,,
,do_trial,92,543664,0.0-56.0-0.0,"""event"",""trial"",""time""
""fullscreenenter"",""0"",""4487""
","
","
","""event"",""trial"",""time""
""fullscreenenter"",""0"",""4487""
","
",530.7,,,,,,,,50,"1,0,0",0,highway,2,probe-74,0.713355828,0.112481851,0.103582399,0,,,,,,,,
,html-keyboard-response,93,544670,0.0-56.0-1.0,"""event"",""trial"",""time""
""fullscreenenter"",""0"",""4487""
","
","
","""event"",""trial"",""time""
""fullscreenenter"",""0"",""4487""
","
",null,<p></p>,null,,,,,,,,,,,,,,,,,,,,,,,
,do_trial,94,550033,0.0-57.0-0.0,"""event"",""trial"",""time""
""fullscreenenter"",""0"",""4487""
","
","
","""event"",""trial"",""time""
""fullscreenenter"",""0"",""4487""
","
",818.7,,,,,,,,50,"1,0,0",0,highway,3,probe-76,0.666848711,0.162098165,0.060556119,0,,,,,,,,
,html-keyboard-response,95,551039,0.0-57.0-1.0,"""event"",""trial"",""time""
""fullscreenenter"",""0"",""4487""
","
","
","""event"",""trial"",""time""
""fullscreenenter"",""0"",""4487""
","
",null,<p></p>,null,,,,,,,,,,,,,,,,,,,,,,,
,do_trial,96,556162,0.0-58.0-0.0,"""event"",""trial"",""time""
""fullscreenenter"",""0"",""4487""
","
","
","""event"",""trial"",""time""
""fullscreenenter"",""0"",""4487""
","
",580.4,,,,,,,,51,"1,0,0",0,highway,4,probe-221,0.700062599,0.300878083,0.065842823,0,,,,,,,,
,html-keyboard-response,97,557168,0.0-58.0-1.0,"""event"",""trial"",""time""
""fullscreenenter"",""0"",""4487""
","
","
","""event"",""trial"",""time""
""fullscreenenter"",""0"",""4487""
","
",null,<p></p>,null,,,,,,,,,,,,,,,,,,,,,,,
,do_trial,98,562293,0.0-59.0-0.0,"""event"",""trial"",""time""
""fullscreenenter"",""0"",""4487""
","
","
","""event"",""trial"",""time""
""fullscreenenter"",""0"",""4487""
","
",579,,,,,,,,51,"1,1,0",0,highway,5,probe-81,0.769543389,0.254173223,0.136720591,0,,,,,,,,
,html-keyboard-response,99,563299,0.0-59.0-1.0,"""event"",""trial"",""time""
""fullscreenenter"",""0"",""4487""
","
","
","""event"",""trial"",""time""
""fullscreenenter"",""0"",""4487""
","
",null,<p></p>,null,,,,,,,,,,,,,,,,,,,,,,,
,do_trial,100,568582,0.0-60.0-0.0,"""event"",""trial"",""time""
""fullscreenenter"",""0"",""4487""
","
","
","""event"",""trial"",""time""
""fullscreenenter"",""0"",""4487""
","
",737.6,,,,,,,,51,"1,0,0",0,highway,6,probe-29,0.747984003,0.142601705,0.154904006,0,,,,,,,,
,html-keyboard-response,101,569588,0.0-60.0-1.0,"""event"",""trial"",""time""
""fullscreenenter"",""0"",""4487""
","
","
","""event"",""trial"",""time""
""fullscreenenter"",""0"",""4487""
","
",null,<p></p>,null,,,,,,,,,,,,,,,,,,,,,,,
,do_trial,102,575159,0.0-61.0-0.0,"""event"",""trial"",""time""
""fullscreenenter"",""0"",""4487""
","
","
","""event"",""trial"",""time""
""fullscreenenter"",""0"",""4487""
","
",1026.7,,,,,,,,49,"0,0,0",0,highway,7,probe-190,0.48421965,0.274680529,0.123839365,0,,,,,,,,
,html-keyboard-response,103,576165,0.0-61.0-1.0,"""event"",""trial"",""time""
""fullscreenenter"",""0"",""4487""
","
","
","""event"",""trial"",""time""
""fullscreenenter"",""0"",""4487""
","
",null,<p></p>,null,,,,,,,,,,,,,,,,,,,,,,,
,do_trial,104,581337,0.0-62.0-0.0,"""event"",""trial"",""time""
""fullscreenenter"",""0"",""4487""
","
","
","""event"",""trial"",""time""
""fullscreenenter"",""0"",""4487""
","
",625.1,,,,,,,,49,"1,0,0",0,highway,8,probe-113,0.353606196,0.391592504,0.140512504,1,,,,,,,,
,html-keyboard-response,105,582343,0.0-62.0-1.0,"""event"",""trial"",""time""
""fullscreenenter"",""0"",""4487""
","
","
","""event"",""trial"",""time""
""fullscreenenter"",""0"",""4487""
","
",null,<p></p>,null,,,,,,,,,,,,,,,,,,,,,,,
,do_trial,106,588283,0.0-63.0-0.0,"""event"",""trial"",""time""
""fullscreenenter"",""0"",""4487""
","
","
","""event"",""trial"",""time""
""fullscreenenter"",""0"",""4487""
","
",1393.3,,,,,,,,49,"1,1,1",0,highway,9,probe-84,0.552469373,0.34671926,0.088877448,1,,,,,,,,
,html-keyboard-response,107,589289,0.0-63.0-1.0,"""event"",""trial"",""time""
""fullscreenenter"",""0"",""4487""
","
","
","""event"",""trial"",""time""
""fullscreenenter"",""0"",""4487""
","
",null,<p></p>,null,,,,,,,,,,,,,,,,,,,,,,,
,do_trial,108,594439,0.0-64.0-0.0,"""event"",""trial"",""time""
""fullscreenenter"",""0"",""4487""
","
","
","""event"",""trial"",""time""
""fullscreenenter"",""0"",""4487""
","
",603.7,,,,,,,,49,"1,1,0",0,highway,10,probe-33,0.48992367,0.436137955,0.156115619,1,,,,,,,,
,html-keyboard-response,109,595444,0.0-64.0-1.0,"""event"",""trial"",""time""
""fullscreenenter"",""0"",""4487""
","
","
","""event"",""trial"",""time""
""fullscreenenter"",""0"",""4487""
","
",null,<p></p>,null,,,,,,,,,,,,,,,,,,,,,,,
,do_trial,110,600506,0.0-65.0-0.0,"""event"",""trial"",""time""
""fullscreenenter"",""0"",""4487""
","
","
","""event"",""trial"",""time""
""fullscreenenter"",""0"",""4487""
","
",516.7,,,,,,,,49,"1,0,0",0,highway,11,probe-156,0.519027757,0.521185439,0.237906438,1,,,,,,,,
,html-keyboard-response,111,601511,0.0-65.0-1.0,"""event"",""trial"",""time""
""fullscreenenter"",""0"",""4487""
","
","
","""event"",""trial"",""time""
""fullscreenenter"",""0"",""4487""
","
",null,<p></p>,null,,,,,,,,,,,,,,,,,,,,,,,
,do_trial,112,606744,0.0-66.0-0.0,"""event"",""trial"",""time""
""fullscreenenter"",""0"",""4487""
","
","
","""event"",""trial"",""time""
""fullscreenenter"",""0"",""4487""
","
",690.6,,,,,,,,49,"1,1,0",0,highway,12,probe-56,0.54233313,0.425862774,0.271780466,1,,,,,,,,
,html-keyboard-response,113,607750,0.0-66.0-1.0,"""event"",""trial"",""time""
""fullscreenenter"",""0"",""4487""
","
","
","""event"",""trial"",""time""
""fullscreenenter"",""0"",""4487""
","
",null,<p></p>,null,,,,,,,,,,,,,,,,,,,,,,,
,do_trial,114,612407,0.0-67.0-0.0,"""event"",""trial"",""time""
""fullscreenenter"",""0"",""4487""
","
","
","""event"",""trial"",""time""
""fullscreenenter"",""0"",""4487""
","
",117.2,,,,,,,,49,"1,1,0",0,highway,13,probe-92,0.628985159,0.492837642,0.249427507,1,,,,,,,,
,html-keyboard-response,115,613411,0.0-67.0-1.0,"""event"",""trial"",""time""
""fullscreenenter"",""0"",""4487""
","
","
","""event"",""trial"",""time""
""fullscreenenter"",""0"",""4487""
","
",null,<p></p>,null,,,,,,,,,,,,,,,,,,,,,,,
,do_trial,116,618463,0.0-68.0-0.0,"""event"",""trial"",""time""
""fullscreenenter"",""0"",""4487""
","
","
","""event"",""trial"",""time""
""fullscreenenter"",""0"",""4487""
","
",507.5,,,,,,,,49,"1,0,0",0,highway,14,probe-16,0.717856555,0.341754267,0.291138667,1,,,,,,,,
,html-keyboard-response,117,619468,0.0-68.0-1.0,"""event"",""trial"",""time""
""fullscreenenter"",""0"",""4487""
","
","
","""event"",""trial"",""time""
""fullscreenenter"",""0"",""4487""
","
",null,<p></p>,null,,,,,,,,,,,,,,,,,,,,,,,
,do_trial,118,624050,0.0-69.0-0.0,"""event"",""trial"",""time""
""fullscreenenter"",""0"",""4487""
","
","
","""event"",""trial"",""time""
""fullscreenenter"",""0"",""4487""
","
",35.8,,,,,,,,49,"0,0,0",0,highway,15,probe-197,0.530787844,0.42424509,0.218007817,0,,,,,,,,
,html-keyboard-response,119,625054,0.0-69.0-1.0,"""event"",""trial"",""time""
""fullscreenenter"",""0"",""4487""
","
","
","""event"",""trial"",""time""
""fullscreenenter"",""0"",""4487""
","
",null,<p></p>,null,,,,,,,,,,,,,,,,,,,,,,,
,do_trial,120,630149,0.0-70.0-0.0,"""event"",""trial"",""time""
""fullscreenenter"",""0"",""4487""
","
","
","""event"",""trial"",""time""
""fullscreenenter"",""0"",""4487""
","
",552.1,,,,,,,,49,"1,1,0",0,highway,16,probe-228,0.557613101,0.402625055,0.326184906,1,,,,,,,,
,html-keyboard-response,121,631154,0.0-70.0-1.0,"""event"",""trial"",""time""
""fullscreenenter"",""0"",""4487""
","
","
","""event"",""trial"",""time""
""fullscreenenter"",""0"",""4487""
","
",null,<p></p>,null,,,,,,,,,,,,,,,,,,,,,,,
,do_trial,122,636185,0.0-71.0-0.0,"""event"",""trial"",""time""
""fullscreenenter"",""0"",""4487""
","
","
","""event"",""trial"",""time""
""fullscreenenter"",""0"",""4487""
","
",484.3,,,,,,,,49,"0,1,0",0,highway,17,probe-90,0.554494376,0.402656035,0.227422003,0,,,,,,,,
,html-keyboard-response,123,637191,0.0-71.0-1.0,"""event"",""trial"",""time""
""fullscreenenter"",""0"",""4487""
","
","
","""event"",""trial"",""time""
""fullscreenenter"",""0"",""4487""
","
",null,<p></p>,null,,,,,,,,,,,,,,,,,,,,,,,
,do_trial,124,642726,0.0-72.0-0.0,"""event"",""trial"",""time""
""fullscreenenter"",""0"",""4487""
","
","
","""event"",""trial"",""time""
""fullscreenenter"",""0"",""4487""
","
",989.2,,,,,,,,49,"1,1,0",0,highway,18,probe-67,0.534569927,0.272704318,0.217789342,1,,,,,,,,
,html-keyboard-response,125,643732,0.0-72.0-1.0,"""event"",""trial"",""time""
""fullscreenenter"",""0"",""4487""
","
","
","""event"",""trial"",""time""
""fullscreenenter"",""0"",""4487""
","
",null,<p></p>,null,,,,,,,,,,,,,,,,,,,,,,,
,do_trial,126,648708,0.0-73.0-0.0,"""event"",""trial"",""time""
""fullscreenenter"",""0"",""4487""
","
","
","""event"",""trial"",""time""
""fullscreenenter"",""0"",""4487""
","
",431.8,,,,,,,,49,"1,1,1",0,highway,19,probe-176,0.478894056,0.334492339,0.272946039,1,,,,,,,,
,html-keyboard-response,127,649713,0.0-73.0-1.0,"""event"",""trial"",""time""
""fullscreenenter"",""0"",""4487""
","
","
","""event"",""trial"",""time""
""fullscreenenter"",""0"",""4487""
","
",null,<p></p>,null,,,,,,,,,,,,,,,,,,,,,,,
,do_trial,128,654470,0.0-74.0-0.0,"""event"",""trial"",""time""
""fullscreenenter"",""0"",""4487""
","
","
","""event"",""trial"",""time""
""fullscreenenter"",""0"",""4487""
","
",212,,,,,,,,49,"1,0,1",0,highway,20,probe-220,0.650333676,0.130548771,0.140151227,1,,,,,,,,
,html-keyboard-response,129,655472,0.0-74.0-1.0,"""event"",""trial"",""time""
""fullscreenenter"",""0"",""4487""
","
","
","""event"",""trial"",""time""
""fullscreenenter"",""0"",""4487""
","
",null,<p></p>,null,,,,,,,,,,,,,,,,,,,,,,,
,do_trial,130,660485,0.0-75.0-0.0,"""event"",""trial"",""time""
""fullscreenenter"",""0"",""4487""
","
","
","""event"",""trial"",""time""
""fullscreenenter"",""0"",""4487""
","
",466.5,,,,,,,,49,"1,0,0",0,highway,21,probe-213,0.585090169,0.213059922,0.065363981,1,,,,,,,,
,html-keyboard-response,131,661491,0.0-75.0-1.0,"""event"",""trial"",""time""
""fullscreenenter"",""0"",""4487""
","
","
","""event"",""trial"",""time""
""fullscreenenter"",""0"",""4487""
","
",null,<p></p>,null,,,,,,,,,,,,,,,,,,,,,,,
,do_trial,132,667218,0.0-76.0-0.0,"""event"",""trial"",""time""
""fullscreenenter"",""0"",""4487""
","
","
","""event"",""trial"",""time""
""fullscreenenter"",""0"",""4487""
","
",1180.1,,,,,,,,49,"1,0,0",0,highway,22,probe-89,0.568202884,0.277412421,0.114874257,1,,,,,,,,
,html-keyboard-response,133,668223,0.0-76.0-1.0,"""event"",""trial"",""time""
""fullscreenenter"",""0"",""4487""
","
","
","""event"",""trial"",""time""
""fullscreenenter"",""0"",""4487""
","
",null,<p></p>,null,,,,,,,,,,,,,,,,,,,,,,,
,do_trial,134,673761,0.0-77.0-0.0,"""event"",""trial"",""time""
""fullscreenenter"",""0"",""4487""
","
","
","""event"",""trial"",""time""
""fullscreenenter"",""0"",""4487""
","
",994.6,,,,,,,,49,"1,0,0",0,highway,23,probe-46,0.660689899,0.141160236,0.088964549,1,,,,,,,,
,html-keyboard-response,135,674766,0.0-77.0-1.0,"""event"",""trial"",""time""
""fullscreenenter"",""0"",""4487""
","
","
","""event"",""trial"",""time""
""fullscreenenter"",""0"",""4487""
","
",null,<p></p>,null,,,,,,,,,,,,,,,,,,,,,,,
,do_trial,136,679315,0.0-78.0-0.0,"""event"",""trial"",""time""
""fullscreenenter"",""0"",""4487""
","
","
","""event"",""trial"",""time""
""fullscreenenter"",""0"",""4487""
","
",0.200000003,,,,,,,,49,"0,0,0",0,highway,24,probe-96,0.537619436,0.156964658,0.086598408,0,,,,,,,,
,html-keyboard-response,137,680321,0.0-78.0-1.0,"""event"",""trial"",""time""
""fullscreenenter"",""0"",""4487""
","
","
","""event"",""trial"",""time""
""fullscreenenter"",""0"",""4487""
","
",null,<p></p>,null,,,,,,,,,,,,,,,,,,,,,,,
,do_trial,138,685852,0.0-79.0-0.0,"""event"",""trial"",""time""
""fullscreenenter"",""0"",""4487""
","
","
","""event"",""trial"",""time""
""fullscreenenter"",""0"",""4487""
","
",984.2,,,,,,,,49,"0,0,1",0,highway,25,probe-146,0.490089528,0.268494247,0.12348614,0,,,,,,,,
,html-keyboard-response,139,686857,0.0-79.0-1.0,"""event"",""trial"",""time""
""fullscreenenter"",""0"",""4487""
","
","
","""event"",""trial"",""time""
""fullscreenenter"",""0"",""4487""
","
",null,<p></p>,null,,,,,,,,,,,,,,,,,,,,,,,
,do_trial,140,691876,0.0-80.0-0.0,"""event"",""trial"",""time""
""fullscreenenter"",""0"",""4487""
","
","
","""event"",""trial"",""time""
""fullscreenenter"",""0"",""4487""
","
",474.4,,,,,,,,49,"1,1,1",0,highway,26,probe-42,0.436104235,0.283512331,0.134412395,1,,,,,,,,
,html-keyboard-response,141,692882,0.0-80.0-1.0,"""event"",""trial"",""time""
""fullscreenenter"",""0"",""4487""
","
","
","""event"",""trial"",""time""
""fullscreenenter"",""0"",""4487""
","
",null,<p></p>,null,,,,,,,,,,,,,,,,,,,,,,,
,do_trial,142,697857,0.0-81.0-0.0,"""event"",""trial"",""time""
""fullscreenenter"",""0"",""4487""
","
","
","""event"",""trial"",""time""
""fullscreenenter"",""0"",""4487""
","
",429.6,,,,,,,,49,"1,1,1",0,highway,27,probe-94,0.62334624,0.438553677,0.147554132,1,,,,,,,,
,html-keyboard-response,143,698862,0.0-81.0-1.0,"""event"",""trial"",""time""
""fullscreenenter"",""0"",""4487""
","
","
","""event"",""trial"",""time""
""fullscreenenter"",""0"",""4487""
","
",null,<p></p>,null,,,,,,,,,,,,,,,,,,,,,,,
,do_trial,144,704022,0.0-82.0-0.0,"""event"",""trial"",""time""
""fullscreenenter"",""0"",""4487""
","
","
","""event"",""trial"",""time""
""fullscreenenter"",""0"",""4487""
","
",615.3,,,,,,,,49,"0,0,0",0,highway,28,probe-26,0.514727621,0.447353792,0.147890546,0,,,,,,,,
,html-keyboard-response,145,705028,0.0-82.0-1.0,"""event"",""trial"",""time""
""fullscreenenter"",""0"",""4487""
","
","
","""event"",""trial"",""time""
""fullscreenenter"",""0"",""4487""
","
",null,<p></p>,null,,,,,,,,,,,,,,,,,,,,,,,
,do_trial,146,710171,0.0-83.0-0.0,"""event"",""trial"",""time""
""fullscreenenter"",""0"",""4487""
","
","
","""event"",""trial"",""time""
""fullscreenenter"",""0"",""4487""
","
",602.2,,,,,,,,49,"1,0,0",0,highway,29,probe-142,0.529259704,0.441405645,0.099982891,1,,,,,,,,
,html-keyboard-response,147,711177,0.0-83.0-1.0,"""event"",""trial"",""time""
""fullscreenenter"",""0"",""4487""
","
","
","""event"",""trial"",""time""
""fullscreenenter"",""0"",""4487""
","
",null,<p></p>,null,,,,,,,,,,,,,,,,,,,,,,,
,do_bye,148,712686,0.0-84.0-0.0,"""event"",""trial"",""time""
""fullscreenenter"",""0"",""4487""
","
","
","""event"",""trial"",""time""
""fullscreenenter"",""0"",""4487""
","
",null,,,,,,,,null,,,,,,,,,,,,,,,,,
,break,149,764093,0.0-84.0-1.0,"""event"",""trial"",""time""
""fullscreenenter"",""0"",""4487""
","
","
","""event"",""trial"",""time""
""fullscreenenter"",""0"",""4487""
","
",51405.7,"<div class='center'><p>Time to take a quick break! You have 2 minutes to rest, but you can move on sooner if you'd like.</p><p> Press the <b>space bar</b> to continue.</p></div>",32,,,,,,,,,,,,,,,,,,,,,,,
,do_travel,150,773096,0.0-85.0-0.0,"""event"",""trial"",""time""
""fullscreenenter"",""0"",""4487""
","
","
","""event"",""trial"",""time""
""fullscreenenter"",""0"",""4487""
","
",null,,,,,,,,null,,,,,,,,,,,,,,,,,
,do_welcome,151,777103,0.0-85.0-1.0,"""event"",""trial"",""time""
""fullscreenenter"",""0"",""4487""
","
","
","""event"",""trial"",""time""
""fullscreenenter"",""0"",""4487""
","
",null,,,,,,,,null,,,,,,,,,,,,,,,,,
,do_trial,152,782714,0.0-86.0-0.0,"""event"",""trial"",""time""
""fullscreenenter"",""0"",""4487""
","
","
","""event"",""trial"",""time""
""fullscreenenter"",""0"",""4487""
","
",1072.7,,,,,,,,50,"1,0,0",1,coast,30,probe-61,1,0.411030605,0.078349488,0,,,,,,,,
,html-keyboard-response,153,783720,0.0-86.0-1.0,"""event"",""trial"",""time""
""fullscreenenter"",""0"",""4487""
","
","
","""event"",""trial"",""time""
""fullscreenenter"",""0"",""4487""
","
",null,<p></p>,null,,,,,,,,,,,,,,,,,,,,,,,
,do_trial,154,789086,0.0-87.0-0.0,"""event"",""trial"",""time""
""fullscreenenter"",""0"",""4487""
","
","
","""event"",""trial"",""time""
""fullscreenenter"",""0"",""4487""
","
",823.3,,,,,,,,50,"1,0,1",1,coast,31,probe-198,1,0.368341768,0.192080063,0,,,,,,,,
,html-keyboard-response,155,790092,0.0-87.0-1.0,"""event"",""trial"",""time""
""fullscreenenter"",""0"",""4487""
","
","
","""event"",""trial"",""time""
""fullscreenenter"",""0"",""4487""
","
",null,<p></p>,null,,,,,,,,,,,,,,,,,,,,,,,
,do_trial,156,796143,0.0-88.0-0.0,"""event"",""trial"",""time""
""fullscreenenter"",""0"",""4487""
","
","
","""event"",""trial"",""time""
""fullscreenenter"",""0"",""4487""
","
",null,,,,,,,,null,"1,1,0",1,coast,32,probe-112,1,0.359722714,0.207136131,,,,,,,,,
,html-keyboard-response,157,797148,0.0-88.0-1.0,"""event"",""trial"",""time""
""fullscreenenter"",""0"",""4487""
","
","
","""event"",""trial"",""time""
""fullscreenenter"",""0"",""4487""
","
",null,<p></p>,null,,,,,,,,,,,,,,,,,,,,,,,
,do_trial,158,802346,0.0-89.0-0.0,"""event"",""trial"",""time""
""fullscreenenter"",""0"",""4487""
","
","
","""event"",""trial"",""time""
""fullscreenenter"",""0"",""4487""
","
",651.7,,,,,,,,51,"1,0,0",1,coast,33,probe-100,0.932345018,0.336962842,0.255599232,0,,,,,,,,
,html-keyboard-response,159,803351,0.0-89.0-1.0,"""event"",""trial"",""time""
""fullscreenenter"",""0"",""4487""
","
","
","""event"",""trial"",""time""
""fullscreenenter"",""0"",""4487""
","
",null,<p></p>,null,,,,,,,,,,,,,,,,,,,,,,,
,do_trial,160,808415,0.0-90.0-0.0,"""event"",""trial"",""time""
""fullscreenenter"",""0"",""4487""
","
","
","""event"",""trial"",""time""
""fullscreenenter"",""0"",""4487""
","
",517.5,,,,,,,,51,"1,0,0",1,coast,34,probe-166,0.784550542,0.228165287,0.207611345,0,,,,,,,,
,html-keyboard-response,161,809420,0.0-90.0-1.0,"""event"",""trial"",""time""
""fullscreenenter"",""0"",""4487""
","
","
","""event"",""trial"",""time""
""fullscreenenter"",""0"",""4487""
","
",null,<p></p>,null,,,,,,,,,,,,,,,,,,,,,,,
,do_trial,162,814768,0.0-91.0-0.0,"""event"",""trial"",""time""
""fullscreenenter"",""0"",""4487""
","
","
","""event"",""trial"",""time""
""fullscreenenter"",""0"",""4487""
","
",800,,,,,,,,51,"0,0,1",1,coast,35,probe-31,0.703720138,0.328658282,0.197561121,1,,,,,,,,
,html-keyboard-response,163,815773,0.0-91.0-1.0,"""event"",""trial"",""time""
""fullscreenenter"",""0"",""4487""
","
","
","""event"",""trial"",""time""
""fullscreenenter"",""0"",""4487""
","
",null,<p></p>,null,,,,,,,,,,,,,,,,,,,,,,,
,do_trial,164,820461,0.0-92.0-0.0,"""event"",""trial"",""time""
""fullscreenenter"",""0"",""4487""
","
","
","""event"",""trial"",""time""
""fullscreenenter"",""0"",""4487""
","
",142.2,,,,,,,,51,"1,0,0",1,coast,36,probe-07,0.653807419,0.287025212,0.221681106,0,,,,,,,,
,html-keyboard-response,165,821467,0.0-92.0-1.0,"""event"",""trial"",""time""
""fullscreenenter"",""0"",""4487""
","
","
","""event"",""trial"",""time""
""fullscreenenter"",""0"",""4487""
","
",null,<p></p>,null,,,,,,,,,,,,,,,,,,,,,,,
,do_trial,166,826204,0.0-93.0-0.0,"""event"",""trial"",""time""
""fullscreenenter"",""0"",""4487""
","
","
","""event"",""trial"",""time""
""fullscreenenter"",""0"",""4487""
","
",194.3,,,,,,,,51,"1,0,0",1,coast,37,probe-199,0.634438219,0.328319823,0.137864854,0,,,,,,,,
,html-keyboard-response,167,827208,0.0-93.0-1.0,"""event"",""trial"",""time""
""fullscreenenter"",""0"",""4487""
","
","
","""event"",""trial"",""time""
""fullscreenenter"",""0"",""4487""
","
",null,<p></p>,null,,,,,,,,,,,,,,,,,,,,,,,
,do_trial,168,833027,0.0-94.0-0.0,"""event"",""trial"",""time""
""fullscreenenter"",""0"",""4487""
","
","
","""event"",""trial"",""time""
""fullscreenenter"",""0"",""4487""
","
",1271.4,,,,,,,,51,"0,1,0",1,coast,38,probe-143,0.536947863,0.35682969,0.163753433,0,,,,,,,,
,html-keyboard-response,169,834033,0.0-94.0-1.0,"""event"",""trial"",""time""
""fullscreenenter"",""0"",""4487""
","
","
","""event"",""trial"",""time""
""fullscreenenter"",""0"",""4487""
","
",null,<p></p>,null,,,,,,,,,,,,,,,,,,,,,,,
,do_trial,170,838954,0.0-95.0-0.0,"""event"",""trial"",""time""
""fullscreenenter"",""0"",""4487""
","
","
","""event"",""trial"",""time""
""fullscreenenter"",""0"",""4487""
","
",375.7,,,,,,,,50,"0,0,1",1,coast,39,probe-203,0.433879759,0.264716206,0.183014543,0,,,,,,,,
,html-keyboard-response,171,839959,0.0-95.0-1.0,"""event"",""trial"",""time""
""fullscreenenter"",""0"",""4487""
","
","
","""event"",""trial"",""time""
""fullscreenenter"",""0"",""4487""
","
",null,<p></p>,null,,,,,,,,,,,,,,,,,,,,,,,
,do_trial,172,845132,0.0-96.0-0.0,"""event"",""trial"",""time""
""fullscreenenter"",""0"",""4487""
","
","
","""event"",""trial"",""time""
""fullscreenenter"",""0"",""4487""
","
",632,,,,,,,,49,"1,0,0",1,coast,40,probe-150,0.378486969,0.165206299,0.156112782,1,,,,,,,,
,html-keyboard-response,173,846139,0.0-96.0-1.0,"""event"",""trial"",""time""
""fullscreenenter"",""0"",""4487""
","
","
","""event"",""trial"",""time""
""fullscreenenter"",""0"",""4487""
","
",null,<p></p>,null,,,,,,,,,,,,,,,,,,,,,,,
,do_trial,174,851298,0.0-97.0-0.0,"""event"",""trial"",""time""
""fullscreenenter"",""0"",""4487""
","
","
","""event"",""trial"",""time""
""fullscreenenter"",""0"",""4487""
","
",611.3,,,,,,,,49,"1,1,1",1,coast,41,probe-184,0.368770961,0.207849195,0.244628192,1,,,,,,,,
,html-keyboard-response,175,852304,0.0-97.0-1.0,"""event"",""trial"",""time""
""fullscreenenter"",""0"",""4487""
","
","
","""event"",""trial"",""time""
""fullscreenenter"",""0"",""4487""
","
",null,<p></p>,null,,,,,,,,,,,,,,,,,,,,,,,
,do_trial,176,857436,0.0-98.0-0.0,"""event"",""trial"",""time""
""fullscreenenter"",""0"",""4487""
","
","
","""event"",""trial"",""time""
""fullscreenenter"",""0"",""4487""
","
",586.5,,,,,,,,49,"1,0,0",1,coast,42,probe-147,0.541559442,0.224841827,0.397785503,1,,,,,,,,
,html-keyboard-response,177,858442,0.0-98.0-1.0,"""event"",""trial"",""time""
""fullscreenenter"",""0"",""4487""
","
","
","""event"",""trial"",""time""
""fullscreenenter"",""0"",""4487""
","
",null,<p></p>,null,,,,,,,,,,,,,,,,,,,,,,,
,do_trial,178,863609,0.0-99.0-0.0,"""event"",""trial"",""time""
""fullscreenenter"",""0"",""4487""
","
","
","""event"",""trial"",""time""
""fullscreenenter"",""0"",""4487""
","
",621.9,,,,,,,,49,"1,0,0",1,coast,43,probe-51,0.607866842,0.056025461,0.330276694,1,,,,,,,,
,html-keyboard-response,179,864613,0.0-99.0-1.0,"""event"",""trial"",""time""
""fullscreenenter"",""0"",""4487""
","
","
","""event"",""trial"",""time""
""fullscreenenter"",""0"",""4487""
","
",null,<p></p>,null,,,,,,,,,,,,,,,,,,,,,,,
,do_trial,180,869756,0.0-100.0-0.0,"""event"",""trial"",""time""
""fullscreenenter"",""0"",""4487""
","
","
","""event"",""trial"",""time""
""fullscreenenter"",""0"",""4487""
","
",598.1,,,,,,,,49,"1,0,0",1,coast,44,probe-201,0.527627033,0.058000442,0.503495221,1,,,,,,,,
,html-keyboard-response,181,870758,0.0-100.0-1.0,"""event"",""trial"",""time""
""fullscreenenter"",""0"",""4487""
","
","
","""event"",""trial"",""time""
""fullscreenenter"",""0"",""4487""
","
",null,<p></p>,null,,,,,,,,,,,,,,,,,,,,,,,
,do_trial,182,875817,0.0-101.0-0.0,"""event"",""trial"",""time""
""fullscreenenter"",""0"",""4487""
","
","
","""event"",""trial"",""time""
""fullscreenenter"",""0"",""4487""
","
",514.2,,,,,,,,49,"1,0,1",1,coast,45,probe-133,0.416672254,0.114027068,0.506884451,1,,,,,,,,
,html-keyboard-response,183,876823,0.0-101.0-1.0,"""event"",""trial"",""time""
""fullscreenenter"",""0"",""4487""
","
","
","""event"",""trial"",""time""
""fullscreenenter"",""0"",""4487""
","
",null,<p></p>,null,,,,,,,,,,,,,,,,,,,,,,,
,do_trial,184,881732,0.0-102.0-0.0,"""event"",""trial"",""time""
""fullscreenenter"",""0"",""4487""
","
","
","""event"",""trial"",""time""
""fullscreenenter"",""0"",""4487""
","
",364,,,,,,,,49,"0,1,1",1,coast,46,probe-102,0.287617571,0.123329449,0.447086614,0,,,,,,,,
,html-keyboard-response,185,882738,0.0-102.0-1.0,"""event"",""trial"",""time""
""fullscreenenter"",""0"",""4487""
","
","
","""event"",""trial"",""time""
""fullscreenenter"",""0"",""4487""
","
",null,<p></p>,null,,,,,,,,,,,,,,,,,,,,,,,
,do_trial,186,889819,0.0-103.0-0.0,"""event"",""trial"",""time""
""fullscreenenter"",""0"",""4487""
","
","
","""event"",""trial"",""time""
""fullscreenenter"",""0"",""4487""
","
",2535.7,,,,,,,,49,"1,0,0",1,coast,47,probe-188,0.305964347,0.140937284,0.404687831,1,,,,,,,,
,html-keyboard-response,187,890823,0.0-103.0-1.0,"""event"",""trial"",""time""
""fullscreenenter"",""0"",""4487""
","
","
","""event"",""trial"",""time""
""fullscreenenter"",""0"",""4487""
","
",null,<p></p>,null,,,,,,,,,,,,,,,,,,,,,,,
,do_trial,188,895732,0.0-104.0-0.0,"""event"",""trial"",""time""
""fullscreenenter"",""0"",""4487""
","
","
","""event"",""trial"",""time""
""fullscreenenter"",""0"",""4487""
","
",360.2,,,,,,,,49,"0,1,1",1,coast,48,probe-41,0.487648885,0.131463559,0.521515938,0,,,,,,,,
,html-keyboard-response,189,896735,0.0-104.0-1.0,"""event"",""trial"",""time""
""fullscreenenter"",""0"",""4487""
","
","
","""event"",""trial"",""time""
""fullscreenenter"",""0"",""4487""
","
",null,<p></p>,null,,,,,,,,,,,,,,,,,,,,,,,
,do_trial,190,902427,0.0-105.0-0.0,"""event"",""trial"",""time""
""fullscreenenter"",""0"",""4487""
","
","
","""event"",""trial"",""time""
""fullscreenenter"",""0"",""4487""
","
",1147.1,,,,,,,,49,"1,0,1",1,coast,49,probe-120,0.500270602,0.17793218,0.744665931,1,,,,,,,,
,html-keyboard-response,191,903433,0.0-105.0-1.0,"""event"",""trial"",""time""
""fullscreenenter"",""0"",""4487""
","
","
","""event"",""trial"",""time""
""fullscreenenter"",""0"",""4487""
","
",null,<p></p>,null,,,,,,,,,,,,,,,,,,,,,,,
,do_trial,192,908981,0.0-106.0-0.0,"""event"",""trial"",""time""
""fullscreenenter"",""0"",""4487""
","
","
","""event"",""trial"",""time""
""fullscreenenter"",""0"",""4487""
","
",1000.8,,,,,,,,49,"1,1,1",1,coast,50,probe-116,0.516388064,0.167091592,0.773265033,1,,,,,,,,
,html-keyboard-response,193,909986,0.0-106.0-1.0,"""event"",""trial"",""time""
""fullscreenenter"",""0"",""4487""
","
","
","""event"",""trial"",""time""
""fullscreenenter"",""0"",""4487""
","
",null,<p></p>,null,,,,,,,,,,,,,,,,,,,,,,,
,do_trial,194,914918,0.0-107.0-0.0,"""event"",""trial"",""time""
""fullscreenenter"",""0"",""4487""
","
","
","""event"",""trial"",""time""
""fullscreenenter"",""0"",""4487""
","
",385.1,,,,,,,,49,"0,0,1",1,coast,51,probe-129,0.401316639,0.151931727,0.841643271,0,,,,,,,,
,html-keyboard-response,195,915924,0.0-107.0-1.0,"""event"",""trial"",""time""
""fullscreenenter"",""0"",""4487""
","
","
","""event"",""trial"",""time""
""fullscreenenter"",""0"",""4487""
","
",null,<p></p>,null,,,,,,,,,,,,,,,,,,,,,,,
,do_trial,196,921381,0.0-108.0-0.0,"""event"",""trial"",""time""
""fullscreenenter"",""0"",""4487""
","
","
","""event"",""trial"",""time""
""fullscreenenter"",""0"",""4487""
","
",909.4,,,,,,,,49,"0,0,1",1,coast,52,probe-130,0.294774691,0.091679913,0.840562366,0,,,,,,,,
,html-keyboard-response,197,922387,0.0-108.0-1.0,"""event"",""trial"",""time""
""fullscreenenter"",""0"",""4487""
","
","
","""event"",""trial"",""time""
""fullscreenenter"",""0"",""4487""
","
",null,<p></p>,null,,,,,,,,,,,,,,,,,,,,,,,
,do_trial,198,927496,0.0-109.0-0.0,"""event"",""trial"",""time""
""fullscreenenter"",""0"",""4487""
","
","
","""event"",""trial"",""time""
""fullscreenenter"",""0"",""4487""
","
",562.1,,,,,,,,49,"0,1,0",1,coast,53,probe-182,0.484647109,0.148101653,0.665281328,0,,,,,,,,
,html-keyboard-response,199,928501,0.0-109.0-1.0,"""event"",""trial"",""time""
""fullscreenenter"",""0"",""4487""
","
","
","""event"",""trial"",""time""
""fullscreenenter"",""0"",""4487""
","
",null,<p></p>,null,,,,,,,,,,,,,,,,,,,,,,,
,do_trial,200,933571,0.0-110.0-0.0,"""event"",""trial"",""time""
""fullscreenenter"",""0"",""4487""
","
","
","""event"",""trial"",""time""
""fullscreenenter"",""0"",""4487""
","
",523.3,,,,,,,,50,"1,0,0",1,coast,54,probe-183,0.491510779,0.073711296,0.787433776,0,,,,,,,,
,html-keyboard-response,201,934576,0.0-110.0-1.0,"""event"",""trial"",""time""
""fullscreenenter"",""0"",""4487""
","
","
","""event"",""trial"",""time""
""fullscreenenter"",""0"",""4487""
","
",null,<p></p>,null,,,,,,,,,,,,,,,,,,,,,,,
,do_trial,202,939551,0.0-111.0-0.0,"""event"",""trial"",""time""
""fullscreenenter"",""0"",""4487""
","
","
","""event"",""trial"",""time""
""fullscreenenter"",""0"",""4487""
","
",427.7,,,,,,,,50,"1,0,1",1,coast,55,probe-104,0.446664116,0.083536559,0.812989874,0,,,,,,,,
,html-keyboard-response,203,940557,0.0-111.0-1.0,"""event"",""trial"",""time""
""fullscreenenter"",""0"",""4487""
","
","
","""event"",""trial"",""time""
""fullscreenenter"",""0"",""4487""
","
",null,<p></p>,null,,,,,,,,,,,,,,,,,,,,,,,
,do_trial,204,945548,0.0-112.0-0.0,"""event"",""trial"",""time""
""fullscreenenter"",""0"",""4487""
","
","
","""event"",""trial"",""time""
""fullscreenenter"",""0"",""4487""
","
",443.5,,,,,,,,50,"0,0,1",1,coast,56,probe-20,0.548500676,0.092510294,0.712259973,0,,,,,,,,
,html-keyboard-response,205,946553,0.0-112.0-1.0,"""event"",""trial"",""time""
""fullscreenenter"",""0"",""4487""
","
","
","""event"",""trial"",""time""
""fullscreenenter"",""0"",""4487""
","
",null,<p></p>,null,,,,,,,,,,,,,,,,,,,,,,,
,do_trial,206,951665,0.0-113.0-0.0,"""event"",""trial"",""time""
""fullscreenenter"",""0"",""4487""
","
","
","""event"",""trial"",""time""
""fullscreenenter"",""0"",""4487""
","
",564.6,,,,,,,,49,"0,0,1",1,coast,57,probe-202,0.517183375,0.054957292,0.691879334,0,,,,,,,,
,html-keyboard-response,207,952671,0.0-113.0-1.0,"""event"",""trial"",""time""
""fullscreenenter"",""0"",""4487""
","
","
","""event"",""trial"",""time""
""fullscreenenter"",""0"",""4487""
","
",null,<p></p>,null,,,,,,,,,,,,,,,,,,,,,,,
,do_trial,208,957749,0.0-114.0-0.0,"""event"",""trial"",""time""
""fullscreenenter"",""0"",""4487""
","
","
","""event"",""trial"",""time""
""fullscreenenter"",""0"",""4487""
","
",532.1,,,,,,,,49,"0,0,1",1,coast,58,probe-211,0.482059396,0.100229848,0.631760308,0,,,,,,,,
,html-keyboard-response,209,958755,0.0-114.0-1.0,"""event"",""trial"",""time""
""fullscreenenter"",""0"",""4487""
","
","
","""event"",""trial"",""time""
""fullscreenenter"",""0"",""4487""
","
",null,<p></p>,null,,,,,,,,,,,,,,,,,,,,,,,
,do_trial,210,963939,0.0-115.0-0.0,"""event"",""trial"",""time""
""fullscreenenter"",""0"",""4487""
","
","
","""event"",""trial"",""time""
""fullscreenenter"",""0"",""4487""
","
",638.1,,,,,,,,49,"0,0,1",1,coast,59,probe-223,0.508187394,0.067648647,0.739200509,0,,,,,,,,
,html-keyboard-response,211,964945,0.0-115.0-1.0,"""event"",""trial"",""time""
""fullscreenenter"",""0"",""4487""
","
","
","""event"",""trial"",""time""
""fullscreenenter"",""0"",""4487""
","
",null,<p></p>,null,,,,,,,,,,,,,,,,,,,,,,,
,do_trial,212,969954,0.0-116.0-0.0,"""event"",""trial"",""time""
""fullscreenenter"",""0"",""4487""
","
","
","""event"",""trial"",""time""
""fullscreenenter"",""0"",""4487""
","
",462.4,,,,,,,,50,"1,0,1",1,coast,60,probe-186,0.450111153,0.13630487,0.702818762,0,,,,,,,,
,html-keyboard-response,213,970960,0.0-116.0-1.0,"""event"",""trial"",""time""
""fullscreenenter"",""0"",""4487""
","
","
","""event"",""trial"",""time""
""fullscreenenter"",""0"",""4487""
","
",null,<p></p>,null,,,,,,,,,,,,,,,,,,,,,,,
,do_trial,214,976105,0.0-117.0-0.0,"""event"",""trial"",""time""
""fullscreenenter"",""0"",""4487""
","
","
","""event"",""trial"",""time""
""fullscreenenter"",""0"",""4487""
","
",598.6,,,,,,,,51,"0,0,0",1,coast,61,probe-172,0.36710479,0.137154072,0.653754178,0,,,,,,,,
,html-keyboard-response,215,977111,0.0-117.0-1.0,"""event"",""trial"",""time""
""fullscreenenter"",""0"",""4487""
","
","
","""event"",""trial"",""time""
""fullscreenenter"",""0"",""4487""
","
",null,<p></p>,null,,,,,,,,,,,,,,,,,,,,,,,
,do_trial,216,982422,0.0-118.0-0.0,"""event"",""trial"",""time""
""fullscreenenter"",""0"",""4487""
","
","
","""event"",""trial"",""time""
""fullscreenenter"",""0"",""4487""
","
",765.2,,,,,,,,51,"0,0,1",1,coast,62,probe-226,0.260446065,0.070370806,0.504379564,1,,,,,,,,
,html-keyboard-response,217,983427,0.0-118.0-1.0,"""event"",""trial"",""time""
""fullscreenenter"",""0"",""4487""
","
","
","""event"",""trial"",""time""
""fullscreenenter"",""0"",""4487""
","
",null,<p></p>,null,,,,,,,,,,,,,,,,,,,,,,,
,do_trial,218,988537,0.0-119.0-0.0,"""event"",""trial"",""time""
""fullscreenenter"",""0"",""4487""
","
","
","""event"",""trial"",""time""
""fullscreenenter"",""0"",""4487""
","
",566.4,,,,,,,,51,"0,0,1",1,coast,63,probe-212,0.272602106,0.08011492,0.450551297,1,,,,,,,,
,html-keyboard-response,219,989543,0.0-119.0-1.0,"""event"",""trial"",""time""
""fullscreenenter"",""0"",""4487""
","
","
","""event"",""trial"",""time""
""fullscreenenter"",""0"",""4487""
","
",null,<p></p>,null,,,,,,,,,,,,,,,,,,,,,,,
,do_trial,220,994644,0.0-120.0-0.0,"""event"",""trial"",""time""
""fullscreenenter"",""0"",""4487""
","
","
","""event"",""trial"",""time""
""fullscreenenter"",""0"",""4487""
","
",555.9,,,,,,,,51,"0,0,1",1,coast,64,probe-109,0.207816942,0.128710349,0.578583847,1,,,,,,,,
,html-keyboard-response,221,995649,0.0-120.0-1.0,"""event"",""trial"",""time""
""fullscreenenter"",""0"",""4487""
","
","
","""event"",""trial"",""time""
""fullscreenenter"",""0"",""4487""
","
",null,<p></p>,null,,,,,,,,,,,,,,,,,,,,,,,
,do_trial,222,1000787,0.0-121.0-0.0,"""event"",""trial"",""time""
""fullscreenenter"",""0"",""4487""
","
","
","""event"",""trial"",""time""
""fullscreenenter"",""0"",""4487""
","
",596.1,,,,,,,,51,"0,0,0",1,coast,65,probe-36,0.229713623,0.174387201,0.55469976,0,,,,,,,,
,html-keyboard-response,223,1001793,0.0-121.0-1.0,"""event"",""trial"",""time""
""fullscreenenter"",""0"",""4487""
","
","
","""event"",""trial"",""time""
""fullscreenenter"",""0"",""4487""
","
",null,<p></p>,null,,,,,,,,,,,,,,,,,,,,,,,
,do_trial,224,1007633,0.0-122.0-0.0,"""event"",""trial"",""time""
""fullscreenenter"",""0"",""4487""
","
","
","""event"",""trial"",""time""
""fullscreenenter"",""0"",""4487""
","
",1294.3,,,,,,,,51,"1,0,0",1,coast,66,probe-204,0.341649208,0.187589189,0.526336807,0,,,,,,,,
,html-keyboard-response,225,1008639,0.0-122.0-1.0,"""event"",""trial"",""time""
""fullscreenenter"",""0"",""4487""
","
","
","""event"",""trial"",""time""
""fullscreenenter"",""0"",""4487""
","
",null,<p></p>,null,,,,,,,,,,,,,,,,,,,,,,,
,do_trial,226,1014302,0.0-123.0-0.0,"""event"",""trial"",""time""
""fullscreenenter"",""0"",""4487""
","
","
","""event"",""trial"",""time""
""fullscreenenter"",""0"",""4487""
","
",1120.7,,,,,,,,51,"1,0,1",1,coast,67,probe-160,0.307993037,0.210384045,0.553629794,1,,,,,,,,
,html-keyboard-response,227,1015308,0.0-123.0-1.0,"""event"",""trial"",""time""
""fullscreenenter"",""0"",""4487""
","
","
","""event"",""trial"",""time""
""fullscreenenter"",""0"",""4487""
","
",null,<p></p>,null,,,,,,,,,,,,,,,,,,,,,,,
,do_trial,228,1020632,0.0-124.0-0.0,"""event"",""trial"",""time""
""fullscreenenter"",""0"",""4487""
","
","
","""event"",""trial"",""time""
""fullscreenenter"",""0"",""4487""
","
",781.5,,,,,,,,51,"1,0,1",1,coast,68,probe-118,0.343753125,0.090595476,0.584158187,1,,,,,,,,
,html-keyboard-response,229,1021638,0.0-124.0-1.0,"""event"",""trial"",""time""
""fullscreenenter"",""0"",""4487""
","
","
","""event"",""trial"",""time""
""fullscreenenter"",""0"",""4487""
","
",null,<p></p>,null,,,,,,,,,,,,,,,,,,,,,,,
,do_trial,230,1026794,0.0-125.0-0.0,"""event"",""trial"",""time""
""fullscreenenter"",""0"",""4487""
","
","
","""event"",""trial"",""time""
""fullscreenenter"",""0"",""4487""
","
",612.9,,,,,,,,51,"1,0,0",1,coast,69,probe-225,0.517688859,0.124288459,0.549686898,0,,,,,,,,
,html-keyboard-response,231,1027798,0.0-125.0-1.0,"""event"",""trial"",""time""
""fullscreenenter"",""0"",""4487""
","
","
","""event"",""trial"",""time""
""fullscreenenter"",""0"",""4487""
","
",null,<p></p>,null,,,,,,,,,,,,,,,,,,,,,,,
,do_bye,232,1029307,0.0-126.0-0.0,"""event"",""trial"",""time""
""fullscreenenter"",""0"",""4487""
","
","
","""event"",""trial"",""time""
""fullscreenenter"",""0"",""4487""
","
",null,,,,,,,,null,,,,,,,,,,,,,,,,,
,break,233,1149314,0.0-126.0-1.0,"""event"",""trial"",""time""
""fullscreenenter"",""0"",""4487""
","
","
","""event"",""trial"",""time""
""fullscreenenter"",""0"",""4487""
","
",null,"<div class='center'><p>Time to take a quick break! You have 2 minutes to rest, but you can move on sooner if you'd like.</p><p> Press the <b>space bar</b> to continue.</p></div>",null,,,,,,,,,,,,,,,,,,,,,,,
,do_travel,234,1158321,0.0-127.0-0.0,"""event"",""trial"",""time""
""fullscreenenter"",""0"",""4487""
","
","
","""event"",""trial"",""time""
""fullscreenenter"",""0"",""4487""
","
",null,,,,,,,,null,,,,,,,,,,,,,,,,,
,do_welcome,235,1162327,0.0-127.0-1.0,"""event"",""trial"",""time""
""fullscreenenter"",""0"",""4487""
","
","
","""event"",""trial"",""time""
""fullscreenenter"",""0"",""4487""
","
",null,,,,,,,,null,,,,,,,,,,,,,,,,,
,do_trial,236,1168536,0.0-128.0-0.0,"""event"",""trial"",""time""
""fullscreenenter"",""0"",""4487""
","
","
","""event"",""trial"",""time""
""fullscreenenter"",""0"",""4487""
","
",1663.5,,,,,,,,49,"1,0,1",2,city,70,probe-55,0.515591439,0.192120648,1,1,,,,,,,,
,html-keyboard-response,237,1169542,0.0-128.0-1.0,"""event"",""trial"",""time""
""fullscreenenter"",""0"",""4487""
","
","
","""event"",""trial"",""time""
""fullscreenenter"",""0"",""4487""
","
",null,<p></p>,null,,,,,,,,,,,,,,,,,,,,,,,
,do_trial,238,1174931,0.0-129.0-0.0,"""event"",""trial"",""time""
""fullscreenenter"",""0"",""4487""
","
","
","""event"",""trial"",""time""
""fullscreenenter"",""0"",""4487""
","
",843.4,,,,,,,,49,"1,0,1",2,city,71,probe-227,0.439420621,0.221349656,1,1,,,,,,,,
,html-keyboard-response,239,1175937,0.0-129.0-1.0,"""event"",""trial"",""time""
""fullscreenenter"",""0"",""4487""
","
","
","""event"",""trial"",""time""
""fullscreenenter"",""0"",""4487""
","
",null,<p></p>,null,,,,,,,,,,,,,,,,,,,,,,,
,do_trial,240,1181320,0.0-130.0-0.0,"""event"",""trial"",""time""
""fullscreenenter"",""0"",""4487""
","
","
","""event"",""trial"",""time""
""fullscreenenter"",""0"",""4487""
","
",838.1,,,,,,,,49,"1,0,1",2,city,72,probe-39,0.367022299,0.255888966,0.724486273,1,,,,,,,,
,html-keyboard-response,241,1182326,0.0-130.0-1.0,"""event"",""trial"",""time""
""fullscreenenter"",""0"",""4487""
","
","
","""event"",""trial"",""time""
""fullscreenenter"",""0"",""4487""
","
",null,<p></p>,null,,,,,,,,,,,,,,,,,,,,,,,
,do_trial,242,1187585,0.0-131.0-0.0,"""event"",""trial"",""time""
""fullscreenenter"",""0"",""4487""
","
","
","""event"",""trial"",""time""
""fullscreenenter"",""0"",""4487""
","
",714.3,,,,,,,,49,"1,0,1",2,city,73,probe-209,0.414594303,0.237653644,0.835605354,1,,,,,,,,
,html-keyboard-response,243,1188591,0.0-131.0-1.0,"""event"",""trial"",""time""
""fullscreenenter"",""0"",""4487""
","
","
","""event"",""trial"",""time""
""fullscreenenter"",""0"",""4487""
","
",null,<p></p>,null,,,,,,,,,,,,,,,,,,,,,,,
,do_trial,244,1193737,0.0-132.0-0.0,"""event"",""trial"",""time""
""fullscreenenter"",""0"",""4487""
","
","
","""event"",""trial"",""time""
""fullscreenenter"",""0"",""4487""
","
",599.4,,,,,,,,49,"1,0,1",2,city,74,probe-10,0.268221815,0.259484254,0.757974502,1,,,,,,,,
,html-keyboard-response,245,1194743,0.0-132.0-1.0,"""event"",""trial"",""time""
""fullscreenenter"",""0"",""4487""
","
","
","""event"",""trial"",""time""
""fullscreenenter"",""0"",""4487""
","
",null,<p></p>,null,,,,,,,,,,,,,,,,,,,,,,,
,do_trial,246,1199988,0.0-133.0-0.0,"""event"",""trial"",""time""
""fullscreenenter"",""0"",""4487""
","
","
","""event"",""trial"",""time""
""fullscreenenter"",""0"",""4487""
","
",700.9,,,,,,,,49,"1,1,1",2,city,75,probe-155,0.340442359,0.26438219,0.651552923,1,,,,,,,,
,html-keyboard-response,247,1200994,0.0-133.0-1.0,"""event"",""trial"",""time""
""fullscreenenter"",""0"",""4487""
","
","
","""event"",""trial"",""time""
""fullscreenenter"",""0"",""4487""
","
",null,<p></p>,null,,,,,,,,,,,,,,,,,,,,,,,
,do_trial,248,1205970,0.0-134.0-0.0,"""event"",""trial"",""time""
""fullscreenenter"",""0"",""4487""
","
","
","""event"",""trial"",""time""
""fullscreenenter"",""0"",""4487""
","
",428.6,,,,,,,,49,"0,0,0",2,city,76,probe-124,0.475721747,0.084474802,0.567298591,0,,,,,,,,
,html-keyboard-response,249,1206976,0.0-134.0-1.0,"""event"",""trial"",""time""
""fullscreenenter"",""0"",""4487""
","
","
","""event"",""trial"",""time""
""fullscreenenter"",""0"",""4487""
","
",null,<p></p>,null,,,,,,,,,,,,,,,,,,,,,,,
,do_trial,250,1212017,0.0-135.0-0.0,"""event"",""trial"",""time""
""fullscreenenter"",""0"",""4487""
","
","
","""event"",""trial"",""time""
""fullscreenenter"",""0"",""4487""
","
",496.2,,,,,,,,49,"1,0,1",2,city,77,probe-229,0.493527775,0.122792219,0.51917684,1,,,,,,,,
,html-keyboard-response,251,1213023,0.0-135.0-1.0,"""event"",""trial"",""time""
""fullscreenenter"",""0"",""4487""
","
","
","""event"",""trial"",""time""
""fullscreenenter"",""0"",""4487""
","
",null,<p></p>,null,,,,,,,,,,,,,,,,,,,,,,,
,do_trial,252,1218232,0.0-136.0-0.0,"""event"",""trial"",""time""
""fullscreenenter"",""0"",""4487""
","
","
","""event"",""trial"",""time""
""fullscreenenter"",""0"",""4487""
","
",663.1,,,,,,,,49,"0,1,0",2,city,78,probe-154,0.337925397,0.166647702,0.54123286,0,,,,,,,,
,html-keyboard-response,253,1219237,0.0-136.0-1.0,"""event"",""trial"",""time""
""fullscreenenter"",""0"",""4487""
","
","
","""event"",""trial"",""time""
""fullscreenenter"",""0"",""4487""
","
",null,<p></p>,null,,,,,,,,,,,,,,,,,,,,,,,
,do_trial,254,1224030,0.0-137.0-0.0,"""event"",""trial"",""time""
""fullscreenenter"",""0"",""4487""
","
","
","""event"",""trial"",""time""
""fullscreenenter"",""0"",""4487""
","
",249.5,,,,,,,,49,"1,0,1",2,city,79,probe-87,0.44391017,0.053840927,0.608485853,1,,,,,,,,
,html-keyboard-response,255,1225035,0.0-137.0-1.0,"""event"",""trial"",""time""
""fullscreenenter"",""0"",""4487""
","
","
","""event"",""trial"",""time""
""fullscreenenter"",""0"",""4487""
","
",null,<p></p>,null,,,,,,,,,,,,,,,,,,,,,,,
,do_trial,256,1230255,0.0-138.0-0.0,"""event"",""trial"",""time""
""fullscreenenter"",""0"",""4487""
","
","
","""event"",""trial"",""time""
""fullscreenenter"",""0"",""4487""
","
",672.9,,,,,,,,49,"0,0,1",2,city,80,probe-200,0.573994654,0.170839689,0.671466327,0,,,,,,,,
,html-keyboard-response,257,1231258,0.0-138.0-1.0,"""event"",""trial"",""time""
""fullscreenenter"",""0"",""4487""
","
","
","""event"",""trial"",""time""
""fullscreenenter"",""0"",""4487""
","
",null,<p></p>,null,,,,,,,,,,,,,,,,,,,,,,,
,do_trial,258,1236489,0.0-139.0-0.0,"""event"",""trial"",""time""
""fullscreenenter"",""0"",""4487""
","
","
","""event"",""trial"",""time""
""fullscreenenter"",""0"",""4487""
","
",689.1,,,,,,,,49,"0,0,1",2,city,81,probe-207,0.654787402,0.22141765,0.717071232,0,,,,,,,,
,html-keyboard-response,259,1237496,0.0-139.0-1.0,"""event"",""trial"",""time""
""fullscreenenter"",""0"",""4487""
","
","
","""event"",""trial"",""time""
""fullscreenenter"",""0"",""4487""
","
",null,<p></p>,null,,,,,,,,,,,,,,,,,,,,,,,
,do_trial,260,1242982,0.0-140.0-0.0,"""event"",""trial"",""time""
""fullscreenenter"",""0"",""4487""
","
","
","""event"",""trial"",""time""
""fullscreenenter"",""0"",""4487""
","
",939.6,,,,,,,,49,"1,0,1",2,city,82,probe-60,0.595556779,0.34166826,0.431236569,1,,,,,,,,
,html-keyboard-response,261,1243987,0.0-140.0-1.0,"""event"",""trial"",""time""
""fullscreenenter"",""0"",""4487""
","
","
","""event"",""trial"",""time""
""fullscreenenter"",""0"",""4487""
","
",null,<p></p>,null,,,,,,,,,,,,,,,,,,,,,,,
,do_trial,262,1249202,0.0-141.0-0.0,"""event"",""trial"",""time""
""fullscreenenter"",""0"",""4487""
","
","
","""event"",""trial"",""time""
""fullscreenenter"",""0"",""4487""
","
",668.5,,,,,,,,49,"1,1,0",2,city,83,probe-175,0.563731729,0.399075181,0.298054414,1,,,,,,,,
,html-keyboard-response,263,1250208,0.0-141.0-1.0,"""event"",""trial"",""time""
""fullscreenenter"",""0"",""4487""
","
","
","""event"",""trial"",""time""
""fullscreenenter"",""0"",""4487""
","
",null,<p></p>,null,,,,,,,,,,,,,,,,,,,,,,,
,do_trial,264,1255505,0.0-142.0-0.0,"""event"",""trial"",""time""
""fullscreenenter"",""0"",""4487""
","
","
","""event"",""trial"",""time""
""fullscreenenter"",""0"",""4487""
","
",752.8,,,,,,,,49,"1,0,0",2,city,84,probe-54,0.69727302,0.413703396,0.178976316,1,,,,,,,,
,html-keyboard-response,265,1256511,0.0-142.0-1.0,"""event"",""trial"",""time""
""fullscreenenter"",""0"",""4487""
","
","
","""event"",""trial"",""time""
""fullscreenenter"",""0"",""4487""
","
",null,<p></p>,null,,,,,,,,,,,,,,,,,,,,,,,
,do_trial,266,1261103,0.0-143.0-0.0,"""event"",""trial"",""time""
""fullscreenenter"",""0"",""4487""
","
","
","""event"",""trial"",""time""
""fullscreenenter"",""0"",""4487""
","
",44.7,,,,,,,,49,"1,1,0",2,city,85,probe-35,0.623544453,0.387198531,0.266651774,1,,,,,,,,
,html-keyboard-response,267,1262108,0.0-143.0-1.0,"""event"",""trial"",""time""
""fullscreenenter"",""0"",""4487""
","
","
","""event"",""trial"",""time""
""fullscreenenter"",""0"",""4487""
","
",null,<p></p>,null,,,,,,,,,,,,,,,,,,,,,,,
,do_trial,268,1267018,0.0-144.0-0.0,"""event"",""trial"",""time""
""fullscreenenter"",""0"",""4487""
","
","
","""event"",""trial"",""time""
""fullscreenenter"",""0"",""4487""
","
",366.3,,,,,,,,49,"1,0,1",2,city,86,probe-62,0.508524181,0.268716374,0.177148689,1,,,,,,,,
,html-keyboard-response,269,1268023,0.0-144.0-1.0,"""event"",""trial"",""time""
""fullscreenenter"",""0"",""4487""
","
","
","""event"",""trial"",""time""
""fullscreenenter"",""0"",""4487""
","
",null,<p></p>,null,,,,,,,,,,,,,,,,,,,,,,,
,do_trial,270,1273138,0.0-145.0-0.0,"""event"",""trial"",""time""
""fullscreenenter"",""0"",""4487""
","
","
","""event"",""trial"",""time""
""fullscreenenter"",""0"",""4487""
","
",567.5,,,,,,,,49,"0,0,0",2,city,87,probe-152,0.516258084,0.321488458,0.165003958,0,,,,,,,,
,html-keyboard-response,271,1274144,0.0-145.0-1.0,"""event"",""trial"",""time""
""fullscreenenter"",""0"",""4487""
","
","
","""event"",""trial"",""time""
""fullscreenenter"",""0"",""4487""
","
",null,<p></p>,null,,,,,,,,,,,,,,,,,,,,,,,
,do_trial,272,1279230,0.0-146.0-0.0,"""event"",""trial"",""time""
""fullscreenenter"",""0"",""4487""
","
","
","""event"",""trial"",""time""
""fullscreenenter"",""0"",""4487""
","
",540.5,,,,,,,,49,"0,0,0",2,city,88,probe-28,0.55132033,0.199833679,0.074709364,0,,,,,,,,
,html-keyboard-response,273,1280236,0.0-146.0-1.0,"""event"",""trial"",""time""
""fullscreenenter"",""0"",""4487""
","
","
","""event"",""trial"",""time""
""fullscreenenter"",""0"",""4487""
","
",null,<p></p>,null,,,,,,,,,,,,,,,,,,,,,,,
,do_trial,274,1285323,0.0-147.0-0.0,"""event"",""trial"",""time""
""fullscreenenter"",""0"",""4487""
","
","
","""event"",""trial"",""time""
""fullscreenenter"",""0"",""4487""
","
",542,,,,,,,,49,"1,0,0",2,city,89,probe-191,0.60191968,0.252016921,0.05786942,1,,,,,,,,
,html-keyboard-response,275,1286329,0.0-147.0-1.0,"""event"",""trial"",""time""
""fullscreenenter"",""0"",""4487""
","
","
","""event"",""trial"",""time""
""fullscreenenter"",""0"",""4487""
","
",null,<p></p>,null,,,,,,,,,,,,,,,,,,,,,,,
,do_trial,276,1291445,0.0-148.0-0.0,"""event"",""trial"",""time""
""fullscreenenter"",""0"",""4487""
","
","
","""event"",""trial"",""time""
""fullscreenenter"",""0"",""4487""
","
",568.2,,,,,,,,49,"0,0,0",2,city,90,probe-215,0.604801715,0.354212888,0.131065873,0,,,,,,,,
,html-keyboard-response,277,1292450,0.0-148.0-1.0,"""event"",""trial"",""time""
""fullscreenenter"",""0"",""4487""
","
","
","""event"",""trial"",""time""
""fullscreenenter"",""0"",""4487""
","
",null,<p></p>,null,,,,,,,,,,,,,,,,,,,,,,,
,do_trial,278,1297715,0.0-149.0-0.0,"""event"",""trial"",""time""
""fullscreenenter"",""0"",""4487""
","
","
","""event"",""trial"",""time""
""fullscreenenter"",""0"",""4487""
","
",716.8,,,,,,,,49,"1,0,0",2,city,91,probe-107,0.585160289,0.185854877,0.152305329,1,,,,,,,,
,html-keyboard-response,279,1298720,0.0-149.0-1.0,"""event"",""trial"",""time""
""fullscreenenter"",""0"",""4487""
","
","
","""event"",""trial"",""time""
""fullscreenenter"",""0"",""4487""
","
",null,<p></p>,null,,,,,,,,,,,,,,,,,,,,,,,
,do_trial,280,1303812,0.0-150.0-0.0,"""event"",""trial"",""time""
""fullscreenenter"",""0"",""4487""
","
","
","""event"",""trial"",""time""
""fullscreenenter"",""0"",""4487""
","
",545.3,,,,,,,,49,"0,0,0",2,city,92,probe-80,0.595019457,0.15324831,0.068505892,0,,,,,,,,
,html-keyboard-response,281,1304818,0.0-150.0-1.0,"""event"",""trial"",""time""
""fullscreenenter"",""0"",""4487""
","
","
","""event"",""trial"",""time""
""fullscreenenter"",""0"",""4487""
","
",null,<p></p>,null,,,,,,,,,,,,,,,,,,,,,,,
,do_trial,282,1309877,0.0-151.0-0.0,"""event"",""trial"",""time""
""fullscreenenter"",""0"",""4487""
","
","
","""event"",""trial"",""time""
""fullscreenenter"",""0"",""4487""
","
",512.7,,,,,,,,49,"0,0,0",2,city,93,probe-13,0.660959566,0.212508347,0.209872985,0,,,,,,,,
,html-keyboard-response,283,1310883,0.0-151.0-1.0,"""event"",""trial"",""time""
""fullscreenenter"",""0"",""4487""
","
","
","""event"",""trial"",""time""
""fullscreenenter"",""0"",""4487""
","
",null,<p></p>,null,,,,,,,,,,,,,,,,,,,,,,,
,do_trial,284,1316008,0.0-152.0-0.0,"""event"",""trial"",""time""
""fullscreenenter"",""0"",""4487""
","
","
","""event"",""trial"",""time""
""fullscreenenter"",""0"",""4487""
","
",581,,,,,,,,49,"0,1,0",2,city,94,probe-219,0.565558822,0.269148177,0.090205951,0,,,,,,,,
,html-keyboard-response,285,1317014,0.0-152.0-1.0,"""event"",""trial"",""time""
""fullscreenenter"",""0"",""4487""
","
","
","""event"",""trial"",""time""
""fullscreenenter"",""0"",""4487""
","
",null,<p></p>,null,,,,,,,,,,,,,,,,,,,,,,,
,do_trial,286,1321947,0.0-153.0-0.0,"""event"",""trial"",""time""
""fullscreenenter"",""0"",""4487""
","
","
","""event"",""trial"",""time""
""fullscreenenter"",""0"",""4487""
","
",388.5,,,,,,,,50,"1,0,1",2,city,95,probe-173,0.647058151,0.274970794,0.12053799,0,,,,,,,,
,html-keyboard-response,287,1322953,0.0-153.0-1.0,"""event"",""trial"",""time""
""fullscreenenter"",""0"",""4487""
","
","
","""event"",""trial"",""time""
""fullscreenenter"",""0"",""4487""
","
",null,<p></p>,null,,,,,,,,,,,,,,,,,,,,,,,
,do_trial,288,1327933,0.0-154.0-0.0,"""event"",""trial"",""time""
""fullscreenenter"",""0"",""4487""
","
","
","""event"",""trial"",""time""
""fullscreenenter"",""0"",""4487""
","
",433.5,,,,,,,,50,"0,1,0",2,city,96,probe-187,0.670007697,0.247495816,0.051457776,1,,,,,,,,
,html-keyboard-response,289,1328938,0.0-154.0-1.0,"""event"",""trial"",""time""
""fullscreenenter"",""0"",""4487""
","
","
","""event"",""trial"",""time""
""fullscreenenter"",""0"",""4487""
","
",null,<p></p>,null,,,,,,,,,,,,,,,,,,,,,,,
,do_trial,290,1334012,0.0-155.0-0.0,"""event"",""trial"",""time""
""fullscreenenter"",""0"",""4487""
","
","
","""event"",""trial"",""time""
""fullscreenenter"",""0"",""4487""
","
",527.1,,,,,,,,50,"1,0,0",2,city,97,probe-145,0.585013379,0.388713707,0.05455733,0,,,,,,,,
,html-keyboard-response,291,1335018,0.0-155.0-1.0,"""event"",""trial"",""time""
""fullscreenenter"",""0"",""4487""
","
","
","""event"",""trial"",""time""
""fullscreenenter"",""0"",""4487""
","
",null,<p></p>,null,,,,,,,,,,,,,,,,,,,,,,,
,do_trial,292,1340729,0.0-156.0-0.0,"""event"",""trial"",""time""
""fullscreenenter"",""0"",""4487""
","
","
","""event"",""trial"",""time""
""fullscreenenter"",""0"",""4487""
","
",1165.2,,,,,,,,50,"1,0,0",2,city,98,probe-15,0.731916163,0.254519393,0.149238349,0,,,,,,,,
,html-keyboard-response,293,1341735,0.0-156.0-1.0,"""event"",""trial"",""time""
""fullscreenenter"",""0"",""4487""
","
","
","""event"",""trial"",""time""
""fullscreenenter"",""0"",""4487""
","
",null,<p></p>,null,,,,,,,,,,,,,,,,,,,,,,,
,do_trial,294,1347306,0.0-157.0-0.0,"""event"",""trial"",""time""
""fullscreenenter"",""0"",""4487""
","
","
","""event"",""trial"",""time""
""fullscreenenter"",""0"",""4487""
","
",1027.8,,,,,,,,50,"1,0,0",2,city,99,probe-149,0.710196593,0.181178698,0.076959202,0,,,,,,,,
,html-keyboard-response,295,1348311,0.0-157.0-1.0,"""event"",""trial"",""time""
""fullscreenenter"",""0"",""4487""
","
","
","""event"",""trial"",""time""
""fullscreenenter"",""0"",""4487""
","
",null,<p></p>,null,,,,,,,,,,,,,,,,,,,,,,,
,do_trial,296,1353792,0.0-158.0-0.0,"""event"",""trial"",""time""
""fullscreenenter"",""0"",""4487""
","
","
","""event"",""trial"",""time""
""fullscreenenter"",""0"",""4487""
","
",939,,,,,,,,50,"1,1,0",2,city,100,probe-11,0.722576232,0.260246161,0.093907794,1,,,,,,,,
,html-keyboard-response,297,1354798,0.0-158.0-1.0,"""event"",""trial"",""time""
""fullscreenenter"",""0"",""4487""
","
","
","""event"",""trial"",""time""
""fullscreenenter"",""0"",""4487""
","
",null,<p></p>,null,,,,,,,,,,,,,,,,,,,,,,,
,do_trial,298,1359725,0.0-159.0-0.0,"""event"",""trial"",""time""
""fullscreenenter"",""0"",""4487""
","
","
","""event"",""trial"",""time""
""fullscreenenter"",""0"",""4487""
","
",384.7,,,,,,,,50,"1,0,0",2,city,101,probe-08,0.728352705,0.379502483,0.071515859,0,,,,,,,,
,html-keyboard-response,299,1360729,0.0-159.0-1.0,"""event"",""trial"",""time""
""fullscreenenter"",""0"",""4487""
","
","
","""event"",""trial"",""time""
""fullscreenenter"",""0"",""4487""
","
",null,<p></p>,null,,,,,,,,,,,,,,,,,,,,,,,
,do_trial,300,1365288,0.0-160.0-0.0,"""event"",""trial"",""time""
""fullscreenenter"",""0"",""4487""
","
","
","""event"",""trial"",""time""
""fullscreenenter"",""0"",""4487""
","
",11.8,,,,,,,,50,"1,0,0",2,city,102,probe-210,0.650748987,0.412226666,0.143999593,0,,,,,,,,
,html-keyboard-response,301,1366294,0.0-160.0-1.0,"""event"",""trial"",""time""
""fullscreenenter"",""0"",""4487""
","
","
","""event"",""trial"",""time""
""fullscreenenter"",""0"",""4487""
","
",null,<p></p>,null,,,,,,,,,,,,,,,,,,,,,,,
,do_trial,302,1371437,0.0-161.0-0.0,"""event"",""trial"",""time""
""fullscreenenter"",""0"",""4487""
","
","
","""event"",""trial"",""time""
""fullscreenenter"",""0"",""4487""
","
",596.6,,,,,,,,51,"0,1,0",2,city,103,probe-180,0.459460955,0.547279657,0.097896199,0,,,,,,,,
,html-keyboard-response,303,1372443,0.0-161.0-1.0,"""event"",""trial"",""time""
""fullscreenenter"",""0"",""4487""
","
","
","""event"",""trial"",""time""
""fullscreenenter"",""0"",""4487""
","
",null,<p></p>,null,,,,,,,,,,,,,,,,,,,,,,,
,do_trial,304,1377417,0.0-162.0-0.0,"""event"",""trial"",""time""
""fullscreenenter"",""0"",""4487""
","
","
","""event"",""trial"",""time""
""fullscreenenter"",""0"",""4487""
","
",428.4,,,,,,,,51,"1,1,0",2,city,104,probe-167,0.559796293,0.374030133,0.113620807,0,,,,,,,,
,html-keyboard-response,305,1378423,0.0-162.0-1.0,"""event"",""trial"",""time""
""fullscreenenter"",""0"",""4487""
","
","
","""event"",""trial"",""time""
""fullscreenenter"",""0"",""4487""
","
",null,<p></p>,null,,,,,,,,,,,,,,,,,,,,,,,
,do_trial,306,1383392,0.0-163.0-0.0,"""event"",""trial"",""time""
""fullscreenenter"",""0"",""4487""
","
","
","""event"",""trial"",""time""
""fullscreenenter"",""0"",""4487""
","
",425.8,,,,,,,,51,"1,0,0",2,city,105,probe-23,0.486899567,0.271346097,0.118409931,0,,,,,,,,
,html-keyboard-response,307,1384396,0.0-163.0-1.0,"""event"",""trial"",""time""
""fullscreenenter"",""0"",""4487""
","
","
","""event"",""trial"",""time""
""fullscreenenter"",""0"",""4487""
","
",null,<p></p>,null,,,,,,,,,,,,,,,,,,,,,,,
,do_trial,308,1389542,0.0-164.0-0.0,"""event"",""trial"",""time""
""fullscreenenter"",""0"",""4487""
","
","
","""event"",""trial"",""time""
""fullscreenenter"",""0"",""4487""
","
",599.4,,,,,,,,50,"1,1,1",2,city,106,probe-114,0.509922354,0.154236837,0.069992489,1,,,,,,,,
,html-keyboard-response,309,1390548,0.0-164.0-1.0,"""event"",""trial"",""time""
""fullscreenenter"",""0"",""4487""
","
","
","""event"",""trial"",""time""
""fullscreenenter"",""0"",""4487""
","
",null,<p></p>,null,,,,,,,,,,,,,,,,,,,,,,,
,do_trial,310,1395867,0.0-165.0-0.0,"""event"",""trial"",""time""
""fullscreenenter"",""0"",""4487""
","
","
","""event"",""trial"",""time""
""fullscreenenter"",""0"",""4487""
","
",773.5,,,,,,,,50,"1,0,0",2,city,107,probe-91,0.443418804,0.267949407,0.083486455,0,,,,,,,,
,html-keyboard-response,311,1396873,0.0-165.0-1.0,"""event"",""trial"",""time""
""fullscreenenter"",""0"",""4487""
","
","
","""event"",""trial"",""time""
""fullscreenenter"",""0"",""4487""
","
",null,<p></p>,null,,,,,,,,,,,,,,,,,,,,,,,
,do_trial,312,1401854,0.0-166.0-0.0,"""event"",""trial"",""time""
""fullscreenenter"",""0"",""4487""
","
","
","""event"",""trial"",""time""
""fullscreenenter"",""0"",""4487""
","
",434.6,,,,,,,,50,"0,0,0",2,city,108,probe-127,0.562410167,0.22854697,0.207842291,0,,,,,,,,
,html-keyboard-response,313,1402860,0.0-166.0-1.0,"""event"",""trial"",""time""
""fullscreenenter"",""0"",""4487""
","
","
","""event"",""trial"",""time""
""fullscreenenter"",""0"",""4487""
","
",null,<p></p>,null,,,,,,,,,,,,,,,,,,,,,,,
,do_trial,314,1407732,0.0-167.0-0.0,"""event"",""trial"",""time""
""fullscreenenter"",""0"",""4487""
","
","
","""event"",""trial"",""time""
""fullscreenenter"",""0"",""4487""
","
",325.2,,,,,,,,50,"1,0,0",2,city,109,probe-185,0.552599997,0.265470276,0.089867054,0,,,,,,,,
,html-keyboard-response,315,1408738,0.0-167.0-1.0,"""event"",""trial"",""time""
""fullscreenenter"",""0"",""4487""
","
","
","""event"",""trial"",""time""
""fullscreenenter"",""0"",""4487""
","
",null,<p></p>,null,,,,,,,,,,,,,,,,,,,,,,,
,do_bye,316,1410245,0.0-168.0-0.0,"""event"",""trial"",""time""
""fullscreenenter"",""0"",""4487""
","
","
","""event"",""trial"",""time""
""fullscreenenter"",""0"",""4487""
","
",null,,,,,,,,null,,,,,,,,,,,,,,,,,
,break,317,1530252,0.0-168.0-1.0,"""event"",""trial"",""time""
""fullscreenenter"",""0"",""4487""
","
","
","""event"",""trial"",""time""
""fullscreenenter"",""0"",""4487""
","
",null,"<div class='center'><p>Time to take a quick break! You have 2 minutes to rest, but you can move on sooner if you'd like.</p><p> Press the <b>space bar</b> to continue.</p></div>",null,,,,,,,,,,,,,,,,,,,,,,,
,do_travel,318,1539258,0.0-169.0-0.0,"""event"",""trial"",""time""
""fullscreenenter"",""0"",""4487""
","
","
","""event"",""trial"",""time""
""fullscreenenter"",""0"",""4487""
","
",null,,,,,,,,null,,,,,,,,,,,,,,,,,
,do_welcome,319,1543268,0.0-169.0-1.0,"""event"",""trial"",""time""
""fullscreenenter"",""0"",""4487""
","
","
","""event"",""trial"",""time""
""fullscreenenter"",""0"",""4487""
","
",null,,,,,,,,null,,,,,,,,,,,,,,,,,
,do_trial,320,1549203,0.0-170.0-0.0,"""event"",""trial"",""time""
""fullscreenenter"",""0"",""4487""
","
","
","""event"",""trial"",""time""
""fullscreenenter"",""0"",""4487""
","
",1396.1,,,,,,,,49,"1,0,0",3,countryside,110,probe-93,1,0.285960921,0.108818566,1,,,,,,,,
,html-keyboard-response,321,1550205,0.0-170.0-1.0,"""event"",""trial"",""time""
""fullscreenenter"",""0"",""4487""
","
","
","""event"",""trial"",""time""
""fullscreenenter"",""0"",""4487""
","
",null,<p></p>,null,,,,,,,,,,,,,,,,,,,,,,,
,do_trial,322,1555327,0.0-171.0-0.0,"""event"",""trial"",""time""
""fullscreenenter"",""0"",""4487""
","
","
","""event"",""trial"",""time""
""fullscreenenter"",""0"",""4487""
","
",580.7,,,,,,,,49,"1,1,0",3,countryside,111,probe-45,1,0.230379242,0.072476001,1,,,,,,,,
,html-keyboard-response,323,1556333,0.0-171.0-1.0,"""event"",""trial"",""time""
""fullscreenenter"",""0"",""4487""
","
","
","""event"",""trial"",""time""
""fullscreenenter"",""0"",""4487""
","
",null,<p></p>,null,,,,,,,,,,,,,,,,,,,,,,,
,do_trial,324,1561529,0.0-172.0-0.0,"""event"",""trial"",""time""
""fullscreenenter"",""0"",""4487""
","
","
","""event"",""trial"",""time""
""fullscreenenter"",""0"",""4487""
","
",648.6,,,,,,,,49,"1,1,0",3,countryside,112,probe-05,0.892348167,0.247047341,0.050023565,1,,,,,,,,
,html-keyboard-response,325,1562534,0.0-172.0-1.0,"""event"",""trial"",""time""
""fullscreenenter"",""0"",""4487""
","
","
","""event"",""trial"",""time""
""fullscreenenter"",""0"",""4487""
","
",null,<p></p>,null,,,,,,,,,,,,,,,,,,,,,,,
,do_trial,326,1567672,0.0-173.0-0.0,"""event"",""trial"",""time""
""fullscreenenter"",""0"",""4487""
","
","
","""event"",""trial"",""time""
""fullscreenenter"",""0"",""4487""
","
",599.2,,,,,,,,49,"1,1,0",3,countryside,113,probe-30,0.660214298,0.327917829,0.083132101,1,,,,,,,,
,html-keyboard-response,327,1568677,0.0-173.0-1.0,"""event"",""trial"",""time""
""fullscreenenter"",""0"",""4487""
","
","
","""event"",""trial"",""time""
""fullscreenenter"",""0"",""4487""
","
",null,<p></p>,null,,,,,,,,,,,,,,,,,,,,,,,
,do_trial,328,1573817,0.0-174.0-0.0,"""event"",""trial"",""time""
""fullscreenenter"",""0"",""4487""
","
","
","""event"",""trial"",""time""
""fullscreenenter"",""0"",""4487""
","
",597,,,,,,,,49,"0,1,0",3,countryside,114,probe-21,0.448948953,0.483950479,0.078899868,0,,,,,,,,
,html-keyboard-response,329,1574823,0.0-174.0-1.0,"""event"",""trial"",""time""
""fullscreenenter"",""0"",""4487""
","
","
","""event"",""trial"",""time""
""fullscreenenter"",""0"",""4487""
","
",null,<p></p>,null,,,,,,,,,,,,,,,,,,,,,,,
,do_trial,330,1580135,0.0-175.0-0.0,"""event"",""trial"",""time""
""fullscreenenter"",""0"",""4487""
","
","
","""event"",""trial"",""time""
""fullscreenenter"",""0"",""4487""
","
",770.3,,,,,,,,49,"1,0,0",3,countryside,115,probe-83,0.513664985,0.329625496,0.195264696,1,,,,,,,,
,html-keyboard-response,331,1581141,0.0-175.0-1.0,"""event"",""trial"",""time""
""fullscreenenter"",""0"",""4487""
","
","
","""event"",""trial"",""time""
""fullscreenenter"",""0"",""4487""
","
",null,<p></p>,null,,,,,,,,,,,,,,,,,,,,,,,
,do_trial,332,1586444,0.0-176.0-0.0,"""event"",""trial"",""time""
""fullscreenenter"",""0"",""4487""
","
","
","""event"",""trial"",""time""
""fullscreenenter"",""0"",""4487""
","
",757.2,,,,,,,,49,"0,0,0",3,countryside,116,probe-79,0.434651335,0.352242157,0.213598947,0,,,,,,,,
,html-keyboard-response,333,1587450,0.0-176.0-1.0,"""event"",""trial"",""time""
""fullscreenenter"",""0"",""4487""
","
","
","""event"",""trial"",""time""
""fullscreenenter"",""0"",""4487""
","
",null,<p></p>,null,,,,,,,,,,,,,,,,,,,,,,,
,do_trial,334,1592683,0.0-177.0-0.0,"""event"",""trial"",""time""
""fullscreenenter"",""0"",""4487""
","
","
","""event"",""trial"",""time""
