"success","trial_type","trial_index","time_elapsed","internal_node_id","interactions","blur_events","focus_events","fullscreenenter_events","fullscreenexit_events","rt","stimulus","key_press","subject_id","participant_id","age","gender","prompt","response","choice_outcomes","context_n","context_img_id","trial_n","probe_img_id","pR_red","pR_white","pR_black","outcome","contextArray_ind","validImageProbes","invalidImageProbes","pRew_Red","pRew_White","pRew_Black","availableForMemProbe","choice_blocks"
"true","fullscreen","0","5663","0.0-0.0","""event"",""trial"",""time""
""fullscreenenter"",""0"",""4672""
","
","
","""event"",""trial"",""time""
""fullscreenenter"",""0"",""4672""
","
","","","","","","","","","","","","","","","","","","","","","","","","","",""
"","pavlovia","1","5667","0.0-1.0","""event"",""trial"",""time""
""fullscreenenter"",""0"",""4672""
","
","
","""event"",""trial"",""time""
""fullscreenenter"",""0"",""4672""
","
","","","","","","","","","","","","","","","","","","","","","","","","","",""
"","instruc1","2","50896","0.0-2.0","""event"",""trial"",""time""
""fullscreenenter"",""0"",""4672""
","
","
","""event"",""trial"",""time""
""fullscreenenter"",""0"",""4672""
","
","null","run_exp/static/audio/clip_1_welcome.m4a","null","1470","1756","25","Female","<div class='center'><p>Welcome! This is the first part of the study. It will last ~30 minutes. In part 1 and part 2 of the study, you are the head captain of a pirate ship traveling around the world to different islands. You will play a few different games throughout these two parts. Here is an overview of them:</p><br><p>Part 1 (today)</p><p>1. Instructions, practice game, and quiz</p><p>2. Pick a pirate game on 6 different islands</p><br><p>Part 2 (tomorrow)</p><p>3. Pick a pirate game and memory game</p><p>4. Where did you see this ship? </p></div>","","","","","","","","","","","","","","","","","",""
"","html-keyboard-response","3","51041","0.0-3.0","""event"",""trial"",""time""
""fullscreenenter"",""0"",""4672""
","
","
","""event"",""trial"",""time""
""fullscreenenter"",""0"",""4672""
","
","143.40000009536743","<div class='center'><p>Welcome! This is the first part of the study. It will last ~30 minutes. In part 1 and part 2 of the study, you are the head captain of a pirate ship traveling around the world to different islands. You will play a few different games throughout these two parts. Here is an overview of them:</p><br><p>Part 1 (today)</p><p>1. Instructions, practice game, and quiz</p><p>2. Pick a pirate game on 6 different islands</p><br><p>Part 2 (tomorrow)</p><p>3. Pick a pirate game and memory game</p><p>4. Where did you see this ship? </p><p><b>[Press the space bar to continue]</b></p></div>","32","","","","","","","","","","","","","","","","","","","","","","",""
"","instruc2","4","56335","0.0-4.0","""event"",""trial"",""time""
""fullscreenenter"",""0"",""4672""
","
","
","""event"",""trial"",""time""
""fullscreenenter"",""0"",""4672""
","
","null","run_exp/static/audio/clip_2_different_places.m4a","null","","","","","<div class='center'><p>Today, you’ll visit these 6 islands on your journey. You'll be able to see these islands from your ship.</p><p><img src='run_exp/static/images/contexts/all_contexts.png' height='500'></p></div>","","","","","","","","","","","","","","","","","",""
"","html-keyboard-response","5","61045","0.0-5.0","""event"",""trial"",""time""
""fullscreenenter"",""0"",""4672""
","
","
","""event"",""trial"",""time""
""fullscreenenter"",""0"",""4672""
","
","4707.599999904633","<div class='center'><p>Today, you’ll visit these 6 islands on your journey. You'll be able to see these islands from your ship.</p><p><img src='run_exp/static/images/contexts/all_contexts.png' height='500'></p><p><b>[Press the space bar to continue]</b></p></div>","32","","","","","","","","","","","","","","","","","","","","","","",""
"","instruc3","6","70735","0.0-6.0","""event"",""trial"",""time""
""fullscreenenter"",""0"",""4672""
","
","
","""event"",""trial"",""time""
""fullscreenenter"",""0"",""4672""
","
","null","run_exp/static/audio/clip_3_goal_of_game_1.m4a","null","","","","","<div class='center'><p> The pirates on your ship will rob other ships as they leave the island.</p> These ships have just sold their goods to the islanders, so they will be filled with lots and lots of gold.</p><p><img src='run_exp/static/images/tutorial/ship_center.png' height='400'></p></div>","","","","","","","","","","","","","","","","","",""
"","html-keyboard-response","7","74680","0.0-7.0","""event"",""trial"",""time""
""fullscreenenter"",""0"",""4672""
","
","
","""event"",""trial"",""time""
""fullscreenenter"",""0"",""4672""
","
","3943.2999997138977","<div class='center'><p> The pirates on your ship will rob other ships as they leave the island.</p> These ships have just sold their goods to the islanders, so they will be filled with lots and lots of gold.</p><p><img src='run_exp/static/images/tutorial/ship_center.png' height='400'></p><p><b>[Press the space bar to continue]</b></p></div>","32","","","","","","","","","","","","","","","","","","","","","","",""
"","instruc4","8","102656","0.0-8.0","""event"",""trial"",""time""
""fullscreenenter"",""0"",""4672""
","
","
","""event"",""trial"",""time""
""fullscreenenter"",""0"",""4672""
","
","null","run_exp/static/audio/clip_4_goal_of_game_2.m4a","null","","","","","<div class='center'><p>As the head captain, you do not have to rob any ships yourself. Another pirate will be doing the robbing for you. First, you will choose a pirate to rob the next ship.</p><p><img src='run_exp/static/images/tutorial/pirates_all_crop.png' height='200'></p><p>Then, you'll see if the pirate successfully robbed the ship of their gold. If they were successful, then you'll get a stack of gold coins like this:</p><p><img src='run_exp/static/images/tutorial/reward.png' height='150'></p><p> If they were <b>not</b> successful, then you'll get no gold coins, and you'll see a big red x like this: </p><p><img src='run_exp/static/images/tutorial/reward_no.png' height='150'></p><p> How much bonus money you make is based on how many gold coins you collect.</p><div>","","","","","","","","","","","","","","","","","",""
"","html-keyboard-response","9","103383","0.0-9.0","""event"",""trial"",""time""
""fullscreenenter"",""0"",""4672""
","
","
","""event"",""trial"",""time""
""fullscreenenter"",""0"",""4672""
","
","725.6999998092651","<div class='center'><p>As the head captain, you do not have to rob any ships yourself. Another pirate will be doing the robbing for you. First, you will choose a pirate to rob the next ship.</p><p><img src='run_exp/static/images/tutorial/pirates_all_crop.png' height='200'></p><p>Then, you'll see if the pirate successfully robbed the ship of their gold. If they were successful, then you'll get a stack of gold coins like this:</p><p><img src='run_exp/static/images/tutorial/reward.png' height='150'></p><p> If they were <b>not</b> successful, then you'll get no gold coins, and you'll see a big red x like this: </p><p><img src='run_exp/static/images/tutorial/reward_no.png' height='150'></p><p> How much bonus money you make is based on how many gold coins you collect.</p<p><b>[Press the space bar to continue]</b></p></div>","32","","","","","","","","","","","","","","","","","","","","","","",""
"","instruc5","10","125047","0.0-10.0","""event"",""trial"",""time""
""fullscreenenter"",""0"",""4672""
","
","
","""event"",""trial"",""time""
""fullscreenenter"",""0"",""4672""
","
","21663.400000095367","run_exp/static/audio/clip_5_probabilistic.m4a","49","","","","","<div class='center'><p>Even the most skilled pirate can not rob EVERY ship.</p><p> Some ships will have very strong protections against pirate attacks.</p><p> Blue beard, here, is very, very good at robbing ships, but he won't be successful every time he tries to rob one.</p><p> You can press the <b>‘1’</b> key on the keyboard to choose him.</p><p> Try choosing him 10 times to see how often he succeeds at robbing a ship. </p><p><img src='run_exp/static/images/tutorial/blue.png' height='500'></p></div>","","","","","","","","","","","","","","","","","",""
"","html-keyboard-response","11","126559","0.0-11.0","""event"",""trial"",""time""
""fullscreenenter"",""0"",""4672""
","
","
","""event"",""trial"",""time""
""fullscreenenter"",""0"",""4672""
","
","null","<div class='center'><p><img src='run_exp/static/images/tutorial/blue_win.png' height='500'></p></div>","null","","","","","","","","","","","","","","","","","","","","","","",""
"","html-keyboard-response","12","128540","0.0-12.0","""event"",""trial"",""time""
""fullscreenenter"",""0"",""4672""
","
","
","""event"",""trial"",""time""
""fullscreenenter"",""0"",""4672""
","
","1980.9000000953674","<div class='center'><img src='run_exp/static/images/tutorial/blue.png' height='500'></p></div>","49","","","","","","","","","","","","","","","","","","","","","","",""
"","html-keyboard-response","13","130052","0.0-13.0","""event"",""trial"",""time""
""fullscreenenter"",""0"",""4672""
","
","
","""event"",""trial"",""time""
""fullscreenenter"",""0"",""4672""
","
","null","<div class='center'><p><img src='run_exp/static/images/tutorial/blue_win.png' height='500'></p></div>","null","","","","","","","","","","","","","","","","","","","","","","",""
"","html-keyboard-response","14","130698","0.0-14.0","""event"",""trial"",""time""
""fullscreenenter"",""0"",""4672""
","
","
","""event"",""trial"",""time""
""fullscreenenter"",""0"",""4672""
","
","643.9000000953674","<div class='center'><img src='run_exp/static/images/tutorial/blue.png' height='500'></p></div>","49","","","","","","","","","","","","","","","","","","","","","","",""
"","html-keyboard-response","15","132201","0.0-15.0","""event"",""trial"",""time""
""fullscreenenter"",""0"",""4672""
","
","
","""event"",""trial"",""time""
""fullscreenenter"",""0"",""4672""
","
","null","<div class='center'><p><img src='run_exp/static/images/tutorial/blue_win.png' height='500'></p></div>","null","","","","","","","","","","","","","","","","","","","","","","",""
"","html-keyboard-response","16","133186","0.0-16.0","""event"",""trial"",""time""
""fullscreenenter"",""0"",""4672""
","
","
","""event"",""trial"",""time""
""fullscreenenter"",""0"",""4672""
","
","984.5","<div class='center'><img src='run_exp/static/images/tutorial/blue.png' height='500'></p></div>","49","","","","","","","","","","","","","","","","","","","","","","",""
"","html-keyboard-response","17","134696","0.0-17.0","""event"",""trial"",""time""
""fullscreenenter"",""0"",""4672""
","
","
","""event"",""trial"",""time""
""fullscreenenter"",""0"",""4672""
","
","null","<div class='center'><p><img src='run_exp/static/images/tutorial/blue_no_win.png' height='500'></p></div>","null","","","","","","","","","","","","","","","","","","","","","","",""
"","html-keyboard-response","18","136091","0.0-18.0","""event"",""trial"",""time""
""fullscreenenter"",""0"",""4672""
","
","
","""event"",""trial"",""time""
""fullscreenenter"",""0"",""4672""
","
","1394","<div class='center'><img src='run_exp/static/images/tutorial/blue.png' height='500'></p></div>","49","","","","","","","","","","","","","","","","","","","","","","",""
"","html-keyboard-response","19","137606","0.0-19.0","""event"",""trial"",""time""
""fullscreenenter"",""0"",""4672""
","
","
","""event"",""trial"",""time""
""fullscreenenter"",""0"",""4672""
","
","null","<div class='center'><p><img src='run_exp/static/images/tutorial/blue_win.png' height='500'></p></div>","null","","","","","","","","","","","","","","","","","","","","","","",""
"","html-keyboard-response","20","138921","0.0-20.0","""event"",""trial"",""time""
""fullscreenenter"",""0"",""4672""
","
","
","""event"",""trial"",""time""
""fullscreenenter"",""0"",""4672""
","
","1313.3999996185303","<div class='center'><img src='run_exp/static/images/tutorial/blue.png' height='500'></p></div>","49","","","","","","","","","","","","","","","","","","","","","","",""
"","html-keyboard-response","21","140436","0.0-21.0","""event"",""trial"",""time""
""fullscreenenter"",""0"",""4672""
","
","
","""event"",""trial"",""time""
""fullscreenenter"",""0"",""4672""
","
","null","<div class='center'><p><img src='run_exp/static/images/tutorial/blue_win.png' height='500'></p></div>","null","","","","","","","","","","","","","","","","","","","","","","",""
"","html-keyboard-response","22","141262","0.0-22.0","""event"",""trial"",""time""
""fullscreenenter"",""0"",""4672""
","
","
","""event"",""trial"",""time""
""fullscreenenter"",""0"",""4672""
","
","825.1999998092651","<div class='center'><img src='run_exp/static/images/tutorial/blue.png' height='500'></p></div>","49","","","","","","","","","","","","","","","","","","","","","","",""
"","html-keyboard-response","23","142772","0.0-23.0","""event"",""trial"",""time""
""fullscreenenter"",""0"",""4672""
","
","
","""event"",""trial"",""time""
""fullscreenenter"",""0"",""4672""
","
","null","<div class='center'><p><img src='run_exp/static/images/tutorial/blue_win.png' height='500'></p></div>","null","","","","","","","","","","","","","","","","","","","","","","",""
"","html-keyboard-response","24","143422","0.0-24.0","""event"",""trial"",""time""
""fullscreenenter"",""0"",""4672""
","
","
","""event"",""trial"",""time""
""fullscreenenter"",""0"",""4672""
","
","648.3000001907349","<div class='center'><img src='run_exp/static/images/tutorial/blue.png' height='500'></p></div>","49","","","","","","","","","","","","","","","","","","","","","","",""
"","html-keyboard-response","25","144932","0.0-25.0","""event"",""trial"",""time""
""fullscreenenter"",""0"",""4672""
","
","
","""event"",""trial"",""time""
""fullscreenenter"",""0"",""4672""
","
","null","<div class='center'><p><img src='run_exp/static/images/tutorial/blue_no_win.png' height='500'></p></div>","null","","","","","","","","","","","","","","","","","","","","","","",""
"","html-keyboard-response","26","145950","0.0-26.0","""event"",""trial"",""time""
""fullscreenenter"",""0"",""4672""
","
","
","""event"",""trial"",""time""
""fullscreenenter"",""0"",""4672""
","
","1016.1000003814697","<div class='center'><img src='run_exp/static/images/tutorial/blue.png' height='500'></p></div>","49","","","","","","","","","","","","","","","","","","","","","","",""
"","html-keyboard-response","27","147463","0.0-27.0","""event"",""trial"",""time""
""fullscreenenter"",""0"",""4672""
","
","
","""event"",""trial"",""time""
""fullscreenenter"",""0"",""4672""
","
","null","<div class='center'><p><img src='run_exp/static/images/tutorial/blue_win.png' height='500'></p></div>","null","","","","","","","","","","","","","","","","","","","","","","",""
"","html-keyboard-response","28","148010","0.0-28.0","""event"",""trial"",""time""
""fullscreenenter"",""0"",""4672""
","
","
","""event"",""trial"",""time""
""fullscreenenter"",""0"",""4672""
","
","546.5999999046326","<div class='center'><img src='run_exp/static/images/tutorial/blue.png' height='500'></p></div>","49","","","","","","","","","","","","","","","","","","","","","","",""
"","html-keyboard-response","29","149526","0.0-29.0","""event"",""trial"",""time""
""fullscreenenter"",""0"",""4672""
","
","
","""event"",""trial"",""time""
""fullscreenenter"",""0"",""4672""
","
","null","<div class='center'><p><img src='run_exp/static/images/tutorial/blue_win.png' height='500'></p></div>","null","","","","","","","","","","","","","","","","","","","","","","",""
"","instruc6","30","155248","0.0-30.0","""event"",""trial"",""time""
""fullscreenenter"",""0"",""4672""
","
","
","""event"",""trial"",""time""
""fullscreenenter"",""0"",""4672""
","
","null","run_exp/static/audio/clip_6_blue_beard_outcome.m4a","null","","","","","<div class='center'><p> See, he succeeded in robbing the ships most of the time but not every time. </p></div>","","","","","","","","","","","","","","","","","",""
"","html-keyboard-response","31","156907","0.0-31.0","""event"",""trial"",""time""
""fullscreenenter"",""0"",""4672""
","
","
","""event"",""trial"",""time""
""fullscreenenter"",""0"",""4672""
","
","1658.6999998092651","<div class='center'><p> See, he succeeded in robbing the ships most of the time but not every time. </p><p><b>[Press the space bar to continue]</b></p></div>","32","","","","","","","","","","","","","","","","","","","","","","",""
"","audio-keyboard-response","32","172842","0.0-32.0","""event"",""trial"",""time""
""fullscreenenter"",""0"",""4672""
","
","
","""event"",""trial"",""time""
""fullscreenenter"",""0"",""4672""
","
","15934.099999904633","run_exp/static/audio/clip_7_pick_pirate.m4a","49","","","","","","","","","","","","","","","","","","","","","","",""
"","audio-keyboard-response","33","177680","0.0-33.0-0.0","""event"",""trial"",""time""
""fullscreenenter"",""0"",""4672""
","
","
","""event"",""trial"",""time""
""fullscreenenter"",""0"",""4672""
","
","4836.200000286102","run_exp/static/audio/clip_8_chosen_pirate_win.m4a","32","","","","","","","","","","","","","","","","","","","","","","",""
"","audio-keyboard-response","34","180115","0.0-33.0-1.0","""event"",""trial"",""time""
""fullscreenenter"",""0"",""4672""
","
","
","""event"",""trial"",""time""
""fullscreenenter"",""0"",""4672""
","
","2432.3999996185303","run_exp/static/audio/clip_9_pick_a_pirate_again.m4a","51","","","","","","","","","","","","","","","","","","","","","","",""
"","audio-keyboard-response","35","184644","0.0-34.0-0.0","""event"",""trial"",""time""
""fullscreenenter"",""0"",""4672""
","
","
","""event"",""trial"",""time""
""fullscreenenter"",""0"",""4672""
","
","4528","run_exp/static/audio/clip_10_chosen_pirate_loss.m4a","32","","","","","","","","","","","","","","","","","","","","","","",""
"","instruc9","36","190130","0.0-35.0-0.0","""event"",""trial"",""time""
""fullscreenenter"",""0"",""4672""
","
","
","""event"",""trial"",""time""
""fullscreenenter"",""0"",""4672""
","
","null","run_exp/static/audio/clip_11_time_out.m4a","null","","","","","<div class='center'><p>If you don’t make your choice fast enough, you’ll have to wait a few seconds before you can make another one. </p><p><img src='run_exp/static/images/miscellaneous/hurry_up.png' height='500'></p></div>","","","","","","","","","","","","","","","","","",""
"","html-keyboard-response","37","191081","0.0-35.0-1.0","""event"",""trial"",""time""
""fullscreenenter"",""0"",""4672""
","
","
","""event"",""trial"",""time""
""fullscreenenter"",""0"",""4672""
","
","949.6999998092651","<div class='center'><p>If you don’t make your choice fast enough, you’ll have to wait a few seconds before you can make another one. </p><p><img src='run_exp/static/images/miscellaneous/hurry_up.png' height='500'></p><p><b>[Press the space bar to continue]</b></p></div>","32","","","","","","","","","","","","","","","","","","","","","","",""
"","instruc10","38","230170","0.0-35.0-2.0","""event"",""trial"",""time""
""fullscreenenter"",""0"",""4672""
","
","
","""event"",""trial"",""time""
""fullscreenenter"",""0"",""4672""
","
","null","run_exp/static/audio/clip_12_probe.m4a","null","","","","","<div class='center'><p>Once you've chosen a pirate, you’ll be shown the ship they are robbing. You will never rob the same ship twice. Ships can be told apart from one another by the image on them. These are the goods that they sell. See, this ship has a travel mug on it. </p><p> You’ll have to remember which island you saw each ship on. You will win more gold coins and hence more bonus money if you remember correctly! To help you remember, you can imagine a story. For example, here, you could imagine a mug full of water in the desert. Or, as another example, if on the forest island, your pirate robbed a ship with an apple on it, you could imagine an apple falling from a tree in the forest. </p><p><img src='run_exp/static/images/tutorial/example_probe.png' height='500'></p></div>","","","","","","","","","","","","","","","","","",""
"","html-keyboard-response","39","232080","0.0-35.0-3.0","""event"",""trial"",""time""
""fullscreenenter"",""0"",""4672""
","
","
","""event"",""trial"",""time""
""fullscreenenter"",""0"",""4672""
","
","1909","<div class='center'><p>Once you've chosen a pirate, you’ll be shown the ship they are robbing. You will never rob the same ship twice. Ships can be told apart from one another by the image on them. These are the goods that they sell. See, this ship has a travel mug on it. </p><p> You’ll have to remember which island you saw each ship on. You will win more gold coins and hence more bonus money if you remember correctly! To help you remember, you can imagine a story. For example, here, you could imagine a mug full of water in the desert. Or, as another example, if on the forest island, your pirate robbed a ship with an apple on it, you could imagine an apple falling from a tree in the forest. </p><p><img src='run_exp/static/images/tutorial/example_probe.png' height='500'></p><p><b>[Press the space bar to continue]</b></p></div>","32","","","","","","","","","","","","","","","","","","","","","","",""
"","instruc11","40","248490","0.0-35.0-4.0","""event"",""trial"",""time""
""fullscreenenter"",""0"",""4672""
","
","
","""event"",""trial"",""time""
""fullscreenenter"",""0"",""4672""
","
","null","run_exp/static/audio/clip_13_changepoint.m4a","null","","","","","<div class='center'><p>How successful a pirate is at robbing ships will depend on the island you’re on.</p><p> A pirate may have visited this island many times before and gained a lot of practice robbing ships there.</p><p>So, they’re more likely to be successful than a pirate who has never visited the island before.</p></div>","","","","","","","","","","","","","","","","","",""
"","html-keyboard-response","41","250551","0.0-35.0-5.0","""event"",""trial"",""time""
""fullscreenenter"",""0"",""4672""
","
","
","""event"",""trial"",""time""
""fullscreenenter"",""0"",""4672""
","
","2060.699999809265","<div class='center'><p>How successful a pirate is at robbing ships will depend on the island you’re on.</p><p> A pirate may have visited this island many times before and gained a lot of practice robbing ships there.</p><p>So, they’re more likely to be successful than a pirate who has never visited the island before.</p><p><b>[Press the space bar to continue]</b></p></div>","32","","","","","","","","","","","","","","","","","","","","","","",""
"","instruc12","42","291630","0.0-35.0-6.0","""event"",""trial"",""time""
""fullscreenenter"",""0"",""4672""
","
","
","""event"",""trial"",""time""
""fullscreenenter"",""0"",""4672""
","
","null","run_exp/static/audio/clip_14_drift.m4a","null","","","","","<div class='center'><p>How successful a pirate is at robbing ships can also change over the time spent on the island. </p><p> Ships may hear from islanders about the pirates coming and will improve their protections against the attack. This may make it harder to rob them.</p><p> Ships may also become lazy and weaken the strength of their protections. This may make it easier to rob them.</p><br><p>Things are always changing on the high seas! So, try your best to pay attention!</p><p><img src='run_exp/static/images/tutorial/contingency.png' height='500'></p></div>","","","","","","","","","","","","","","","","","",""
"","html-keyboard-response","43","293169","0.0-35.0-7.0","""event"",""trial"",""time""
""fullscreenenter"",""0"",""4672""
","
","
","""event"",""trial"",""time""
""fullscreenenter"",""0"",""4672""
","
","1537.2999997138977","<div class='center'><p>How successful a pirate is at robbing ships can also change over the time spent on the island. </p><p> Ships may hear from islanders about the pirates coming and will improve their protections against the attack. This may make it harder to rob them.</p><p> Ships may also become lazy and weaken the strength of their protections. This may make it easier to rob them.</p><br><p>Things are always changing on the high seas! So, try your best to pay attention!</p><p><img src='run_exp/static/images/tutorial/contingency.png' height='500'></p><p><b>[Press the space bar to continue]</b></p></div>","32","","","","","","","","","","","","","","","","","","","","","","",""
"","instruc13","44","328351","0.0-35.0-8.0","""event"",""trial"",""time""
""fullscreenenter"",""0"",""4672""
","
","
","""event"",""trial"",""time""
""fullscreenenter"",""0"",""4672""
","
","null","run_exp/static/audio/clip_15_summary.m4a","null","","","","","<div class='center'><p>Let's go over the instructions quickly again. You have two important things to do: </p><b><p> 1. Pick the pirate who is the best at robbing ships on the current island. </p></b><b><p> 2. Remember on which island a ship was robbed.</p> </b><p>The amount of bonus money you can win depends on both.</p><p><br><p>Let’s try a practice game. The game will start by showing you the pirates. First, pick a pirate using the <b> 1, 2, 3 </b> keys on your keyboard. When you are shown a ship, try to remember which island you’re on by making up a story.</p><p>This is just a practice game, so you’re not playing for money. </p><p> Good luck! This game will be very difficult but try your best!</p></div>","","","","","","","","","","","","","","","","","",""
"","html-keyboard-response","45","329721","0.0-35.0-9.0","""event"",""trial"",""time""
""fullscreenenter"",""0"",""4672""
","
","
","""event"",""trial"",""time""
""fullscreenenter"",""0"",""4672""
","
","1369","<div class='center'><p>Let's go over the instructions quickly again. You have two important things to do: </p><b><p> 1. Pick the pirate who is the best at robbing ships on the current island. </p></b><b><p> 2. Remember on which island a ship was robbed.</p> </b><p>The amount of bonus money you can win depends on both.</p><p><br><p>Let’s try a practice game. The game will start by showing you the pirates. First, pick a pirate using the <b> 1, 2, 3 </b> keys on your keyboard. When you are shown a ship, try to remember which island you’re on by making up a story.</p><p>This is just a practice game, so you’re not playing for money. </p><p> Good luck! This game will be very difficult but try your best!</p><p><b>[Press the space bar to continue]</b></p></div>","32","","","","","","","","","","","","","","","","","","","","","","",""
"","do_welcome","46","333728","0.0-35.0-10.0","""event"",""trial"",""time""
""fullscreenenter"",""0"",""4672""
","
","
","""event"",""trial"",""time""
""fullscreenenter"",""0"",""4672""
","
","null","","","","","","","","null","","","","","","","","","","","","","","","","",""
"","do_trial","47","340300","0.0-35.0-11.0","""event"",""trial"",""time""
""fullscreenenter"",""0"",""4672""
","
","
","""event"",""trial"",""time""
""fullscreenenter"",""0"",""4672""
","
","2047.2000002861023","","","","","","","","50","1,0,0","","","","","","","","","","","","","","","",""
"","html-keyboard-response","48","341318","0.0-36.0-0.0","""event"",""trial"",""time""
""fullscreenenter"",""0"",""4672""
","
","
","""event"",""trial"",""time""
""fullscreenenter"",""0"",""4672""
","
","null","<p></p>","null","","","","","","","","","","","","","","","","","","","","","","",""
"","do_trial","49","347345","0.0-36.0-1.0","""event"",""trial"",""time""
""fullscreenenter"",""0"",""4672""
","
","
","""event"",""trial"",""time""
""fullscreenenter"",""0"",""4672""
","
","null","","","","","","","","null","1,1,0","","","","","","","","","","","","","","","",""
"","html-keyboard-response","50","348349","0.0-37.0-0.0","""event"",""trial"",""time""
""fullscreenenter"",""0"",""4672""
","
","
","""event"",""trial"",""time""
""fullscreenenter"",""0"",""4672""
","
","null","<p></p>","null","","","","","","","","","","","","","","","","","","","","","","",""
"","do_trial","51","353924","0.0-37.0-1.0","""event"",""trial"",""time""
""fullscreenenter"",""0"",""4672""
","
","
","""event"",""trial"",""time""
""fullscreenenter"",""0"",""4672""
","
","1061.4000000953674","","","","","","","","51","1,1,0","","","","","","","","","","","","","","","",""
"","html-keyboard-response","52","354932","0.0-38.0-0.0","""event"",""trial"",""time""
""fullscreenenter"",""0"",""4672""
","
","
","""event"",""trial"",""time""
""fullscreenenter"",""0"",""4672""
","
","null","<p></p>","null","","","","","","","","","","","","","","","","","","","","","","",""
"","do_trial","53","360535","0.0-38.0-1.0","""event"",""trial"",""time""
""fullscreenenter"",""0"",""4672""
","
","
","""event"",""trial"",""time""
""fullscreenenter"",""0"",""4672""
","
","1084.2000002861023","","","","","","","","49","1,0,1","","","","","","","","","","","","","","","",""
"","html-keyboard-response","54","361538","0.0-39.0-0.0","""event"",""trial"",""time""
""fullscreenenter"",""0"",""4672""
","
","
","""event"",""trial"",""time""
""fullscreenenter"",""0"",""4672""
","
","null","<p></p>","null","","","","","","","","","","","","","","","","","","","","","","",""
"","do_trial","55","367814","0.0-39.0-1.0","""event"",""trial"",""time""
""fullscreenenter"",""0"",""4672""
","
","
","""event"",""trial"",""time""
""fullscreenenter"",""0"",""4672""
","
","1753.9000000953674","","","","","","","","49","0,1,0","","","","","","","","","","","","","","","",""
"","html-keyboard-response","56","368825","0.0-40.0-0.0","""event"",""trial"",""time""
""fullscreenenter"",""0"",""4672""
","
","
","""event"",""trial"",""time""
""fullscreenenter"",""0"",""4672""
","
","null","<p></p>","null","","","","","","","","","","","","","","","","","","","","","","",""
"","do_trial","57","374573","0.0-40.0-1.0","""event"",""trial"",""time""
""fullscreenenter"",""0"",""4672""
","
","
","""event"",""trial"",""time""
""fullscreenenter"",""0"",""4672""
","
","1230.3000001907349","","","","","","","","49","1,0,0","","","","","","","","","","","","","","","",""
"","do_bye","58","376082","0.0-41.0-0.0","""event"",""trial"",""time""
""fullscreenenter"",""0"",""4672""
","
","
","""event"",""trial"",""time""
""fullscreenenter"",""0"",""4672""
","
","null","","","","","","","","null","","","","","","","","","","","","","","","","",""
"","do_travel","59","385099","0.0-41.0-1.0","""event"",""trial"",""time""
""fullscreenenter"",""0"",""4672""
","
","
","""event"",""trial"",""time""
""fullscreenenter"",""0"",""4672""
","
","null","","","","","","","","null","","","","","","","","","","","","","","","","",""
"","do_welcome","60","389107","0.0-41.0-2.0","""event"",""trial"",""time""
""fullscreenenter"",""0"",""4672""
","
","
","""event"",""trial"",""time""
""fullscreenenter"",""0"",""4672""
","
","null","","","","","","","","null","","","","","","","","","","","","","","","","",""
"","do_trial","61","394874","0.0-41.0-3.0","""event"",""trial"",""time""
""fullscreenenter"",""0"",""4672""
","
","
","""event"",""trial"",""time""
""fullscreenenter"",""0"",""4672""
","
","1255.8000001907349","","","","","","","","51","1,0,0","","","","","","","","","","","","","","","",""
"","html-keyboard-response","62","395884","0.0-42.0-0.0","""event"",""trial"",""time""
""fullscreenenter"",""0"",""4672""
","
","
","""event"",""trial"",""time""
""fullscreenenter"",""0"",""4672""
","
","null","<p></p>","null","","","","","","","","","","","","","","","","","","","","","","",""
"","do_trial","63","401839","0.0-42.0-1.0","""event"",""trial"",""time""
""fullscreenenter"",""0"",""4672""
","
","
","""event"",""trial"",""time""
""fullscreenenter"",""0"",""4672""
","
","1438.5","","","","","","","","49","1,0,1","","","","","","","","","","","","","","","",""
"","html-keyboard-response","64","402852","0.0-43.0-0.0","""event"",""trial"",""time""
""fullscreenenter"",""0"",""4672""
","
","
","""event"",""trial"",""time""
""fullscreenenter"",""0"",""4672""
","
","null","<p></p>","null","","","","","","","","","","","","","","","","","","","","","","",""
"","do_trial","65","408076","0.0-43.0-1.0","""event"",""trial"",""time""
""fullscreenenter"",""0"",""4672""
","
","
","""event"",""trial"",""time""
""fullscreenenter"",""0"",""4672""
","
","712.5","","","","","","","","50","1,1,0","","","","","","","","","","","","","","","",""
"","html-keyboard-response","66","409093","0.0-44.0-0.0","""event"",""trial"",""time""
""fullscreenenter"",""0"",""4672""
","
","
","""event"",""trial"",""time""
""fullscreenenter"",""0"",""4672""
","
","null","<p></p>","null","","","","","","","","","","","","","","","","","","","","","","",""
"","do_trial","67","414904","0.0-44.0-1.0","""event"",""trial"",""time""
""fullscreenenter"",""0"",""4672""
","
","
","""event"",""trial"",""time""
""fullscreenenter"",""0"",""4672""
","
","1299.1999998092651","","","","","","","","51","0,0,1","","","","","","","","","","","","","","","",""
"","html-keyboard-response","68","415917","0.0-45.0-0.0","""event"",""trial"",""time""
""fullscreenenter"",""0"",""4672""
","
","
","""event"",""trial"",""time""
""fullscreenenter"",""0"",""4672""
","
","null","<p></p>","null","","","","","","","","","","","","","","","","","","","","","","",""
"","do_trial","69","421353","0.0-45.0-1.0","""event"",""trial"",""time""
""fullscreenenter"",""0"",""4672""
","
","
","""event"",""trial"",""time""
""fullscreenenter"",""0"",""4672""
","
","916.3999996185303","","","","","","","","49","1,0,1","","","","","","","","","","","","","","","",""
"","html-keyboard-response","70","424285","0.0-46.0-0.0","""event"",""trial"",""time""
""fullscreenenter"",""0"",""4672""
","
","
","""event"",""trial"",""time""
""fullscreenenter"",""0"",""4672""
","
","2929.9000000953674","<div class='center'><p><img src='run_exp/static/images/tutorial/prac_best_pirate.png'  height='500'></p></div>","49","","","","","","","","","","","","","","","","","","","","","","",""
"","html-keyboard-response","71","426415","0.0-47.0-0.0","""event"",""trial"",""time""
""fullscreenenter"",""0"",""4672""
","
","
","""event"",""trial"",""time""
""fullscreenenter"",""0"",""4672""
","
","2129.199999809265","<div class='center'><p>That's correct! Red beard was the best.</p><p><b>[Press the space bar to continue]</b></p></div>","32","","","","","","","","","","","","","","","","","","","","","","",""
"","html-keyboard-response","72","429521","0.0-47.0-1.0","""event"",""trial"",""time""
""fullscreenenter"",""0"",""4672""
","
","
","""event"",""trial"",""time""
""fullscreenenter"",""0"",""4672""
","
","3105.300000190735","<div class='center'><p><img src='run_exp/static/images/tutorial/prac_source.png'  height='500'></p></div>","50","","","","","","","","","","","","","","","","","","","","","","",""
"","html-keyboard-response","73","431209","0.0-48.0-0.0","""event"",""trial"",""time""
""fullscreenenter"",""0"",""4672""
","
","
","""event"",""trial"",""time""
""fullscreenenter"",""0"",""4672""
","
","1687.1999998092651","<div class='center'><p>That's correct! You saw this ship on the cavern island.</p><p><b>[Press the space bar to continue]</b></p></div>","32","","","","","","","","","","","","","","","","","","","","","","",""
"","quiz_beginning","74","442741","0.0-48.0-1.0","""event"",""trial"",""time""
""fullscreenenter"",""0"",""4672""
","
","
","""event"",""trial"",""time""
""fullscreenenter"",""0"",""4672""
","
","null","run_exp/static/audio/clip_16_quiz_intro.m4a","null","","","","","<div class='center'><p>Good job on the practice game! Now, you will be asked some true or false questions to make sure you really understand the rules of the game.</p><p> Press <b>'1'</b> on the keyboard for true and press <b>'2'</b> for false.</p></div>","","","","","","","","","","","","","","","","","",""
"","audio-keyboard-response","75","446910","0.0-48.0-2.0","""event"",""trial"",""time""
""fullscreenenter"",""0"",""4672""
","
","
","""event"",""trial"",""time""
""fullscreenenter"",""0"",""4672""
","
","4168.200000286102","run_exp/static/audio/clip_17_q1.m4a","49","","","","","","","","","","","","","","","","","","","","","","",""
"","correct","76","449320","0.0-49.0-0.0","""event"",""trial"",""time""
""fullscreenenter"",""0"",""4672""
","
","
","""event"",""trial"",""time""
""fullscreenenter"",""0"",""4672""
","
","null","run_exp/static/audio/clip_18_correct.m4a","null","","","","","<div class='center'><p>That's correct!</p></div>","","","","","","","","","","","","","","","","","",""
"","html-keyboard-response","77","450594","0.0-49.0-1.0","""event"",""trial"",""time""
""fullscreenenter"",""0"",""4672""
","
","
","""event"",""trial"",""time""
""fullscreenenter"",""0"",""4672""
","
","1273.5999999046326","<div class='center'><p>That's correct!</p><p><b>[Press the space bar to continue]</b></p></div>","32","","","","","","","","","","","","","","","","","","","","","","",""
"","audio-keyboard-response","78","458396","0.0-49.0-2.0","""event"",""trial"",""time""
""fullscreenenter"",""0"",""4672""
","
","
","""event"",""trial"",""time""
""fullscreenenter"",""0"",""4672""
","
","7801.200000286102","run_exp/static/audio/clip_20_q2.m4a","50","","","","","","","","","","","","","","","","","","","","","","",""
"","correct","79","460780","0.0-50.0-0.0","""event"",""trial"",""time""
""fullscreenenter"",""0"",""4672""
","
","
","""event"",""trial"",""time""
""fullscreenenter"",""0"",""4672""
","
","null","run_exp/static/audio/clip_18_correct.m4a","null","","","","","<div class='center'><p>That's correct!</p></div>","","","","","","","","","","","","","","","","","",""
"","html-keyboard-response","80","462079","0.0-50.0-1.0","""event"",""trial"",""time""
""fullscreenenter"",""0"",""4672""
","
","
","""event"",""trial"",""time""
""fullscreenenter"",""0"",""4672""
","
","1299.4000000953674","<div class='center'><p>That's correct!</p><p><b>[Press the space bar to continue]</b></p></div>","32","","","","","","","","","","","","","","","","","","","","","","",""
"","audio-keyboard-response","81","468523","0.0-50.0-2.0","""event"",""trial"",""time""
""fullscreenenter"",""0"",""4672""
","
","
","""event"",""trial"",""time""
""fullscreenenter"",""0"",""4672""
","
","6443.300000190735","run_exp/static/audio/clip_22_q3.m4a","50","","","","","","","","","","","","","","","","","","","","","","",""
"","correct","82","470919","0.0-51.0-0.0","""event"",""trial"",""time""
""fullscreenenter"",""0"",""4672""
","
","
","""event"",""trial"",""time""
""fullscreenenter"",""0"",""4672""
","
","null","run_exp/static/audio/clip_18_correct.m4a","null","","","","","<div class='center'><p>That's correct!</p></div>","","","","","","","","","","","","","","","","","",""
"","html-keyboard-response","83","472173","0.0-51.0-1.0","""event"",""trial"",""time""
""fullscreenenter"",""0"",""4672""
","
","
","""event"",""trial"",""time""
""fullscreenenter"",""0"",""4672""
","
","1253.5","<div class='center'><p>That's correct!</p><p><b>[Press the space bar to continue]</b></p></div>","32","","","","","","","","","","","","","","","","","","","","","","",""
"","audio-keyboard-response","84","476322","0.0-51.0-2.0","""event"",""trial"",""time""
""fullscreenenter"",""0"",""4672""
","
","
","""event"",""trial"",""time""
""fullscreenenter"",""0"",""4672""
","
","4147.400000095367","run_exp/static/audio/clip_24_q4.m4a","49","","","","","","","","","","","","","","","","","","","","","","",""
"","correct","85","478761","0.0-52.0-0.0","""event"",""trial"",""time""
""fullscreenenter"",""0"",""4672""
","
","
","""event"",""trial"",""time""
""fullscreenenter"",""0"",""4672""
","
","null","run_exp/static/audio/clip_18_correct.m4a","null","","","","","<div class='center'><p>That's correct!</p></div>","","","","","","","","","","","","","","","","","",""
"","html-keyboard-response","86","479643","0.0-52.0-1.0","""event"",""trial"",""time""
""fullscreenenter"",""0"",""4672""
","
","
","""event"",""trial"",""time""
""fullscreenenter"",""0"",""4672""
","
","880.6999998092651","<div class='center'><p>That's correct!</p><p><b>[Press the space bar to continue]</b></p></div>","32","","","","","","","","","","","","","","","","","","","","","","",""
"","q_all_corr","87","488120","0.0-53.0-0.0","""event"",""trial"",""time""
""fullscreenenter"",""0"",""4672""
","
","
","""event"",""trial"",""time""
""fullscreenenter"",""0"",""4672""
","
","null","run_exp/static/audio/clip_27_quiz_all_correct.m4a","null","","","","","<div class='center'><p>Good job! You’re now ready to move on to the real game! Remember this game will be difficult but don't get discouraged and try your best!</p></div>","","","","","","","","","","","","","","","","","",""
"","html-keyboard-response","88","489184","0.0-53.0-1.0","""event"",""trial"",""time""
""fullscreenenter"",""0"",""4672""
","
","
","""event"",""trial"",""time""
""fullscreenenter"",""0"",""4672""
","
","1062.5","<div class='center'><p>Good job! You’re now ready to move on to the real game! Remember this game will be difficult but don't get discouraged and try your best!</p><p><b>[Press the space bar to continue]</b></p></div>","32","","","","","","","","","","","","","","","","","","","","","","",""
"","do_welcome","89","493200","0.0-54.0-0.0","""event"",""trial"",""time""
""fullscreenenter"",""0"",""4672""
","
","
","""event"",""trial"",""time""
""fullscreenenter"",""0"",""4672""
","
","null","","","","","","","","null","","","","","","","","","","","","","","","","",""
"","do_trial","90","498931","0.0-55.0-0.0","""event"",""trial"",""time""
""fullscreenenter"",""0"",""4672""
","
","
","""event"",""trial"",""time""
""fullscreenenter"",""0"",""4672""
","
","1182.4000000953674","","","","","","","","49","0,0,0","0","coast","0","probe-121","0.6","0.3","0.1","0","","","","","","","",""
"","html-keyboard-response","91","499939","0.0-55.0-1.0","""event"",""trial"",""time""
""fullscreenenter"",""0"",""4672""
","
","
","""event"",""trial"",""time""
""fullscreenenter"",""0"",""4672""
","
","null","<p></p>","null","","","","","","","","","","","","","","","","","","","","","","",""
"","do_trial","92","504849","0.0-56.0-0.0","""event"",""trial"",""time""
""fullscreenenter"",""0"",""4672""
","
","
","""event"",""trial"",""time""
""fullscreenenter"",""0"",""4672""
","
","362.6000003814697","","","","","","","","51","1,1,0","0","coast","1","probe-196","0.6174015362641755","0.4750219426704387","0.0777037123097277","0","","","","","","","",""
"","html-keyboard-response","93","505856","0.0-56.0-1.0","""event"",""trial"",""time""
""fullscreenenter"",""0"",""4672""
","
","
","""event"",""trial"",""time""
""fullscreenenter"",""0"",""4672""
","
","null","<p></p>","null","","","","","","","","","","","","","","","","","","","","","","",""
"","do_trial","94","511032","0.0-57.0-0.0","""event"",""trial"",""time""
""fullscreenenter"",""0"",""4672""
","
","
","""event"",""trial"",""time""
""fullscreenenter"",""0"",""4672""
","
","606","","","","","","","","50","0,1,0","0","coast","2","probe-112","0.8211609254234817","0.4463499360767898","0.10594681106069447","1","","","","","","","",""
"","html-keyboard-response","95","512040","0.0-57.0-1.0","""event"",""trial"",""time""
""fullscreenenter"",""0"",""4672""
","
","
","""event"",""trial"",""time""
""fullscreenenter"",""0"",""4672""
","
","null","<p></p>","null","","","","","","","","","","","","","","","","","","","","","","",""
"","do_trial","96","517014","0.0-58.0-0.0","""event"",""trial"",""time""
""fullscreenenter"",""0"",""4672""
","
","
","""event"",""trial"",""time""
""fullscreenenter"",""0"",""4672""
","
","418.6000003814697","","","","","","","","49","1,1,0","0","coast","3","probe-140","0.6136636248677764","0.34251178521965364","0.16125836965584336","1","","","","","","","",""
"","html-keyboard-response","97","518021","0.0-58.0-1.0","""event"",""trial"",""time""
""fullscreenenter"",""0"",""4672""
","
","
","""event"",""trial"",""time""
""fullscreenenter"",""0"",""4672""
","
","null","<p></p>","null","","","","","","","","","","","","","","","","","","","","","","",""
"","do_trial","98","523026","0.0-59.0-0.0","""event"",""trial"",""time""
""fullscreenenter"",""0"",""4672""
","
","
","""event"",""trial"",""time""
""fullscreenenter"",""0"",""4672""
","
","440.80000019073486","","","","","","","","51","0,0,0","0","coast","4","probe-223","0.5687475073689826","0.41258712639475265","0.23960841613230763","0","","","","","","","",""
"","html-keyboard-response","99","524033","0.0-59.0-1.0","""event"",""trial"",""time""
""fullscreenenter"",""0"",""4672""
","
","
","""event"",""trial"",""time""
""fullscreenenter"",""0"",""4672""
","
","null","<p></p>","null","","","","","","","","","","","","","","","","","","","","","","",""
"","do_trial","100","529156","0.0-60.0-0.0","""event"",""trial"",""time""
""fullscreenenter"",""0"",""4672""
","
","
","""event"",""trial"",""time""
""fullscreenenter"",""0"",""4672""
","
","563.1999998092651","","","","","","","","50","1,1,0","0","coast","5","probe-173","0.7718278845872061","0.32059113333522243","0.19749019969262338","1","","","","","","","",""
"","html-keyboard-response","101","530165","0.0-60.0-1.0","""event"",""trial"",""time""
""fullscreenenter"",""0"",""4672""
","
","
","""event"",""trial"",""time""
""fullscreenenter"",""0"",""4672""
","
","null","<p></p>","null","","","","","","","","","","","","","","","","","","","","","","",""
"","do_trial","102","535767","0.0-61.0-0.0","""event"",""trial"",""time""
""fullscreenenter"",""0"",""4672""
","
","
","""event"",""trial"",""time""
""fullscreenenter"",""0"",""4672""
","
","1032.6000003814697","","","","","","","","50","1,1,1","0","coast","6","probe-08","0.6404085048182218","0.32232207466188667","0.14850869438494196","1","","","","","","","",""
"","html-keyboard-response","103","536770","0.0-61.0-1.0","""event"",""trial"",""time""
""fullscreenenter"",""0"",""4672""
","
","
","""event"",""trial"",""time""
""fullscreenenter"",""0"",""4672""
","
","null","<p></p>","null","","","","","","","","","","","","","","","","","","","","","","",""
"","do_trial","104","542117","0.0-62.0-0.0","""event"",""trial"",""time""
""fullscreenenter"",""0"",""4672""
","
","
","""event"",""trial"",""time""
""fullscreenenter"",""0"",""4672""
","
","799","","","","","","","","50","1,0,0","0","coast","7","probe-126","0.6002632593231536","0.30789056491786115","0.15456004078188984","0","","","","","","","",""
"","html-keyboard-response","105","543123","0.0-62.0-1.0","""event"",""trial"",""time""
""fullscreenenter"",""0"",""4672""
","
","
","""event"",""trial"",""time""
""fullscreenenter"",""0"",""4672""
","
","null","<p></p>","null","","","","","","","","","","","","","","","","","","","","","","",""
"","do_trial","106","548484","0.0-63.0-0.0","""event"",""trial"",""time""
""fullscreenenter"",""0"",""4672""
","
","
","""event"",""trial"",""time""
""fullscreenenter"",""0"",""4672""
","
","815.2999997138977","","","","","","","","50","1,0,1","0","coast","8","probe-218","0.6478660832489813","0.2079507969094427","0.13081865797057554","0","","","","","","","",""
"","html-keyboard-response","107","549498","0.0-63.0-1.0","""event"",""trial"",""time""
""fullscreenenter"",""0"",""4672""
","
","
","""event"",""trial"",""time""
""fullscreenenter"",""0"",""4672""
","
","null","<p></p>","null","","","","","","","","","","","","","","","","","","","","","","",""
"","do_trial","108","554616","0.0-64.0-0.0","""event"",""trial"",""time""
""fullscreenenter"",""0"",""4672""
","
","
","""event"",""trial"",""time""
""fullscreenenter"",""0"",""4672""
","
","571.2000002861023","","","","","","","","49","0,0,0","0","coast","9","probe-36","0.6016622194134447","0.17735429688014465","0.10651017038305145","0","","","","","","","",""
"","html-keyboard-response","109","555622","0.0-64.0-1.0","""event"",""trial"",""time""
""fullscreenenter"",""0"",""4672""
","
","
","""event"",""trial"",""time""
""fullscreenenter"",""0"",""4672""
","
","null","<p></p>","null","","","","","","","","","","","","","","","","","","","","","","",""
"","do_trial","110","560701","0.0-65.0-0.0","""event"",""trial"",""time""
""fullscreenenter"",""0"",""4672""
","
","
","""event"",""trial"",""time""
""fullscreenenter"",""0"",""4672""
","
","512.5999999046326","","","","","","","","50","1,1,0","0","coast","10","probe-42","0.5474397949431556","0.15017052728443198","0.1300191119610443","1","","","","","","","",""
"","html-keyboard-response","111","561709","0.0-65.0-1.0","""event"",""trial"",""time""
""fullscreenenter"",""0"",""4672""
","
","
","""event"",""trial"",""time""
""fullscreenenter"",""0"",""4672""
","
","null","<p></p>","null","","","","","","","","","","","","","","","","","","","","","","",""
"","do_trial","112","566875","0.0-66.0-0.0","""event"",""trial"",""time""
""fullscreenenter"",""0"",""4672""
","
","
","""event"",""trial"",""time""
""fullscreenenter"",""0"",""4672""
","
","618.6999998092651","","","","","","","","50","0,0,0","0","coast","11","probe-91","0.6005030817557476","0.1985507986135992","0.2239613787082932","0","","","","","","","",""
"","html-keyboard-response","113","567889","0.0-66.0-1.0","""event"",""trial"",""time""
""fullscreenenter"",""0"",""4672""
","
","
","""event"",""trial"",""time""
""fullscreenenter"",""0"",""4672""
","
","null","<p></p>","null","","","","","","","","","","","","","","","","","","","","","","",""
"","do_trial","114","572955","0.0-67.0-0.0","""event"",""trial"",""time""
""fullscreenenter"",""0"",""4672""
","
","
","""event"",""trial"",""time""
""fullscreenenter"",""0"",""4672""
","
","498.40000009536743","","","","","","","","50","0,0,1","0","coast","12","probe-134","0.46903430115609723","0.44454952100798945","0.2689162902823921","0","","","","","","","",""
"","html-keyboard-response","115","573968","0.0-67.0-1.0","""event"",""trial"",""time""
""fullscreenenter"",""0"",""4672""
","
","
","""event"",""trial"",""time""
""fullscreenenter"",""0"",""4672""
","
","null","<p></p>","null","","","","","","","","","","","","","","","","","","","","","","",""
"","do_trial","116","580376","0.0-68.0-0.0","""event"",""trial"",""time""
""fullscreenenter"",""0"",""4672""
","
","
","""event"",""trial"",""time""
""fullscreenenter"",""0"",""4672""
","
","1870.3999996185303","","","","","","","","51","0,0,0","0","coast","13","probe-147","0.5917025225871808","0.43235291333499476","0.2084097807085821","0","","","","","","","",""
"","html-keyboard-response","117","581389","0.0-68.0-1.0","""event"",""trial"",""time""
""fullscreenenter"",""0"",""4672""
","
","
","""event"",""trial"",""time""
""fullscreenenter"",""0"",""4672""
","
","null","<p></p>","null","","","","","","","","","","","","","","","","","","","","","","",""
"","do_trial","118","586388","0.0-69.0-0.0","""event"",""trial"",""time""
""fullscreenenter"",""0"",""4672""
","
","
","""event"",""trial"",""time""
""fullscreenenter"",""0"",""4672""
","
","446.1000003814697","","","","","","","","50","0,0,0","0","coast","14","probe-172","0.5766085076596599","0.4470851250606046","0.2359179852954042","0","","","","","","","",""
"","html-keyboard-response","119","587392","0.0-69.0-1.0","""event"",""trial"",""time""
""fullscreenenter"",""0"",""4672""
","
","
","""event"",""trial"",""time""
""fullscreenenter"",""0"",""4672""
","
","null","<p></p>","null","","","","","","","","","","","","","","","","","","","","","","",""
"","do_trial","120","592971","0.0-70.0-0.0","""event"",""trial"",""time""
""fullscreenenter"",""0"",""4672""
","
","
","""event"",""trial"",""time""
""fullscreenenter"",""0"",""4672""
","
","1021.7000002861023","","","","","","","","49","0,1,0","0","coast","15","probe-145","0.6771274252045155","0.4045639947317876","0.17844363784636688","0","","","","","","","",""
"","html-keyboard-response","121","593976","0.0-70.0-1.0","""event"",""trial"",""time""
""fullscreenenter"",""0"",""4672""
","
","
","""event"",""trial"",""time""
""fullscreenenter"",""0"",""4672""
","
","null","<p></p>","null","","","","","","","","","","","","","","","","","","","","","","",""
"","do_trial","122","600650","0.0-71.0-0.0","""event"",""trial"",""time""
""fullscreenenter"",""0"",""4672""
","
","
","""event"",""trial"",""time""
""fullscreenenter"",""0"",""4672""
","
","2113.9000000953674","","","","","","","","50","0,0,0","0","coast","16","probe-199","0.5913052132454889","0.3153745245148659","0.19434905116506174","0","","","","","","","",""
"","html-keyboard-response","123","601664","0.0-71.0-1.0","""event"",""trial"",""time""
""fullscreenenter"",""0"",""4672""
","
","
","""event"",""trial"",""time""
""fullscreenenter"",""0"",""4672""
","
","null","<p></p>","null","","","","","","","","","","","","","","","","","","","","","","",""
"","do_trial","124","606819","0.0-72.0-0.0","""event"",""trial"",""time""
""fullscreenenter"",""0"",""4672""
","
","
","""event"",""trial"",""time""
""fullscreenenter"",""0"",""4672""
","
","593.5","","","","","","","","50","0,1,0","0","coast","17","probe-180","0.4963221255005808","0.38858338066934844","0.1315339851746907","1","","","","","","","",""
"","html-keyboard-response","125","607827","0.0-72.0-1.0","""event"",""trial"",""time""
""fullscreenenter"",""0"",""4672""
","
","
","""event"",""trial"",""time""
""fullscreenenter"",""0"",""4672""
","
","null","<p></p>","null","","","","","","","","","","","","","","","","","","","","","","",""
"","do_trial","126","613051","0.0-73.0-0.0","""event"",""trial"",""time""
""fullscreenenter"",""0"",""4672""
","
","
","""event"",""trial"",""time""
""fullscreenenter"",""0"",""4672""
","
","664","","","","","","","","50","1,0,1","0","coast","18","probe-214","0.5018362448250467","0.28264368093018205","0.16558686101249445","0","","","","","","","",""
"","html-keyboard-response","127","614063","0.0-73.0-1.0","""event"",""trial"",""time""
""fullscreenenter"",""0"",""4672""
","
","
","""event"",""trial"",""time""
""fullscreenenter"",""0"",""4672""
","
","null","<p></p>","null","","","","","","","","","","","","","","","","","","","","","","",""
"","do_trial","128","618982","0.0-74.0-0.0","""event"",""trial"",""time""
""fullscreenenter"",""0"",""4672""
","
","
","""event"",""trial"",""time""
""fullscreenenter"",""0"",""4672""
","
","358.19999980926514","","","","","","","","50","1,0,0","0","coast","19","probe-69","0.5936273383721633","0.34655440486128747","0.24628135277935098","0","","","","","","","",""
"","html-keyboard-response","129","619998","0.0-74.0-1.0","""event"",""trial"",""time""
""fullscreenenter"",""0"",""4672""
","
","
","""event"",""trial"",""time""
""fullscreenenter"",""0"",""4672""
","
","null","<p></p>","null","","","","","","","","","","","","","","","","","","","","","","",""
"","do_trial","130","625258","0.0-75.0-0.0","""event"",""trial"",""time""
""fullscreenenter"",""0"",""4672""
","
","
","""event"",""trial"",""time""
""fullscreenenter"",""0"",""4672""
","
","700.8000001907349","","","","","","","","50","1,1,0","0","coast","20","probe-113","0.5925317289343829","0.15435921191150054","0.22779127097203072","1","","","","","","","",""
"","html-keyboard-response","131","626260","0.0-75.0-1.0","""event"",""trial"",""time""
""fullscreenenter"",""0"",""4672""
","
","
","""event"",""trial"",""time""
""fullscreenenter"",""0"",""4672""
","
","null","<p></p>","null","","","","","","","","","","","","","","","","","","","","","","",""
"","do_trial","132","631647","0.0-76.0-0.0","""event"",""trial"",""time""
""fullscreenenter"",""0"",""4672""
","
","
","""event"",""trial"",""time""
""fullscreenenter"",""0"",""4672""
","
","844","","","","","","","","50","1,0,0","0","coast","21","probe-54","0.8100964468693655","0.31194788404771284","0.21369458804183702","0","","","","","","","",""
"","html-keyboard-response","133","632657","0.0-76.0-1.0","""event"",""trial"",""time""
""fullscreenenter"",""0"",""4672""
","
","
","""event"",""trial"",""time""
""fullscreenenter"",""0"",""4672""
","
","null","<p></p>","null","","","","","","","","","","","","","","","","","","","","","","",""
"","do_trial","134","638115","0.0-77.0-0.0","""event"",""trial"",""time""
""fullscreenenter"",""0"",""4672""
","
","
","""event"",""trial"",""time""
""fullscreenenter"",""0"",""4672""
","
","923.5","","","","","","","","50","1,0,1","0","coast","22","probe-92","0.6661470481863956","0.2738645800620726","0.12316198486867683","0","","","","","","","",""
"","html-keyboard-response","135","639124","0.0-77.0-1.0","""event"",""trial"",""time""
""fullscreenenter"",""0"",""4672""
","
","
","""event"",""trial"",""time""
""fullscreenenter"",""0"",""4672""
","
","null","<p></p>","null","","","","","","","","","","","","","","","","","","","","","","",""
"","do_trial","136","644206","0.0-78.0-0.0","""event"",""trial"",""time""
""fullscreenenter"",""0"",""4672""
","
","
","""event"",""trial"",""time""
""fullscreenenter"",""0"",""4672""
","
","528.0999999046326","","","","","","","","50","0,0,0","0","coast","23","probe-120","0.7025013678882907","0.2669446386066968","0.09603603570950771","0","","","","","","","",""
"","html-keyboard-response","137","645215","0.0-78.0-1.0","""event"",""trial"",""time""
""fullscreenenter"",""0"",""4672""
","
","
","""event"",""trial"",""time""
""fullscreenenter"",""0"",""4672""
","
","null","<p></p>","null","","","","","","","","","","","","","","","","","","","","","","",""
"","do_trial","138","650474","0.0-79.0-0.0","""event"",""trial"",""time""
""fullscreenenter"",""0"",""4672""
","
","
","""event"",""trial"",""time""
""fullscreenenter"",""0"",""4672""
","
","697.5999999046326","","","","","","","","49","1,0,0","0","coast","24","probe-212","0.7721823587287635","0.12155299116380568","0.08123857098345592","1","","","","","","","",""
"","html-keyboard-response","139","651479","0.0-79.0-1.0","""event"",""trial"",""time""
""fullscreenenter"",""0"",""4672""
","
","
","""event"",""trial"",""time""
""fullscreenenter"",""0"",""4672""
","
","null","<p></p>","null","","","","","","","","","","","","","","","","","","","","","","",""
"","do_trial","140","657061","0.0-80.0-0.0","""event"",""trial"",""time""
""fullscreenenter"",""0"",""4672""
","
","
","""event"",""trial"",""time""
""fullscreenenter"",""0"",""4672""
","
","1037.8999996185303","","","","","","","","49","0,0,0","0","coast","25","probe-19","0.6953428326442799","0.13303944338681084","0.05227381087863672","0","","","","","","","",""
"","html-keyboard-response","141","658070","0.0-80.0-1.0","""event"",""trial"",""time""
""fullscreenenter"",""0"",""4672""
","
","
","""event"",""trial"",""time""
""fullscreenenter"",""0"",""4672""
","
","null","<p></p>","null","","","","","","","","","","","","","","","","","","","","","","",""
"","do_trial","142","662918","0.0-81.0-0.0","""event"",""trial"",""time""
""fullscreenenter"",""0"",""4672""
","
","
","""event"",""trial"",""time""
""fullscreenenter"",""0"",""4672""
","
","262.8999996185303","","","","","","","","50","1,0,0","0","coast","26","probe-198","0.6889311999549099","0.26390523828837814","0.08139275376261239","0","","","","","","","",""
"","html-keyboard-response","143","663927","0.0-81.0-1.0","""event"",""trial"",""time""
""fullscreenenter"",""0"",""4672""
","
","
","""event"",""trial"",""time""
""fullscreenenter"",""0"",""4672""
","
","null","<p></p>","null","","","","","","","","","","","","","","","","","","","","","","",""
"","do_trial","144","668915","0.0-82.0-0.0","""event"",""trial"",""time""
""fullscreenenter"",""0"",""4672""
","
","
","""event"",""trial"",""time""
""fullscreenenter"",""0"",""4672""
","
","437.19999980926514","","","","","","","","51","1,0,0","0","coast","27","probe-28","0.6931061919783948","0.3902290519690121","0.21387892169967743","0","","","","","","","",""
"","html-keyboard-response","145","669923","0.0-82.0-1.0","""event"",""trial"",""time""
""fullscreenenter"",""0"",""4672""
","
","
","""event"",""trial"",""time""
""fullscreenenter"",""0"",""4672""
","
","null","<p></p>","null","","","","","","","","","","","","","","","","","","","","","","",""
"","do_trial","146","675002","0.0-83.0-0.0","""event"",""trial"",""time""
""fullscreenenter"",""0"",""4672""
","
","
","""event"",""trial"",""time""
""fullscreenenter"",""0"",""4672""
","
","532.6999998092651","","","","","","","","50","1,0,0","0","coast","28","probe-33","0.6184128970121381","0.2943532551311349","0.2373553286658295","0","","","","","","","",""
"","html-keyboard-response","147","676005","0.0-83.0-1.0","""event"",""trial"",""time""
""fullscreenenter"",""0"",""4672""
","
","
","""event"",""trial"",""time""
""fullscreenenter"",""0"",""4672""
","
","null","<p></p>","null","","","","","","","","","","","","","","","","","","","","","","",""
"","do_trial","148","680588","0.0-84.0-0.0","""event"",""trial"",""time""
""fullscreenenter"",""0"",""4672""
","
","
","""event"",""trial"",""time""
""fullscreenenter"",""0"",""4672""
","
","22.09999990463257","","","","","","","","50","0,1,0","0","coast","29","probe-83","0.725369922463367","0.1765249695401358","0.30631188041566615","1","","","","","","","",""
"","html-keyboard-response","149","681602","0.0-84.0-1.0","""event"",""trial"",""time""
""fullscreenenter"",""0"",""4672""
","
","
","""event"",""trial"",""time""
""fullscreenenter"",""0"",""4672""
","
","null","<p></p>","null","","","","","","","","","","","","","","","","","","","","","","",""
"","do_bye","150","683118","0.0-85.0-0.0","""event"",""trial"",""time""
""fullscreenenter"",""0"",""4672""
","
","
","""event"",""trial"",""time""
""fullscreenenter"",""0"",""4672""
","
","null","","","","","","","","null","","","","","","","","","","","","","","","","",""
"","break","151","733560","0.0-85.0-1.0","""event"",""trial"",""time""
""fullscreenenter"",""0"",""4672""
","
","
","""event"",""trial"",""time""
""fullscreenenter"",""0"",""4672""
","
","50445.90000009537","<div class='center'><p>Time to take a quick break! You have 2 minutes to rest, but you can move on sooner if you'd like.</p><p> Press the <b>space bar</b> to continue.</p></div>","32","","","","","","","","","","","","","","","","","","","","","","",""
"","do_travel","152","742567","0.0-86.0-0.0","""event"",""trial"",""time""
""fullscreenenter"",""0"",""4672""
","
","
","""event"",""trial"",""time""
""fullscreenenter"",""0"",""4672""
","
","null","","","","","","","","null","","","","","","","","","","","","","","","","",""
"","do_welcome","153","746588","0.0-86.0-1.0","""event"",""trial"",""time""
""fullscreenenter"",""0"",""4672""
","
","
","""event"",""trial"",""time""
""fullscreenenter"",""0"",""4672""
","
","null","","","","","","","","null","","","","","","","","","","","","","","","","",""
"","do_trial","154","752292","0.0-87.0-0.0","""event"",""trial"",""time""
""fullscreenenter"",""0"",""4672""
","
","
","""event"",""trial"",""time""
""fullscreenenter"",""0"",""4672""
","
","1144.9000000953674","","","","","","","","49","1,0,0","1","highway","30","probe-45","1","0.23456770151012116","0.3544531900790875","1","","","","","","","",""
"","html-keyboard-response","155","753302","0.0-87.0-1.0","""event"",""trial"",""time""
""fullscreenenter"",""0"",""4672""
","
","
","""event"",""trial"",""time""
""fullscreenenter"",""0"",""4672""
","
","null","<p></p>","null","","","","","","","","","","","","","","","","","","","","","","",""
"","do_trial","156","758402","0.0-88.0-0.0","""event"",""trial"",""time""
""fullscreenenter"",""0"",""4672""
","
","
","""event"",""trial"",""time""
""fullscreenenter"",""0"",""4672""
","
","554.8000001907349","","","","","","","","49","1,0,0","1","highway","31","probe-60","1","0.1949856342637414","0.258662278456495","1","","","","","","","",""
"","html-keyboard-response","157","759408","0.0-88.0-1.0","""event"",""trial"",""time""
""fullscreenenter"",""0"",""4672""
","
","
","""event"",""trial"",""time""
""fullscreenenter"",""0"",""4672""
","
","null","<p></p>","null","","","","","","","","","","","","","","","","","","","","","","",""
"","do_trial","158","764683","0.0-89.0-0.0","""event"",""trial"",""time""
""fullscreenenter"",""0"",""4672""
","
","
","""event"",""trial"",""time""
""fullscreenenter"",""0"",""4672""
","
","723","","","","","","","","49","1,0,1","1","highway","32","probe-87","1","0.3137717228015869","0.15453638071032205","1","","","","","","","",""
"","html-keyboard-response","159","765697","0.0-89.0-1.0","""event"",""trial"",""time""
""fullscreenenter"",""0"",""4672""
","
","
","""event"",""trial"",""time""
""fullscreenenter"",""0"",""4672""
","
","null","<p></p>","null","","","","","","","","","","","","","","","","","","","","","","",""
"","do_trial","160","770989","0.0-90.0-0.0","""event"",""trial"",""time""
""fullscreenenter"",""0"",""4672""
","
","
","""event"",""trial"",""time""
""fullscreenenter"",""0"",""4672""
","
","739.3000001907349","","","","","","","","49","1,1,1","1","highway","33","probe-220","0.8726402445145907","0.34305666073385366","0.11254026557768647","1","","","","","","","",""
"","html-keyboard-response","161","771992","0.0-90.0-1.0","""event"",""trial"",""time""
""fullscreenenter"",""0"",""4672""
","
","
","""event"",""trial"",""time""
""fullscreenenter"",""0"",""4672""
","
","null","<p></p>","null","","","","","","","","","","","","","","","","","","","","","","",""
"","do_trial","162","777115","0.0-91.0-0.0","""event"",""trial"",""time""
""fullscreenenter"",""0"",""4672""
","
","
","""event"",""trial"",""time""
""fullscreenenter"",""0"",""4672""
","
","580.3999996185303","","","","","","","","49","1,1,0","1","highway","34","probe-224","0.7337982157686734","0.3613544160290443","0.19221552810406473","1","","","","","","","",""
"","html-keyboard-response","163","778125","0.0-91.0-1.0","""event"",""trial"",""time""
""fullscreenenter"",""0"",""4672""
","
","
","""event"",""trial"",""time""
""fullscreenenter"",""0"",""4672""
","
","null","<p></p>","null","","","","","","","","","","","","","","","","","","","","","","",""
"","do_trial","164","783598","0.0-92.0-0.0","""event"",""trial"",""time""
""fullscreenenter"",""0"",""4672""
","
","
","""event"",""trial"",""time""
""fullscreenenter"",""0"",""4672""
","
","909.8000001907349","","","","","","","","49","1,0,0","1","highway","35","probe-207","0.5760631839456539","0.32590441770050804","0.14350830612002569","1","","","","","","","",""
"","html-keyboard-response","165","784606","0.0-92.0-1.0","""event"",""trial"",""time""
""fullscreenenter"",""0"",""4672""
","
","
","""event"",""trial"",""time""
""fullscreenenter"",""0"",""4672""
","
","null","<p></p>","null","","","","","","","","","","","","","","","","","","","","","","",""
"","do_trial","166","791094","0.0-93.0-0.0","""event"",""trial"",""time""
""fullscreenenter"",""0"",""4672""
","
","
","""event"",""trial"",""time""
""fullscreenenter"",""0"",""4672""
","
","1949.5999999046326","","","","","","","","49","1,0,1","1","highway","36","probe-118","0.7106120894179327","0.2438528658405459","0.10313410919735684","1","","","","","","","",""
"","html-keyboard-response","167","792106","0.0-93.0-1.0","""event"",""trial"",""time""
""fullscreenenter"",""0"",""4672""
","
","
","""event"",""trial"",""time""
""fullscreenenter"",""0"",""4672""
","
","null","<p></p>","null","","","","","","","","","","","","","","","","","","","","","","",""
"","do_trial","168","797042","0.0-94.0-0.0","""event"",""trial"",""time""
""fullscreenenter"",""0"",""4672""
","
","
","""event"",""trial"",""time""
""fullscreenenter"",""0"",""4672""
","
","361.5","","","","","","","","49","0,0,0","1","highway","37","probe-27","0.44792926197097915","0.27903349026735874","0.10714415570153854","0","","","","","","","",""
"","html-keyboard-response","169","798052","0.0-94.0-1.0","""event"",""trial"",""time""
""fullscreenenter"",""0"",""4672""
","
","
","""event"",""trial"",""time""
""fullscreenenter"",""0"",""4672""
","
","null","<p></p>","null","","","","","","","","","","","","","","","","","","","","","","",""
"","do_trial","170","803346","0.0-95.0-0.0","""event"",""trial"",""time""
""fullscreenenter"",""0"",""4672""
","
","
","""event"",""trial"",""time""
""fullscreenenter"",""0"",""4672""
","
","737.3000001907349","","","","","","","","49","1,1,0","1","highway","38","probe-100","0.5032344715137537","0.3169824484846351","0.18569547017374816","1","","","","","","","",""
"","html-keyboard-response","171","804354","0.0-95.0-1.0","""event"",""trial"",""time""
""fullscreenenter"",""0"",""4672""
","
","
","""event"",""trial"",""time""
""fullscreenenter"",""0"",""4672""
","
","null","<p></p>","null","","","","","","","","","","","","","","","","","","","","","","",""
"","do_trial","172","809284","0.0-96.0-0.0","""event"",""trial"",""time""
""fullscreenenter"",""0"",""4672""
","
","
","""event"",""trial"",""time""
""fullscreenenter"",""0"",""4672""
","
","374.30000019073486","","","","","","","","49","1,0,0","1","highway","39","probe-72","0.6929841708391621","0.19141234763879003","0.08498460295978422","1","","","","","","","",""
"","html-keyboard-response","173","810286","0.0-96.0-1.0","""event"",""trial"",""time""
""fullscreenenter"",""0"",""4672""
","
","
","""event"",""trial"",""time""
""fullscreenenter"",""0"",""4672""
","
","null","<p></p>","null","","","","","","","","","","","","","","","","","","","","","","",""
"","do_trial","174","815123","0.0-97.0-0.0","""event"",""trial"",""time""
""fullscreenenter"",""0"",""4672""
","
","
","""event"",""trial"",""time""
""fullscreenenter"",""0"",""4672""
","
","257.1000003814697","","","","","","","","49","0,1,0","1","highway","40","probe-208","0.8371888792848242","0.25281110803654394","0.10791054910022516","0","","","","","","","",""
"","html-keyboard-response","175","816140","0.0-97.0-1.0","""event"",""trial"",""time""
""fullscreenenter"",""0"",""4672""
","
","
","""event"",""trial"",""time""
""fullscreenenter"",""0"",""4672""
","
","null","<p></p>","null","","","","","","","","","","","","","","","","","","","","","","",""
"","do_trial","176","821547","0.0-98.0-0.0","""event"",""trial"",""time""
""fullscreenenter"",""0"",""4672""
","
","
","""event"",""trial"",""time""
""fullscreenenter"",""0"",""4672""
","
","864.8000001907349","","","","","","","","49","1,0,0","1","highway","41","probe-12","0.8927762908337071","0.24865432968262455","0.05470276063693934","1","","","","","","","",""
"","html-keyboard-response","177","822563","0.0-98.0-1.0","""event"",""trial"",""time""
""fullscreenenter"",""0"",""4672""
","
","
","""event"",""trial"",""time""
""fullscreenenter"",""0"",""4672""
","
","null","<p></p>","null","","","","","","","","","","","","","","","","","","","","","","",""
"","do_trial","178","827841","0.0-99.0-0.0","""event"",""trial"",""time""
""fullscreenenter"",""0"",""4672""
","
","
","""event"",""trial"",""time""
""fullscreenenter"",""0"",""4672""
","
","730.5999999046326","","","","","","","","49","0,0,0","1","highway","42","probe-38","0.6695599374055334","0.07197390532802567","0.20219577811194292","0","","","","","","","",""
"","html-keyboard-response","179","828849","0.0-99.0-1.0","""event"",""trial"",""time""
""fullscreenenter"",""0"",""4672""
","
","
","""event"",""trial"",""time""
""fullscreenenter"",""0"",""4672""
","
","null","<p></p>","null","","","","","","","","","","","","","","","","","","","","","","",""
"","do_trial","180","834574","0.0-100.0-0.0","""event"",""trial"",""time""
""fullscreenenter"",""0"",""4672""
","
","
","""event"",""trial"",""time""
""fullscreenenter"",""0"",""4672""
","
","1168.7000002861023","","","","","","","","49","1,1,1","1","highway","43","probe-171","0.6252411376710848","0.13763705404237098","0.26836785856909584","1","","","","","","","",""
"","html-keyboard-response","181","835584","0.0-100.0-1.0","""event"",""trial"",""time""
""fullscreenenter"",""0"",""4672""
","
","
","""event"",""trial"",""time""
""fullscreenenter"",""0"",""4672""
","
","null","<p></p>","null","","","","","","","","","","","","","","","","","","","","","","",""
"","do_trial","182","840811","0.0-101.0-0.0","""event"",""trial"",""time""
""fullscreenenter"",""0"",""4672""
","
","
","""event"",""trial"",""time""
""fullscreenenter"",""0"",""4672""
","
","653.6999998092651","","","","","","","","49","0,0,1","1","highway","44","probe-184","0.544642031641763","0.11331649093793464","0.3273412340257636","0","","","","","","","",""
"","html-keyboard-response","183","841823","0.0-101.0-1.0","""event"",""trial"",""time""
""fullscreenenter"",""0"",""4672""
","
","
","""event"",""trial"",""time""
""fullscreenenter"",""0"",""4672""
","
","null","<p></p>","null","","","","","","","","","","","","","","","","","","","","","","",""
"","do_trial","184","847115","0.0-102.0-0.0","""event"",""trial"",""time""
""fullscreenenter"",""0"",""4672""
","
","
","""event"",""trial"",""time""
""fullscreenenter"",""0"",""4672""
","
","727.2000002861023","","","","","","","","49","0,1,1","1","highway","45","probe-209","0.41811885570168544","0.09864580921717901","0.4610599542338525","0","","","","","","","",""
"","html-keyboard-response","185","848130","0.0-102.0-1.0","""event"",""trial"",""time""
""fullscreenenter"",""0"",""4672""
","
","
","""event"",""trial"",""time""
""fullscreenenter"",""0"",""4672""
","
","null","<p></p>","null","","","","","","","","","","","","","","","","","","","","","","",""
"","do_trial","186","853244","0.0-103.0-0.0","""event"",""trial"",""time""
""fullscreenenter"",""0"",""4672""
","
","
","""event"",""trial"",""time""
""fullscreenenter"",""0"",""4672""
","
","573.5999999046326","","","","","","","","49","0,0,1","1","highway","46","probe-56","0.4612420464902409","0.09821298269416028","0.5199748611397655","0","","","","","","","",""
"","html-keyboard-response","187","854256","0.0-103.0-1.0","""event"",""trial"",""time""
""fullscreenenter"",""0"",""4672""
","
","
","""event"",""trial"",""time""
""fullscreenenter"",""0"",""4672""
","
","null","<p></p>","null","","","","","","","","","","","","","","","","","","","","","","",""
"","do_trial","188","859302","0.0-104.0-0.0","""event"",""trial"",""time""
""fullscreenenter"",""0"",""4672""
","
","
","""event"",""trial"",""time""
""fullscreenenter"",""0"",""4672""
","
","486.09999990463257","","","","","","","","49","1,0,0","1","highway","47","probe-158","0.4196988596989023","0.1917186741192366","0.5277787965045283","1","","","","","","","",""
"","html-keyboard-response","189","860311","0.0-104.0-1.0","""event"",""trial"",""time""
""fullscreenenter"",""0"",""4672""
","
","
","""event"",""trial"",""time""
""fullscreenenter"",""0"",""4672""
","
","null","<p></p>","null","","","","","","","","","","","","","","","","","","","","","","",""
"","do_trial","190","865425","0.0-105.0-0.0","""event"",""trial"",""time""
""fullscreenenter"",""0"",""4672""
","
","
","""event"",""trial"",""time""
""fullscreenenter"",""0"",""4672""
","
","568.3999996185303","","","","","","","","49","0,0,0","1","highway","48","probe-169","0.44807592126277157","0.06960448041950311","0.4714774143152978","0","","","","","","","",""
"","html-keyboard-response","191","866439","0.0-105.0-1.0","""event"",""trial"",""time""
""fullscreenenter"",""0"",""4672""
","
","
","""event"",""trial"",""time""
""fullscreenenter"",""0"",""4672""
","
","null","<p></p>","null","","","","","","","","","","","","","","","","","","","","","","",""
"","do_trial","192","871254","0.0-106.0-0.0","""event"",""trial"",""time""
""fullscreenenter"",""0"",""4672""
","
","
","""event"",""trial"",""time""
""fullscreenenter"",""0"",""4672""
","
","268.2000002861023","","","","","","","","49","0,0,0","1","highway","49","probe-176","0.3373140343596018","0.15607517831463735","0.5489254313576177","0","","","","","","","",""
"","html-keyboard-response","193","872260","0.0-106.0-1.0","""event"",""trial"",""time""
""fullscreenenter"",""0"",""4672""
","
","
","""event"",""trial"",""time""
""fullscreenenter"",""0"",""4672""
","
","null","<p></p>","null","","","","","","","","","","","","","","","","","","","","","","",""
"","do_trial","194","877838","0.0-107.0-0.0","""event"",""trial"",""time""
""fullscreenenter"",""0"",""4672""
","
","
","""event"",""trial"",""time""
""fullscreenenter"",""0"",""4672""
","
","1023.2999997138977","","","","","","","","49","1,0,0","1","highway","50","probe-90","0.4645262579517862","0.1116380115903738","0.5126141878587844","1","","","","","","","",""
"","html-keyboard-response","195","878852","0.0-107.0-1.0","""event"",""trial"",""time""
""fullscreenenter"",""0"",""4672""
","
","
","""event"",""trial"",""time""
""fullscreenenter"",""0"",""4672""
","
","null","<p></p>","null","","","","","","","","","","","","","","","","","","","","","","",""
"","do_trial","196","884209","0.0-108.0-0.0","""event"",""trial"",""time""
""fullscreenenter"",""0"",""4672""
","
","
","""event"",""trial"",""time""
""fullscreenenter"",""0"",""4672""
","
","793.0999999046326","","","","","","","","49","0,0,1","1","highway","51","probe-157","0.3365644927140766","0.21484249934738692","0.5377332863620802","0","","","","","","","",""
"","html-keyboard-response","197","885218","0.0-108.0-1.0","""event"",""trial"",""time""
""fullscreenenter"",""0"",""4672""
","
","
","""event"",""trial"",""time""
""fullscreenenter"",""0"",""4672""
","
","null","<p></p>","null","","","","","","","","","","","","","","","","","","","","","","",""
"","do_trial","198","890816","0.0-109.0-0.0","""event"",""trial"",""time""
""fullscreenenter"",""0"",""4672""
","
","
","""event"",""trial"",""time""
""fullscreenenter"",""0"",""4672""
","
","1037.5999999046326","","","","","","","","49","0,0,1","1","highway","52","probe-106","0.2615145715011365","0.3000504767905106","0.673425528929629","0","","","","","","","",""
"","html-keyboard-response","199","891832","0.0-109.0-1.0","""event"",""trial"",""time""
""fullscreenenter"",""0"",""4672""
","
","
","""event"",""trial"",""time""
""fullscreenenter"",""0"",""4672""
","
","null","<p></p>","null","","","","","","","","","","","","","","","","","","","","","","",""
"","do_trial","200","896905","0.0-110.0-0.0","""event"",""trial"",""time""
""fullscreenenter"",""0"",""4672""
","
","
","""event"",""trial"",""time""
""fullscreenenter"",""0"",""4672""
","
","526.8000001907349","","","","","","","","49","1,0,1","1","highway","53","probe-213","0.3705010932754971","0.19909381700959677","0.7953611709291474","1","","","","","","","",""
"","html-keyboard-response","201","897907","0.0-110.0-1.0","""event"",""trial"",""time""
""fullscreenenter"",""0"",""4672""
","
","
","""event"",""trial"",""time""
""fullscreenenter"",""0"",""4672""
","
","null","<p></p>","null","","","","","","","","","","","","","","","","","","","","","","",""
"","do_trial","202","903351","0.0-111.0-0.0","""event"",""trial"",""time""
""fullscreenenter"",""0"",""4672""
","
","
","""event"",""trial"",""time""
""fullscreenenter"",""0"",""4672""
","
","903.7000002861023","","","","","","","","49","0,0,1","1","highway","54","probe-59","0.2835038555996566","0.06741765751132885","0.8924661863801997","0","","","","","","","",""
"","html-keyboard-response","203","904360","0.0-111.0-1.0","""event"",""trial"",""time""
""fullscreenenter"",""0"",""4672""
","
","
","""event"",""trial"",""time""
""fullscreenenter"",""0"",""4672""
","
","null","<p></p>","null","","","","","","","","","","","","","","","","","","","","","","",""
"","do_trial","204","909858","0.0-112.0-0.0","""event"",""trial"",""time""
""fullscreenenter"",""0"",""4672""
","
","
","""event"",""trial"",""time""
""fullscreenenter"",""0"",""4672""
","
","956.6000003814697","","","","","","","","49","0,0,1","1","highway","55","probe-177","0.3154482360352077","0.10090844268807553","0.6834597850432814","0","","","","","","","",""
"","html-keyboard-response","205","910870","0.0-112.0-1.0","""event"",""trial"",""time""
""fullscreenenter"",""0"",""4672""
","
","
","""event"",""trial"",""time""
""fullscreenenter"",""0"",""4672""
","
","null","<p></p>","null","","","","","","","","","","","","","","","","","","","","","","",""
"","do_trial","206","915983","0.0-113.0-0.0","""event"",""trial"",""time""
""fullscreenenter"",""0"",""4672""
","
","
","""event"",""trial"",""time""
""fullscreenenter"",""0"",""4672""
","
","554.5","","","","","","","","49","0,1,1","1","highway","56","probe-128","0.2535150812399271","0.1288952549724746","0.481234051830548","0","","","","","","","",""
"","html-keyboard-response","207","916998","0.0-113.0-1.0","""event"",""trial"",""time""
""fullscreenenter"",""0"",""4672""
","
","
","""event"",""trial"",""time""
""fullscreenenter"",""0"",""4672""
","
","null","<p></p>","null","","","","","","","","","","","","","","","","","","","","","","",""
"","do_trial","208","922070","0.0-114.0-0.0","""event"",""trial"",""time""
""fullscreenenter"",""0"",""4672""
","
","
","""event"",""trial"",""time""
""fullscreenenter"",""0"",""4672""
","
","496.80000019073486","","","","","","","","49","0,0,0","1","highway","57","probe-15","0.1895631995967148","0.16913091623250467","0.28316971803563706","0","","","","","","","",""
"","html-keyboard-response","209","923082","0.0-114.0-1.0","""event"",""trial"",""time""
""fullscreenenter"",""0"",""4672""
","
","
","""event"",""trial"",""time""
""fullscreenenter"",""0"",""4672""
","
","null","<p></p>","null","","","","","","","","","","","","","","","","","","","","","","",""
"","do_trial","210","929330","0.0-115.0-0.0","""event"",""trial"",""time""
""fullscreenenter"",""0"",""4672""
","
","
","""event"",""trial"",""time""
""fullscreenenter"",""0"",""4672""
","
","1700.9000000953674","","","","","","","","51","0,0,1","1","highway","58","probe-127","0.41790506204588157","0.06015282716721286","0.40985372573266604","1","","","","","","","",""
"","html-keyboard-response","211","930333","0.0-115.0-1.0","""event"",""trial"",""time""
""fullscreenenter"",""0"",""4672""
","
","
","""event"",""trial"",""time""
""fullscreenenter"",""0"",""4672""
","
","null","<p></p>","null","","","","","","","","","","","","","","","","","","","","","","",""
"","do_trial","212","935734","0.0-116.0-0.0","""event"",""trial"",""time""
""fullscreenenter"",""0"",""4672""
","
","
","""event"",""trial"",""time""
""fullscreenenter"",""0"",""4672""
","
","858.7000002861023","","","","","","","","51","1,0,1","1","highway","59","probe-114","0.3980684008993198","0.15468974947869554","0.38927665194031236","1","","","","","","","",""
"","html-keyboard-response","213","936741","0.0-116.0-1.0","""event"",""trial"",""time""
""fullscreenenter"",""0"",""4672""
","
","
","""event"",""trial"",""time""
""fullscreenenter"",""0"",""4672""
","
","null","<p></p>","null","","","","","","","","","","","","","","","","","","","","","","",""
"","do_trial","214","942214","0.0-117.0-0.0","""event"",""trial"",""time""
""fullscreenenter"",""0"",""4672""
","
","
","""event"",""trial"",""time""
""fullscreenenter"",""0"",""4672""
","
","924.8000001907349","","","","","","","","51","0,0,0","1","highway","60","probe-30","0.2834506188965234","0.15975647430761683","0.5002980308125587","0","","","","","","","",""
"","html-keyboard-response","215","943229","0.0-117.0-1.0","""event"",""trial"",""time""
""fullscreenenter"",""0"",""4672""
","
","
","""event"",""trial"",""time""
""fullscreenenter"",""0"",""4672""
","
","null","<p></p>","null","","","","","","","","","","","","","","","","","","","","","","",""
"","do_trial","216","948281","0.0-118.0-0.0","""event"",""trial"",""time""
""fullscreenenter"",""0"",""4672""
","
","
","""event"",""trial"",""time""
""fullscreenenter"",""0"",""4672""
","
","499.5","","","","","","","","51","0,0,1","1","highway","61","probe-165","0.3834100361456169","0.12921946716573474","0.5723266759114645","1","","","","","","","",""
"","html-keyboard-response","217","949289","0.0-118.0-1.0","""event"",""trial"",""time""
""fullscreenenter"",""0"",""4672""
","
","
","""event"",""trial"",""time""
""fullscreenenter"",""0"",""4672""
","
","null","<p></p>","null","","","","","","","","","","","","","","","","","","","","","","",""
"","do_trial","218","954592","0.0-119.0-0.0","""event"",""trial"",""time""
""fullscreenenter"",""0"",""4672""
","
","
","""event"",""trial"",""time""
""fullscreenenter"",""0"",""4672""
","
","746.4000000953674","","","","","","","","51","0,0,0","1","highway","62","probe-32","0.2187638018072218","0.15792814875698172","0.5643147464544466","0","","","","","","","",""
"","html-keyboard-response","219","955597","0.0-119.0-1.0","""event"",""trial"",""time""
""fullscreenenter"",""0"",""4672""
","
","
","""event"",""trial"",""time""
""fullscreenenter"",""0"",""4672""
","
","null","<p></p>","null","","","","","","","","","","","","","","","","","","","","","","",""
"","do_trial","220","960773","0.0-120.0-0.0","""event"",""trial"",""time""
""fullscreenenter"",""0"",""4672""
","
","
","""event"",""trial"",""time""
""fullscreenenter"",""0"",""4672""
","
","626.8000001907349","","","","","","","","51","0,0,0","1","highway","63","probe-50","0.16661793445792228","0.14862472976793378","0.5155787506233941","0","","","","","","","",""
"","html-keyboard-response","221","961789","0.0-120.0-1.0","""event"",""trial"",""time""
""fullscreenenter"",""0"",""4672""
","
","
","""event"",""trial"",""time""
""fullscreenenter"",""0"",""4672""
","
","null","<p></p>","null","","","","","","","","","","","","","","","","","","","","","","",""
"","do_trial","222","966683","0.0-121.0-0.0","""event"",""trial"",""time""
""fullscreenenter"",""0"",""4672""
","
","
","""event"",""trial"",""time""
""fullscreenenter"",""0"",""4672""
","
","338.8999996185303","","","","","","","","50","0,0,0","1","highway","64","probe-179","0.33098457034811846","0.14580811944131086","0.5088224049855508","0","","","","","","","",""
"","html-keyboard-response","223","967687","0.0-121.0-1.0","""event"",""trial"",""time""
""fullscreenenter"",""0"",""4672""
","
","
","""event"",""trial"",""time""
""fullscreenenter"",""0"",""4672""
","
","null","<p></p>","null","","","","","","","","","","","","","","","","","","","","","","",""
"","do_trial","224","972562","0.0-122.0-0.0","""event"",""trial"",""time""
""fullscreenenter"",""0"",""4672""
","
","
","""event"",""trial"",""time""
""fullscreenenter"",""0"",""4672""
","
","313.2999997138977","","","","","","","","51","1,0,0","1","highway","65","probe-79","0.27007406661894834","0.1514041858036339","0.5157028034364132","0","","","","","","","",""
"","html-keyboard-response","225","973574","0.0-122.0-1.0","""event"",""trial"",""time""
""fullscreenenter"",""0"",""4672""
","
","
","""event"",""trial"",""time""
""fullscreenenter"",""0"",""4672""
","
","null","<p></p>","null","","","","","","","","","","","","","","","","","","","","","","",""
"","do_trial","226","978973","0.0-123.0-0.0","""event"",""trial"",""time""
""fullscreenenter"",""0"",""4672""
","
","
","""event"",""trial"",""time""
""fullscreenenter"",""0"",""4672""
","
","853.4000000953674","","","","","","","","50","1,0,1","1","highway","66","probe-93","0.31188342526095353","0.2709153189726418","0.6905088325162904","0","","","","","","","",""
"","html-keyboard-response","227","979989","0.0-123.0-1.0","""event"",""trial"",""time""
""fullscreenenter"",""0"",""4672""
","
","
","""event"",""trial"",""time""
""fullscreenenter"",""0"",""4672""
","
","null","<p></p>","null","","","","","","","","","","","","","","","","","","","","","","",""
"","do_trial","228","985139","0.0-124.0-0.0","""event"",""trial"",""time""
""fullscreenenter"",""0"",""4672""
","
","
","""event"",""trial"",""time""
""fullscreenenter"",""0"",""4672""
","
","592.4000000953674","","","","","","","","50","1,0,1","1","highway","67","probe-105","0.2653561020501053","0.25353698644390465","0.65684086166074","0","","","","","","","",""
"","html-keyboard-response","229","986150","0.0-124.0-1.0","""event"",""trial"",""time""
""fullscreenenter"",""0"",""4672""
","
","
","""event"",""trial"",""time""
""fullscreenenter"",""0"",""4672""
","
","null","<p></p>","null","","","","","","","","","","","","","","","","","","","","","","",""
"","do_trial","230","991270","0.0-125.0-0.0","""event"",""trial"",""time""
""fullscreenenter"",""0"",""4672""
","
","
","""event"",""trial"",""time""
""fullscreenenter"",""0"",""4672""
","
","555.5999999046326","","","","","","","","51","0,1,0","1","highway","68","probe-16","0.17003110845232672","0.15784491254438657","0.6927635108624186","0","","","","","","","",""
"","html-keyboard-response","231","992283","0.0-125.0-1.0","""event"",""trial"",""time""
""fullscreenenter"",""0"",""4672""
","
","
","""event"",""trial"",""time""
""fullscreenenter"",""0"",""4672""
","
","null","<p></p>","null","","","","","","","","","","","","","","","","","","","","","","",""
"","do_trial","232","997512","0.0-126.0-0.0","""event"",""trial"",""time""
""fullscreenenter"",""0"",""4672""
","
","
","""event"",""trial"",""time""
""fullscreenenter"",""0"",""4672""
","
","674.6999998092651","","","","","","","","50","0,1,0","1","highway","69","probe-166","0.18620975164244324","0.16665890679366416","0.7444012602872769","1","","","","","","","",""
"","html-keyboard-response","233","998522","0.0-126.0-1.0","""event"",""trial"",""time""
""fullscreenenter"",""0"",""4672""
","
","
","""event"",""trial"",""time""
""fullscreenenter"",""0"",""4672""
","
","null","<p></p>","null","","","","","","","","","","","","","","","","","","","","","","",""
"","do_bye","234","1000034","0.0-127.0-0.0","""event"",""trial"",""time""
""fullscreenenter"",""0"",""4672""
","
","
","""event"",""trial"",""time""
""fullscreenenter"",""0"",""4672""
","
","null","","","","","","","","null","","","","","","","","","","","","","","","","",""
"","break","235","1037983","0.0-127.0-1.0","""event"",""trial"",""time""
""fullscreenenter"",""0"",""4672""
","
","
","""event"",""trial"",""time""
""fullscreenenter"",""0"",""4672""
","
","37959.300000190735","<div class='center'><p>Time to take a quick break! You have 2 minutes to rest, but you can move on sooner if you'd like.</p><p> Press the <b>space bar</b> to continue.</p></div>","32","","","","","","","","","","","","","","","","","","","","","","",""
"","do_travel","236","1046996","0.0-128.0-0.0","""event"",""trial"",""time""
""fullscreenenter"",""0"",""4672""
","
","
","""event"",""trial"",""time""
""fullscreenenter"",""0"",""4672""
","
","null","","","","","","","","null","","","","","","","","","","","","","","","","",""
"","do_welcome","237","1051007","0.0-128.0-1.0","""event"",""trial"",""time""
""fullscreenenter"",""0"",""4672""
","
","
","""event"",""trial"",""time""
""fullscreenenter"",""0"",""4672""
","
","null","","","","","","","","null","","","","","","","","","","","","","","","","",""
"","do_trial","238","1056858","0.0-129.0-0.0","""event"",""trial"",""time""
""fullscreenenter"",""0"",""4672""
","
","
","""event"",""trial"",""time""
""fullscreenenter"",""0"",""4672""
","
","1282.3000001907349","","","","","","","","49","0,0,1","2","city","70","probe-35","0.21347746572000717","0.13180845598459598","1","0","","","","","","","",""
"","html-keyboard-response","239","1057867","0.0-129.0-1.0","""event"",""trial"",""time""
""fullscreenenter"",""0"",""4672""
","
","
","""event"",""trial"",""time""
""fullscreenenter"",""0"",""4672""
","
","null","<p></p>","null","","","","","","","","","","","","","","","","","","","","","","",""
"","do_trial","240","1063149","0.0-130.0-0.0","""event"",""trial"",""time""
""fullscreenenter"",""0"",""4672""
","
","
","""event"",""trial"",""time""
""fullscreenenter"",""0"",""4672""
","
","721.9000000953674","","","","","","","","50","0,0,1","2","city","71","probe-183","0.2489664605691249","0.08867009216275955","1","0","","","","","","","",""
"","html-keyboard-response","241","1064161","0.0-130.0-1.0","""event"",""trial"",""time""
""fullscreenenter"",""0"",""4672""
","
","
","""event"",""trial"",""time""
""fullscreenenter"",""0"",""4672""
","
","null","<p></p>","null","","","","","","","","","","","","","","","","","","","","","","",""
"","do_trial","242","1069950","0.0-131.0-0.0","""event"",""trial"",""time""
""fullscreenenter"",""0"",""4672""
","
","
","""event"",""trial"",""time""
""fullscreenenter"",""0"",""4672""
","
","1250.2999997138977","","","","","","","","51","0,0,1","2","city","72","probe-46","0.23564141966837085","0.2677005660016392","0.8931752561304643","1","","","","","","","",""
"","html-keyboard-response","243","1070965","0.0-131.0-1.0","""event"",""trial"",""time""
""fullscreenenter"",""0"",""4672""
","
","
","""event"",""trial"",""time""
""fullscreenenter"",""0"",""4672""
","
","null","<p></p>","null","","","","","","","","","","","","","","","","","","","","","","",""
"","do_trial","244","1076182","0.0-132.0-0.0","""event"",""trial"",""time""
""fullscreenenter"",""0"",""4672""
","
","
","""event"",""trial"",""time""
""fullscreenenter"",""0"",""4672""
","
","664.1999998092651","","","","","","","","51","1,0,1","2","city","73","probe-191","0.14245175474856517","0.06848933747052413","0.7749921697182507","1","","","","","","","",""
"","html-keyboard-response","245","1077195","0.0-132.0-1.0","""event"",""trial"",""time""
""fullscreenenter"",""0"",""4672""
","
","
","""event"",""trial"",""time""
""fullscreenenter"",""0"",""4672""
","
","null","<p></p>","null","","","","","","","","","","","","","","","","","","","","","","",""
"","do_trial","246","1082492","0.0-133.0-0.0","""event"",""trial"",""time""
""fullscreenenter"",""0"",""4672""
","
","
","""event"",""trial"",""time""
""fullscreenenter"",""0"",""4672""
","
","746.2000002861023","","","","","","","","51","1,0,1","2","city","74","probe-97","0.14469063849513963","0.05870955772654585","0.6603611439688571","1","","","","","","","",""
"","html-keyboard-response","247","1083507","0.0-133.0-1.0","""event"",""trial"",""time""
""fullscreenenter"",""0"",""4672""
","
","
","""event"",""trial"",""time""
""fullscreenenter"",""0"",""4672""
","
","null","<p></p>","null","","","","","","","","","","","","","","","","","","","","","","",""
"","do_trial","248","1089359","0.0-134.0-0.0","""event"",""trial"",""time""
""fullscreenenter"",""0"",""4672""
","
","
","""event"",""trial"",""time""
""fullscreenenter"",""0"",""4672""
","
","1290.2999997138977","","","","","","","","51","0,0,1","2","city","75","probe-67","0.21897482740880395","0.05259961375808603","0.677056144630249","1","","","","","","","",""
"","html-keyboard-response","249","1090365","0.0-134.0-1.0","""event"",""trial"",""time""
""fullscreenenter"",""0"",""4672""
","
","
","""event"",""trial"",""time""
""fullscreenenter"",""0"",""4672""
","
","null","<p></p>","null","","","","","","","","","","","","","","","","","","","","","","",""
"","do_trial","250","1095275","0.0-135.0-0.0","""event"",""trial"",""time""
""fullscreenenter"",""0"",""4672""
","
","
","""event"",""trial"",""time""
""fullscreenenter"",""0"",""4672""
","
","363","","","","","","","","51","0,0,1","2","city","76","probe-20","0.24047293908280265","0.10137738386246264","0.6650840955483182","1","","","","","","","",""
"","html-keyboard-response","251","1096291","0.0-135.0-1.0","""event"",""trial"",""time""
""fullscreenenter"",""0"",""4672""
","
","
","""event"",""trial"",""time""
""fullscreenenter"",""0"",""4672""
","
","null","<p></p>","null","","","","","","","","","","","","","","","","","","","","","","",""
"","do_trial","252","1101871","0.0-136.0-0.0","""event"",""trial"",""time""
""fullscreenenter"",""0"",""4672""
","
","
","""event"",""trial"",""time""
""fullscreenenter"",""0"",""4672""
","
","1010.2000002861023","","","","","","","","51","0,0,1","2","city","77","probe-116","0.3752731889102877","0.2333602796238315","0.7747147505768173","1","","","","","","","",""
"","html-keyboard-response","253","1102876","0.0-136.0-1.0","""event"",""trial"",""time""
""fullscreenenter"",""0"",""4672""
","
","
","""event"",""trial"",""time""
""fullscreenenter"",""0"",""4672""
","
","null","<p></p>","null","","","","","","","","","","","","","","","","","","","","","","",""
"","do_trial","254","1107860","0.0-137.0-0.0","""event"",""trial"",""time""
""fullscreenenter"",""0"",""4672""
","
","
","""event"",""trial"",""time""
""fullscreenenter"",""0"",""4672""
","
","437.7000002861023","","","","","","","","51","0,0,0","2","city","78","probe-125","0.3041602673446736","0.23940700481291","0.7169174850413947","0","","","","","","","",""
"","html-keyboard-response","255","1108874","0.0-137.0-1.0","""event"",""trial"",""time""
""fullscreenenter"",""0"",""4672""
","
","
","""event"",""trial"",""time""
""fullscreenenter"",""0"",""4672""
","
","null","<p></p>","null","","","","","","","","","","","","","","","","","","","","","","",""
"","do_trial","256","1114051","0.0-138.0-0.0","""event"",""trial"",""time""
""fullscreenenter"",""0"",""4672""
","
","
","""event"",""trial"",""time""
""fullscreenenter"",""0"",""4672""
","
","616.3000001907349","","","","","","","","51","0,0,1","2","city","79","probe-227","0.17732923210844984","0.19219026099484826","0.5886632181768462","1","","","","","","","",""
"","html-keyboard-response","257","1115054","0.0-138.0-1.0","""event"",""trial"",""time""
""fullscreenenter"",""0"",""4672""
","
","
","""event"",""trial"",""time""
""fullscreenenter"",""0"",""4672""
","
","null","<p></p>","null","","","","","","","","","","","","","","","","","","","","","","",""
"","do_trial","258","1120875","0.0-139.0-0.0","""event"",""trial"",""time""
""fullscreenenter"",""0"",""4672""
","
","
","""event"",""trial"",""time""
""fullscreenenter"",""0"",""4672""
","
","1265.9000000953674","","","","","","","","51","0,1,1","2","city","80","probe-122","0.24022930632691875","0.27281817239993816","0.6199976712628232","1","","","","","","","",""
"","html-keyboard-response","259","1121885","0.0-139.0-1.0","""event"",""trial"",""time""
""fullscreenenter"",""0"",""4672""
","
","
","""event"",""trial"",""time""
""fullscreenenter"",""0"",""4672""
","
","null","<p></p>","null","","","","","","","","","","","","","","","","","","","","","","",""
"","do_trial","260","1127096","0.0-140.0-0.0","""event"",""trial"",""time""
""fullscreenenter"",""0"",""4672""
","
","
","""event"",""trial"",""time""
""fullscreenenter"",""0"",""4672""
","
","670.4000000953674","","","","","","","","51","1,0,1","2","city","81","probe-74","0.2557172473686579","0.3593748677404458","0.6169414274875009","1","","","","","","","",""
"","html-keyboard-response","261","1128112","0.0-140.0-1.0","""event"",""trial"",""time""
""fullscreenenter"",""0"",""4672""
","
","
","""event"",""trial"",""time""
""fullscreenenter"",""0"",""4672""
","
