"success","trial_type","trial_index","time_elapsed","internal_node_id","interactions","blur_events","focus_events","fullscreenenter_events","fullscreenexit_events","rt","stimulus","key_press","subject_id","participant_id","age","gender","prompt","response","choice_outcomes","context_n","context_img_id","trial_n","probe_img_id","pR_red","pR_white","pR_black","outcome","contextArray_ind","validImageProbes","invalidImageProbes","pRew_Red","pRew_White","pRew_Black","availableForMemProbe","choice_blocks"
"true","fullscreen","0","12655","0.0-0.0","""event"",""trial"",""time""
""fullscreenenter"",""0"",""11665""
","
","
","""event"",""trial"",""time""
""fullscreenenter"",""0"",""11665""
","
","","","","","","","","","","","","","","","","","","","","","","","","","",""
"","pavlovia","1","12661","0.0-1.0","""event"",""trial"",""time""
""fullscreenenter"",""0"",""11665""
","
","
","""event"",""trial"",""time""
""fullscreenenter"",""0"",""11665""
","
","","","","","","","","","","","","","","","","","","","","","","","","","",""
"","instruc1","2","57869","0.0-2.0","""event"",""trial"",""time""
""fullscreenenter"",""0"",""11665""
","
","
","""event"",""trial"",""time""
""fullscreenenter"",""0"",""11665""
","
","null","run_exp/static/audio/clip_1_welcome.m4a","null","381","875","25","Male","<div class='center'><p>Welcome! This is the first part of the study. It will last ~30 minutes. In part 1 and part 2 of the study, you are the head captain of a pirate ship traveling around the world to different islands. You will play a few different games throughout these two parts. Here is an overview of them:</p><br><p>Part 1 (today)</p><p>1. Instructions, practice game, and quiz</p><p>2. Pick a pirate game on 6 different islands</p><br><p>Part 2 (tomorrow)</p><p>3. Pick a pirate game and memory game</p><p>4. Where did you see this ship? </p></div>","","","","","","","","","","","","","","","","","",""
"","html-keyboard-response","3","58084","0.0-3.0","""event"",""trial"",""time""
""fullscreenenter"",""0"",""11665""
","
","
","""event"",""trial"",""time""
""fullscreenenter"",""0"",""11665""
","
","213.5","<div class='center'><p>Welcome! This is the first part of the study. It will last ~30 minutes. In part 1 and part 2 of the study, you are the head captain of a pirate ship traveling around the world to different islands. You will play a few different games throughout these two parts. Here is an overview of them:</p><br><p>Part 1 (today)</p><p>1. Instructions, practice game, and quiz</p><p>2. Pick a pirate game on 6 different islands</p><br><p>Part 2 (tomorrow)</p><p>3. Pick a pirate game and memory game</p><p>4. Where did you see this ship? </p><p><b>[Press the space bar to continue]</b></p></div>","32","","","","","","","","","","","","","","","","","","","","","","",""
"","instruc2","4","63395","0.0-4.0","""event"",""trial"",""time""
""fullscreenenter"",""0"",""11665""
","
","
","""event"",""trial"",""time""
""fullscreenenter"",""0"",""11665""
","
","null","run_exp/static/audio/clip_2_different_places.m4a","null","","","","","<div class='center'><p>Today, you’ll visit these 6 islands on your journey. You'll be able to see these islands from your ship.</p><p><img src='run_exp/static/images/contexts/all_contexts.png' height='500'></p></div>","","","","","","","","","","","","","","","","","",""
"","html-keyboard-response","5","67743","0.0-5.0","""event"",""trial"",""time""
""fullscreenenter"",""0"",""11665""
","
","
","""event"",""trial"",""time""
""fullscreenenter"",""0"",""11665""
","
","4346.29999999702","<div class='center'><p>Today, you’ll visit these 6 islands on your journey. You'll be able to see these islands from your ship.</p><p><img src='run_exp/static/images/contexts/all_contexts.png' height='500'></p><p><b>[Press the space bar to continue]</b></p></div>","32","","","","","","","","","","","","","","","","","","","","","","",""
"","instruc3","6","77443","0.0-6.0","""event"",""trial"",""time""
""fullscreenenter"",""0"",""11665""
","
","
","""event"",""trial"",""time""
""fullscreenenter"",""0"",""11665""
","
","null","run_exp/static/audio/clip_3_goal_of_game_1.m4a","null","","","","","<div class='center'><p> The pirates on your ship will rob other ships as they leave the island.</p> These ships have just sold their goods to the islanders, so they will be filled with lots and lots of gold.</p><p><img src='run_exp/static/images/tutorial/ship_center.png' height='400'></p></div>","","","","","","","","","","","","","","","","","",""
"","html-keyboard-response","7","79135","0.0-7.0","""event"",""trial"",""time""
""fullscreenenter"",""0"",""11665""
","
","
","""event"",""trial"",""time""
""fullscreenenter"",""0"",""11665""
","
","1689.7999999970198","<div class='center'><p> The pirates on your ship will rob other ships as they leave the island.</p> These ships have just sold their goods to the islanders, so they will be filled with lots and lots of gold.</p><p><img src='run_exp/static/images/tutorial/ship_center.png' height='400'></p><p><b>[Press the space bar to continue]</b></p></div>","32","","","","","","","","","","","","","","","","","","","","","","",""
"","instruc4","8","107142","0.0-8.0","""event"",""trial"",""time""
""fullscreenenter"",""0"",""11665""
","
","
","""event"",""trial"",""time""
""fullscreenenter"",""0"",""11665""
","
","null","run_exp/static/audio/clip_4_goal_of_game_2.m4a","null","","","","","<div class='center'><p>As the head captain, you do not have to rob any ships yourself. Another pirate will be doing the robbing for you. First, you will choose a pirate to rob the next ship.</p><p><img src='run_exp/static/images/tutorial/pirates_all_crop.png' height='200'></p><p>Then, you'll see if the pirate successfully robbed the ship of their gold. If they were successful, then you'll get a stack of gold coins like this:</p><p><img src='run_exp/static/images/tutorial/reward.png' height='150'></p><p> If they were <b>not</b> successful, then you'll get no gold coins, and you'll see a big red x like this: </p><p><img src='run_exp/static/images/tutorial/reward_no.png' height='150'></p><p> How much bonus money you make is based on how many gold coins you collect.</p><div>","","","","","","","","","","","","","","","","","",""
"","html-keyboard-response","9","108725","0.0-9.0","""event"",""trial"",""time""
""fullscreenenter"",""0"",""11665""
","
","
","""event"",""trial"",""time""
""fullscreenenter"",""0"",""11665""
","
","1581.9000000059605","<div class='center'><p>As the head captain, you do not have to rob any ships yourself. Another pirate will be doing the robbing for you. First, you will choose a pirate to rob the next ship.</p><p><img src='run_exp/static/images/tutorial/pirates_all_crop.png' height='200'></p><p>Then, you'll see if the pirate successfully robbed the ship of their gold. If they were successful, then you'll get a stack of gold coins like this:</p><p><img src='run_exp/static/images/tutorial/reward.png' height='150'></p><p> If they were <b>not</b> successful, then you'll get no gold coins, and you'll see a big red x like this: </p><p><img src='run_exp/static/images/tutorial/reward_no.png' height='150'></p><p> How much bonus money you make is based on how many gold coins you collect.</p<p><b>[Press the space bar to continue]</b></p></div>","32","","","","","","","","","","","","","","","","","","","","","","",""
"","instruc5","10","130012","0.0-10.0","""event"",""trial"",""time""
""fullscreenenter"",""0"",""11665""
","
","
","""event"",""trial"",""time""
""fullscreenenter"",""0"",""11665""
","
","21285","run_exp/static/audio/clip_5_probabilistic.m4a","49","","","","","<div class='center'><p>Even the most skilled pirate can not rob EVERY ship.</p><p> Some ships will have very strong protections against pirate attacks.</p><p> Blue beard, here, is very, very good at robbing ships, but he won't be successful every time he tries to rob one.</p><p> You can press the <b>‘1’</b> key on the keyboard to choose him.</p><p> Try choosing him 10 times to see how often he succeeds at robbing a ship. </p><p><img src='run_exp/static/images/tutorial/blue.png' height='500'></p></div>","","","","","","","","","","","","","","","","","",""
"","html-keyboard-response","11","131517","0.0-11.0","""event"",""trial"",""time""
""fullscreenenter"",""0"",""11665""
","
","
","""event"",""trial"",""time""
""fullscreenenter"",""0"",""11665""
","
","null","<div class='center'><p><img src='run_exp/static/images/tutorial/blue_win.png' height='500'></p></div>","null","","","","","","","","","","","","","","","","","","","","","","",""
"","html-keyboard-response","12","132360","0.0-12.0","""event"",""trial"",""time""
""fullscreenenter"",""0"",""11665""
","
","
","""event"",""trial"",""time""
""fullscreenenter"",""0"",""11665""
","
","841.3999999910593","<div class='center'><img src='run_exp/static/images/tutorial/blue.png' height='500'></p></div>","49","","","","","","","","","","","","","","","","","","","","","","",""
"","html-keyboard-response","13","133866","0.0-13.0","""event"",""trial"",""time""
""fullscreenenter"",""0"",""11665""
","
","
","""event"",""trial"",""time""
""fullscreenenter"",""0"",""11665""
","
","null","<div class='center'><p><img src='run_exp/static/images/tutorial/blue_win.png' height='500'></p></div>","null","","","","","","","","","","","","","","","","","","","","","","",""
"","html-keyboard-response","14","134216","0.0-14.0","""event"",""trial"",""time""
""fullscreenenter"",""0"",""11665""
","
","
","""event"",""trial"",""time""
""fullscreenenter"",""0"",""11665""
","
","349","<div class='center'><img src='run_exp/static/images/tutorial/blue.png' height='500'></p></div>","49","","","","","","","","","","","","","","","","","","","","","","",""
"","html-keyboard-response","15","135721","0.0-15.0","""event"",""trial"",""time""
""fullscreenenter"",""0"",""11665""
","
","
","""event"",""trial"",""time""
""fullscreenenter"",""0"",""11665""
","
","null","<div class='center'><p><img src='run_exp/static/images/tutorial/blue_win.png' height='500'></p></div>","null","","","","","","","","","","","","","","","","","","","","","","",""
"","html-keyboard-response","16","136013","0.0-16.0","""event"",""trial"",""time""
""fullscreenenter"",""0"",""11665""
","
","
","""event"",""trial"",""time""
""fullscreenenter"",""0"",""11665""
","
","290.19999998807907","<div class='center'><img src='run_exp/static/images/tutorial/blue.png' height='500'></p></div>","49","","","","","","","","","","","","","","","","","","","","","","",""
"","html-keyboard-response","17","137518","0.0-17.0","""event"",""trial"",""time""
""fullscreenenter"",""0"",""11665""
","
","
","""event"",""trial"",""time""
""fullscreenenter"",""0"",""11665""
","
","null","<div class='center'><p><img src='run_exp/static/images/tutorial/blue_no_win.png' height='500'></p></div>","null","","","","","","","","","","","","","","","","","","","","","","",""
"","html-keyboard-response","18","137710","0.0-18.0","""event"",""trial"",""time""
""fullscreenenter"",""0"",""11665""
","
","
","""event"",""trial"",""time""
""fullscreenenter"",""0"",""11665""
","
","191.20000000298023","<div class='center'><img src='run_exp/static/images/tutorial/blue.png' height='500'></p></div>","49","","","","","","","","","","","","","","","","","","","","","","",""
"","html-keyboard-response","19","139216","0.0-19.0","""event"",""trial"",""time""
""fullscreenenter"",""0"",""11665""
","
","
","""event"",""trial"",""time""
""fullscreenenter"",""0"",""11665""
","
","null","<div class='center'><p><img src='run_exp/static/images/tutorial/blue_win.png' height='500'></p></div>","null","","","","","","","","","","","","","","","","","","","","","","",""
"","html-keyboard-response","20","139833","0.0-20.0","""event"",""trial"",""time""
""fullscreenenter"",""0"",""11665""
","
","
","""event"",""trial"",""time""
""fullscreenenter"",""0"",""11665""
","
","615.7999999970198","<div class='center'><img src='run_exp/static/images/tutorial/blue.png' height='500'></p></div>","49","","","","","","","","","","","","","","","","","","","","","","",""
"","html-keyboard-response","21","141335","0.0-21.0","""event"",""trial"",""time""
""fullscreenenter"",""0"",""11665""
","
","
","""event"",""trial"",""time""
""fullscreenenter"",""0"",""11665""
","
","null","<div class='center'><p><img src='run_exp/static/images/tutorial/blue_win.png' height='500'></p></div>","null","","","","","","","","","","","","","","","","","","","","","","",""
"","html-keyboard-response","22","142501","0.0-22.0","""event"",""trial"",""time""
""fullscreenenter"",""0"",""11665""
","
","
","""event"",""trial"",""time""
""fullscreenenter"",""0"",""11665""
","
","1164.5999999940395","<div class='center'><img src='run_exp/static/images/tutorial/blue.png' height='500'></p></div>","49","","","","","","","","","","","","","","","","","","","","","","",""
"","html-keyboard-response","23","144007","0.0-23.0","""event"",""trial"",""time""
""fullscreenenter"",""0"",""11665""
","
","
","""event"",""trial"",""time""
""fullscreenenter"",""0"",""11665""
","
","null","<div class='center'><p><img src='run_exp/static/images/tutorial/blue_win.png' height='500'></p></div>","null","","","","","","","","","","","","","","","","","","","","","","",""
"","html-keyboard-response","24","144707","0.0-24.0","""event"",""trial"",""time""
""fullscreenenter"",""0"",""11665""
","
","
","""event"",""trial"",""time""
""fullscreenenter"",""0"",""11665""
","
","699.2999999970198","<div class='center'><img src='run_exp/static/images/tutorial/blue.png' height='500'></p></div>","49","","","","","","","","","","","","","","","","","","","","","","",""
"","html-keyboard-response","25","146209","0.0-25.0","""event"",""trial"",""time""
""fullscreenenter"",""0"",""11665""
","
","
","""event"",""trial"",""time""
""fullscreenenter"",""0"",""11665""
","
","null","<div class='center'><p><img src='run_exp/static/images/tutorial/blue_no_win.png' height='500'></p></div>","null","","","","","","","","","","","","","","","","","","","","","","",""
"","html-keyboard-response","26","146782","0.0-26.0","""event"",""trial"",""time""
""fullscreenenter"",""0"",""11665""
","
","
","""event"",""trial"",""time""
""fullscreenenter"",""0"",""11665""
","
","572.2000000029802","<div class='center'><img src='run_exp/static/images/tutorial/blue.png' height='500'></p></div>","49","","","","","","","","","","","","","","","","","","","","","","",""
"","html-keyboard-response","27","148283","0.0-27.0","""event"",""trial"",""time""
""fullscreenenter"",""0"",""11665""
","
","
","""event"",""trial"",""time""
""fullscreenenter"",""0"",""11665""
","
","null","<div class='center'><p><img src='run_exp/static/images/tutorial/blue_win.png' height='500'></p></div>","null","","","","","","","","","","","","","","","","","","","","","","",""
"","html-keyboard-response","28","148931","0.0-28.0","""event"",""trial"",""time""
""fullscreenenter"",""0"",""11665""
","
","
","""event"",""trial"",""time""
""fullscreenenter"",""0"",""11665""
","
","647.1000000089407","<div class='center'><img src='run_exp/static/images/tutorial/blue.png' height='500'></p></div>","49","","","","","","","","","","","","","","","","","","","","","","",""
"","html-keyboard-response","29","150434","0.0-29.0","""event"",""trial"",""time""
""fullscreenenter"",""0"",""11665""
","
","
","""event"",""trial"",""time""
""fullscreenenter"",""0"",""11665""
","
","null","<div class='center'><p><img src='run_exp/static/images/tutorial/blue_win.png' height='500'></p></div>","null","","","","","","","","","","","","","","","","","","","","","","",""
"","instruc6","30","155840","0.0-30.0","""event"",""trial"",""time""
""fullscreenenter"",""0"",""11665""
","
","
","""event"",""trial"",""time""
""fullscreenenter"",""0"",""11665""
","
","null","run_exp/static/audio/clip_6_blue_beard_outcome.m4a","null","","","","","<div class='center'><p> See, he succeeded in robbing the ships most of the time but not every time. </p></div>","","","","","","","","","","","","","","","","","",""
"","html-keyboard-response","31","157051","0.0-31.0","""event"",""trial"",""time""
""fullscreenenter"",""0"",""11665""
","
","
","""event"",""trial"",""time""
""fullscreenenter"",""0"",""11665""
","
","1209.7999999970198","<div class='center'><p> See, he succeeded in robbing the ships most of the time but not every time. </p><p><b>[Press the space bar to continue]</b></p></div>","32","","","","","","","","","","","","","","","","","","","","","","",""
"","audio-keyboard-response","32","164808","0.0-32.0","""event"",""trial"",""time""
""fullscreenenter"",""0"",""11665""
","
","
","""event"",""trial"",""time""
""fullscreenenter"",""0"",""11665""
","
","7755.5999999940395","run_exp/static/audio/clip_7_pick_pirate.m4a","50","","","","","","","","","","","","","","","","","","","","","","",""
"","audio-keyboard-response","33","167508","0.0-33.0-0.0","""event"",""trial"",""time""
""fullscreenenter"",""0"",""11665""
","
","
","""event"",""trial"",""time""
""fullscreenenter"",""0"",""11665""
","
","2697.7999999970198","run_exp/static/audio/clip_8_chosen_pirate_win.m4a","32","","","","","","","","","","","","","","","","","","","","","","",""
"","audio-keyboard-response","34","169813","0.0-33.0-1.0","""event"",""trial"",""time""
""fullscreenenter"",""0"",""11665""
","
","
","""event"",""trial"",""time""
""fullscreenenter"",""0"",""11665""
","
","2303.5999999940395","run_exp/static/audio/clip_9_pick_a_pirate_again.m4a","51","","","","","","","","","","","","","","","","","","","","","","",""
"","audio-keyboard-response","35","174381","0.0-34.0-0.0","""event"",""trial"",""time""
""fullscreenenter"",""0"",""11665""
","
","
","""event"",""trial"",""time""
""fullscreenenter"",""0"",""11665""
","
","4565.20000000298","run_exp/static/audio/clip_10_chosen_pirate_loss.m4a","32","","","","","","","","","","","","","","","","","","","","","","",""
"","instruc9","36","179873","0.0-35.0-0.0","""event"",""trial"",""time""
""fullscreenenter"",""0"",""11665""
","
","
","""event"",""trial"",""time""
""fullscreenenter"",""0"",""11665""
","
","null","run_exp/static/audio/clip_11_time_out.m4a","null","","","","","<div class='center'><p>If you don’t make your choice fast enough, you’ll have to wait a few seconds before you can make another one. </p><p><img src='run_exp/static/images/miscellaneous/hurry_up.png' height='500'></p></div>","","","","","","","","","","","","","","","","","",""
"","html-keyboard-response","37","180800","0.0-35.0-1.0","""event"",""trial"",""time""
""fullscreenenter"",""0"",""11665""
","
","
","""event"",""trial"",""time""
""fullscreenenter"",""0"",""11665""
","
","926.1999999880791","<div class='center'><p>If you don’t make your choice fast enough, you’ll have to wait a few seconds before you can make another one. </p><p><img src='run_exp/static/images/miscellaneous/hurry_up.png' height='500'></p><p><b>[Press the space bar to continue]</b></p></div>","32","","","","","","","","","","","","","","","","","","","","","","",""
"","instruc10","38","219904","0.0-35.0-2.0","""event"",""trial"",""time""
""fullscreenenter"",""0"",""11665""
","
","
","""event"",""trial"",""time""
""fullscreenenter"",""0"",""11665""
","
","null","run_exp/static/audio/clip_12_probe.m4a","null","","","","","<div class='center'><p>Once you've chosen a pirate, you’ll be shown the ship they are robbing. You will never rob the same ship twice. Ships can be told apart from one another by the image on them. These are the goods that they sell. See, this ship has a travel mug on it. </p><p> You’ll have to remember which island you saw each ship on. You will win more gold coins and hence more bonus money if you remember correctly! To help you remember, you can imagine a story. For example, here, you could imagine a mug full of water in the desert. Or, as another example, if on the forest island, your pirate robbed a ship with an apple on it, you could imagine an apple falling from a tree in the forest. </p><p><img src='run_exp/static/images/tutorial/example_probe.png' height='500'></p></div>","","","","","","","","","","","","","","","","","",""
"","html-keyboard-response","39","220772","0.0-35.0-3.0","""event"",""trial"",""time""
""fullscreenenter"",""0"",""11665""
","
","
","""event"",""trial"",""time""
""fullscreenenter"",""0"",""11665""
","
","867.2999999970198","<div class='center'><p>Once you've chosen a pirate, you’ll be shown the ship they are robbing. You will never rob the same ship twice. Ships can be told apart from one another by the image on them. These are the goods that they sell. See, this ship has a travel mug on it. </p><p> You’ll have to remember which island you saw each ship on. You will win more gold coins and hence more bonus money if you remember correctly! To help you remember, you can imagine a story. For example, here, you could imagine a mug full of water in the desert. Or, as another example, if on the forest island, your pirate robbed a ship with an apple on it, you could imagine an apple falling from a tree in the forest. </p><p><img src='run_exp/static/images/tutorial/example_probe.png' height='500'></p><p><b>[Press the space bar to continue]</b></p></div>","32","","","","","","","","","","","","","","","","","","","","","","",""
"","instruc11","40","237179","0.0-35.0-4.0","""event"",""trial"",""time""
""fullscreenenter"",""0"",""11665""
","
","
","""event"",""trial"",""time""
""fullscreenenter"",""0"",""11665""
","
","null","run_exp/static/audio/clip_13_changepoint.m4a","null","","","","","<div class='center'><p>How successful a pirate is at robbing ships will depend on the island you’re on.</p><p> A pirate may have visited this island many times before and gained a lot of practice robbing ships there.</p><p>So, they’re more likely to be successful than a pirate who has never visited the island before.</p></div>","","","","","","","","","","","","","","","","","",""
"","html-keyboard-response","41","238183","0.0-35.0-5.0","""event"",""trial"",""time""
""fullscreenenter"",""0"",""11665""
","
","
","""event"",""trial"",""time""
""fullscreenenter"",""0"",""11665""
","
","1002.5","<div class='center'><p>How successful a pirate is at robbing ships will depend on the island you’re on.</p><p> A pirate may have visited this island many times before and gained a lot of practice robbing ships there.</p><p>So, they’re more likely to be successful than a pirate who has never visited the island before.</p><p><b>[Press the space bar to continue]</b></p></div>","32","","","","","","","","","","","","","","","","","","","","","","",""
"","instruc12","42","279277","0.0-35.0-6.0","""event"",""trial"",""time""
""fullscreenenter"",""0"",""11665""
","
","
","""event"",""trial"",""time""
""fullscreenenter"",""0"",""11665""
","
","null","run_exp/static/audio/clip_14_drift.m4a","null","","","","","<div class='center'><p>How successful a pirate is at robbing ships can also change over the time spent on the island. </p><p> Ships may hear from islanders about the pirates coming and will improve their protections against the attack. This may make it harder to rob them.</p><p> Ships may also become lazy and weaken the strength of their protections. This may make it easier to rob them.</p><br><p>Things are always changing on the high seas! So, try your best to pay attention!</p><p><img src='run_exp/static/images/tutorial/contingency.png' height='500'></p></div>","","","","","","","","","","","","","","","","","",""
"","html-keyboard-response","43","284902","0.0-35.0-7.0","""event"",""trial"",""time""
""fullscreenenter"",""0"",""11665""
","
","
","""event"",""trial"",""time""
""fullscreenenter"",""0"",""11665""
","
","5623.79999999702","<div class='center'><p>How successful a pirate is at robbing ships can also change over the time spent on the island. </p><p> Ships may hear from islanders about the pirates coming and will improve their protections against the attack. This may make it harder to rob them.</p><p> Ships may also become lazy and weaken the strength of their protections. This may make it easier to rob them.</p><br><p>Things are always changing on the high seas! So, try your best to pay attention!</p><p><img src='run_exp/static/images/tutorial/contingency.png' height='500'></p><p><b>[Press the space bar to continue]</b></p></div>","32","","","","","","","","","","","","","","","","","","","","","","",""
"","instruc13","44","320098","0.0-35.0-8.0","""event"",""trial"",""time""
""fullscreenenter"",""0"",""11665""
","
","
","""event"",""trial"",""time""
""fullscreenenter"",""0"",""11665""
","
","null","run_exp/static/audio/clip_15_summary.m4a","null","","","","","<div class='center'><p>Let's go over the instructions quickly again. You have two important things to do: </p><b><p> 1. Pick the pirate who is the best at robbing ships on the current island. </p></b><b><p> 2. Remember on which island a ship was robbed.</p> </b><p>The amount of bonus money you can win depends on both.</p><p><br><p>Let’s try a practice game. The game will start by showing you the pirates. First, pick a pirate using the <b> 1, 2, 3 </b> keys on your keyboard. When you are shown a ship, try to remember which island you’re on by making up a story.</p><p>This is just a practice game, so you’re not playing for money. </p><p> Good luck! This game will be very difficult but try your best!</p></div>","","","","","","","","","","","","","","","","","",""
"","html-keyboard-response","45","320928","0.0-35.0-9.0","""event"",""trial"",""time""
""fullscreenenter"",""0"",""11665""
","
","
","""event"",""trial"",""time""
""fullscreenenter"",""0"",""11665""
","
","829.2999999970198","<div class='center'><p>Let's go over the instructions quickly again. You have two important things to do: </p><b><p> 1. Pick the pirate who is the best at robbing ships on the current island. </p></b><b><p> 2. Remember on which island a ship was robbed.</p> </b><p>The amount of bonus money you can win depends on both.</p><p><br><p>Let’s try a practice game. The game will start by showing you the pirates. First, pick a pirate using the <b> 1, 2, 3 </b> keys on your keyboard. When you are shown a ship, try to remember which island you’re on by making up a story.</p><p>This is just a practice game, so you’re not playing for money. </p><p> Good luck! This game will be very difficult but try your best!</p><p><b>[Press the space bar to continue]</b></p></div>","32","","","","","","","","","","","","","","","","","","","","","","",""
"","do_welcome","46","324937","0.0-35.0-10.0","""event"",""trial"",""time""
""fullscreenenter"",""0"",""11665""
","
","
","""event"",""trial"",""time""
""fullscreenenter"",""0"",""11665""
","
","null","","","","","","","","null","","","","","","","","","","","","","","","","",""
"","do_trial","47","331298","0.0-35.0-11.0","""event"",""trial"",""time""
""fullscreenenter"",""0"",""11665""
","
","
","""event"",""trial"",""time""
""fullscreenenter"",""0"",""11665""
","
","1856.300000011921","","","","","","","","50","1,0,0","","","","","","","","","","","","","","","",""
"","html-keyboard-response","48","332302","0.0-36.0-0.0","""event"",""trial"",""time""
""fullscreenenter"",""0"",""11665""
","
","
","""event"",""trial"",""time""
""fullscreenenter"",""0"",""11665""
","
","null","<p></p>","null","","","","","","","","","","","","","","","","","","","","","","",""
"","do_trial","49","338777","0.0-36.0-1.0","""event"",""trial"",""time""
""fullscreenenter"",""0"",""11665""
","
","
","""event"",""trial"",""time""
""fullscreenenter"",""0"",""11665""
","
","1968.5999999940395","","","","","","","","50","1,1,0","","","","","","","","","","","","","","","",""
"","html-keyboard-response","50","339780","0.0-37.0-0.0","""event"",""trial"",""time""
""fullscreenenter"",""0"",""11665""
","
","
","""event"",""trial"",""time""
""fullscreenenter"",""0"",""11665""
","
","null","<p></p>","null","","","","","","","","","","","","","","","","","","","","","","",""
"","do_trial","51","346060","0.0-37.0-1.0","""event"",""trial"",""time""
""fullscreenenter"",""0"",""11665""
","
","
","""event"",""trial"",""time""
""fullscreenenter"",""0"",""11665""
","
","1774.2999999970198","","","","","","","","50","1,0,1","","","","","","","","","","","","","","","",""
"","html-keyboard-response","52","347065","0.0-38.0-0.0","""event"",""trial"",""time""
""fullscreenenter"",""0"",""11665""
","
","
","""event"",""trial"",""time""
""fullscreenenter"",""0"",""11665""
","
","null","<p></p>","null","","","","","","","","","","","","","","","","","","","","","","",""
"","do_trial","53","352203","0.0-38.0-1.0","""event"",""trial"",""time""
""fullscreenenter"",""0"",""11665""
","
","
","""event"",""trial"",""time""
""fullscreenenter"",""0"",""11665""
","
","631","","","","","","","","49","0,1,0","","","","","","","","","","","","","","","",""
"","html-keyboard-response","54","353207","0.0-39.0-0.0","""event"",""trial"",""time""
""fullscreenenter"",""0"",""11665""
","
","
","""event"",""trial"",""time""
""fullscreenenter"",""0"",""11665""
","
","null","<p></p>","null","","","","","","","","","","","","","","","","","","","","","","",""
"","do_trial","55","358097","0.0-39.0-1.0","""event"",""trial"",""time""
""fullscreenenter"",""0"",""11665""
","
","
","""event"",""trial"",""time""
""fullscreenenter"",""0"",""11665""
","
","379.3999999910593","","","","","","","","49","1,0,0","","","","","","","","","","","","","","","",""
"","do_bye","56","359605","0.0-40.0-0.0","""event"",""trial"",""time""
""fullscreenenter"",""0"",""11665""
","
","
","""event"",""trial"",""time""
""fullscreenenter"",""0"",""11665""
","
","null","","","","","","","","null","","","","","","","","","","","","","","","","",""
"","do_travel","57","368609","0.0-40.0-1.0","""event"",""trial"",""time""
""fullscreenenter"",""0"",""11665""
","
","
","""event"",""trial"",""time""
""fullscreenenter"",""0"",""11665""
","
","null","","","","","","","","null","","","","","","","","","","","","","","","","",""
"","do_welcome","58","372616","0.0-40.0-2.0","""event"",""trial"",""time""
""fullscreenenter"",""0"",""11665""
","
","
","""event"",""trial"",""time""
""fullscreenenter"",""0"",""11665""
","
","null","","","","","","","","null","","","","","","","","","","","","","","","","",""
"","do_trial","59","378804","0.0-40.0-3.0","""event"",""trial"",""time""
""fullscreenenter"",""0"",""11665""
","
","
","""event"",""trial"",""time""
""fullscreenenter"",""0"",""11665""
","
","1680.2000000029802","","","","","","","","51","1,0,0","","","","","","","","","","","","","","","",""
"","html-keyboard-response","60","379807","0.0-41.0-0.0","""event"",""trial"",""time""
""fullscreenenter"",""0"",""11665""
","
","
","""event"",""trial"",""time""
""fullscreenenter"",""0"",""11665""
","
","null","<p></p>","null","","","","","","","","","","","","","","","","","","","","","","",""
"","do_trial","61","386408","0.0-41.0-1.0","""event"",""trial"",""time""
""fullscreenenter"",""0"",""11665""
","
","
","""event"",""trial"",""time""
""fullscreenenter"",""0"",""11665""
","
","2091.199999988079","","","","","","","","51","1,0,1","","","","","","","","","","","","","","","",""
"","html-keyboard-response","62","387409","0.0-42.0-0.0","""event"",""trial"",""time""
""fullscreenenter"",""0"",""11665""
","
","
","""event"",""trial"",""time""
""fullscreenenter"",""0"",""11665""
","
","null","<p></p>","null","","","","","","","","","","","","","","","","","","","","","","",""
"","do_trial","63","393437","0.0-42.0-1.0","""event"",""trial"",""time""
""fullscreenenter"",""0"",""11665""
","
","
","""event"",""trial"",""time""
""fullscreenenter"",""0"",""11665""
","
","1520.5","","","","","","","","51","1,1,0","","","","","","","","","","","","","","","",""
"","html-keyboard-response","64","394440","0.0-43.0-0.0","""event"",""trial"",""time""
""fullscreenenter"",""0"",""11665""
","
","
","""event"",""trial"",""time""
""fullscreenenter"",""0"",""11665""
","
","null","<p></p>","null","","","","","","","","","","","","","","","","","","","","","","",""
"","do_trial","65","399383","0.0-43.0-1.0","""event"",""trial"",""time""
""fullscreenenter"",""0"",""11665""
","
","
","""event"",""trial"",""time""
""fullscreenenter"",""0"",""11665""
","
","433.5","","","","","","","","50","0,0,1","","","","","","","","","","","","","","","",""
"","html-keyboard-response","66","400386","0.0-44.0-0.0","""event"",""trial"",""time""
""fullscreenenter"",""0"",""11665""
","
","
","""event"",""trial"",""time""
""fullscreenenter"",""0"",""11665""
","
","null","<p></p>","null","","","","","","","","","","","","","","","","","","","","","","",""
"","do_trial","67","405223","0.0-44.0-1.0","""event"",""trial"",""time""
""fullscreenenter"",""0"",""11665""
","
","
","""event"",""trial"",""time""
""fullscreenenter"",""0"",""11665""
","
","330.5","","","","","","","","50","1,0,1","","","","","","","","","","","","","","","",""
"","html-keyboard-response","68","411769","0.0-45.0-0.0","""event"",""trial"",""time""
""fullscreenenter"",""0"",""11665""
","
","
","""event"",""trial"",""time""
""fullscreenenter"",""0"",""11665""
","
","6543.9000000059605","<div class='center'><p><img src='run_exp/static/images/tutorial/prac_best_pirate.png'  height='500'></p></div>","49","","","","","","","","","","","","","","","","","","","","","","",""
"","html-keyboard-response","69","413356","0.0-46.0-0.0","""event"",""trial"",""time""
""fullscreenenter"",""0"",""11665""
","
","
","""event"",""trial"",""time""
""fullscreenenter"",""0"",""11665""
","
","1585.699999988079","<div class='center'><p>That's correct! Red beard was the best.</p><p><b>[Press the space bar to continue]</b></p></div>","32","","","","","","","","","","","","","","","","","","","","","","",""
"","html-keyboard-response","70","416961","0.0-46.0-1.0","""event"",""trial"",""time""
""fullscreenenter"",""0"",""11665""
","
","
","""event"",""trial"",""time""
""fullscreenenter"",""0"",""11665""
","
","3604.1000000089407","<div class='center'><p><img src='run_exp/static/images/tutorial/prac_source.png'  height='500'></p></div>","50","","","","","","","","","","","","","","","","","","","","","","",""
"","html-keyboard-response","71","418120","0.0-47.0-0.0","""event"",""trial"",""time""
""fullscreenenter"",""0"",""11665""
","
","
","""event"",""trial"",""time""
""fullscreenenter"",""0"",""11665""
","
","1158.199999988079","<div class='center'><p>That's correct! You saw this ship on the cavern island.</p><p><b>[Press the space bar to continue]</b></p></div>","32","","","","","","","","","","","","","","","","","","","","","","",""
"","quiz_beginning","72","429425","0.0-47.0-1.0","""event"",""trial"",""time""
""fullscreenenter"",""0"",""11665""
","
","
","""event"",""trial"",""time""
""fullscreenenter"",""0"",""11665""
","
","null","run_exp/static/audio/clip_16_quiz_intro.m4a","null","","","","","<div class='center'><p>Good job on the practice game! Now, you will be asked some true or false questions to make sure you really understand the rules of the game.</p><p> Press <b>'1'</b> on the keyboard for true and press <b>'2'</b> for false.</p></div>","","","","","","","","","","","","","","","","","",""
"","audio-keyboard-response","73","433567","0.0-47.0-2.0","""event"",""trial"",""time""
""fullscreenenter"",""0"",""11665""
","
","
","""event"",""trial"",""time""
""fullscreenenter"",""0"",""11665""
","
","4140.29999999702","run_exp/static/audio/clip_17_q1.m4a","49","","","","","","","","","","","","","","","","","","","","","","",""
"","correct","74","435973","0.0-48.0-0.0","""event"",""trial"",""time""
""fullscreenenter"",""0"",""11665""
","
","
","""event"",""trial"",""time""
""fullscreenenter"",""0"",""11665""
","
","null","run_exp/static/audio/clip_18_correct.m4a","null","","","","","<div class='center'><p>That's correct!</p></div>","","","","","","","","","","","","","","","","","",""
"","html-keyboard-response","75","436940","0.0-48.0-1.0","""event"",""trial"",""time""
""fullscreenenter"",""0"",""11665""
","
","
","""event"",""trial"",""time""
""fullscreenenter"",""0"",""11665""
","
","966.5","<div class='center'><p>That's correct!</p><p><b>[Press the space bar to continue]</b></p></div>","32","","","","","","","","","","","","","","","","","","","","","","",""
"","audio-keyboard-response","76","445749","0.0-48.0-2.0","""event"",""trial"",""time""
""fullscreenenter"",""0"",""11665""
","
","
","""event"",""trial"",""time""
""fullscreenenter"",""0"",""11665""
","
","8807.39999999106","run_exp/static/audio/clip_20_q2.m4a","50","","","","","","","","","","","","","","","","","","","","","","",""
"","correct","77","448163","0.0-49.0-0.0","""event"",""trial"",""time""
""fullscreenenter"",""0"",""11665""
","
","
","""event"",""trial"",""time""
""fullscreenenter"",""0"",""11665""
","
","null","run_exp/static/audio/clip_18_correct.m4a","null","","","","","<div class='center'><p>That's correct!</p></div>","","","","","","","","","","","","","","","","","",""
"","html-keyboard-response","78","448804","0.0-49.0-1.0","""event"",""trial"",""time""
""fullscreenenter"",""0"",""11665""
","
","
","""event"",""trial"",""time""
""fullscreenenter"",""0"",""11665""
","
","639.6000000089407","<div class='center'><p>That's correct!</p><p><b>[Press the space bar to continue]</b></p></div>","32","","","","","","","","","","","","","","","","","","","","","","",""
"","audio-keyboard-response","79","456678","0.0-49.0-2.0","""event"",""trial"",""time""
""fullscreenenter"",""0"",""11665""
","
","
","""event"",""trial"",""time""
""fullscreenenter"",""0"",""11665""
","
","7872.9000000059605","run_exp/static/audio/clip_22_q3.m4a","50","","","","","","","","","","","","","","","","","","","","","","",""
"","correct","80","459077","0.0-50.0-0.0","""event"",""trial"",""time""
""fullscreenenter"",""0"",""11665""
","
","
","""event"",""trial"",""time""
""fullscreenenter"",""0"",""11665""
","
","null","run_exp/static/audio/clip_18_correct.m4a","null","","","","","<div class='center'><p>That's correct!</p></div>","","","","","","","","","","","","","","","","","",""
"","html-keyboard-response","81","460014","0.0-50.0-1.0","""event"",""trial"",""time""
""fullscreenenter"",""0"",""11665""
","
","
","""event"",""trial"",""time""
""fullscreenenter"",""0"",""11665""
","
","936.5999999940395","<div class='center'><p>That's correct!</p><p><b>[Press the space bar to continue]</b></p></div>","32","","","","","","","","","","","","","","","","","","","","","","",""
"","audio-keyboard-response","82","465715","0.0-50.0-2.0","""event"",""trial"",""time""
""fullscreenenter"",""0"",""11665""
","
","
","""event"",""trial"",""time""
""fullscreenenter"",""0"",""11665""
","
","5700.199999988079","run_exp/static/audio/clip_24_q4.m4a","49","","","","","","","","","","","","","","","","","","","","","","",""
"","correct","83","468156","0.0-51.0-0.0","""event"",""trial"",""time""
""fullscreenenter"",""0"",""11665""
","
","
","""event"",""trial"",""time""
""fullscreenenter"",""0"",""11665""
","
","null","run_exp/static/audio/clip_18_correct.m4a","null","","","","","<div class='center'><p>That's correct!</p></div>","","","","","","","","","","","","","","","","","",""
"","html-keyboard-response","84","469078","0.0-51.0-1.0","""event"",""trial"",""time""
""fullscreenenter"",""0"",""11665""
","
","
","""event"",""trial"",""time""
""fullscreenenter"",""0"",""11665""
","
","921.2000000029802","<div class='center'><p>That's correct!</p><p><b>[Press the space bar to continue]</b></p></div>","32","","","","","","","","","","","","","","","","","","","","","","",""
"","q_all_corr","85","477584","0.0-52.0-0.0","""event"",""trial"",""time""
""fullscreenenter"",""0"",""11665""
","
","
","""event"",""trial"",""time""
""fullscreenenter"",""0"",""11665""
","
","null","run_exp/static/audio/clip_27_quiz_all_correct.m4a","null","","","","","<div class='center'><p>Good job! You’re now ready to move on to the real game! Remember this game will be difficult but don't get discouraged and try your best!</p></div>","","","","","","","","","","","","","","","","","",""
"","html-keyboard-response","86","478431","0.0-52.0-1.0","""event"",""trial"",""time""
""fullscreenenter"",""0"",""11665""
","
","
","""event"",""trial"",""time""
""fullscreenenter"",""0"",""11665""
","
","846.5","<div class='center'><p>Good job! You’re now ready to move on to the real game! Remember this game will be difficult but don't get discouraged and try your best!</p><p><b>[Press the space bar to continue]</b></p></div>","32","","","","","","","","","","","","","","","","","","","","","","",""
"","do_welcome","87","482437","0.0-53.0-0.0","""event"",""trial"",""time""
""fullscreenenter"",""0"",""11665""
","
","
","""event"",""trial"",""time""
""fullscreenenter"",""0"",""11665""
","
","null","","","","","","","","null","","","","","","","","","","","","","","","","",""
"","do_trial","88","488505","0.0-54.0-0.0","""event"",""trial"",""time""
""fullscreenenter"",""0"",""11665""
","
","
","""event"",""trial"",""time""
""fullscreenenter"",""0"",""11665""
","
","null","","","","","","","","null","1,0,0","0","coast","0","probe-48","0.6","0.3","0.1","","","","","","","","",""
"","html-keyboard-response","89","489509","0.0-54.0-1.0","""event"",""trial"",""time""
""fullscreenenter"",""0"",""11665""
","
","
","""event"",""trial"",""time""
""fullscreenenter"",""0"",""11665""
","
","null","<p></p>","null","","","","","","","","","","","","","","","","","","","","","","",""
"","do_trial","90","494687","0.0-55.0-0.0","""event"",""trial"",""time""
""fullscreenenter"",""0"",""11665""
","
","
","""event"",""trial"",""time""
""fullscreenenter"",""0"",""11665""
","
","627.6999999880791","","","","","","","","49","1,1,0","0","coast","1","probe-214","0.7088078051571701","0.5506145387156139","0.15555230400708975","1","","","","","","","",""
"","html-keyboard-response","91","495691","0.0-55.0-1.0","""event"",""trial"",""time""
""fullscreenenter"",""0"",""11665""
","
","
","""event"",""trial"",""time""
""fullscreenenter"",""0"",""11665""
","
","null","<p></p>","null","","","","","","","","","","","","","","","","","","","","","","",""
"","do_trial","92","500695","0.0-56.0-0.0","""event"",""trial"",""time""
""fullscreenenter"",""0"",""11665""
","
","
","""event"",""trial"",""time""
""fullscreenenter"",""0"",""11665""
","
","452.19999998807907","","","","","","","","49","1,0,1","0","coast","2","probe-212","0.6264129031193388","0.43177162551220105","0.3021492760512974","1","","","","","","","",""
"","html-keyboard-response","93","501699","0.0-56.0-1.0","""event"",""trial"",""time""
""fullscreenenter"",""0"",""11665""
","
","
","""event"",""trial"",""time""
""fullscreenenter"",""0"",""11665""
","
","null","<p></p>","null","","","","","","","","","","","","","","","","","","","","","","",""
"","do_trial","94","506608","0.0-57.0-0.0","""event"",""trial"",""time""
""fullscreenenter"",""0"",""11665""
","
","
","""event"",""trial"",""time""
""fullscreenenter"",""0"",""11665""
","
","366","","","","","","","","49","0,1,0","0","coast","3","probe-191","0.7121676388528139","0.42177718159372013","0.3856200573551537","0","","","","","","","",""
"","html-keyboard-response","95","507614","0.0-57.0-1.0","""event"",""trial"",""time""
""fullscreenenter"",""0"",""11665""
","
","
","""event"",""trial"",""time""
""fullscreenenter"",""0"",""11665""
","
","null","<p></p>","null","","","","","","","","","","","","","","","","","","","","","","",""
"","do_trial","96","512777","0.0-58.0-0.0","""event"",""trial"",""time""
""fullscreenenter"",""0"",""11665""
","
","
","""event"",""trial"",""time""
""fullscreenenter"",""0"",""11665""
","
","617.4000000059605","","","","","","","","50","0,0,0","0","coast","4","probe-211","0.5213089022503655","0.4542418385067186","0.28438465964862003","0","","","","","","","",""
"","html-keyboard-response","97","513780","0.0-58.0-1.0","""event"",""trial"",""time""
""fullscreenenter"",""0"",""11665""
","
","
","""event"",""trial"",""time""
""fullscreenenter"",""0"",""11665""
","
","null","<p></p>","null","","","","","","","","","","","","","","","","","","","","","","",""
"","do_trial","98","518844","0.0-59.0-0.0","""event"",""trial"",""time""
""fullscreenenter"",""0"",""11665""
","
","
","""event"",""trial"",""time""
""fullscreenenter"",""0"",""11665""
","
","519.2000000029802","","","","","","","","51","1,0,0","0","coast","5","probe-95","0.5771373668621875","0.26766563853387004","0.0765565836837008","0","","","","","","","",""
"","html-keyboard-response","99","519848","0.0-59.0-1.0","""event"",""trial"",""time""
""fullscreenenter"",""0"",""11665""
","
","
","""event"",""trial"",""time""
""fullscreenenter"",""0"",""11665""
","
","null","<p></p>","null","","","","","","","","","","","","","","","","","","","","","","",""
"","do_trial","100","524929","0.0-60.0-0.0","""event"",""trial"",""time""
""fullscreenenter"",""0"",""11665""
","
","
","""event"",""trial"",""time""
""fullscreenenter"",""0"",""11665""
","
","533.3999999910593","","","","","","","","49","1,0,0","0","coast","6","probe-98","0.4714659253512576","0.18357868433684682","0.09859274526910831","1","","","","","","","",""
"","html-keyboard-response","101","525934","0.0-60.0-1.0","""event"",""trial"",""time""
""fullscreenenter"",""0"",""11665""
","
","
","""event"",""trial"",""time""
""fullscreenenter"",""0"",""11665""
","
","null","<p></p>","null","","","","","","","","","","","","","","","","","","","","","","",""
"","do_trial","102","531302","0.0-61.0-0.0","""event"",""trial"",""time""
""fullscreenenter"",""0"",""11665""
","
","
","""event"",""trial"",""time""
""fullscreenenter"",""0"",""11665""
","
","823","","","","","","","","49","1,0,0","0","coast","7","probe-155","0.49775691667736915","0.19401762402103762","0.0669277486548388","1","","","","","","","",""
"","html-keyboard-response","103","532306","0.0-61.0-1.0","""event"",""trial"",""time""
""fullscreenenter"",""0"",""11665""
","
","
","""event"",""trial"",""time""
""fullscreenenter"",""0"",""11665""
","
","null","<p></p>","null","","","","","","","","","","","","","","","","","","","","","","",""
"","do_trial","104","537489","0.0-62.0-0.0","""event"",""trial"",""time""
""fullscreenenter"",""0"",""11665""
","
","
","""event"",""trial"",""time""
""fullscreenenter"",""0"",""11665""
","
","638.2000000029802","","","","","","","","49","1,0,0","0","coast","8","probe-23","0.637424807601632","0.18513236635828229","0.0853188258539119","1","","","","","","","",""
"","html-keyboard-response","105","538493","0.0-62.0-1.0","""event"",""trial"",""time""
""fullscreenenter"",""0"",""11665""
","
","
","""event"",""trial"",""time""
""fullscreenenter"",""0"",""11665""
","
","null","<p></p>","null","","","","","","","","","","","","","","","","","","","","","","",""
"","do_trial","106","543731","0.0-63.0-0.0","""event"",""trial"",""time""
""fullscreenenter"",""0"",""11665""
","
","
","""event"",""trial"",""time""
""fullscreenenter"",""0"",""11665""
","
","694.5","","","","","","","","49","1,0,0","0","coast","9","probe-93","0.6218733579875305","0.24223931865327508","0.05303448305832657","1","","","","","","","",""
"","html-keyboard-response","107","544734","0.0-63.0-1.0","""event"",""trial"",""time""
""fullscreenenter"",""0"",""11665""
","
","
","""event"",""trial"",""time""
""fullscreenenter"",""0"",""11665""
","
","null","<p></p>","null","","","","","","","","","","","","","","","","","","","","","","",""
"","do_trial","108","549797","0.0-64.0-0.0","""event"",""trial"",""time""
""fullscreenenter"",""0"",""11665""
","
","
","""event"",""trial"",""time""
""fullscreenenter"",""0"",""11665""
","
","521.1999999880791","","","","","","","","49","0,1,0","0","coast","10","probe-18","0.5277001089109699","0.2139685967325449","0.05305000459200723","0","","","","","","","",""
"","html-keyboard-response","109","550800","0.0-64.0-1.0","""event"",""trial"",""time""
""fullscreenenter"",""0"",""11665""
","
","
","""event"",""trial"",""time""
""fullscreenenter"",""0"",""11665""
","
","null","<p></p>","null","","","","","","","","","","","","","","","","","","","","","","",""
"","do_trial","110","555950","0.0-65.0-0.0","""event"",""trial"",""time""
""fullscreenenter"",""0"",""11665""
","
","
","""event"",""trial"",""time""
""fullscreenenter"",""0"",""11665""
","
","609.5","","","","","","","","49","1,0,0","0","coast","11","probe-156","0.3848729986284732","0.3478552235007956","0.11620039187935202","1","","","","","","","",""
"","html-keyboard-response","111","556953","0.0-65.0-1.0","""event"",""trial"",""time""
""fullscreenenter"",""0"",""11665""
","
","
","""event"",""trial"",""time""
""fullscreenenter"",""0"",""11665""
","
","null","<p></p>","null","","","","","","","","","","","","","","","","","","","","","","",""
"","do_trial","112","562432","0.0-66.0-0.0","""event"",""trial"",""time""
""fullscreenenter"",""0"",""11665""
","
","
","""event"",""trial"",""time""
""fullscreenenter"",""0"",""11665""
","
","931.5","","","","","","","","49","0,1,0","0","coast","12","probe-184","0.6130281074156845","0.34305988208250027","0.21175599777137527","0","","","","","","","",""
"","html-keyboard-response","113","563437","0.0-66.0-1.0","""event"",""trial"",""time""
""fullscreenenter"",""0"",""11665""
","
","
","""event"",""trial"",""time""
""fullscreenenter"",""0"",""11665""
","
","null","<p></p>","null","","","","","","","","","","","","","","","","","","","","","","",""
"","do_trial","114","568371","0.0-67.0-0.0","""event"",""trial"",""time""
""fullscreenenter"",""0"",""11665""
","
","
","""event"",""trial"",""time""
""fullscreenenter"",""0"",""11665""
","
","389.8999999910593","","","","","","","","49","1,0,1","0","coast","13","probe-10","0.723268322492292","0.21948193466252278","0.33037441932752787","1","","","","","","","",""
"","html-keyboard-response","115","569375","0.0-67.0-1.0","""event"",""trial"",""time""
""fullscreenenter"",""0"",""11665""
","
","
","""event"",""trial"",""time""
""fullscreenenter"",""0"",""11665""
","
","null","<p></p>","null","","","","","","","","","","","","","","","","","","","","","","",""
"","do_trial","116","574565","0.0-68.0-0.0","""event"",""trial"",""time""
""fullscreenenter"",""0"",""11665""
","
","
","""event"",""trial"",""time""
""fullscreenenter"",""0"",""11665""
","
","646.2000000029802","","","","","","","","49","0,0,1","0","coast","14","probe-125","0.5595110700072368","0.2006194924032731","0.2820577162150037","0","","","","","","","",""
"","html-keyboard-response","117","575569","0.0-68.0-1.0","""event"",""trial"",""time""
""fullscreenenter"",""0"",""11665""
","
","
","""event"",""trial"",""time""
""fullscreenenter"",""0"",""11665""
","
","null","<p></p>","null","","","","","","","","","","","","","","","","","","","","","","",""
"","do_trial","118","580841","0.0-69.0-0.0","""event"",""trial"",""time""
""fullscreenenter"",""0"",""11665""
","
","
","""event"",""trial"",""time""
""fullscreenenter"",""0"",""11665""
","
","728.2999999970198","","","","","","","","49","1,0,0","0","coast","15","probe-15","0.5889108874362624","0.26945357655451835","0.2952032299563792","1","","","","","","","",""
"","html-keyboard-response","119","581844","0.0-69.0-1.0","""event"",""trial"",""time""
""fullscreenenter"",""0"",""11665""
","
","
","""event"",""trial"",""time""
""fullscreenenter"",""0"",""11665""
","
","null","<p></p>","null","","","","","","","","","","","","","","","","","","","","","","",""
"","do_trial","120","586778","0.0-70.0-0.0","""event"",""trial"",""time""
""fullscreenenter"",""0"",""11665""
","
","
","""event"",""trial"",""time""
""fullscreenenter"",""0"",""11665""
","
","373.70000000298023","","","","","","","","49","0,0,0","0","coast","16","probe-118","0.4562675617891047","0.1673224067290048","0.21120402353926623","0","","","","","","","",""
"","html-keyboard-response","121","587781","0.0-70.0-1.0","""event"",""trial"",""time""
""fullscreenenter"",""0"",""11665""
","
","
","""event"",""trial"",""time""
""fullscreenenter"",""0"",""11665""
","
","null","<p></p>","null","","","","","","","","","","","","","","","","","","","","","","",""
"","do_trial","122","592923","0.0-71.0-0.0","""event"",""trial"",""time""
""fullscreenenter"",""0"",""11665""
","
","
","""event"",""trial"",""time""
""fullscreenenter"",""0"",""11665""
","
","602","","","","","","","","50","1,0,1","0","coast","17","probe-153","0.51385372232727","0.26997103245329734","0.25567903780415063","0","","","","","","","",""
"","html-keyboard-response","123","593926","0.0-71.0-1.0","""event"",""trial"",""time""
""fullscreenenter"",""0"",""11665""
","
","
","""event"",""trial"",""time""
""fullscreenenter"",""0"",""11665""
","
","null","<p></p>","null","","","","","","","","","","","","","","","","","","","","","","",""
"","do_trial","124","598787","0.0-72.0-0.0","""event"",""trial"",""time""
""fullscreenenter"",""0"",""11665""
","
","
","""event"",""trial"",""time""
""fullscreenenter"",""0"",""11665""
","
","318.20000000298023","","","","","","","","51","1,0,0","0","coast","18","probe-219","0.6805766003271334","0.2832032008031301","0.12350118745875702","0","","","","","","","",""
"","html-keyboard-response","125","599791","0.0-72.0-1.0","""event"",""trial"",""time""
""fullscreenenter"",""0"",""11665""
","
","
","""event"",""trial"",""time""
""fullscreenenter"",""0"",""11665""
","
","null","<p></p>","null","","","","","","","","","","","","","","","","","","","","","","",""
"","do_trial","126","604652","0.0-73.0-0.0","""event"",""trial"",""time""
""fullscreenenter"",""0"",""11665""
","
","
","""event"",""trial"",""time""
""fullscreenenter"",""0"",""11665""
","
","315.79999999701977","","","","","","","","49","1,1,1","0","coast","19","probe-70","0.7317710199519598","0.15137873746291428","0.19552560823590778","1","","","","","","","",""
"","html-keyboard-response","127","605656","0.0-73.0-1.0","""event"",""trial"",""time""
""fullscreenenter"",""0"",""11665""
","
","
","""event"",""trial"",""time""
""fullscreenenter"",""0"",""11665""
","
","null","<p></p>","null","","","","","","","","","","","","","","","","","","","","","","",""
"","do_trial","128","610977","0.0-74.0-0.0","""event"",""trial"",""time""
""fullscreenenter"",""0"",""11665""
","
","
","""event"",""trial"",""time""
""fullscreenenter"",""0"",""11665""
","
","775.0999999940395","","","","","","","","49","1,0,0","0","coast","20","probe-225","0.5542307667722958","0.23116231998581335","0.06687879495987238","1","","","","","","","",""
"","html-keyboard-response","129","611980","0.0-74.0-1.0","""event"",""trial"",""time""
""fullscreenenter"",""0"",""11665""
","
","
","""event"",""trial"",""time""
""fullscreenenter"",""0"",""11665""
","
","null","<p></p>","null","","","","","","","","","","","","","","","","","","","","","","",""
"","do_trial","130","617039","0.0-75.0-0.0","""event"",""trial"",""time""
""fullscreenenter"",""0"",""11665""
","
","
","""event"",""trial"",""time""
""fullscreenenter"",""0"",""11665""
","
","510.5","","","","","","","","49","1,0,1","0","coast","21","probe-103","0.48296803178411196","0.30112838032638145","0.07959917686778416","1","","","","","","","",""
"","html-keyboard-response","131","618040","0.0-75.0-1.0","""event"",""trial"",""time""
""fullscreenenter"",""0"",""11665""
","
","
","""event"",""trial"",""time""
""fullscreenenter"",""0"",""11665""
","
","null","<p></p>","null","","","","","","","","","","","","","","","","","","","","","","",""
"","do_trial","132","623396","0.0-76.0-0.0","""event"",""trial"",""time""
""fullscreenenter"",""0"",""11665""
","
","
","""event"",""trial"",""time""
""fullscreenenter"",""0"",""11665""
","
","813.3999999910593","","","","","","","","49","1,0,0","0","coast","22","probe-05","0.6123169776062345","0.25436010776596907","0.1502050986191237","1","","","","","","","",""
"","html-keyboard-response","133","624399","0.0-76.0-1.0","""event"",""trial"",""time""
""fullscreenenter"",""0"",""11665""
","
","
","""event"",""trial"",""time""
""fullscreenenter"",""0"",""11665""
","
","null","<p></p>","null","","","","","","","","","","","","","","","","","","","","","","",""
"","do_trial","134","629409","0.0-77.0-0.0","""event"",""trial"",""time""
""fullscreenenter"",""0"",""11665""
","
","
","""event"",""trial"",""time""
""fullscreenenter"",""0"",""11665""
","
","469.09999999403954","","","","","","","","49","1,0,1","0","coast","23","probe-14","0.5744312120144981","0.2901039230632762","0.15048037405678924","1","","","","","","","",""
"","html-keyboard-response","135","630414","0.0-77.0-1.0","""event"",""trial"",""time""
""fullscreenenter"",""0"",""11665""
","
","
","""event"",""trial"",""time""
""fullscreenenter"",""0"",""11665""
","
","null","<p></p>","null","","","","","","","","","","","","","","","","","","","","","","",""
"","do_trial","136","635008","0.0-78.0-0.0","""event"",""trial"",""time""
""fullscreenenter"",""0"",""11665""
","
","
","""event"",""trial"",""time""
""fullscreenenter"",""0"",""11665""
","
","44.5","","","","","","","","49","0,0,1","0","coast","24","probe-16","0.5037087632252135","0.4196737454875998","0.08096593662181643","0","","","","","","","",""
"","html-keyboard-response","137","636012","0.0-78.0-1.0","""event"",""trial"",""time""
""fullscreenenter"",""0"",""11665""
","
","
","""event"",""trial"",""time""
""fullscreenenter"",""0"",""11665""
","
","null","<p></p>","null","","","","","","","","","","","","","","","","","","","","","","",""
"","do_trial","138","641003","0.0-79.0-0.0","""event"",""trial"",""time""
""fullscreenenter"",""0"",""11665""
","
","
","""event"",""trial"",""time""
""fullscreenenter"",""0"",""11665""
","
","443.59999999403954","","","","","","","","49","0,0,0","0","coast","25","probe-221","0.5097481646618869","0.30519267887983936","0.07410323482296381","0","","","","","","","",""
"","html-keyboard-response","139","642007","0.0-79.0-1.0","""event"",""trial"",""time""
""fullscreenenter"",""0"",""11665""
","
","
","""event"",""trial"",""time""
""fullscreenenter"",""0"",""11665""
","
","null","<p></p>","null","","","","","","","","","","","","","","","","","","","","","","",""
"","do_trial","140","647030","0.0-80.0-0.0","""event"",""trial"",""time""
""fullscreenenter"",""0"",""11665""
","
","
","""event"",""trial"",""time""
""fullscreenenter"",""0"",""11665""
","
","472.70000000298023","","","","","","","","49","0,0,0","0","coast","26","probe-71","0.6479145608302043","0.2746208234726597","0.14948542859354957","0","","","","","","","",""
"","html-keyboard-response","141","648034","0.0-80.0-1.0","""event"",""trial"",""time""
""fullscreenenter"",""0"",""11665""
","
","
","""event"",""trial"",""time""
""fullscreenenter"",""0"",""11665""
","
","null","<p></p>","null","","","","","","","","","","","","","","","","","","","","","","",""
"","do_trial","142","653095","0.0-81.0-0.0","""event"",""trial"",""time""
""fullscreenenter"",""0"",""11665""
","
","
","""event"",""trial"",""time""
""fullscreenenter"",""0"",""11665""
","
","519.9000000059605","","","","","","","","50","1,0,1","0","coast","27","probe-50","0.701097166898079","0.26917562732631967","0.2682161272120495","0","","","","","","","",""
"","html-keyboard-response","143","654098","0.0-81.0-1.0","""event"",""trial"",""time""
""fullscreenenter"",""0"",""11665""
","
","
","""event"",""trial"",""time""
""fullscreenenter"",""0"",""11665""
","
","null","<p></p>","null","","","","","","","","","","","","","","","","","","","","","","",""
"","do_trial","144","659130","0.0-82.0-0.0","""event"",""trial"",""time""
""fullscreenenter"",""0"",""11665""
","
","
","""event"",""trial"",""time""
""fullscreenenter"",""0"",""11665""
","
","492","","","","","","","","51","1,1,0","0","coast","28","probe-04","0.7592102226161267","0.2660645917798542","0.16891892095819702","0","","","","","","","",""
"","html-keyboard-response","145","660133","0.0-82.0-1.0","""event"",""trial"",""time""
""fullscreenenter"",""0"",""11665""
","
","
","""event"",""trial"",""time""
""fullscreenenter"",""0"",""11665""
","
","null","<p></p>","null","","","","","","","","","","","","","","","","","","","","","","",""
"","do_trial","146","665540","0.0-83.0-0.0","""event"",""trial"",""time""
""fullscreenenter"",""0"",""11665""
","
","
","""event"",""trial"",""time""
""fullscreenenter"",""0"",""11665""
","
","846.8999999910593","","","","","","","","50","0,0,0","0","coast","29","probe-131","0.6120536033721462","0.18835448657168052","0.05347727638495574","0","","","","","","","",""
"","html-keyboard-response","147","666545","0.0-83.0-1.0","""event"",""trial"",""time""
""fullscreenenter"",""0"",""11665""
","
","
","""event"",""trial"",""time""
""fullscreenenter"",""0"",""11665""
","
","null","<p></p>","null","","","","","","","","","","","","","","","","","","","","","","",""
"","do_bye","148","668053","0.0-84.0-0.0","""event"",""trial"",""time""
""fullscreenenter"",""0"",""11665""
","
","
","""event"",""trial"",""time""
""fullscreenenter"",""0"",""11665""
","
","null","","","","","","","","null","","","","","","","","","","","","","","","","",""
"","break","149","679074","0.0-84.0-1.0","""event"",""trial"",""time""
""fullscreenenter"",""0"",""11665""
","
","
","""event"",""trial"",""time""
""fullscreenenter"",""0"",""11665""
","
","11019.5","<div class='center'><p>Time to take a quick break! You have 2 minutes to rest, but you can move on sooner if you'd like.</p><p> Press the <b>space bar</b> to continue.</p></div>","32","","","","","","","","","","","","","","","","","","","","","","",""
"","do_travel","150","688081","0.0-85.0-0.0","""event"",""trial"",""time""
""fullscreenenter"",""0"",""11665""
","
","
","""event"",""trial"",""time""
""fullscreenenter"",""0"",""11665""
","
","null","","","","","","","","null","","","","","","","","","","","","","","","","",""
"","do_welcome","151","692087","0.0-85.0-1.0","""event"",""trial"",""time""
""fullscreenenter"",""0"",""11665""
","
","
","""event"",""trial"",""time""
""fullscreenenter"",""0"",""11665""
","
","null","","","","","","","","null","","","","","","","","","","","","","","","","",""
"","do_trial","152","697559","0.0-86.0-0.0","""event"",""trial"",""time""
""fullscreenenter"",""0"",""11665""
","
","
","""event"",""trial"",""time""
""fullscreenenter"",""0"",""11665""
","
","928.7000000029802","","","","","","","","51","1,0,0","1","mountain","30","probe-120","1","0.15330270803997537","0.12147664929752389","0","","","","","","","",""
"","html-keyboard-response","153","698563","0.0-86.0-1.0","""event"",""trial"",""time""
""fullscreenenter"",""0"",""11665""
","
","
","""event"",""trial"",""time""
""fullscreenenter"",""0"",""11665""
","
","null","<p></p>","null","","","","","","","","","","","","","","","","","","","","","","",""
"","do_trial","154","703621","0.0-87.0-0.0","""event"",""trial"",""time""
""fullscreenenter"",""0"",""11665""
","
","
","""event"",""trial"",""time""
""fullscreenenter"",""0"",""11665""
","
","504.40000000596046","","","","","","","","51","1,0,0","1","mountain","31","probe-35","1","0.10804717356389672","0.14197864536167884","0","","","","","","","",""
"","html-keyboard-response","155","704623","0.0-87.0-1.0","""event"",""trial"",""time""
""fullscreenenter"",""0"",""11665""
","
","
","""event"",""trial"",""time""
""fullscreenenter"",""0"",""11665""
","
","null","<p></p>","null","","","","","","","","","","","","","","","","","","","","","","",""
"","do_trial","156","709501","0.0-88.0-0.0","""event"",""trial"",""time""
""fullscreenenter"",""0"",""11665""
","
","
","""event"",""trial"",""time""
""fullscreenenter"",""0"",""11665""
","
","334.8999999910593","","","","","","","","50","1,0,0","1","mountain","32","probe-230","1","0.16226778417950358","0.06873003116316848","0","","","","","","","",""
"","html-keyboard-response","157","710507","0.0-88.0-1.0","""event"",""trial"",""time""
""fullscreenenter"",""0"",""11665""
","
","
","""event"",""trial"",""time""
""fullscreenenter"",""0"",""11665""
","
","null","<p></p>","null","","","","","","","","","","","","","","","","","","","","","","",""
"","do_trial","158","715779","0.0-89.0-0.0","""event"",""trial"",""time""
""fullscreenenter"",""0"",""11665""
","
","
","""event"",""trial"",""time""
""fullscreenenter"",""0"",""11665""
","
","724.4000000059605","","","","","","","","50","1,0,0","1","mountain","33","probe-228","0.6210139390060619","0.05742118446447306","0.08564393981753778","0","","","","","","","",""
"","html-keyboard-response","159","716784","0.0-89.0-1.0","""event"",""trial"",""time""
""fullscreenenter"",""0"",""11665""
","
","
","""event"",""trial"",""time""
""fullscreenenter"",""0"",""11665""
","
","null","<p></p>","null","","","","","","","","","","","","","","","","","","","","","","",""
"","do_trial","160","721878","0.0-90.0-0.0","""event"",""trial"",""time""
""fullscreenenter"",""0"",""11665""
","
","
","""event"",""trial"",""time""
""fullscreenenter"",""0"",""11665""
","
","548.8999999910593","","","","","","","","49","1,0,0","1","mountain","34","probe-03","0.7375271369234568","0.21697228436714144","0.1120747362962669","1","","","","","","","",""
"","html-keyboard-response","161","722883","0.0-90.0-1.0","""event"",""trial"",""time""
""fullscreenenter"",""0"",""11665""
","
","
","""event"",""trial"",""time""
""fullscreenenter"",""0"",""11665""
","
","null","<p></p>","null","","","","","","","","","","","","","","","","","","","","","","",""
"","do_trial","162","728131","0.0-91.0-0.0","""event"",""trial"",""time""
""fullscreenenter"",""0"",""11665""
","
","
","""event"",""trial"",""time""
""fullscreenenter"",""0"",""11665""
","
","705.0999999940395","","","","","","","","49","1,0,0","1","mountain","35","probe-77","0.7648256456067791","0.3324472310510302","0.10691493906584773","1","","","","","","","",""
"","html-keyboard-response","163","729134","0.0-91.0-1.0","""event"",""trial"",""time""
""fullscreenenter"",""0"",""11665""
","
","
","""event"",""trial"",""time""
""fullscreenenter"",""0"",""11665""
","
","null","<p></p>","null","","","","","","","","","","","","","","","","","","","","","","",""
"","do_trial","164","736031","0.0-92.0-0.0","""event"",""trial"",""time""
""fullscreenenter"",""0"",""11665""
","
","
","""event"",""trial"",""time""
""fullscreenenter"",""0"",""11665""
","
","2355.2000000029802","","","","","","","","49","1,0,0","1","mountain","36","probe-08","0.587982154791906","0.20898180450335654","0.09127363273466886","1","","","","","","","",""
"","html-keyboard-response","165","737035","0.0-92.0-1.0","""event"",""trial"",""time""
""fullscreenenter"",""0"",""11665""
","
","
","""event"",""trial"",""time""
""fullscreenenter"",""0"",""11665""
","
","null","<p></p>","null","","","","","","","","","","","","","","","","","","","","","","",""
"","do_trial","166","741952","0.0-93.0-0.0","""event"",""trial"",""time""
""fullscreenenter"",""0"",""11665""
","
","
","""event"",""trial"",""time""
""fullscreenenter"",""0"",""11665""
","
","379","","","","","","","","49","1,0,1","1","mountain","37","probe-100","0.6444984929114652","0.32290518732428675","0.1011010966564209","1","","","","","","","",""
"","html-keyboard-response","167","742957","0.0-93.0-1.0","""event"",""trial"",""time""
""fullscreenenter"",""0"",""11665""
","
","
","""event"",""trial"",""time""
""fullscreenenter"",""0"",""11665""
","
","null","<p></p>","null","","","","","","","","","","","","","","","","","","","","","","",""
"","do_trial","168","747787","0.0-94.0-0.0","""event"",""trial"",""time""
""fullscreenenter"",""0"",""11665""
","
","
","""event"",""trial"",""time""
""fullscreenenter"",""0"",""11665""
","
","285.1000000089407","","","","","","","","49","1,1,0","1","mountain","38","probe-162","0.6225096776505334","0.38209271551941515","0.11287270209390438","1","","","","","","","",""
"","html-keyboard-response","169","748792","0.0-94.0-1.0","""event"",""trial"",""time""
""fullscreenenter"",""0"",""11665""
","
","
","""event"",""trial"",""time""
""fullscreenenter"",""0"",""11665""
","
","null","<p></p>","null","","","","","","","","","","","","","","","","","","","","","","",""
"","do_trial","170","753693","0.0-95.0-0.0","""event"",""trial"",""time""
""fullscreenenter"",""0"",""11665""
","
","
","""event"",""trial"",""time""
""fullscreenenter"",""0"",""11665""
","
","350.09999999403954","","","","","","","","49","1,1,1","1","mountain","39","probe-96","0.6102780458285884","0.321482536978408","0.1291424645941447","1","","","","","","","",""
"","html-keyboard-response","171","754698","0.0-95.0-1.0","""event"",""trial"",""time""
""fullscreenenter"",""0"",""11665""
","
","
","""event"",""trial"",""time""
""fullscreenenter"",""0"",""11665""
","
","null","<p></p>","null","","","","","","","","","","","","","","","","","","","","","","",""
"","do_trial","172","759532","0.0-96.0-0.0","""event"",""trial"",""time""
""fullscreenenter"",""0"",""11665""
","
","
","""event"",""trial"",""time""
""fullscreenenter"",""0"",""11665""
","
","289.70000000298023","","","","","","","","49","1,1,0","1","mountain","40","probe-113","0.6840460797564275","0.4035213862057011","0.05474716487781644","1","","","","","","","",""
"","html-keyboard-response","173","760536","0.0-96.0-1.0","""event"",""trial"",""time""
""fullscreenenter"",""0"",""11665""
","
","
","""event"",""trial"",""time""
""fullscreenenter"",""0"",""11665""
","
","null","<p></p>","null","","","","","","","","","","","","","","","","","","","","","","",""
"","do_trial","174","765430","0.0-97.0-0.0","""event"",""trial"",""time""
""fullscreenenter"",""0"",""11665""
","
","
","""event"",""trial"",""time""
""fullscreenenter"",""0"",""11665""
","
","342.70000000298023","","","","","","","","49","1,0,0","1","mountain","41","probe-170","0.643811539116841","0.3496965495598363","0.07550273069134938","1","","","","","","","",""
"","html-keyboard-response","175","766434","0.0-97.0-1.0","""event"",""trial"",""time""
""fullscreenenter"",""0"",""11665""
","
","
","""event"",""trial"",""time""
""fullscreenenter"",""0"",""11665""
","
","null","<p></p>","null","","","","","","","","","","","","","","","","","","","","","","",""
"","do_trial","176","771351","0.0-98.0-0.0","""event"",""trial"",""time""
""fullscreenenter"",""0"",""11665""
","
","
","""event"",""trial"",""time""
""fullscreenenter"",""0"",""11665""
","
","372.8999999910593","","","","","","","","49","1,0,1","1","mountain","42","probe-218","0.504137633577265","0.5005302543094993","0.27732498750358997","1","","","","","","","",""
"","html-keyboard-response","177","772355","0.0-98.0-1.0","""event"",""trial"",""time""
""fullscreenenter"",""0"",""11665""
","
","
","""event"",""trial"",""time""
""fullscreenenter"",""0"",""11665""
","
","null","<p></p>","null","","","","","","","","","","","","","","","","","","","","","","",""
"","do_trial","178","777788","0.0-99.0-0.0","""event"",""trial"",""time""
""fullscreenenter"",""0"",""11665""
","
","
","""event"",""trial"",""time""
""fullscreenenter"",""0"",""11665""
","
","890.4000000059605","","","","","","","","49","0,0,0","1","mountain","43","probe-217","0.24390344423146787","0.35107201519907455","0.3866182230314448","0","","","","","","","",""
"","html-keyboard-response","179","778791","0.0-99.0-1.0","""event"",""trial"",""time""
""fullscreenenter"",""0"",""11665""
","
","
","""event"",""trial"",""time""
""fullscreenenter"",""0"",""11665""
","
","null","<p></p>","null","","","","","","","","","","","","","","","","","","","","","","",""
"","do_trial","180","783682","0.0-100.0-0.0","""event"",""trial"",""time""
""fullscreenenter"",""0"",""11665""
","
","
","""event"",""trial"",""time""
""fullscreenenter"",""0"",""11665""
","
","351.6000000089407","","","","","","","","49","0,1,0","1","mountain","44","probe-165","0.1765258414584825","0.4165796551239278","0.5190760340953878","0","","","","","","","",""
"","html-keyboard-response","181","784686","0.0-100.0-1.0","""event"",""trial"",""time""
""fullscreenenter"",""0"",""11665""
","
","
","""event"",""trial"",""time""
""fullscreenenter"",""0"",""11665""
","
","null","<p></p>","null","","","","","","","","","","","","","","","","","","","","","","",""
"","do_trial","182","789818","0.0-101.0-0.0","""event"",""trial"",""time""
""fullscreenenter"",""0"",""11665""
","
","
","""event"",""trial"",""time""
""fullscreenenter"",""0"",""11665""
","
","584.7999999970198","","","","","","","","50","0,0,0","1","mountain","45","probe-63","0.055701577276044745","0.38305168732157724","0.6401264155933807","0","","","","","","","",""
"","html-keyboard-response","183","790822","0.0-101.0-1.0","""event"",""trial"",""time""
""fullscreenenter"",""0"",""11665""
","
","
","""event"",""trial"",""time""
""fullscreenenter"",""0"",""11665""
","
","null","<p></p>","null","","","","","","","","","","","","","","","","","","","","","","",""
"","do_trial","184","795684","0.0-102.0-0.0","""event"",""trial"",""time""
""fullscreenenter"",""0"",""11665""
","
","
","""event"",""trial"",""time""
""fullscreenenter"",""0"",""11665""
","
","317.20000000298023","","","","","","","","51","0,0,1","1","mountain","46","probe-182","0.08471974990974554","0.18150329944417132","0.5816671054104369","1","","","","","","","",""
"","html-keyboard-response","185","796688","0.0-102.0-1.0","""event"",""trial"",""time""
""fullscreenenter"",""0"",""11665""
","
","
","""event"",""trial"",""time""
""fullscreenenter"",""0"",""11665""
","
","null","<p></p>","null","","","","","","","","","","","","","","","","","","","","","","",""
"","do_trial","186","801935","0.0-103.0-0.0","""event"",""trial"",""time""
""fullscreenenter"",""0"",""11665""
","
","
","""event"",""trial"",""time""
""fullscreenenter"",""0"",""11665""
","
","699.6999999880791","","","","","","","","51","0,0,1","1","mountain","47","probe-223","0.0987267092438608","0.24796486865716486","0.7091634232793868","1","","","","","","","",""
"","html-keyboard-response","187","802939","0.0-103.0-1.0","""event"",""trial"",""time""
""fullscreenenter"",""0"",""11665""
","
","
","""event"",""trial"",""time""
""fullscreenenter"",""0"",""11665""
","
","null","<p></p>","null","","","","","","","","","","","","","","","","","","","","","","",""
"","do_trial","188","807984","0.0-104.0-0.0","""event"",""trial"",""time""
""fullscreenenter"",""0"",""11665""
","
","
","""event"",""trial"",""time""
""fullscreenenter"",""0"",""11665""
","
","492.09999999403954","","","","","","","","51","0,0,1","1","mountain","48","probe-186","0.20996978890334625","0.36889517232392793","0.6970140385745123","1","","","","","","","",""
"","html-keyboard-response","189","808988","0.0-104.0-1.0","""event"",""trial"",""time""
""fullscreenenter"",""0"",""11665""
","
","
","""event"",""trial"",""time""
""fullscreenenter"",""0"",""11665""
","
","null","<p></p>","null","","","","","","","","","","","","","","","","","","","","","","",""
"","do_trial","190","813831","0.0-105.0-0.0","""event"",""trial"",""time""
""fullscreenenter"",""0"",""11665""
","
","
","""event"",""trial"",""time""
""fullscreenenter"",""0"",""11665""
","
","293.29999999701977","","","","","","","","51","0,0,1","1","mountain","49","probe-164","0.056596163003118496","0.26732026619242427","0.6725377866220777","1","","","","","","","",""
"","html-keyboard-response","191","814835","0.0-105.0-1.0","""event"",""trial"",""time""
""fullscreenenter"",""0"",""11665""
","
","
","""event"",""trial"",""time""
""fullscreenenter"",""0"",""11665""
","
","null","<p></p>","null","","","","","","","","","","","","","","","","","","","","","","",""
"","do_trial","192","819861","0.0-106.0-0.0","""event"",""trial"",""time""
""fullscreenenter"",""0"",""11665""
","
","
","""event"",""trial"",""time""
""fullscreenenter"",""0"",""11665""
","
","485.09999999403954","","","","","","","","51","1,0,1","1","mountain","50","probe-148","0.1442809338147126","0.2866890188177847","0.6724904377882817","1","","","","","","","",""
"","html-keyboard-response","193","820865","0.0-106.0-1.0","""event"",""trial"",""time""
""fullscreenenter"",""0"",""11665""
","
","
","""event"",""trial"",""time""
""fullscreenenter"",""0"",""11665""
","
","null","<p></p>","null","","","","","","","","","","","","","","","","","","","","","","",""
"","do_trial","194","825822","0.0-107.0-0.0","""event"",""trial"",""time""
""fullscreenenter"",""0"",""11665""
","
","
","""event"",""trial"",""time""
""fullscreenenter"",""0"",""11665""
","
","408.70000000298023","","","","","","","","51","0,0,0","1","mountain","51","probe-136","0.18182336561717066","0.46343464073308244","0.7659622296855372","0","","","","","","","",""
"","html-keyboard-response","195","826826","0.0-107.0-1.0","""event"",""trial"",""time""
""fullscreenenter"",""0"",""11665""
","
","
","""event"",""trial"",""time""
""fullscreenenter"",""0"",""11665""
","
","null","<p></p>","null","","","","","","","","","","","","","","","","","","","","","","",""
"","do_trial","196","831818","0.0-108.0-0.0","""event"",""trial"",""time""
""fullscreenenter"",""0"",""11665""
","
","
","""event"",""trial"",""time""
""fullscreenenter"",""0"",""11665""
","
","446.90000000596046","","","","","","","","51","0,1,1","1","mountain","52","probe-19","0.19078760390640434","0.4521927024076593","0.7015205458856","1","","","","","","","",""
"","html-keyboard-response","197","832822","0.0-108.0-1.0","""event"",""trial"",""time""
""fullscreenenter"",""0"",""11665""
","
","
","""event"",""trial"",""time""
""fullscreenenter"",""0"",""11665""
","
","null","<p></p>","null","","","","","","","","","","","","","","","","","","","","","","",""
"","do_trial","198","837959","0.0-109.0-0.0","""event"",""trial"",""time""
""fullscreenenter"",""0"",""11665""
","
","
","""event"",""trial"",""time""
""fullscreenenter"",""0"",""11665""
","
","590.5","","","","","","","","51","0,0,1","1","mountain","53","probe-97","0.09599941450442387","0.29754824562372223","0.711397407639666","1","","","","","","","",""
"","html-keyboard-response","199","838963","0.0-109.0-1.0","""event"",""trial"",""time""
""fullscreenenter"",""0"",""11665""
","
","
","""event"",""trial"",""time""
""fullscreenenter"",""0"",""11665""
","
","null","<p></p>","null","","","","","","","","","","","","","","","","","","","","","","",""
"","do_trial","200","844166","0.0-110.0-0.0","""event"",""trial"",""time""
""fullscreenenter"",""0"",""11665""
","
","
","""event"",""trial"",""time""
""fullscreenenter"",""0"",""11665""
","
","654.1000000089407","","","","","","","","51","0,0,1","1","mountain","54","probe-138","0.1833596973967453","0.337880576685258","0.7221623831260456","1","","","","","","","",""
"","html-keyboard-response","201","845172","0.0-110.0-1.0","""event"",""trial"",""time""
""fullscreenenter"",""0"",""11665""
","
","
","""event"",""trial"",""time""
""fullscreenenter"",""0"",""11665""
","
","null","<p></p>","null","","","","","","","","","","","","","","","","","","","","","","",""
"","do_trial","202","850641","0.0-111.0-0.0","""event"",""trial"",""time""
""fullscreenenter"",""0"",""11665""
","
","
","""event"",""trial"",""time""
""fullscreenenter"",""0"",""11665""
","
","930.1000000089407","","","","","","","","51","1,1,1","1","mountain","55","probe-49","0.32095919679553275","0.53554377966713","0.8627426374005662","1","","","","","","","",""
"","html-keyboard-response","203","851644","0.0-111.0-1.0","""event"",""trial"",""time""
""fullscreenenter"",""0"",""11665""
","
","
","""event"",""trial"",""time""
""fullscreenenter"",""0"",""11665""
","
","null","<p></p>","null","","","","","","","","","","","","","","","","","","","","","","",""
"","do_trial","204","857081","0.0-112.0-0.0","""event"",""trial"",""time""
""fullscreenenter"",""0"",""11665""
","
","
","""event"",""trial"",""time""
""fullscreenenter"",""0"",""11665""
","
","897.6000000089407","","","","","","","","51","0,0,1","1","mountain","56","probe-84","0.14577903202612402","0.49085928669823853","0.6806778208585996","1","","","","","","","",""
"","html-keyboard-response","205","858085","0.0-112.0-1.0","""event"",""trial"",""time""
""fullscreenenter"",""0"",""11665""
","
","
","""event"",""trial"",""time""
""fullscreenenter"",""0"",""11665""
","
","null","<p></p>","null","","","","","","","","","","","","","","","","","","","","","","",""
"","do_trial","206","863097","0.0-113.0-0.0","""event"",""trial"",""time""
""fullscreenenter"",""0"",""11665""
","
","
","""event"",""trial"",""time""
""fullscreenenter"",""0"",""11665""
","
","466","","","","","","","","51","0,0,0","1","mountain","57","probe-133","0.1502392666439646","0.4186769098749196","0.5894618978602314","0","","","","","","","",""
"","html-keyboard-response","207","864102","0.0-113.0-1.0","""event"",""trial"",""time""
""fullscreenenter"",""0"",""11665""
","
","
","""event"",""trial"",""time""
""fullscreenenter"",""0"",""11665""
","
","null","<p></p>","null","","","","","","","","","","","","","","","","","","","","","","",""
"","do_trial","208","869000","0.0-114.0-0.0","""event"",""trial"",""time""
""fullscreenenter"",""0"",""11665""
","
","
","""event"",""trial"",""time""
""fullscreenenter"",""0"",""11665""
","
","352","","","","","","","","51","1,0,1","1","mountain","58","probe-58","0.13459765233340834","0.4692854411073286","0.5353093099231492","1","","","","","","","",""
"","html-keyboard-response","209","870004","0.0-114.0-1.0","""event"",""trial"",""time""
""fullscreenenter"",""0"",""11665""
","
","
","""event"",""trial"",""time""
""fullscreenenter"",""0"",""11665""
","
","null","<p></p>","null","","","","","","","","","","","","","","","","","","","","","","",""
"","do_trial","210","874955","0.0-115.0-0.0","""event"",""trial"",""time""
""fullscreenenter"",""0"",""11665""
","
","
","""event"",""trial"",""time""
""fullscreenenter"",""0"",""11665""
","
","387.40000000596046","","","","","","","","51","0,0,1","1","mountain","59","probe-185","0.06962405113710833","0.35143764654150644","0.6039866166332222","1","","","","","","","",""
"","html-keyboard-response","211","875959","0.0-115.0-1.0","""event"",""trial"",""time""
""fullscreenenter"",""0"",""11665""
","
","
","""event"",""trial"",""time""
""fullscreenenter"",""0"",""11665""
","
","null","<p></p>","null","","","","","","","","","","","","","","","","","","","","","","",""
"","do_trial","212","880835","0.0-116.0-0.0","""event"",""trial"",""time""
""fullscreenenter"",""0"",""11665""
","
","
","""event"",""trial"",""time""
""fullscreenenter"",""0"",""11665""
","
","332.5","","","","","","","","51","0,1,0","1","mountain","60","probe-72","0.13150703047377238","0.3719681462205125","0.6347181446396494","0","","","","","","","",""
"","html-keyboard-response","213","881838","0.0-116.0-1.0","""event"",""trial"",""time""
""fullscreenenter"",""0"",""11665""
","
","
","""event"",""trial"",""time""
""fullscreenenter"",""0"",""11665""
","
","null","<p></p>","null","","","","","","","","","","","","","","","","","","","","","","",""
"","do_trial","214","887046","0.0-117.0-0.0","""event"",""trial"",""time""
""fullscreenenter"",""0"",""11665""
","
","
","""event"",""trial"",""time""
""fullscreenenter"",""0"",""11665""
","
","658.7999999970198","","","","","","","","51","0,0,1","1","mountain","61","probe-132","0.15817937474754007","0.2812908706931663","0.6880249084608818","1","","","","","","","",""
"","html-keyboard-response","215","888050","0.0-117.0-1.0","""event"",""trial"",""time""
""fullscreenenter"",""0"",""11665""
","
","
","""event"",""trial"",""time""
""fullscreenenter"",""0"",""11665""
","
","null","<p></p>","null","","","","","","","","","","","","","","","","","","","","","","",""
"","do_trial","216","893291","0.0-118.0-0.0","""event"",""trial"",""time""
""fullscreenenter"",""0"",""11665""
","
","
","""event"",""trial"",""time""
""fullscreenenter"",""0"",""11665""
","
","675.2000000029802","","","","","","","","51","1,0,1","1","mountain","62","probe-171","0.08502124676373417","0.1458704465323196","0.7072658084083391","1","","","","","","","",""
"","html-keyboard-response","217","894295","0.0-118.0-1.0","""event"",""trial"",""time""
""fullscreenenter"",""0"",""11665""
","
","
","""event"",""trial"",""time""
""fullscreenenter"",""0"",""11665""
","
","null","<p></p>","null","","","","","","","","","","","","","","","","","","","","","","",""
"","do_trial","218","899589","0.0-119.0-0.0","""event"",""trial"",""time""
""fullscreenenter"",""0"",""11665""
","
","
","""event"",""trial"",""time""
""fullscreenenter"",""0"",""11665""
","
","731.7999999970198","","","","","","","","51","0,0,1","1","mountain","63","probe-92","0.16347391517966947","0.1799427782941573","0.6956176717042561","1","","","","","","","",""
"","html-keyboard-response","219","900593","0.0-119.0-1.0","""event"",""trial"",""time""
""fullscreenenter"",""0"",""11665""
","
","
","""event"",""trial"",""time""
""fullscreenenter"",""0"",""11665""
","
","null","<p></p>","null","","","","","","","","","","","","","","","","","","","","","","",""
"","do_trial","220","905824","0.0-120.0-0.0","""event"",""trial"",""time""
""fullscreenenter"",""0"",""11665""
","
","
","""event"",""trial"",""time""
""fullscreenenter"",""0"",""11665""
","
","684","","","","","","","","51","1,1,1","1","mountain","64","probe-146","0.12862644341835455","0.16605950186104734","0.6986064050383968","1","","","","","","","",""
"","html-keyboard-response","221","906828","0.0-120.0-1.0","""event"",""trial"",""time""
""fullscreenenter"",""0"",""11665""
","
","
","""event"",""trial"",""time""
""fullscreenenter"",""0"",""11665""
","
","null","<p></p>","null","","","","","","","","","","","","","","","","","","","","","","",""
"","do_trial","222","911939","0.0-121.0-0.0","""event"",""trial"",""time""
""fullscreenenter"",""0"",""11665""
","
","
","""event"",""trial"",""time""
""fullscreenenter"",""0"",""11665""
","
","563.1999999880791","","","","","","","","51","0,1,1","1","mountain","65","probe-68","0.06029649150555305","0.30494183880572207","0.5765324983986472","1","","","","","","","",""
"","html-keyboard-response","223","912943","0.0-121.0-1.0","""event"",""trial"",""time""
""fullscreenenter"",""0"",""11665""
","
","
","""event"",""trial"",""time""
""fullscreenenter"",""0"",""11665""
","
","null","<p></p>","null","","","","","","","","","","","","","","","","","","","","","","",""
"","do_trial","224","917931","0.0-122.0-0.0","""event"",""trial"",""time""
""fullscreenenter"",""0"",""11665""
","
","
","""event"",""trial"",""time""
""fullscreenenter"",""0"",""11665""
","
","440.5","","","","","","","","51","0,1,1","1","mountain","66","probe-116","0.11978356115670191","0.391318603404025","0.7047413143602946","1","","","","","","","",""
"","html-keyboard-response","225","918935","0.0-122.0-1.0","""event"",""trial"",""time""
""fullscreenenter"",""0"",""11665""
","
","
","""event"",""trial"",""time""
""fullscreenenter"",""0"",""11665""
","
","null","<p></p>","null","","","","","","","","","","","","","","","","","","","","","","",""
"","do_trial","226","924061","0.0-123.0-0.0","""event"",""trial"",""time""
""fullscreenenter"",""0"",""11665""
","
","
","""event"",""trial"",""time""
""fullscreenenter"",""0"",""11665""
","
","581.5","","","","","","","","51","0,0,0","1","mountain","67","probe-89","0.05603460033318022","0.3001501469522648","0.4437981659396569","0","","","","","","","",""
"","html-keyboard-response","227","925065","0.0-123.0-1.0","""event"",""trial"",""time""
""fullscreenenter"",""0"",""11665""
","
","
","""event"",""trial"",""time""
""fullscreenenter"",""0"",""11665""
","
","null","<p></p>","null","","","","","","","","","","","","","","","","","","","","","","",""
"","do_trial","228","930229","0.0-124.0-0.0","""event"",""trial"",""time""
""fullscreenenter"",""0"",""11665""
","
","
","""event"",""trial"",""time""
""fullscreenenter"",""0"",""11665""
","
","622.5","","","","","","","","51","0,0,0","1","mountain","68","probe-46","0.05330639543773955","0.2730724840329545","0.31141422217109266","0","","","","","","","",""
"","html-keyboard-response","229","931232","0.0-124.0-1.0","""event"",""trial"",""time""
""fullscreenenter"",""0"",""11665""
","
","
","""event"",""trial"",""time""
""fullscreenenter"",""0"",""11665""
","
","null","<p></p>","null","","","","","","","","","","","","","","","","","","","","","","",""
"","do_trial","230","937029","0.0-125.0-0.0","""event"",""trial"",""time""
""fullscreenenter"",""0"",""11665""
","
","
","""event"",""trial"",""time""
""fullscreenenter"",""0"",""11665""
","
","1254","","","","","","","","50","0,1,1","1","mountain","69","probe-74","0.14782100235137136","0.25158481126157795","0.5087059131791317","1","","","","","","","",""
"","html-keyboard-response","231","938032","0.0-125.0-1.0","""event"",""trial"",""time""
""fullscreenenter"",""0"",""11665""
","
","
","""event"",""trial"",""time""
""fullscreenenter"",""0"",""11665""
","
","null","<p></p>","null","","","","","","","","","","","","","","","","","","","","","","",""
"","do_bye","232","939539","0.0-126.0-0.0","""event"",""trial"",""time""
""fullscreenenter"",""0"",""11665""
","
","
","""event"",""trial"",""time""
""fullscreenenter"",""0"",""11665""
","
","null","","","","","","","","null","","","","","","","","","","","","","","","","",""
"","break","233","965383","0.0-126.0-1.0","""event"",""trial"",""time""
""fullscreenenter"",""0"",""11665""
","
","
","""event"",""trial"",""time""
""fullscreenenter"",""0"",""11665""
","
","25843.5","<div class='center'><p>Time to take a quick break! You have 2 minutes to rest, but you can move on sooner if you'd like.</p><p> Press the <b>space bar</b> to continue.</p></div>","32","","","","","","","","","","","","","","","","","","","","","","",""
"","do_travel","234","974390","0.0-127.0-0.0","""event"",""trial"",""time""
""fullscreenenter"",""0"",""11665""
","
","
","""event"",""trial"",""time""
""fullscreenenter"",""0"",""11665""
","
","null","","","","","","","","null","","","","","","","","","","","","","","","","",""
"","do_welcome","235","978399","0.0-127.0-1.0","""event"",""trial"",""time""
""fullscreenenter"",""0"",""11665""
","
","
","""event"",""trial"",""time""
""fullscreenenter"",""0"",""11665""
","
","null","","","","","","","","null","","","","","","","","","","","","","","","","",""
"","do_trial","236","984659","0.0-128.0-0.0","""event"",""trial"",""time""
""fullscreenenter"",""0"",""11665""
","
","
","""event"",""trial"",""time""
""fullscreenenter"",""0"",""11665""
","
","1714.7000000029802","","","","","","","","50","1,0,1","2","city","70","probe-54","0.23584698179741992","0.35873041894185453","1","0","","","","","","","",""
"","html-keyboard-response","237","985663","0.0-128.0-1.0","""event"",""trial"",""time""
""fullscreenenter"",""0"",""11665""
","
","
","""event"",""trial"",""time""
""fullscreenenter"",""0"",""11665""
","
","null","<p></p>","null","","","","","","","","","","","","","","","","","","","","","","",""
"","do_trial","238","990597","0.0-129.0-0.0","""event"",""trial"",""time""
""fullscreenenter"",""0"",""11665""
","
","
","""event"",""trial"",""time""
""fullscreenenter"",""0"",""11665""
","
","379.5","","","","","","","","50","0,0,1","2","city","71","probe-65","0.10014751301021145","0.3136048974415991","1","0","","","","","","","",""
"","html-keyboard-response","239","991601","0.0-129.0-1.0","""event"",""trial"",""time""
""fullscreenenter"",""0"",""11665""
","
","
","""event"",""trial"",""time""
""fullscreenenter"",""0"",""11665""
","
","null","<p></p>","null","","","","","","","","","","","","","","","","","","","","","","",""
"","do_trial","240","996896","0.0-130.0-0.0","""event"",""trial"",""time""
""fullscreenenter"",""0"",""11665""
","
","
","""event"",""trial"",""time""
""fullscreenenter"",""0"",""11665""
","
","743.6000000089407","","","","","","","","49","0,0,1","2","city","72","probe-201","0.15405522745179479","0.4257858081888472","0.7866498424305743","0","","","","","","","",""
"","html-keyboard-response","241","997900","0.0-130.0-1.0","""event"",""trial"",""time""
""fullscreenenter"",""0"",""11665""
","
","
","""event"",""trial"",""time""
""fullscreenenter"",""0"",""11665""
","
","null","<p></p>","null","","","","","","","","","","","","","","","","","","","","","","",""
"","do_trial","242","1002796","0.0-131.0-0.0","""event"",""trial"",""time""
""fullscreenenter"",""0"",""11665""
","
","
","""event"",""trial"",""time""
""fullscreenenter"",""0"",""11665""
","
","354.79999999701977","","","","","","","","49","0,0,1","2","city","73","probe-177","0.2526629794389146","0.46000558274732256","0.610348035024563","0","","","","","","","",""
"","html-keyboard-response","243","1003798","0.0-131.0-1.0","""event"",""trial"",""time""
""fullscreenenter"",""0"",""11665""
","
","
","""event"",""trial"",""time""
""fullscreenenter"",""0"",""11665""
","
","null","<p></p>","null","","","","","","","","","","","","","","","","","","","","","","",""
"","do_trial","244","1008668","0.0-132.0-0.0","""event"",""trial"",""time""
""fullscreenenter"",""0"",""11665""
","
","
","""event"",""trial"",""time""
""fullscreenenter"",""0"",""11665""
","
","322.59999999403954","","","","","","","","51","0,1,1","2","city","74","probe-199","0.18520937920719266","0.522900161020664","0.6693578849118168","1","","","","","","","",""
"","html-keyboard-response","245","1009672","0.0-132.0-1.0","""event"",""trial"",""time""
""fullscreenenter"",""0"",""11665""
","
","
","""event"",""trial"",""time""
""fullscreenenter"",""0"",""11665""
","
","null","<p></p>","null","","","","","","","","","","","","","","","","","","","","","","",""
"","do_trial","246","1014918","0.0-133.0-0.0","""event"",""trial"",""time""
""fullscreenenter"",""0"",""11665""
","
","
","""event"",""trial"",""time""
""fullscreenenter"",""0"",""11665""
","
","705.5999999940395","","","","","","","","51","0,0,0","2","city","75","probe-200","0.13258481182140822","0.4620862179423235","0.5877498776998138","0","","","","","","","",""
"","html-keyboard-response","247","1015921","0.0-133.0-1.0","""event"",""trial"",""time""
""fullscreenenter"",""0"",""11665""
","
","
","""event"",""trial"",""time""
""fullscreenenter"",""0"",""11665""
","
","null","<p></p>","null","","","","","","","","","","","","","","","","","","","","","","",""
"","do_trial","248","1020941","0.0-134.0-0.0","""event"",""trial"",""time""
""fullscreenenter"",""0"",""11665""
","
","
","""event"",""trial"",""time""
""fullscreenenter"",""0"",""11665""
","
","478.40000000596046","","","","","","","","51","0,0,1","2","city","76","probe-190","0.10066274236058467","0.4505022103762694","0.5637464391339271","1","","","","","","","",""
"","html-keyboard-response","249","1021945","0.0-134.0-1.0","""event"",""trial"",""time""
""fullscreenenter"",""0"",""11665""
","
","
","""event"",""trial"",""time""
""fullscreenenter"",""0"",""11665""
","
","null","<p></p>","null","","","","","","","","","","","","","","","","","","","","","","",""
"","do_trial","250","1027080","0.0-135.0-0.0","""event"",""trial"",""time""
""fullscreenenter"",""0"",""11665""
","
","
","""event"",""trial"",""time""
""fullscreenenter"",""0"",""11665""
","
","590.7999999970198","","","","","","","","51","0,0,1","2","city","77","probe-145","0.13166075205958258","0.4819840859335166","0.6616635542422128","1","","","","","","","",""
"","html-keyboard-response","251","1028084","0.0-135.0-1.0","""event"",""trial"",""time""
""fullscreenenter"",""0"",""11665""
","
","
","""event"",""trial"",""time""
""fullscreenenter"",""0"",""11665""
","
","null","<p></p>","null","","","","","","","","","","","","","","","","","","","","","","",""
"","do_trial","252","1033031","0.0-136.0-0.0","""event"",""trial"",""time""
""fullscreenenter"",""0"",""11665""
","
","
","""event"",""trial"",""time""
""fullscreenenter"",""0"",""11665""
","
","402","","","","","","","","51","0,0,1","2","city","78","probe-42","0.08549920997053752","0.35392944737037496","0.5713007531926446","1","","","","","","","",""
"","html-keyboard-response","253","1034035","0.0-136.0-1.0","""event"",""trial"",""time""
""fullscreenenter"",""0"",""11665""
","
","
","""event"",""trial"",""time""
""fullscreenenter"",""0"",""11665""
","
","null","<p></p>","null","","","","","","","","","","","","","","","","","","","","","","",""
"","do_trial","254","1039168","0.0-137.0-0.0","""event"",""trial"",""time""
""fullscreenenter"",""0"",""11665""
","
","
","""event"",""trial"",""time""
""fullscreenenter"",""0"",""11665""
","
","585.0999999940395","","","","","","","","51","0,0,0","2","city","79","probe-86","0.12448553244086168","0.3755661741044644","0.5752830051069305","0","","","","","","","",""
"","html-keyboard-response","255","1040173","0.0-137.0-1.0","""event"",""trial"",""time""
""fullscreenenter"",""0"",""11665""
","
","
","""event"",""trial"",""time""
""fullscreenenter"",""0"",""11665""
","
","null","<p></p>","null","","","","","","","","","","","","","","","","","","","","","","",""
"","do_trial","256","1045315","0.0-138.0-0.0","""event"",""trial"",""time""
""fullscreenenter"",""0"",""11665""
","
","
","""event"",""trial"",""time""
""fullscreenenter"",""0"",""11665""
","
","601.2000000029802","","","","","","","","51","0,1,0","2","city","80","probe-51","0.2655478451225368","0.25796939903679983","0.5054631963499786","0","","","","","","","",""
"","html-keyboard-response","257","1046318","0.0-138.0-1.0","""event"",""trial"",""time""
""fullscreenenter"",""0"",""11665""
","
","
","""event"",""trial"",""time""
""fullscreenenter"",""0"",""11665""
","
","null","<p></p>","null","","","","","","","","","","","","","","","","","","","","","","",""
"","do_trial","258","1051632","0.0-139.0-0.0","""event"",""trial"",""time""
""fullscreenenter"",""0"",""11665""
","
","
","""event"",""trial"",""time""
""fullscreenenter"",""0"",""11665""
","
","775.1999999880791","","","","","","","","50","0,0,0","2","city","81","probe-09","0.3677982666304021","0.33731100846701606","0.49574295115183864","0","","","","","","","",""
"","html-keyboard-response","259","1052638","0.0-139.0-1.0","""event"",""trial"",""time""
""fullscreenenter"",""0"",""11665""
","
","
","""event"",""trial"",""time""
""fullscreenenter"",""0"",""11665""
","
","null","<p></p>","null","","","","","","","","","","","","","","","","","","","","","","",""
"","do_trial","260","1057631","0.0-140.0-0.0","""event"",""trial"",""time""
""fullscreenenter"",""0"",""11665""
","
","
","""event"",""trial"",""time""
""fullscreenenter"",""0"",""11665""
","
