"success","trial_type","trial_index","time_elapsed","internal_node_id","interactions","blur_events","focus_events","fullscreenenter_events","fullscreenexit_events","rt","stimulus","key_press","subject_id","participant_id","age","gender","prompt","response","choice_outcomes","context_n","context_img_id","trial_n","probe_img_id","pR_red","pR_white","pR_black","outcome","contextArray_ind","validImageProbes","invalidImageProbes","pRew_Red","pRew_White","pRew_Black","availableForMemProbe","choice_blocks"
"true","fullscreen","0","4512","0.0-0.0","""event"",""trial"",""time""
""fullscreenenter"",""0"",""3540""
","
","
","""event"",""trial"",""time""
""fullscreenenter"",""0"",""3540""
","
","","","","","","","","","","","","","","","","","","","","","","","","","",""
"","pavlovia","1","4518","0.0-1.0","""event"",""trial"",""time""
""fullscreenenter"",""0"",""3540""
","
","
","""event"",""trial"",""time""
""fullscreenenter"",""0"",""3540""
","
","","","","","","","","","","","","","","","","","","","","","","","","","",""
"","instruc1","2","49618","0.0-2.0","""event"",""trial"",""time""
""fullscreenenter"",""0"",""3540""
","
","
","""event"",""trial"",""time""
""fullscreenenter"",""0"",""3540""
","
","null","run_exp/static/audio/clip_1_welcome.m4a","null","867","1063","8","Female","<div class='center'><p>Welcome! This is the first part of the study. It will last ~30 minutes. In part 1 and part 2 of the study, you are the head captain of a pirate ship traveling around the world to different islands. You will play a few different games throughout these two parts. Here is an overview of them:</p><br><p>Part 1 (today)</p><p>1. Instructions, practice game, and quiz</p><p>2. Pick a pirate game on 6 different islands</p><br><p>Part 2 (tomorrow)</p><p>3. Pick a pirate game and memory game</p><p>4. Where did you see this ship? </p></div>","","","","","","","","","","","","","","","","","",""
"","html-keyboard-response","3","51529","0.0-3.0","""event"",""trial"",""time""
""fullscreenenter"",""0"",""3540""
","
","
","""event"",""trial"",""time""
""fullscreenenter"",""0"",""3540""
","
","1902.2000000476837","<div class='center'><p>Welcome! This is the first part of the study. It will last ~30 minutes. In part 1 and part 2 of the study, you are the head captain of a pirate ship traveling around the world to different islands. You will play a few different games throughout these two parts. Here is an overview of them:</p><br><p>Part 1 (today)</p><p>1. Instructions, practice game, and quiz</p><p>2. Pick a pirate game on 6 different islands</p><br><p>Part 2 (tomorrow)</p><p>3. Pick a pirate game and memory game</p><p>4. Where did you see this ship? </p><p><b>[Press the space bar to continue]</b></p></div>","32","","","","","","","","","","","","","","","","","","","","","","",""
"","instruc2","4","56855","0.0-4.0","""event"",""trial"",""time""
""fullscreenenter"",""0"",""3540""
","
","
","""event"",""trial"",""time""
""fullscreenenter"",""0"",""3540""
","
","null","run_exp/static/audio/clip_2_different_places.m4a","null","","","","","<div class='center'><p>Today, you’ll visit these 6 islands on your journey. You'll be able to see these islands from your ship.</p><p><img src='run_exp/static/images/contexts/all_contexts.png' height='500'></p></div>","","","","","","","","","","","","","","","","","",""
"","html-keyboard-response","5","58481","0.0-5.0","""event"",""trial"",""time""
""fullscreenenter"",""0"",""3540""
","
","
","""event"",""trial"",""time""
""fullscreenenter"",""0"",""3540""
","
","1620.5999999046326","<div class='center'><p>Today, you’ll visit these 6 islands on your journey. You'll be able to see these islands from your ship.</p><p><img src='run_exp/static/images/contexts/all_contexts.png' height='500'></p><p><b>[Press the space bar to continue]</b></p></div>","32","","","","","","","","","","","","","","","","","","","","","","",""
"","instruc3","6","68195","0.0-6.0","""event"",""trial"",""time""
""fullscreenenter"",""0"",""3540""
","
","
","""event"",""trial"",""time""
""fullscreenenter"",""0"",""3540""
","
","null","run_exp/static/audio/clip_3_goal_of_game_1.m4a","null","","","","","<div class='center'><p> The pirates on your ship will rob other ships as they leave the island.</p> These ships have just sold their goods to the islanders, so they will be filled with lots and lots of gold.</p><p><img src='run_exp/static/images/tutorial/ship_center.png' height='400'></p></div>","","","","","","","","","","","","","","","","","",""
"","html-keyboard-response","7","69222","0.0-7.0","""event"",""trial"",""time""
""fullscreenenter"",""0"",""3540""
","
","
","""event"",""trial"",""time""
""fullscreenenter"",""0"",""3540""
","
","1022.1000000238419","<div class='center'><p> The pirates on your ship will rob other ships as they leave the island.</p> These ships have just sold their goods to the islanders, so they will be filled with lots and lots of gold.</p><p><img src='run_exp/static/images/tutorial/ship_center.png' height='400'></p><p><b>[Press the space bar to continue]</b></p></div>","32","","","","","","","","","","","","","","","","","","","","","","",""
"","instruc4","8","97235","0.0-8.0","""event"",""trial"",""time""
""fullscreenenter"",""0"",""3540""
","
","
","""event"",""trial"",""time""
""fullscreenenter"",""0"",""3540""
","
","null","run_exp/static/audio/clip_4_goal_of_game_2.m4a","null","","","","","<div class='center'><p>As the head captain, you do not have to rob any ships yourself. Another pirate will be doing the robbing for you. First, you will choose a pirate to rob the next ship.</p><p><img src='run_exp/static/images/tutorial/pirates_all_crop.png' height='200'></p><p>Then, you'll see if the pirate successfully robbed the ship of their gold. If they were successful, then you'll get a stack of gold coins like this:</p><p><img src='run_exp/static/images/tutorial/reward.png' height='150'></p><p> If they were <b>not</b> successful, then you'll get no gold coins, and you'll see a big red x like this: </p><p><img src='run_exp/static/images/tutorial/reward_no.png' height='150'></p><p> How much bonus money you make is based on how many gold coins you collect.</p><div>","","","","","","","","","","","","","","","","","",""
"","html-keyboard-response","9","97624","0.0-9.0","""event"",""trial"",""time""
""fullscreenenter"",""0"",""3540""
","
","
","""event"",""trial"",""time""
""fullscreenenter"",""0"",""3540""
","
","381.7999999523163","<div class='center'><p>As the head captain, you do not have to rob any ships yourself. Another pirate will be doing the robbing for you. First, you will choose a pirate to rob the next ship.</p><p><img src='run_exp/static/images/tutorial/pirates_all_crop.png' height='200'></p><p>Then, you'll see if the pirate successfully robbed the ship of their gold. If they were successful, then you'll get a stack of gold coins like this:</p><p><img src='run_exp/static/images/tutorial/reward.png' height='150'></p><p> If they were <b>not</b> successful, then you'll get no gold coins, and you'll see a big red x like this: </p><p><img src='run_exp/static/images/tutorial/reward_no.png' height='150'></p><p> How much bonus money you make is based on how many gold coins you collect.</p<p><b>[Press the space bar to continue]</b></p></div>","32","","","","","","","","","","","","","","","","","","","","","","",""
"","instruc5","10","134867","0.0-10.0","""event"",""trial"",""time""
""fullscreenenter"",""0"",""3540""
","
","
","""event"",""trial"",""time""
""fullscreenenter"",""0"",""3540""
","
","37231.60000002384","run_exp/static/audio/clip_5_probabilistic.m4a","49","","","","","<div class='center'><p>Even the most skilled pirate can not rob EVERY ship.</p><p> Some ships will have very strong protections against pirate attacks.</p><p> Blue beard, here, is very, very good at robbing ships, but he won't be successful every time he tries to rob one.</p><p> You can press the <b>‘1’</b> key on the keyboard to choose him.</p><p> Try choosing him 10 times to see how often he succeeds at robbing a ship. </p><p><img src='run_exp/static/images/tutorial/blue.png' height='500'></p></div>","","","","","","","","","","","","","","","","","",""
"","html-keyboard-response","11","136377","0.0-11.0","""event"",""trial"",""time""
""fullscreenenter"",""0"",""3540""
","
","
","""event"",""trial"",""time""
""fullscreenenter"",""0"",""3540""
","
","null","<div class='center'><p><img src='run_exp/static/images/tutorial/blue_win.png' height='500'></p></div>","null","","","","","","","","","","","","","","","","","","","","","","",""
"","html-keyboard-response","12","138949","0.0-12.0","""event"",""trial"",""time""
""fullscreenenter"",""0"",""3540""
","
","
","""event"",""trial"",""time""
""fullscreenenter"",""0"",""3540""
","
","2569.0999999046326","<div class='center'><img src='run_exp/static/images/tutorial/blue.png' height='500'></p></div>","49","","","","","","","","","","","","","","","","","","","","","","",""
"","html-keyboard-response","13","140462","0.0-13.0","""event"",""trial"",""time""
""fullscreenenter"",""0"",""3540""
","
","
","""event"",""trial"",""time""
""fullscreenenter"",""0"",""3540""
","
","null","<div class='center'><p><img src='run_exp/static/images/tutorial/blue_win.png' height='500'></p></div>","null","","","","","","","","","","","","","","","","","","","","","","",""
"","html-keyboard-response","14","140882","0.0-14.0","""event"",""trial"",""time""
""fullscreenenter"",""0"",""3540""
","
","
","""event"",""trial"",""time""
""fullscreenenter"",""0"",""3540""
","
","418.39999997615814","<div class='center'><img src='run_exp/static/images/tutorial/blue.png' height='500'></p></div>","49","","","","","","","","","","","","","","","","","","","","","","",""
"","html-keyboard-response","15","142386","0.0-15.0","""event"",""trial"",""time""
""fullscreenenter"",""0"",""3540""
","
","
","""event"",""trial"",""time""
""fullscreenenter"",""0"",""3540""
","
","null","<div class='center'><p><img src='run_exp/static/images/tutorial/blue_win.png' height='500'></p></div>","null","","","","","","","","","","","","","","","","","","","","","","",""
"","html-keyboard-response","16","142741","0.0-16.0","""event"",""trial"",""time""
""fullscreenenter"",""0"",""3540""
","
","
","""event"",""trial"",""time""
""fullscreenenter"",""0"",""3540""
","
","351.89999997615814","<div class='center'><img src='run_exp/static/images/tutorial/blue.png' height='500'></p></div>","49","","","","","","","","","","","","","","","","","","","","","","",""
"","html-keyboard-response","17","144249","0.0-17.0","""event"",""trial"",""time""
""fullscreenenter"",""0"",""3540""
","
","
","""event"",""trial"",""time""
""fullscreenenter"",""0"",""3540""
","
","null","<div class='center'><p><img src='run_exp/static/images/tutorial/blue_no_win.png' height='500'></p></div>","null","","","","","","","","","","","","","","","","","","","","","","",""
"","html-keyboard-response","18","144709","0.0-18.0","""event"",""trial"",""time""
""fullscreenenter"",""0"",""3540""
","
","
","""event"",""trial"",""time""
""fullscreenenter"",""0"",""3540""
","
","457.2999999523163","<div class='center'><img src='run_exp/static/images/tutorial/blue.png' height='500'></p></div>","49","","","","","","","","","","","","","","","","","","","","","","",""
"","html-keyboard-response","19","146214","0.0-19.0","""event"",""trial"",""time""
""fullscreenenter"",""0"",""3540""
","
","
","""event"",""trial"",""time""
""fullscreenenter"",""0"",""3540""
","
","null","<div class='center'><p><img src='run_exp/static/images/tutorial/blue_win.png' height='500'></p></div>","null","","","","","","","","","","","","","","","","","","","","","","",""
"","html-keyboard-response","20","146670","0.0-20.0","""event"",""trial"",""time""
""fullscreenenter"",""0"",""3540""
","
","
","""event"",""trial"",""time""
""fullscreenenter"",""0"",""3540""
","
","453.60000002384186","<div class='center'><img src='run_exp/static/images/tutorial/blue.png' height='500'></p></div>","49","","","","","","","","","","","","","","","","","","","","","","",""
"","html-keyboard-response","21","148178","0.0-21.0","""event"",""trial"",""time""
""fullscreenenter"",""0"",""3540""
","
","
","""event"",""trial"",""time""
""fullscreenenter"",""0"",""3540""
","
","null","<div class='center'><p><img src='run_exp/static/images/tutorial/blue_win.png' height='500'></p></div>","null","","","","","","","","","","","","","","","","","","","","","","",""
"","html-keyboard-response","22","148732","0.0-22.0","""event"",""trial"",""time""
""fullscreenenter"",""0"",""3540""
","
","
","""event"",""trial"",""time""
""fullscreenenter"",""0"",""3540""
","
","551.2000000476837","<div class='center'><img src='run_exp/static/images/tutorial/blue.png' height='500'></p></div>","49","","","","","","","","","","","","","","","","","","","","","","",""
"","html-keyboard-response","23","150242","0.0-23.0","""event"",""trial"",""time""
""fullscreenenter"",""0"",""3540""
","
","
","""event"",""trial"",""time""
""fullscreenenter"",""0"",""3540""
","
","null","<div class='center'><p><img src='run_exp/static/images/tutorial/blue_win.png' height='500'></p></div>","null","","","","","","","","","","","","","","","","","","","","","","",""
"","html-keyboard-response","24","150623","0.0-24.0","""event"",""trial"",""time""
""fullscreenenter"",""0"",""3540""
","
","
","""event"",""trial"",""time""
""fullscreenenter"",""0"",""3540""
","
","378.7000000476837","<div class='center'><img src='run_exp/static/images/tutorial/blue.png' height='500'></p></div>","49","","","","","","","","","","","","","","","","","","","","","","",""
"","html-keyboard-response","25","152134","0.0-25.0","""event"",""trial"",""time""
""fullscreenenter"",""0"",""3540""
","
","
","""event"",""trial"",""time""
""fullscreenenter"",""0"",""3540""
","
","null","<div class='center'><p><img src='run_exp/static/images/tutorial/blue_no_win.png' height='500'></p></div>","null","","","","","","","","","","","","","","","","","","","","","","",""
"","html-keyboard-response","26","152507","0.0-26.0","""event"",""trial"",""time""
""fullscreenenter"",""0"",""3540""
","
","
","""event"",""trial"",""time""
""fullscreenenter"",""0"",""3540""
","
","370.09999990463257","<div class='center'><img src='run_exp/static/images/tutorial/blue.png' height='500'></p></div>","49","","","","","","","","","","","","","","","","","","","","","","",""
"","html-keyboard-response","27","154012","0.0-27.0","""event"",""trial"",""time""
""fullscreenenter"",""0"",""3540""
","
","
","""event"",""trial"",""time""
""fullscreenenter"",""0"",""3540""
","
","null","<div class='center'><p><img src='run_exp/static/images/tutorial/blue_win.png' height='500'></p></div>","null","","","","","","","","","","","","","","","","","","","","","","",""
"","html-keyboard-response","28","154463","0.0-28.0","""event"",""trial"",""time""
""fullscreenenter"",""0"",""3540""
","
","
","""event"",""trial"",""time""
""fullscreenenter"",""0"",""3540""
","
","448.6999999284744","<div class='center'><img src='run_exp/static/images/tutorial/blue.png' height='500'></p></div>","49","","","","","","","","","","","","","","","","","","","","","","",""
"","html-keyboard-response","29","155967","0.0-29.0","""event"",""trial"",""time""
""fullscreenenter"",""0"",""3540""
","
","
","""event"",""trial"",""time""
""fullscreenenter"",""0"",""3540""
","
","null","<div class='center'><p><img src='run_exp/static/images/tutorial/blue_win.png' height='500'></p></div>","null","","","","","","","","","","","","","","","","","","","","","","",""
"","instruc6","30","162855","0.0-30.0","""event"",""trial"",""time""
""fullscreenenter"",""0"",""3540""
","
","
","""event"",""trial"",""time""
""fullscreenenter"",""0"",""3540""
","
","null","run_exp/static/audio/clip_6_blue_beard_outcome.m4a","null","","","","","<div class='center'><p> See, he succeeded in robbing the ships most of the time but not every time. </p></div>","","","","","","","","","","","","","","","","","",""
"","html-keyboard-response","31","164847","0.0-31.0","""event"",""trial"",""time""
""fullscreenenter"",""0"",""3540""
","
","
","""event"",""trial"",""time""
""fullscreenenter"",""0"",""3540""
","
","1990.0999999046326","<div class='center'><p> See, he succeeded in robbing the ships most of the time but not every time. </p><p><b>[Press the space bar to continue]</b></p></div>","32","","","","","","","","","","","","","","","","","","","","","","",""
"","audio-keyboard-response","32","174994","0.0-32.0","""event"",""trial"",""time""
""fullscreenenter"",""0"",""3540""
","
","
","""event"",""trial"",""time""
""fullscreenenter"",""0"",""3540""
","
","10140.700000047684","run_exp/static/audio/clip_7_pick_pirate.m4a","51","","","","","","","","","","","","","","","","","","","","","","",""
"","audio-keyboard-response","33","179013","0.0-33.0-0.0","""event"",""trial"",""time""
""fullscreenenter"",""0"",""3540""
","
","
","""event"",""trial"",""time""
""fullscreenenter"",""0"",""3540""
","
","4011.8000000715256","run_exp/static/audio/clip_8_chosen_pirate_win.m4a","32","","","","","","","","","","","","","","","","","","","","","","",""
"","audio-keyboard-response","34","182087","0.0-33.0-1.0","""event"",""trial"",""time""
""fullscreenenter"",""0"",""3540""
","
","
","""event"",""trial"",""time""
""fullscreenenter"",""0"",""3540""
","
","3072","run_exp/static/audio/clip_9_pick_a_pirate_again.m4a","50","","","","","","","","","","","","","","","","","","","","","","",""
"","audio-keyboard-response","35","187047","0.0-34.0-0.0","""event"",""trial"",""time""
""fullscreenenter"",""0"",""3540""
","
","
","""event"",""trial"",""time""
""fullscreenenter"",""0"",""3540""
","
","4952.5","run_exp/static/audio/clip_10_chosen_pirate_loss.m4a","32","","","","","","","","","","","","","","","","","","","","","","",""
"","instruc9","36","192535","0.0-35.0-0.0","""event"",""trial"",""time""
""fullscreenenter"",""0"",""3540""
","
","
","""event"",""trial"",""time""
""fullscreenenter"",""0"",""3540""
","
","null","run_exp/static/audio/clip_11_time_out.m4a","null","","","","","<div class='center'><p>If you don’t make your choice fast enough, you’ll have to wait a few seconds before you can make another one. </p><p><img src='run_exp/static/images/miscellaneous/hurry_up.png' height='500'></p></div>","","","","","","","","","","","","","","","","","",""
"","html-keyboard-response","37","193157","0.0-35.0-1.0","""event"",""trial"",""time""
""fullscreenenter"",""0"",""3540""
","
","
","""event"",""trial"",""time""
""fullscreenenter"",""0"",""3540""
","
","618","<div class='center'><p>If you don’t make your choice fast enough, you’ll have to wait a few seconds before you can make another one. </p><p><img src='run_exp/static/images/miscellaneous/hurry_up.png' height='500'></p><p><b>[Press the space bar to continue]</b></p></div>","32","","","","","","","","","","","","","","","","","","","","","","",""
"","instruc10","38","232255","0.0-35.0-2.0","""event"",""trial"",""time""
""fullscreenenter"",""0"",""3540""
","
","
","""event"",""trial"",""time""
""fullscreenenter"",""0"",""3540""
","
","null","run_exp/static/audio/clip_12_probe.m4a","null","","","","","<div class='center'><p>Once you've chosen a pirate, you’ll be shown the ship they are robbing. You will never rob the same ship twice. Ships can be told apart from one another by the image on them. These are the goods that they sell. See, this ship has a travel mug on it. </p><p> You’ll have to remember which island you saw each ship on. You will win more gold coins and hence more bonus money if you remember correctly! To help you remember, you can imagine a story. For example, here, you could imagine a mug full of water in the desert. Or, as another example, if on the forest island, your pirate robbed a ship with an apple on it, you could imagine an apple falling from a tree in the forest. </p><p><img src='run_exp/static/images/tutorial/example_probe.png' height='500'></p></div>","","","","","","","","","","","","","","","","","",""
"","html-keyboard-response","39","232514","0.0-35.0-3.0","""event"",""trial"",""time""
""fullscreenenter"",""0"",""3540""
","
","
","""event"",""trial"",""time""
""fullscreenenter"",""0"",""3540""
","
","255.39999997615814","<div class='center'><p>Once you've chosen a pirate, you’ll be shown the ship they are robbing. You will never rob the same ship twice. Ships can be told apart from one another by the image on them. These are the goods that they sell. See, this ship has a travel mug on it. </p><p> You’ll have to remember which island you saw each ship on. You will win more gold coins and hence more bonus money if you remember correctly! To help you remember, you can imagine a story. For example, here, you could imagine a mug full of water in the desert. Or, as another example, if on the forest island, your pirate robbed a ship with an apple on it, you could imagine an apple falling from a tree in the forest. </p><p><img src='run_exp/static/images/tutorial/example_probe.png' height='500'></p><p><b>[Press the space bar to continue]</b></p></div>","32","","","","","","","","","","","","","","","","","","","","","","",""
"","instruc11","40","248933","0.0-35.0-4.0","""event"",""trial"",""time""
""fullscreenenter"",""0"",""3540""
","
","
","""event"",""trial"",""time""
""fullscreenenter"",""0"",""3540""
","
","null","run_exp/static/audio/clip_13_changepoint.m4a","null","","","","","<div class='center'><p>How successful a pirate is at robbing ships will depend on the island you’re on.</p><p> A pirate may have visited this island many times before and gained a lot of practice robbing ships there.</p><p>So, they’re more likely to be successful than a pirate who has never visited the island before.</p></div>","","","","","","","","","","","","","","","","","",""
"","html-keyboard-response","41","249325","0.0-35.0-5.0","""event"",""trial"",""time""
""fullscreenenter"",""0"",""3540""
","
","
","""event"",""trial"",""time""
""fullscreenenter"",""0"",""3540""
","
","390.10000002384186","<div class='center'><p>How successful a pirate is at robbing ships will depend on the island you’re on.</p><p> A pirate may have visited this island many times before and gained a lot of practice robbing ships there.</p><p>So, they’re more likely to be successful than a pirate who has never visited the island before.</p><p><b>[Press the space bar to continue]</b></p></div>","32","","","","","","","","","","","","","","","","","","","","","","",""
"","instruc12","42","290432","0.0-35.0-6.0","""event"",""trial"",""time""
""fullscreenenter"",""0"",""3540""
","
","
","""event"",""trial"",""time""
""fullscreenenter"",""0"",""3540""
","
","null","run_exp/static/audio/clip_14_drift.m4a","null","","","","","<div class='center'><p>How successful a pirate is at robbing ships can also change over the time spent on the island. </p><p> Ships may hear from islanders about the pirates coming and will improve their protections against the attack. This may make it harder to rob them.</p><p> Ships may also become lazy and weaken the strength of their protections. This may make it easier to rob them.</p><br><p>Things are always changing on the high seas! So, try your best to pay attention!</p><p><img src='run_exp/static/images/tutorial/contingency.png' height='500'></p></div>","","","","","","","","","","","","","","","","","",""
"","html-keyboard-response","43","291953","0.0-35.0-7.0","""event"",""trial"",""time""
""fullscreenenter"",""0"",""3540""
","
","
","""event"",""trial"",""time""
""fullscreenenter"",""0"",""3540""
","
","1517.7999999523163","<div class='center'><p>How successful a pirate is at robbing ships can also change over the time spent on the island. </p><p> Ships may hear from islanders about the pirates coming and will improve their protections against the attack. This may make it harder to rob them.</p><p> Ships may also become lazy and weaken the strength of their protections. This may make it easier to rob them.</p><br><p>Things are always changing on the high seas! So, try your best to pay attention!</p><p><img src='run_exp/static/images/tutorial/contingency.png' height='500'></p><p><b>[Press the space bar to continue]</b></p></div>","32","","","","","","","","","","","","","","","","","","","","","","",""
"","instruc13","44","327149","0.0-35.0-8.0","""event"",""trial"",""time""
""fullscreenenter"",""0"",""3540""
","
","
","""event"",""trial"",""time""
""fullscreenenter"",""0"",""3540""
","
","null","run_exp/static/audio/clip_15_summary.m4a","null","","","","","<div class='center'><p>Let's go over the instructions quickly again. You have two important things to do: </p><b><p> 1. Pick the pirate who is the best at robbing ships on the current island. </p></b><b><p> 2. Remember on which island a ship was robbed.</p> </b><p>The amount of bonus money you can win depends on both.</p><p><br><p>Let’s try a practice game. The game will start by showing you the pirates. First, pick a pirate using the <b> 1, 2, 3 </b> keys on your keyboard. When you are shown a ship, try to remember which island you’re on by making up a story.</p><p>This is just a practice game, so you’re not playing for money. </p><p> Good luck! This game will be very difficult but try your best!</p></div>","","","","","","","","","","","","","","","","","",""
"","html-keyboard-response","45","328266","0.0-35.0-9.0","""event"",""trial"",""time""
""fullscreenenter"",""0"",""3540""
","
","
","""event"",""trial"",""time""
""fullscreenenter"",""0"",""3540""
","
","1113.1999999284744","<div class='center'><p>Let's go over the instructions quickly again. You have two important things to do: </p><b><p> 1. Pick the pirate who is the best at robbing ships on the current island. </p></b><b><p> 2. Remember on which island a ship was robbed.</p> </b><p>The amount of bonus money you can win depends on both.</p><p><br><p>Let’s try a practice game. The game will start by showing you the pirates. First, pick a pirate using the <b> 1, 2, 3 </b> keys on your keyboard. When you are shown a ship, try to remember which island you’re on by making up a story.</p><p>This is just a practice game, so you’re not playing for money. </p><p> Good luck! This game will be very difficult but try your best!</p><p><b>[Press the space bar to continue]</b></p></div>","32","","","","","","","","","","","","","","","","","","","","","","",""
"","do_welcome","46","332306","0.0-35.0-10.0","""event"",""trial"",""time""
""fullscreenenter"",""0"",""3540""
","
","
","""event"",""trial"",""time""
""fullscreenenter"",""0"",""3540""
","
","null","","","","","","","","null","","","","","","","","","","","","","","","","",""
"","do_trial","47","338727","0.0-35.0-11.0","""event"",""trial"",""time""
""fullscreenenter"",""0"",""3540""
","
","
","""event"",""trial"",""time""
""fullscreenenter"",""0"",""3540""
","
","1893.3999999761581","","","","","","","","50","1,0,0","","","","","","","","","","","","","","","",""
"","html-keyboard-response","48","339745","0.0-36.0-0.0","""event"",""trial"",""time""
""fullscreenenter"",""0"",""3540""
","
","
","""event"",""trial"",""time""
""fullscreenenter"",""0"",""3540""
","
","null","<p></p>","null","","","","","","","","","","","","","","","","","","","","","","",""
"","do_trial","49","345779","0.0-36.0-1.0","""event"",""trial"",""time""
""fullscreenenter"",""0"",""3540""
","
","
","""event"",""trial"",""time""
""fullscreenenter"",""0"",""3540""
","
","null","","","","","","","","null","1,1,0","","","","","","","","","","","","","","","",""
"","html-keyboard-response","50","346783","0.0-37.0-0.0","""event"",""trial"",""time""
""fullscreenenter"",""0"",""3540""
","
","
","""event"",""trial"",""time""
""fullscreenenter"",""0"",""3540""
","
","null","<p></p>","null","","","","","","","","","","","","","","","","","","","","","","",""
"","do_trial","51","352632","0.0-37.0-1.0","""event"",""trial"",""time""
""fullscreenenter"",""0"",""3540""
","
","
","""event"",""trial"",""time""
""fullscreenenter"",""0"",""3540""
","
","1328.5","","","","","","","","49","1,1,0","","","","","","","","","","","","","","","",""
"","html-keyboard-response","52","353648","0.0-38.0-0.0","""event"",""trial"",""time""
""fullscreenenter"",""0"",""3540""
","
","
","""event"",""trial"",""time""
""fullscreenenter"",""0"",""3540""
","
","null","<p></p>","null","","","","","","","","","","","","","","","","","","","","","","",""
"","do_trial","53","359690","0.0-38.0-1.0","""event"",""trial"",""time""
""fullscreenenter"",""0"",""3540""
","
","
","""event"",""trial"",""time""
""fullscreenenter"",""0"",""3540""
","
","null","","","","","","","","null","1,0,1","","","","","","","","","","","","","","","",""
"","html-keyboard-response","54","360708","0.0-39.0-0.0","""event"",""trial"",""time""
""fullscreenenter"",""0"",""3540""
","
","
","""event"",""trial"",""time""
""fullscreenenter"",""0"",""3540""
","
","null","<p></p>","null","","","","","","","","","","","","","","","","","","","","","","",""
"","do_trial","55","365871","0.0-39.0-1.0","""event"",""trial"",""time""
""fullscreenenter"",""0"",""3540""
","
","
","""event"",""trial"",""time""
""fullscreenenter"",""0"",""3540""
","
","631.3999999761581","","","","","","","","51","1,0,1","","","","","","","","","","","","","","","",""
"","html-keyboard-response","56","366885","0.0-40.0-0.0","""event"",""trial"",""time""
""fullscreenenter"",""0"",""3540""
","
","
","""event"",""trial"",""time""
""fullscreenenter"",""0"",""3540""
","
","null","<p></p>","null","","","","","","","","","","","","","","","","","","","","","","",""
"","do_trial","57","371904","0.0-40.0-1.0","""event"",""trial"",""time""
""fullscreenenter"",""0"",""3540""
","
","
","""event"",""trial"",""time""
""fullscreenenter"",""0"",""3540""
","
","498.8000000715256","","","","","","","","51","0,1,0","","","","","","","","","","","","","","","",""
"","html-keyboard-response","58","372913","0.0-41.0-0.0","""event"",""trial"",""time""
""fullscreenenter"",""0"",""3540""
","
","
","""event"",""trial"",""time""
""fullscreenenter"",""0"",""3540""
","
","null","<p></p>","null","","","","","","","","","","","","","","","","","","","","","","",""
"","do_trial","59","377592","0.0-41.0-1.0","""event"",""trial"",""time""
""fullscreenenter"",""0"",""3540""
","
","
","""event"",""trial"",""time""
""fullscreenenter"",""0"",""3540""
","
","153.5","","","","","","","","50","1,0,0","","","","","","","","","","","","","","","",""
"","do_bye","60","379108","0.0-42.0-0.0","""event"",""trial"",""time""
""fullscreenenter"",""0"",""3540""
","
","
","""event"",""trial"",""time""
""fullscreenenter"",""0"",""3540""
","
","null","","","","","","","","null","","","","","","","","","","","","","","","","",""
"","do_travel","61","388142","0.0-42.0-1.0","""event"",""trial"",""time""
""fullscreenenter"",""0"",""3540""
","
","
","""event"",""trial"",""time""
""fullscreenenter"",""0"",""3540""
","
","null","","","","","","","","null","","","","","","","","","","","","","","","","",""
"","do_welcome","62","392172","0.0-42.0-2.0","""event"",""trial"",""time""
""fullscreenenter"",""0"",""3540""
","
","
","""event"",""trial"",""time""
""fullscreenenter"",""0"",""3540""
","
","null","","","","","","","","null","","","","","","","","","","","","","","","","",""
"","do_trial","63","397872","0.0-42.0-3.0","""event"",""trial"",""time""
""fullscreenenter"",""0"",""3540""
","
","
","""event"",""trial"",""time""
""fullscreenenter"",""0"",""3540""
","
","1170.1999999284744","","","","","","","","49","1,0,0","","","","","","","","","","","","","","","",""
"","html-keyboard-response","64","398882","0.0-43.0-0.0","""event"",""trial"",""time""
""fullscreenenter"",""0"",""3540""
","
","
","""event"",""trial"",""time""
""fullscreenenter"",""0"",""3540""
","
","null","<p></p>","null","","","","","","","","","","","","","","","","","","","","","","",""
"","do_trial","65","405336","0.0-43.0-1.0","""event"",""trial"",""time""
""fullscreenenter"",""0"",""3540""
","
","
","""event"",""trial"",""time""
""fullscreenenter"",""0"",""3540""
","
","1934.0999999046326","","","","","","","","51","1,0,1","","","","","","","","","","","","","","","",""
"","html-keyboard-response","66","406353","0.0-44.0-0.0","""event"",""trial"",""time""
""fullscreenenter"",""0"",""3540""
","
","
","""event"",""trial"",""time""
""fullscreenenter"",""0"",""3540""
","
","null","<p></p>","null","","","","","","","","","","","","","","","","","","","","","","",""
"","do_trial","67","411658","0.0-44.0-1.0","""event"",""trial"",""time""
""fullscreenenter"",""0"",""3540""
","
","
","""event"",""trial"",""time""
""fullscreenenter"",""0"",""3540""
","
","784","","","","","","","","50","1,1,0","","","","","","","","","","","","","","","",""
"","html-keyboard-response","68","412670","0.0-45.0-0.0","""event"",""trial"",""time""
""fullscreenenter"",""0"",""3540""
","
","
","""event"",""trial"",""time""
""fullscreenenter"",""0"",""3540""
","
","null","<p></p>","null","","","","","","","","","","","","","","","","","","","","","","",""
"","do_trial","69","417622","0.0-45.0-1.0","""event"",""trial"",""time""
""fullscreenenter"",""0"",""3540""
","
","
","""event"",""trial"",""time""
""fullscreenenter"",""0"",""3540""
","
","427.3000000715256","","","","","","","","49","0,0,1","","","","","","","","","","","","","","","",""
"","html-keyboard-response","70","418640","0.0-46.0-0.0","""event"",""trial"",""time""
""fullscreenenter"",""0"",""3540""
","
","
","""event"",""trial"",""time""
""fullscreenenter"",""0"",""3540""
","
","null","<p></p>","null","","","","","","","","","","","","","","","","","","","","","","",""
"","do_trial","71","423159","0.0-46.0-1.0","""event"",""trial"",""time""
""fullscreenenter"",""0"",""3540""
","
","
","""event"",""trial"",""time""
""fullscreenenter"",""0"",""3540""
","
","0.2999999523162842","","","","","","","","51","1,0,1","","","","","","","","","","","","","","","",""
"","html-keyboard-response","72","426345","0.0-47.0-0.0","""event"",""trial"",""time""
""fullscreenenter"",""0"",""3540""
","
","
","""event"",""trial"",""time""
""fullscreenenter"",""0"",""3540""
","
","3180.5","<div class='center'><p><img src='run_exp/static/images/tutorial/prac_best_pirate.png'  height='500'></p></div>","50","","","","","","","","","","","","","","","","","","","","","","",""
"","html-keyboard-response","73","429151","0.0-48.0-0.0","""event"",""trial"",""time""
""fullscreenenter"",""0"",""3540""
","
","
","""event"",""trial"",""time""
""fullscreenenter"",""0"",""3540""
","
","2804.7999999523163","<div class='center'><p>That's incorrect! Red beard was the best.</p><p><b>[Press the space bar to continue]</b></p></div>","32","","","","","","","","","","","","","","","","","","","","","","",""
"","html-keyboard-response","74","433074","0.0-48.0-1.0","""event"",""trial"",""time""
""fullscreenenter"",""0"",""3540""
","
","
","""event"",""trial"",""time""
""fullscreenenter"",""0"",""3540""
","
","3919.1999999284744","<div class='center'><p><img src='run_exp/static/images/tutorial/prac_source.png'  height='500'></p></div>","50","","","","","","","","","","","","","","","","","","","","","","",""
"","html-keyboard-response","75","434420","0.0-49.0-0.0","""event"",""trial"",""time""
""fullscreenenter"",""0"",""3540""
","
","
","""event"",""trial"",""time""
""fullscreenenter"",""0"",""3540""
","
","1342.8999999761581","<div class='center'><p>That's correct! You saw this ship on the cavern island.</p><p><b>[Press the space bar to continue]</b></p></div>","32","","","","","","","","","","","","","","","","","","","","","","",""
"","quiz_beginning","76","447074","0.0-49.0-1.0","""event"",""trial"",""time""
""fullscreenenter"",""0"",""3540""
","
","
","""event"",""trial"",""time""
""fullscreenenter"",""0"",""3540""
","
","null","run_exp/static/audio/clip_16_quiz_intro.m4a","null","","","","","<div class='center'><p>Good job on the practice game! Now, you will be asked some true or false questions to make sure you really understand the rules of the game.</p><p> Press <b>'1'</b> on the keyboard for true and press <b>'2'</b> for false.</p></div>","","","","","","","","","","","","","","","","","",""
"","audio-keyboard-response","77","453000","0.0-49.0-2.0","""event"",""trial"",""time""
""fullscreenenter"",""0"",""3540""
","
","
","""event"",""trial"",""time""
""fullscreenenter"",""0"",""3540""
","
","5918.599999904633","run_exp/static/audio/clip_17_q1.m4a","49","","","","","","","","","","","","","","","","","","","","","","",""
"","correct","78","455414","0.0-50.0-0.0","""event"",""trial"",""time""
""fullscreenenter"",""0"",""3540""
","
","
","""event"",""trial"",""time""
""fullscreenenter"",""0"",""3540""
","
","null","run_exp/static/audio/clip_18_correct.m4a","null","","","","","<div class='center'><p>That's correct!</p></div>","","","","","","","","","","","","","","","","","",""
"","html-keyboard-response","79","456763","0.0-50.0-1.0","""event"",""trial"",""time""
""fullscreenenter"",""0"",""3540""
","
","
","""event"",""trial"",""time""
""fullscreenenter"",""0"",""3540""
","
","1344.6000000238419","<div class='center'><p>That's correct!</p><p><b>[Press the space bar to continue]</b></p></div>","32","","","","","","","","","","","","","","","","","","","","","","",""
"","audio-keyboard-response","80","465680","0.0-50.0-2.0","""event"",""trial"",""time""
""fullscreenenter"",""0"",""3540""
","
","
","""event"",""trial"",""time""
""fullscreenenter"",""0"",""3540""
","
","8914.700000047684","run_exp/static/audio/clip_20_q2.m4a","49","","","","","","","","","","","","","","","","","","","","","","",""
"","q2_err","81","471193","0.0-51.0-0.0","""event"",""trial"",""time""
""fullscreenenter"",""0"",""3540""
","
","
","""event"",""trial"",""time""
""fullscreenenter"",""0"",""3540""
","
","null","run_exp/static/audio/clip_21_wrong_q2.m4a","null","","","","","<div class='center'><p>That’s incorrect. Which pirate is the best may change during your time on the island.</p></div>","","","","","","","","","","","","","","","","","",""
"","html-keyboard-response","82","471621","0.0-51.0-1.0","""event"",""trial"",""time""
""fullscreenenter"",""0"",""3540""
","
","
","""event"",""trial"",""time""
""fullscreenenter"",""0"",""3540""
","
","423.89999997615814","<div class='center'><p>That’s incorrect. Which pirate is the best may change during your time on the island.</p><p><b>[Press the space bar to continue]</b></p></div>","32","","","","","","","","","","","","","","","","","","","","","","",""
"","audio-keyboard-response","83","477986","0.0-51.0-2.0","""event"",""trial"",""time""
""fullscreenenter"",""0"",""3540""
","
","
","""event"",""trial"",""time""
""fullscreenenter"",""0"",""3540""
","
","6362.899999976158","run_exp/static/audio/clip_22_q3.m4a","50","","","","","","","","","","","","","","","","","","","","","","",""
"","correct","84","480414","0.0-52.0-0.0","""event"",""trial"",""time""
""fullscreenenter"",""0"",""3540""
","
","
","""event"",""trial"",""time""
""fullscreenenter"",""0"",""3540""
","
","null","run_exp/static/audio/clip_18_correct.m4a","null","","","","","<div class='center'><p>That's correct!</p></div>","","","","","","","","","","","","","","","","","",""
"","html-keyboard-response","85","481024","0.0-52.0-1.0","""event"",""trial"",""time""
""fullscreenenter"",""0"",""3540""
","
","
","""event"",""trial"",""time""
""fullscreenenter"",""0"",""3540""
","
","606","<div class='center'><p>That's correct!</p><p><b>[Press the space bar to continue]</b></p></div>","32","","","","","","","","","","","","","","","","","","","","","","",""
"","audio-keyboard-response","86","485107","0.0-52.0-2.0","""event"",""trial"",""time""
""fullscreenenter"",""0"",""3540""
","
","
","""event"",""trial"",""time""
""fullscreenenter"",""0"",""3540""
","
","4080.7000000476837","run_exp/static/audio/clip_24_q4.m4a","49","","","","","","","","","","","","","","","","","","","","","","",""
"","correct","87","487514","0.0-53.0-0.0","""event"",""trial"",""time""
""fullscreenenter"",""0"",""3540""
","
","
","""event"",""trial"",""time""
""fullscreenenter"",""0"",""3540""
","
","null","run_exp/static/audio/clip_18_correct.m4a","null","","","","","<div class='center'><p>That's correct!</p></div>","","","","","","","","","","","","","","","","","",""
"","html-keyboard-response","88","488589","0.0-53.0-1.0","""event"",""trial"",""time""
""fullscreenenter"",""0"",""3540""
","
","
","""event"",""trial"",""time""
""fullscreenenter"",""0"",""3540""
","
","1072.6999999284744","<div class='center'><p>That's correct!</p><p><b>[Press the space bar to continue]</b></p></div>","32","","","","","","","","","","","","","","","","","","","","","","",""
"","q_all_err","89","494795","0.0-54.0-0.0","""event"",""trial"",""time""
""fullscreenenter"",""0"",""3540""
","
","
","""event"",""trial"",""time""
""fullscreenenter"",""0"",""3540""
","
","null","run_exp/static/audio/clip_26_quiz_redo.m4a","null","","","","","<div class='center'><p>Oops, you missed some questions. Now that you’ve heard the correct answers. Try the quiz again! </p></div>","","","","","","","","","","","","","","","","","",""
"","html-keyboard-response","90","495365","0.0-54.0-1.0","""event"",""trial"",""time""
""fullscreenenter"",""0"",""3540""
","
","
","""event"",""trial"",""time""
""fullscreenenter"",""0"",""3540""
","
","566.5","<div class='center'><p>Oops, you missed some questions. Now that you’ve heard the correct answers. Try the quiz again! </p><p><b>[Press the space bar to continue]</b></p></div>","32","","","","","","","","","","","","","","","","","","","","","","",""
"","audio-keyboard-response","91","498273","0.0-54.0-2.0","""event"",""trial"",""time""
""fullscreenenter"",""0"",""3540""
","
","
","""event"",""trial"",""time""
""fullscreenenter"",""0"",""3540""
","
","2904.1999999284744","run_exp/static/audio/clip_17_q1.m4a","49","","","","","","","","","","","","","","","","","","","","","","",""
"","correct","92","500674","0.0-55.0-0.0","""event"",""trial"",""time""
""fullscreenenter"",""0"",""3540""
","
","
","""event"",""trial"",""time""
""fullscreenenter"",""0"",""3540""
","
","null","run_exp/static/audio/clip_18_correct.m4a","null","","","","","<div class='center'><p>That's correct!</p></div>","","","","","","","","","","","","","","","","","",""
"","html-keyboard-response","93","501690","0.0-55.0-1.0","""event"",""trial"",""time""
""fullscreenenter"",""0"",""3540""
","
","
","""event"",""trial"",""time""
""fullscreenenter"",""0"",""3540""
","
","1013.5","<div class='center'><p>That's correct!</p><p><b>[Press the space bar to continue]</b></p></div>","32","","","","","","","","","","","","","","","","","","","","","","",""
"","audio-keyboard-response","94","504473","0.0-55.0-2.0","""event"",""trial"",""time""
""fullscreenenter"",""0"",""3540""
","
","
","""event"",""trial"",""time""
""fullscreenenter"",""0"",""3540""
","
","2779.7999999523163","run_exp/static/audio/clip_20_q2.m4a","50","","","","","","","","","","","","","","","","","","","","","","",""
"","correct","95","506875","0.0-56.0-0.0","""event"",""trial"",""time""
""fullscreenenter"",""0"",""3540""
","
","
","""event"",""trial"",""time""
""fullscreenenter"",""0"",""3540""
","
","null","run_exp/static/audio/clip_18_correct.m4a","null","","","","","<div class='center'><p>That's correct!</p></div>","","","","","","","","","","","","","","","","","",""
"","html-keyboard-response","96","507501","0.0-56.0-1.0","""event"",""trial"",""time""
""fullscreenenter"",""0"",""3540""
","
","
","""event"",""trial"",""time""
""fullscreenenter"",""0"",""3540""
","
","623.8000000715256","<div class='center'><p>That's correct!</p><p><b>[Press the space bar to continue]</b></p></div>","32","","","","","","","","","","","","","","","","","","","","","","",""
"","audio-keyboard-response","97","512267","0.0-56.0-2.0","""event"",""trial"",""time""
""fullscreenenter"",""0"",""3540""
","
","
","""event"",""trial"",""time""
""fullscreenenter"",""0"",""3540""
","
","4764","run_exp/static/audio/clip_22_q3.m4a","50","","","","","","","","","","","","","","","","","","","","","","",""
"","correct","98","514669","0.0-57.0-0.0","""event"",""trial"",""time""
""fullscreenenter"",""0"",""3540""
","
","
","""event"",""trial"",""time""
""fullscreenenter"",""0"",""3540""
","
","null","run_exp/static/audio/clip_18_correct.m4a","null","","","","","<div class='center'><p>That's correct!</p></div>","","","","","","","","","","","","","","","","","",""
"","html-keyboard-response","99","515324","0.0-57.0-1.0","""event"",""trial"",""time""
""fullscreenenter"",""0"",""3540""
","
","
","""event"",""trial"",""time""
""fullscreenenter"",""0"",""3540""
","
","651.6999999284744","<div class='center'><p>That's correct!</p><p><b>[Press the space bar to continue]</b></p></div>","32","","","","","","","","","","","","","","","","","","","","","","",""
"","audio-keyboard-response","100","516848","0.0-57.0-2.0","""event"",""trial"",""time""
""fullscreenenter"",""0"",""3540""
","
","
","""event"",""trial"",""time""
""fullscreenenter"",""0"",""3540""
","
","1517.5999999046326","run_exp/static/audio/clip_24_q4.m4a","49","","","","","","","","","","","","","","","","","","","","","","",""
"","correct","101","519309","0.0-58.0-0.0","""event"",""trial"",""time""
""fullscreenenter"",""0"",""3540""
","
","
","""event"",""trial"",""time""
""fullscreenenter"",""0"",""3540""
","
","null","run_exp/static/audio/clip_18_correct.m4a","null","","","","","<div class='center'><p>That's correct!</p></div>","","","","","","","","","","","","","","","","","",""
"","html-keyboard-response","102","520059","0.0-58.0-1.0","""event"",""trial"",""time""
""fullscreenenter"",""0"",""3540""
","
","
","""event"",""trial"",""time""
""fullscreenenter"",""0"",""3540""
","
","747.1999999284744","<div class='center'><p>That's correct!</p><p><b>[Press the space bar to continue]</b></p></div>","32","","","","","","","","","","","","","","","","","","","","","","",""
"","q_all_corr","103","528549","0.0-59.0-0.0","""event"",""trial"",""time""
""fullscreenenter"",""0"",""3540""
","
","
","""event"",""trial"",""time""
""fullscreenenter"",""0"",""3540""
","
","null","run_exp/static/audio/clip_27_quiz_all_correct.m4a","null","","","","","<div class='center'><p>Good job! You’re now ready to move on to the real game! Remember this game will be difficult but don't get discouraged and try your best!</p></div>","","","","","","","","","","","","","","","","","",""
"","html-keyboard-response","104","528995","0.0-59.0-1.0","""event"",""trial"",""time""
""fullscreenenter"",""0"",""3540""
","
","
","""event"",""trial"",""time""
""fullscreenenter"",""0"",""3540""
","
","443.10000002384186","<div class='center'><p>Good job! You’re now ready to move on to the real game! Remember this game will be difficult but don't get discouraged and try your best!</p><p><b>[Press the space bar to continue]</b></p></div>","32","","","","","","","","","","","","","","","","","","","","","","",""
"","do_welcome","105","533021","0.0-60.0-0.0","""event"",""trial"",""time""
""fullscreenenter"",""0"",""3540""
","
","
","""event"",""trial"",""time""
""fullscreenenter"",""0"",""3540""
","
","null","","","","","","","","null","","","","","","","","","","","","","","","","",""
"","do_trial","106","538475","0.0-61.0-0.0","""event"",""trial"",""time""
""fullscreenenter"",""0"",""3540""
","
","
","""event"",""trial"",""time""
""fullscreenenter"",""0"",""3540""
","
","860.1999999284744","","","","","","","","49","1,0,0","0","highway","0","probe-145","0.6","0.3","0.1","1","","","","","","","",""
"","html-keyboard-response","107","539485","0.0-61.0-1.0","""event"",""trial"",""time""
""fullscreenenter"",""0"",""3540""
","
","
","""event"",""trial"",""time""
""fullscreenenter"",""0"",""3540""
","
","null","<p></p>","null","","","","","","","","","","","","","","","","","","","","","","",""
"","do_trial","108","544594","0.0-62.0-0.0","""event"",""trial"",""time""
""fullscreenenter"",""0"",""3540""
","
","
","""event"",""trial"",""time""
""fullscreenenter"",""0"",""3540""
","
","536.2999999523163","","","","","","","","50","1,0,0","0","highway","1","probe-134","0.7846088080780363","0.3469236091693823","0.0916891229859323","0","","","","","","","",""
"","html-keyboard-response","109","545604","0.0-62.0-1.0","""event"",""trial"",""time""
""fullscreenenter"",""0"",""3540""
","
","
","""event"",""trial"",""time""
""fullscreenenter"",""0"",""3540""
","
","null","<p></p>","null","","","","","","","","","","","","","","","","","","","","","","",""
"","do_trial","110","550680","0.0-63.0-0.0","""event"",""trial"",""time""
""fullscreenenter"",""0"",""3540""
","
","
","""event"",""trial"",""time""
""fullscreenenter"",""0"",""3540""
","
","502.90000009536743","","","","","","","","49","0,1,0","0","highway","2","probe-117","0.7864372267700049","0.26970906470594164","0.1565675028445553","0","","","","","","","",""
"","html-keyboard-response","111","551696","0.0-63.0-1.0","""event"",""trial"",""time""
""fullscreenenter"",""0"",""3540""
","
","
","""event"",""trial"",""time""
""fullscreenenter"",""0"",""3540""
","
","null","<p></p>","null","","","","","","","","","","","","","","","","","","","","","","",""
"","do_trial","112","556951","0.0-64.0-0.0","""event"",""trial"",""time""
""fullscreenenter"",""0"",""3540""
","
","
","""event"",""trial"",""time""
""fullscreenenter"",""0"",""3540""
","
","633.8999999761581","","","","","","","","50","1,1,0","0","highway","3","probe-175","0.7152437484074342","0.2861991079978016","0.05240886325187594","1","","","","","","","",""
"","html-keyboard-response","113","557954","0.0-64.0-1.0","""event"",""trial"",""time""
""fullscreenenter"",""0"",""3540""
","
","
","""event"",""trial"",""time""
""fullscreenenter"",""0"",""3540""
","
","null","<p></p>","null","","","","","","","","","","","","","","","","","","","","","","",""
"","do_trial","114","562998","0.0-65.0-0.0","""event"",""trial"",""time""
""fullscreenenter"",""0"",""3540""
","
","
","""event"",""trial"",""time""
""fullscreenenter"",""0"",""3540""
","
","453","","","","","","","","51","0,0,0","0","highway","4","probe-94","0.3776532641472531","0.3753952108757154","0.13456376666013048","0","","","","","","","",""
"","html-keyboard-response","115","564015","0.0-65.0-1.0","""event"",""trial"",""time""
""fullscreenenter"",""0"",""3540""
","
","
","""event"",""trial"",""time""
""fullscreenenter"",""0"",""3540""
","
","null","<p></p>","null","","","","","","","","","","","","","","","","","","","","","","",""
"","do_trial","116","568726","0.0-66.0-0.0","""event"",""trial"",""time""
""fullscreenenter"",""0"",""3540""
","
","
","""event"",""trial"",""time""
""fullscreenenter"",""0"",""3540""
","
","133.40000009536743","","","","","","","","50","0,1,0","0","highway","5","probe-195","0.4769594068495326","0.3435749940207059","0.1648499110783495","1","","","","","","","",""
"","html-keyboard-response","117","569742","0.0-66.0-1.0","""event"",""trial"",""time""
""fullscreenenter"",""0"",""3540""
""fullscreenexit"",""118"",""575040""
","
","
","""event"",""trial"",""time""
""fullscreenenter"",""0"",""3540""
","""event"",""trial"",""time""
""fullscreenexit"",""118"",""575040""
","null","<p></p>","null","","","","","","","","","","","","","","","","","","","","","","",""
"","do_trial","118","575092","0.0-67.0-0.0","""event"",""trial"",""time""
""fullscreenenter"",""0"",""3540""
""fullscreenexit"",""118"",""575040""
","
","
","""event"",""trial"",""time""
""fullscreenenter"",""0"",""3540""
","""event"",""trial"",""time""
""fullscreenexit"",""118"",""575040""
","650.8000000715256","","","","","","","","51","0,0,0","0","highway","6","probe-06","0.44136086209921344","0.18036967150120284","0.11205894920950833","0","","","","","","","",""
"","html-keyboard-response","119","576099","0.0-67.0-1.0","""event"",""trial"",""time""
""fullscreenenter"",""0"",""3540""
""fullscreenexit"",""118"",""575040""
","
","
","""event"",""trial"",""time""
""fullscreenenter"",""0"",""3540""
","""event"",""trial"",""time""
""fullscreenexit"",""118"",""575040""
","null","<p></p>","null","","","","","","","","","","","","","","","","","","","","","","",""
"","do_trial","120","581544","0.0-68.0-0.0","""event"",""trial"",""time""
""fullscreenenter"",""0"",""3540""
""fullscreenexit"",""118"",""575040""
","
","
","""event"",""trial"",""time""
""fullscreenenter"",""0"",""3540""
","""event"",""trial"",""time""
""fullscreenexit"",""118"",""575040""
","873","","","","","","","","49","1,1,1","0","highway","7","probe-130","0.6179364702479085","0.2050806205973236","0.12406261409576623","1","","","","","","","",""
"","html-keyboard-response","121","582556","0.0-68.0-1.0","""event"",""trial"",""time""
""fullscreenenter"",""0"",""3540""
""fullscreenexit"",""118"",""575040""
","
","
","""event"",""trial"",""time""
""fullscreenenter"",""0"",""3540""
","""event"",""trial"",""time""
""fullscreenexit"",""118"",""575040""
","null","<p></p>","null","","","","","","","","","","","","","","","","","","","","","","",""
"","do_trial","122","587536","0.0-69.0-0.0","""event"",""trial"",""time""
""fullscreenenter"",""0"",""3540""
""fullscreenexit"",""118"",""575040""
","
","
","""event"",""trial"",""time""
""fullscreenenter"",""0"",""3540""
","""event"",""trial"",""time""
""fullscreenexit"",""118"",""575040""
","410","","","","","","","","49","1,1,0","0","highway","8","probe-193","0.6344161530156444","0.16398841491772675","0.20083806738312063","1","","","","","","","",""
"","html-keyboard-response","123","588554","0.0-69.0-1.0","""event"",""trial"",""time""
""fullscreenenter"",""0"",""3540""
""fullscreenexit"",""118"",""575040""
","
","
","""event"",""trial"",""time""
""fullscreenenter"",""0"",""3540""
","""event"",""trial"",""time""
""fullscreenexit"",""118"",""575040""
","null","<p></p>","null","","","","","","","","","","","","","","","","","","","","","","",""
"","do_trial","124","594470","0.0-70.0-0.0","""event"",""trial"",""time""
""fullscreenenter"",""0"",""3540""
""fullscreenexit"",""118"",""575040""
","
","
","""event"",""trial"",""time""
""fullscreenenter"",""0"",""3540""
","""event"",""trial"",""time""
""fullscreenexit"",""118"",""575040""
","1331.3999999761581","","","","","","","","50","1,1,0","0","highway","9","probe-126","0.6142548662045673","0.21210601876679086","0.05061954003605079","1","","","","","","","",""
"","html-keyboard-response","125","595488","0.0-70.0-1.0","""event"",""trial"",""time""
""fullscreenenter"",""0"",""3540""
""fullscreenexit"",""118"",""575040""
","
","
","""event"",""trial"",""time""
""fullscreenenter"",""0"",""3540""
","""event"",""trial"",""time""
""fullscreenexit"",""118"",""575040""
","null","<p></p>","null","","","","","","","","","","","","","","","","","","","","","","",""
"","do_trial","126","600446","0.0-71.0-0.0","""event"",""trial"",""time""
""fullscreenenter"",""0"",""3540""
""fullscreenexit"",""118"",""575040""
","
","
","""event"",""trial"",""time""
""fullscreenenter"",""0"",""3540""
","""event"",""trial"",""time""
""fullscreenexit"",""118"",""575040""
","349.89999997615814","","","","","","","","51","0,0,0","0","highway","10","probe-158","0.6949227980402088","0.15012517417421992","0.09064496169979609","0","","","","","","","",""
"","html-keyboard-response","127","601462","0.0-71.0-1.0","""event"",""trial"",""time""
""fullscreenenter"",""0"",""3540""
""fullscreenexit"",""118"",""575040""
","
","
","""event"",""trial"",""time""
""fullscreenenter"",""0"",""3540""
","""event"",""trial"",""time""
""fullscreenexit"",""118"",""575040""
","null","<p></p>","null","","","","","","","","","","","","","","","","","","","","","","",""
"","do_trial","128","606033","0.0-72.0-0.0","""event"",""trial"",""time""
""fullscreenenter"",""0"",""3540""
""fullscreenexit"",""118"",""575040""
","
","
","""event"",""trial"",""time""
""fullscreenenter"",""0"",""3540""
","""event"",""trial"",""time""
""fullscreenexit"",""118"",""575040""
","0.09999990463256836","","","","","","","","49","1,0,0","0","highway","11","probe-08","0.5938013757246838","0.17073177295467706","0.17336021142621655","1","","","","","","","",""
"","html-keyboard-response","129","607041","0.0-72.0-1.0","""event"",""trial"",""time""
""fullscreenenter"",""0"",""3540""
""fullscreenexit"",""118"",""575040""
","
","
","""event"",""trial"",""time""
""fullscreenenter"",""0"",""3540""
","""event"",""trial"",""time""
""fullscreenexit"",""118"",""575040""
","null","<p></p>","null","","","","","","","","","","","","","","","","","","","","","","",""
"","do_trial","130","612064","0.0-73.0-0.0","""event"",""trial"",""time""
""fullscreenenter"",""0"",""3540""
""fullscreenexit"",""118"",""575040""
","
","
","""event"",""trial"",""time""
""fullscreenenter"",""0"",""3540""
","""event"",""trial"",""time""
""fullscreenexit"",""118"",""575040""
","452","","","","","","","","50","1,0,0","0","highway","12","probe-219","0.7209421557015671","0.3045291402742184","0.14802922701659044","0","","","","","","","",""
"","html-keyboard-response","131","613073","0.0-73.0-1.0","""event"",""trial"",""time""
""fullscreenenter"",""0"",""3540""
""fullscreenexit"",""118"",""575040""
","
","
","""event"",""trial"",""time""
""fullscreenenter"",""0"",""3540""
","""event"",""trial"",""time""
""fullscreenexit"",""118"",""575040""
","null","<p></p>","null","","","","","","","","","","","","","","","","","","","","","","",""
"","do_trial","132","617956","0.0-74.0-0.0","""event"",""trial"",""time""
""fullscreenenter"",""0"",""3540""
""fullscreenexit"",""118"",""575040""
","
","
","""event"",""trial"",""time""
""fullscreenenter"",""0"",""3540""
","""event"",""trial"",""time""
""fullscreenexit"",""118"",""575040""
","313.7999999523163","","","","","","","","49","1,0,0","0","highway","13","probe-159","0.6002849893711895","0.17261580916060162","0.10003902504280855","1","","","","","","","",""
"","html-keyboard-response","133","618970","0.0-74.0-1.0","""event"",""trial"",""time""
""fullscreenenter"",""0"",""3540""
""fullscreenexit"",""118"",""575040""
","
","
","""event"",""trial"",""time""
""fullscreenenter"",""0"",""3540""
","""event"",""trial"",""time""
""fullscreenexit"",""118"",""575040""
","null","<p></p>","null","","","","","","","","","","","","","","","","","","","","","","",""
"","do_trial","134","623605","0.0-75.0-0.0","""event"",""trial"",""time""
""fullscreenenter"",""0"",""3540""
""fullscreenexit"",""118"",""575040""
","
","
","""event"",""trial"",""time""
""fullscreenenter"",""0"",""3540""
","""event"",""trial"",""time""
""fullscreenexit"",""118"",""575040""
","31","","","","","","","","51","1,0,0","0","highway","14","probe-185","0.5691901020966662","0.2622288277884472","0.11059974175103428","0","","","","","","","",""
"","html-keyboard-response","135","624622","0.0-75.0-1.0","""event"",""trial"",""time""
""fullscreenenter"",""0"",""3540""
""fullscreenexit"",""118"",""575040""
","
","
","""event"",""trial"",""time""
""fullscreenenter"",""0"",""3540""
","""event"",""trial"",""time""
""fullscreenexit"",""118"",""575040""
","null","<p></p>","null","","","","","","","","","","","","","","","","","","","","","","",""
"","do_trial","136","629565","0.0-76.0-0.0","""event"",""trial"",""time""
""fullscreenenter"",""0"",""3540""
""fullscreenexit"",""118"",""575040""
","
","
","""event"",""trial"",""time""
""fullscreenenter"",""0"",""3540""
","""event"",""trial"",""time""
""fullscreenexit"",""118"",""575040""
","364.10000002384186","","","","","","","","49","0,0,0","0","highway","15","probe-85","0.571541741449722","0.20874349095776856","0.1783231531191734","0","","","","","","","",""
"","html-keyboard-response","137","630580","0.0-76.0-1.0","""event"",""trial"",""time""
""fullscreenenter"",""0"",""3540""
""fullscreenexit"",""118"",""575040""
","
","
","""event"",""trial"",""time""
""fullscreenenter"",""0"",""3540""
","""event"",""trial"",""time""
""fullscreenexit"",""118"",""575040""
","null","<p></p>","null","","","","","","","","","","","","","","","","","","","","","","",""
"","do_trial","138","635633","0.0-77.0-0.0","""event"",""trial"",""time""
""fullscreenenter"",""0"",""3540""
""fullscreenexit"",""118"",""575040""
","
","
","""event"",""trial"",""time""
""fullscreenenter"",""0"",""3540""
","""event"",""trial"",""time""
""fullscreenexit"",""118"",""575040""
","477.6999999284744","","","","","","","","49","1,1,0","0","highway","16","probe-32","0.4930935702954725","0.43247979220912286","0.16349711153486982","1","","","","","","","",""
"","html-keyboard-response","139","636649","0.0-77.0-1.0","""event"",""trial"",""time""
""fullscreenenter"",""0"",""3540""
""fullscreenexit"",""118"",""575040""
","
","
","""event"",""trial"",""time""
""fullscreenenter"",""0"",""3540""
","""event"",""trial"",""time""
""fullscreenexit"",""118"",""575040""
","null","<p></p>","null","","","","","","","","","","","","","","","","","","","","","","",""
"","do_trial","140","641594","0.0-78.0-0.0","""event"",""trial"",""time""
""fullscreenenter"",""0"",""3540""
""fullscreenexit"",""118"",""575040""
","
","
","""event"",""trial"",""time""
""fullscreenenter"",""0"",""3540""
","""event"",""trial"",""time""
""fullscreenexit"",""118"",""575040""
","358.09999990463257","","","","","","","","50","1,0,0","0","highway","17","probe-132","0.5081282923272546","0.25517954813310384","0.20320897081688016","0","","","","","","","",""
"","html-keyboard-response","141","642610","0.0-78.0-1.0","""event"",""trial"",""time""
""fullscreenenter"",""0"",""3540""
""fullscreenexit"",""118"",""575040""
","
","
","""event"",""trial"",""time""
""fullscreenenter"",""0"",""3540""
","""event"",""trial"",""time""
""fullscreenexit"",""118"",""575040""
","null","<p></p>","null","","","","","","","","","","","","","","","","","","","","","","",""
"","do_trial","142","647187","0.0-79.0-0.0","""event"",""trial"",""time""
""fullscreenenter"",""0"",""3540""
""fullscreenexit"",""118"",""575040""
","
","
","""event"",""trial"",""time""
""fullscreenenter"",""0"",""3540""
","""event"",""trial"",""time""
""fullscreenexit"",""118"",""575040""
","0.10000002384185791","","","","","","","","51","1,0,0","0","highway","18","probe-171","0.5599880712582105","0.21315123148350007","0.23698904409466404","0","","","","","","","",""
"","html-keyboard-response","143","648195","0.0-79.0-1.0","""event"",""trial"",""time""
""fullscreenenter"",""0"",""3540""
""fullscreenexit"",""118"",""575040""
","
","
","""event"",""trial"",""time""
""fullscreenenter"",""0"",""3540""
","""event"",""trial"",""time""
""fullscreenexit"",""118"",""575040""
","null","<p></p>","null","","","","","","","","","","","","","","","","","","","","","","",""
"","do_trial","144","652814","0.0-80.0-0.0","""event"",""trial"",""time""
""fullscreenenter"",""0"",""3540""
""fullscreenexit"",""118"",""575040""
","
","
","""event"",""trial"",""time""
""fullscreenenter"",""0"",""3540""
","""event"",""trial"",""time""
""fullscreenexit"",""118"",""575040""
","0.10000002384185791","","","","","","","","50","1,1,1","0","highway","19","probe-69","0.4862713358555064","0.3444276684748431","0.09295233190877837","1","","","","","","","",""
"","html-keyboard-response","145","653831","0.0-80.0-1.0","""event"",""trial"",""time""
""fullscreenenter"",""0"",""3540""
""fullscreenexit"",""118"",""575040""
","
","
","""event"",""trial"",""time""
""fullscreenenter"",""0"",""3540""
","""event"",""trial"",""time""
""fullscreenexit"",""118"",""575040""
","null","<p></p>","null","","","","","","","","","","","","","","","","","","","","","","",""
"","do_trial","146","659138","0.0-81.0-0.0","""event"",""trial"",""time""
""fullscreenenter"",""0"",""3540""
""fullscreenexit"",""118"",""575040""
","
","
","""event"",""trial"",""time""
""fullscreenenter"",""0"",""3540""
","""event"",""trial"",""time""
""fullscreenexit"",""118"",""575040""
","737.5","","","","","","","","49","0,1,1","0","highway","20","probe-90","0.6017068157687632","0.4381847090318037","0.23766829613050305","0","","","","","","","",""
"","html-keyboard-response","147","660156","0.0-81.0-1.0","""event"",""trial"",""time""
""fullscreenenter"",""0"",""3540""
""fullscreenexit"",""118"",""575040""
","
","
","""event"",""trial"",""time""
""fullscreenenter"",""0"",""3540""
","""event"",""trial"",""time""
""fullscreenexit"",""118"",""575040""
","null","<p></p>","null","","","","","","","","","","","","","","","","","","","","","","",""
"","do_trial","148","666197","0.0-82.0-0.0","""event"",""trial"",""time""
""fullscreenenter"",""0"",""3540""
""fullscreenexit"",""118"",""575040""
","
","
","""event"",""trial"",""time""
""fullscreenenter"",""0"",""3540""
","""event"",""trial"",""time""
""fullscreenexit"",""118"",""575040""
","1462.6000000238419","","","","","","","","50","1,0,1","0","highway","21","probe-122","0.687741860338197","0.3747313582707467","0.18289971404000724","0","","","","","","","",""
"","html-keyboard-response","149","667201","0.0-82.0-1.0","""event"",""trial"",""time""
""fullscreenenter"",""0"",""3540""
""fullscreenexit"",""118"",""575040""
","
","
","""event"",""trial"",""time""
""fullscreenenter"",""0"",""3540""
","""event"",""trial"",""time""
""fullscreenexit"",""118"",""575040""
","null","<p></p>","null","","","","","","","","","","","","","","","","","","","","","","",""
"","do_trial","150","671860","0.0-83.0-0.0","""event"",""trial"",""time""
""fullscreenenter"",""0"",""3540""
""fullscreenexit"",""118"",""575040""
","
","
","""event"",""trial"",""time""
""fullscreenenter"",""0"",""3540""
","""event"",""trial"",""time""
""fullscreenexit"",""118"",""575040""
","12.799999952316284","","","","","","","","51","0,1,0","0","highway","22","probe-12","0.7423779015897776","0.27073115982371987","0.15057578203893882","0","","","","","","","",""
"","html-keyboard-response","151","672876","0.0-83.0-1.0","""event"",""trial"",""time""
""fullscreenenter"",""0"",""3540""
""fullscreenexit"",""118"",""575040""
","
","
","""event"",""trial"",""time""
""fullscreenenter"",""0"",""3540""
","""event"",""trial"",""time""
""fullscreenexit"",""118"",""575040""
","null","<p></p>","null","","","","","","","","","","","","","","","","","","","","","","",""
"","do_trial","152","678806","0.0-84.0-0.0","""event"",""trial"",""time""
""fullscreenenter"",""0"",""3540""
""fullscreenexit"",""118"",""575040""
","
","
","""event"",""trial"",""time""
""fullscreenenter"",""0"",""3540""
","""event"",""trial"",""time""
""fullscreenexit"",""118"",""575040""
","1346.6999999284744","","","","","","","","49","1,0,0","0","highway","23","probe-24","0.6221283420797951","0.3300631241593829","0.13591505268661822","1","","","","","","","",""
"","html-keyboard-response","153","679822","0.0-84.0-1.0","""event"",""trial"",""time""
""fullscreenenter"",""0"",""3540""
""fullscreenexit"",""118"",""575040""
","
","
","""event"",""trial"",""time""
""fullscreenenter"",""0"",""3540""
","""event"",""trial"",""time""
""fullscreenexit"",""118"",""575040""
","null","<p></p>","null","","","","","","","","","","","","","","","","","","","","","","",""
"","do_trial","154","686895","0.0-85.0-0.0","""event"",""trial"",""time""
""fullscreenenter"",""0"",""3540""
""fullscreenexit"",""118"",""575040""
","
","
","""event"",""trial"",""time""
""fullscreenenter"",""0"",""3540""
","""event"",""trial"",""time""
""fullscreenexit"",""118"",""575040""
","2486.0999999046326","","","","","","","","49","0,0,0","0","highway","24","probe-26","0.5636848123284706","0.42186965877548266","0.06253364814845756","0","","","","","","","",""
"","html-keyboard-response","155","687910","0.0-85.0-1.0","""event"",""trial"",""time""
""fullscreenenter"",""0"",""3540""
""fullscreenexit"",""118"",""575040""
","
","
","""event"",""trial"",""time""
""fullscreenenter"",""0"",""3540""
","""event"",""trial"",""time""
""fullscreenexit"",""118"",""575040""
","null","<p></p>","null","","","","","","","","","","","","","","","","","","","","","","",""
"","do_trial","156","692598","0.0-86.0-0.0","""event"",""trial"",""time""
""fullscreenenter"",""0"",""3540""
""fullscreenexit"",""118"",""575040""
","
","
","""event"",""trial"",""time""
""fullscreenenter"",""0"",""3540""
","""event"",""trial"",""time""
""fullscreenexit"",""118"",""575040""
","0.10000002384185791","","","","","","","","50","1,0,0","0","highway","25","probe-138","0.5507911267966933","0.2808169818400035","0.10081707146600911","0","","","","","","","",""
"","html-keyboard-response","157","693609","0.0-86.0-1.0","""event"",""trial"",""time""
""fullscreenenter"",""0"",""3540""
""fullscreenexit"",""118"",""575040""
","
","
","""event"",""trial"",""time""
""fullscreenenter"",""0"",""3540""
","""event"",""trial"",""time""
""fullscreenexit"",""118"",""575040""
","null","<p></p>","null","","","","","","","","","","","","","","","","","","","","","","",""
"","do_trial","158","698192","0.0-87.0-0.0","""event"",""trial"",""time""
""fullscreenenter"",""0"",""3540""
""fullscreenexit"",""118"",""575040""
","
","
","""event"",""trial"",""time""
""fullscreenenter"",""0"",""3540""
","""event"",""trial"",""time""
""fullscreenexit"",""118"",""575040""
","10.200000047683716","","","","","","","","51","1,0,0","0","highway","26","probe-27","0.5690111171994372","0.31112502162197203","0.10501717770883914","0","","","","","","","",""
"","html-keyboard-response","159","699209","0.0-87.0-1.0","""event"",""trial"",""time""
""fullscreenenter"",""0"",""3540""
""fullscreenexit"",""118"",""575040""
","
","
","""event"",""trial"",""time""
""fullscreenenter"",""0"",""3540""
","""event"",""trial"",""time""
""fullscreenexit"",""118"",""575040""
","null","<p></p>","null","","","","","","","","","","","","","","","","","","","","","","",""
"","do_trial","160","703860","0.0-88.0-0.0","""event"",""trial"",""time""
""fullscreenenter"",""0"",""3540""
""fullscreenexit"",""118"",""575040""
","
","
","""event"",""trial"",""time""
""fullscreenenter"",""0"",""3540""
","""event"",""trial"",""time""
""fullscreenexit"",""118"",""575040""
","43.700000047683716","","","","","","","","49","1,0,0","0","highway","27","probe-79","0.5219107794909809","0.3175890507505432","0.05216374250262935","1","","","","","","","",""
"","html-keyboard-response","161","704874","0.0-88.0-1.0","""event"",""trial"",""time""
""fullscreenenter"",""0"",""3540""
""fullscreenexit"",""118"",""575040""
","
","
","""event"",""trial"",""time""
""fullscreenenter"",""0"",""3540""
","""event"",""trial"",""time""
""fullscreenexit"",""118"",""575040""
","null","<p></p>","null","","","","","","","","","","","","","","","","","","","","","","",""
"","do_trial","162","709568","0.0-89.0-0.0","""event"",""trial"",""time""
""fullscreenenter"",""0"",""3540""
""fullscreenexit"",""118"",""575040""
","
","
","""event"",""trial"",""time""
""fullscreenenter"",""0"",""3540""
","""event"",""trial"",""time""
""fullscreenexit"",""118"",""575040""
","110","","","","","","","","51","0,0,0","0","highway","28","probe-174","0.4353205183942432","0.1595432628028158","0.11121718565824479","0","","","","","","","",""
"","html-keyboard-response","163","710583","0.0-89.0-1.0","""event"",""trial"",""time""
""fullscreenenter"",""0"",""3540""
""fullscreenexit"",""118"",""575040""
","
","
","""event"",""trial"",""time""
""fullscreenenter"",""0"",""3540""
","""event"",""trial"",""time""
""fullscreenexit"",""118"",""575040""
","null","<p></p>","null","","","","","","","","","","","","","","","","","","","","","","",""
"","do_trial","164","715183","0.0-90.0-0.0","""event"",""trial"",""time""
""fullscreenenter"",""0"",""3540""
""fullscreenexit"",""118"",""575040""
","
","
","""event"",""trial"",""time""
""fullscreenenter"",""0"",""3540""
","""event"",""trial"",""time""
""fullscreenexit"",""118"",""575040""
","0.19999992847442627","","","","","","","","50","0,0,0","0","highway","29","probe-123","0.3830147506067524","0.3635749816031016","0.05497845935349455","0","","","","","","","",""
"","html-keyboard-response","165","716199","0.0-90.0-1.0","""event"",""trial"",""time""
""fullscreenenter"",""0"",""3540""
""fullscreenexit"",""118"",""575040""
","
","
","""event"",""trial"",""time""
""fullscreenenter"",""0"",""3540""
","""event"",""trial"",""time""
""fullscreenexit"",""118"",""575040""
","null","<p></p>","null","","","","","","","","","","","","","","","","","","","","","","",""
"","do_bye","166","717726","0.0-91.0-0.0","""event"",""trial"",""time""
""fullscreenenter"",""0"",""3540""
""fullscreenexit"",""118"",""575040""
","
","
","""event"",""trial"",""time""
""fullscreenenter"",""0"",""3540""
","""event"",""trial"",""time""
""fullscreenexit"",""118"",""575040""
","null","","","","","","","","null","","","","","","","","","","","","","","","","",""
"","break","167","726926","0.0-91.0-1.0","""event"",""trial"",""time""
""fullscreenenter"",""0"",""3540""
""fullscreenexit"",""118"",""575040""
","
","
","""event"",""trial"",""time""
""fullscreenenter"",""0"",""3540""
","""event"",""trial"",""time""
""fullscreenexit"",""118"",""575040""
","9193.100000023842","<div class='center'><p>Time to take a quick break! You have 2 minutes to rest, but you can move on sooner if you'd like.</p><p> Press the <b>space bar</b> to continue.</p></div>","32","","","","","","","","","","","","","","","","","","","","","","",""
"","do_travel","168","735941","0.0-92.0-0.0","""event"",""trial"",""time""
""fullscreenenter"",""0"",""3540""
""fullscreenexit"",""118"",""575040""
","
","
","""event"",""trial"",""time""
""fullscreenenter"",""0"",""3540""
","""event"",""trial"",""time""
""fullscreenexit"",""118"",""575040""
","null","","","","","","","","null","","","","","","","","","","","","","","","","",""
"","do_welcome","169","739961","0.0-92.0-1.0","""event"",""trial"",""time""
""fullscreenenter"",""0"",""3540""
""fullscreenexit"",""118"",""575040""
","
","
","""event"",""trial"",""time""
""fullscreenenter"",""0"",""3540""
","""event"",""trial"",""time""
""fullscreenexit"",""118"",""575040""
","null","","","","","","","","null","","","","","","","","","","","","","","","","",""
"","do_trial","170","745521","0.0-93.0-0.0","""event"",""trial"",""time""
""fullscreenenter"",""0"",""3540""
""fullscreenexit"",""118"",""575040""
","
","
","""event"",""trial"",""time""
""fullscreenenter"",""0"",""3540""
","""event"",""trial"",""time""
""fullscreenexit"",""118"",""575040""
","971.2000000476837","","","","","","","","49","1,1,0","1","coast","30","probe-154","1","0.3958066955020047","0.107052946168516","1","","","","","","","",""
"","html-keyboard-response","171","746531","0.0-93.0-1.0","""event"",""trial"",""time""
""fullscreenenter"",""0"",""3540""
""fullscreenexit"",""118"",""575040""
","
","
","""event"",""trial"",""time""
""fullscreenenter"",""0"",""3540""
","""event"",""trial"",""time""
""fullscreenexit"",""118"",""575040""
","null","<p></p>","null","","","","","","","","","","","","","","","","","","","","","","",""
"","do_trial","172","752556","0.0-94.0-0.0","""event"",""trial"",""time""
""fullscreenenter"",""0"",""3540""
""fullscreenexit"",""118"",""575040""
","
","
","""event"",""trial"",""time""
""fullscreenenter"",""0"",""3540""
","""event"",""trial"",""time""
""fullscreenexit"",""118"",""575040""
","1411.8999999761581","","","","","","","","50","1,0,0","1","coast","31","probe-106","1","0.3264713047077483","0.08458580120960457","0","","","","","","","",""
"","html-keyboard-response","173","753574","0.0-94.0-1.0","""event"",""trial"",""time""
""fullscreenenter"",""0"",""3540""
""fullscreenexit"",""118"",""575040""
","
","
","""event"",""trial"",""time""
""fullscreenenter"",""0"",""3540""
","""event"",""trial"",""time""
""fullscreenexit"",""118"",""575040""
","null","<p></p>","null","","","","","","","","","","","","","","","","","","","","","","",""
"","do_trial","174","759349","0.0-95.0-0.0","""event"",""trial"",""time""
""fullscreenenter"",""0"",""3540""
""fullscreenexit"",""118"",""575040""
","
","
","""event"",""trial"",""time""
""fullscreenenter"",""0"",""3540""
","""event"",""trial"",""time""
""fullscreenexit"",""118"",""575040""
","1124.2999999523163","","","","","","","","51","1,0,1","1","coast","32","probe-34","1","0.4037973455960569","0.2018518083155068","1","","","","","","","",""
"","html-keyboard-response","175","760354","0.0-95.0-1.0","""event"",""trial"",""time""
""fullscreenenter"",""0"",""3540""
""fullscreenexit"",""118"",""575040""
","
","
","""event"",""trial"",""time""
""fullscreenenter"",""0"",""3540""
","""event"",""trial"",""time""
""fullscreenexit"",""118"",""575040""
","null","<p></p>","null","","","","","","","","","","","","","","","","","","","","","","",""
"","do_trial","176","765032","0.0-96.0-0.0","""event"",""trial"",""time""
""fullscreenenter"",""0"",""3540""
""fullscreenexit"",""118"",""575040""
","
","
","""event"",""trial"",""time""
""fullscreenenter"",""0"",""3540""
","""event"",""trial"",""time""
""fullscreenexit"",""118"",""575040""
","0.20000004768371582","","","","","","","","51","1,0,0","1","coast","33","probe-103","0.8864784513881603","0.2122201330460744","0.08255811723249742","0","","","","","","","",""
"","html-keyboard-response","177","766044","0.0-96.0-1.0","""event"",""trial"",""time""
""fullscreenenter"",""0"",""3540""
""fullscreenexit"",""118"",""575040""
","
","
","""event"",""trial"",""time""
""fullscreenenter"",""0"",""3540""
","""event"",""trial"",""time""
""fullscreenexit"",""118"",""575040""
","null","<p></p>","null","","","","","","","","","","","","","","","","","","","","","","",""
"","do_trial","178","771552","0.0-97.0-0.0","""event"",""trial"",""time""
""fullscreenenter"",""0"",""3540""
""fullscreenexit"",""118"",""575040""
","
","
","""event"",""trial"",""time""
""fullscreenenter"",""0"",""3540""
","""event"",""trial"",""time""
""fullscreenexit"",""118"",""575040""
","917.7000000476837","","","","","","","","49","1,0,0","1","coast","34","probe-04","0.7440903879956171","0.2233943178521387","0.2036748893196391","1","","","","","","","",""
"","html-keyboard-response","179","772562","0.0-97.0-1.0","""event"",""trial"",""time""
""fullscreenenter"",""0"",""3540""
""fullscreenexit"",""118"",""575040""
","
","
","""event"",""trial"",""time""
""fullscreenenter"",""0"",""3540""
","""event"",""trial"",""time""
""fullscreenexit"",""118"",""575040""
","null","<p></p>","null","","","","","","","","","","","","","","","","","","","","","","",""
"","do_trial","180","777771","0.0-98.0-0.0","""event"",""trial"",""time""
""fullscreenenter"",""0"",""3540""
""fullscreenexit"",""118"",""575040""
","
","
","""event"",""trial"",""time""
""fullscreenenter"",""0"",""3540""
","""event"",""trial"",""time""
""fullscreenexit"",""118"",""575040""
","620.3999999761581","","","","","","","","50","1,1,0","1","coast","35","probe-221","0.7823052898226697","0.33592099077251014","0.07005185593349192","1","","","","","","","",""
"","html-keyboard-response","181","778781","0.0-98.0-1.0","""event"",""trial"",""time""
""fullscreenenter"",""0"",""3540""
""fullscreenexit"",""118"",""575040""
","
","
","""event"",""trial"",""time""
""fullscreenenter"",""0"",""3540""
","""event"",""trial"",""time""
""fullscreenexit"",""118"",""575040""
","null","<p></p>","null","","","","","","","","","","","","","","","","","","","","","","",""
"","do_trial","182","783942","0.0-99.0-0.0","""event"",""trial"",""time""
""fullscreenenter"",""0"",""3540""
""fullscreenexit"",""118"",""575040""
","
","
","""event"",""trial"",""time""
""fullscreenenter"",""0"",""3540""
","""event"",""trial"",""time""
""fullscreenexit"",""118"",""575040""
","588.1000000238419","","","","","","","","51","1,1,0","1","coast","36","probe-39","0.7880648679402142","0.314544661810049","0.08593172019607347","0","","","","","","","",""
"","html-keyboard-response","183","784959","0.0-99.0-1.0","""event"",""trial"",""time""
""fullscreenenter"",""0"",""3540""
""fullscreenexit"",""118"",""575040""
","
","
","""event"",""trial"",""time""
""fullscreenenter"",""0"",""3540""
","""event"",""trial"",""time""
""fullscreenexit"",""118"",""575040""
","null","<p></p>","null","","","","","","","","","","","","","","","","","","","","","","",""
"","do_trial","184","790095","0.0-100.0-0.0","""event"",""trial"",""time""
""fullscreenenter"",""0"",""3540""
""fullscreenexit"",""118"",""575040""
","
","
","""event"",""trial"",""time""
""fullscreenenter"",""0"",""3540""
","""event"",""trial"",""time""
""fullscreenexit"",""118"",""575040""
","557.6000000238419","","","","","","","","50","1,1,0","1","coast","37","probe-180","0.6889191039499913","0.40142669683954957","0.17237668063701023","1","","","","","","","",""
"","html-keyboard-response","185","791110","0.0-100.0-1.0","""event"",""trial"",""time""
""fullscreenenter"",""0"",""3540""
""fullscreenexit"",""118"",""575040""
","
","
","""event"",""trial"",""time""
""fullscreenenter"",""0"",""3540""
","""event"",""trial"",""time""
""fullscreenexit"",""118"",""575040""
","null","<p></p>","null","","","","","","","","","","","","","","","","","","","","","","",""
"","do_trial","186","795728","0.0-101.0-0.0","""event"",""trial"",""time""
""fullscreenenter"",""0"",""3540""
""fullscreenexit"",""118"",""575040""
","
","
","""event"",""trial"",""time""
""fullscreenenter"",""0"",""3540""
","""event"",""trial"",""time""
""fullscreenexit"",""118"",""575040""
","34.299999952316284","","","","","","","","49","0,1,0","1","coast","38","probe-37","0.7356850845142338","0.44005857298277606","0.12095449109916091","0","","","","","","","",""
"","html-keyboard-response","187","796746","0.0-101.0-1.0","""event"",""trial"",""time""
""fullscreenenter"",""0"",""3540""
""fullscreenexit"",""118"",""575040""
","
","
","""event"",""trial"",""time""
""fullscreenenter"",""0"",""3540""
","""event"",""trial"",""time""
""fullscreenexit"",""118"",""575040""
","null","<p></p>","null","","","","","","","","","","","","","","","","","","","","","","",""
"","do_trial","188","801487","0.0-102.0-0.0","""event"",""trial"",""time""
""fullscreenenter"",""0"",""3540""
""fullscreenexit"",""118"",""575040""
","
","
","""event"",""trial"",""time""
""fullscreenenter"",""0"",""3540""
","""event"",""trial"",""time""
""fullscreenexit"",""118"",""575040""
","131","","","","","","","","51","1,1,1","1","coast","39","probe-142","0.6689329534796485","0.3553619127278016","0.3839541002224289","1","","","","","","","",""
"","html-keyboard-response","189","802497","0.0-102.0-1.0","""event"",""trial"",""time""
""fullscreenenter"",""0"",""3540""
""fullscreenexit"",""118"",""575040""
","
","
","""event"",""trial"",""time""
""fullscreenenter"",""0"",""3540""
","""event"",""trial"",""time""
""fullscreenexit"",""118"",""575040""
","null","<p></p>","null","","","","","","","","","","","","","","","","","","","","","","",""
"","do_trial","190","807941","0.0-103.0-0.0","""event"",""trial"",""time""
""fullscreenenter"",""0"",""3540""
""fullscreenexit"",""118"",""575040""
","
","
","""event"",""trial"",""time""
""fullscreenenter"",""0"",""3540""
","""event"",""trial"",""time""
""fullscreenexit"",""118"",""575040""
","857.3999999761581","","","","","","","","50","1,0,0","1","coast","40","probe-62","0.5774288599210248","0.39871195051913805","0.28792482023050925","0","","","","","","","",""
"","html-keyboard-response","191","808952","0.0-103.0-1.0","""event"",""trial"",""time""
""fullscreenenter"",""0"",""3540""
""fullscreenexit"",""118"",""575040""
","
","
","""event"",""trial"",""time""
""fullscreenenter"",""0"",""3540""
","""event"",""trial"",""time""
""fullscreenexit"",""118"",""575040""
","null","<p></p>","null","","","","","","","","","","","","","","","","","","","","","","",""
"","do_trial","192","814448","0.0-104.0-0.0","""event"",""trial"",""time""
""fullscreenenter"",""0"",""3540""
""fullscreenexit"",""118"",""575040""
","
","
","""event"",""trial"",""time""
""fullscreenenter"",""0"",""3540""
","""event"",""trial"",""time""
""fullscreenexit"",""118"",""575040""
","870.1999999284744","","","","","","","","49","1,0,0","1","coast","41","probe-226","0.5529991367231836","0.3182994099205047","0.3690120233562144","1","","","","","","","",""
"","html-keyboard-response","193","815463","0.0-104.0-1.0","""event"",""trial"",""time""
""fullscreenenter"",""0"",""3540""
""fullscreenexit"",""118"",""575040""
","
","
","""event"",""trial"",""time""
""fullscreenenter"",""0"",""3540""
","""event"",""trial"",""time""
""fullscreenexit"",""118"",""575040""
","null","<p></p>","null","","","","","","","","","","","","","","","","","","","","","","",""
"","do_trial","194","820783","0.0-105.0-0.0","""event"",""trial"",""time""
""fullscreenenter"",""0"",""3540""
""fullscreenexit"",""118"",""575040""
","
","
","""event"",""trial"",""time""
""fullscreenenter"",""0"",""3540""
","""event"",""trial"",""time""
""fullscreenexit"",""118"",""575040""
","708.5","","","","","","","","50","1,0,1","1","coast","42","probe-54","0.3770579016183994","0.42963165611097587","0.33172562907547815","0","","","","","","","",""
"","html-keyboard-response","195","821787","0.0-105.0-1.0","""event"",""trial"",""time""
""fullscreenenter"",""0"",""3540""
""fullscreenexit"",""118"",""575040""
","
","
","""event"",""trial"",""time""
""fullscreenenter"",""0"",""3540""
","""event"",""trial"",""time""
""fullscreenexit"",""118"",""575040""
","null","<p></p>","null","","","","","","","","","","","","","","","","","","","","","","",""
"","do_trial","196","826508","0.0-106.0-0.0","""event"",""trial"",""time""
""fullscreenenter"",""0"",""3540""
""fullscreenexit"",""118"",""575040""
","
","
","""event"",""trial"",""time""
""fullscreenenter"",""0"",""3540""
","""event"",""trial"",""time""
""fullscreenexit"",""118"",""575040""
","45.200000047683716","","","","","","","","49","0,0,0","1","coast","43","probe-156","0.2734849092624502","0.5830012013666559","0.21703498214459455","0","","","","","","","",""
"","html-keyboard-response","197","827518","0.0-106.0-1.0","""event"",""trial"",""time""
""fullscreenenter"",""0"",""3540""
""fullscreenexit"",""118"",""575040""
","
","
","""event"",""trial"",""time""
""fullscreenenter"",""0"",""3540""
","""event"",""trial"",""time""
""fullscreenexit"",""118"",""575040""
","null","<p></p>","null","","","","","","","","","","","","","","","","","","","","","","",""
"","do_trial","198","833219","0.0-107.0-0.0","""event"",""trial"",""time""
""fullscreenenter"",""0"",""3540""
""fullscreenexit"",""118"",""575040""
","
","
","""event"",""trial"",""time""
""fullscreenenter"",""0"",""3540""
","""event"",""trial"",""time""
""fullscreenexit"",""118"",""575040""
","1114.4000000953674","","","","","","","","50","0,1,0","1","coast","44","probe-215","0.3084583987094321","0.5913604184143714","0.08087929362937718","1","","","","","","","",""
"","html-keyboard-response","199","834221","0.0-107.0-1.0","""event"",""trial"",""time""
""fullscreenenter"",""0"",""3540""
""fullscreenexit"",""118"",""575040""
","
","
","""event"",""trial"",""time""
""fullscreenenter"",""0"",""3540""
","""event"",""trial"",""time""
""fullscreenexit"",""118"",""575040""
","null","<p></p>","null","","","","","","","","","","","","","","","","","","","","","","",""
"","do_trial","200","840981","0.0-108.0-0.0","""event"",""trial"",""time""
""fullscreenenter"",""0"",""3540""
""fullscreenexit"",""118"",""575040""
","
","
","""event"",""trial"",""time""
""fullscreenenter"",""0"",""3540""
","""event"",""trial"",""time""
""fullscreenexit"",""118"",""575040""
","2090.1999999284744","","","","","","","","51","0,0,1","1","coast","45","probe-67","0.2124084974818865","0.5860090252564321","0.15344546943877366","1","","","","","","","",""
"","html-keyboard-response","201","841997","0.0-108.0-1.0","""event"",""trial"",""time""
""fullscreenenter"",""0"",""3540""
""fullscreenexit"",""118"",""575040""
","
","
","""event"",""trial"",""time""
""fullscreenenter"",""0"",""3540""
","""event"",""trial"",""time""
""fullscreenexit"",""118"",""575040""
","null","<p></p>","null","","","","","","","","","","","","","","","","","","","","","","",""
"","do_trial","202","846613","0.0-109.0-0.0","""event"",""trial"",""time""
""fullscreenenter"",""0"",""3540""
""fullscreenexit"",""118"",""575040""
","
","
","""event"",""trial"",""time""
""fullscreenenter"",""0"",""3540""
","""event"",""trial"",""time""
""fullscreenexit"",""118"",""575040""
","33","","","","","","","","51","0,0,0","1","coast","46","probe-116","0.3157652216807223","0.5483645033757162","0.06466558666880544","0","","","","","","","",""
"","html-keyboard-response","203","847620","0.0-109.0-1.0","""event"",""trial"",""time""
""fullscreenenter"",""0"",""3540""
""fullscreenexit"",""118"",""575040""
","
","
","""event"",""trial"",""time""
""fullscreenenter"",""0"",""3540""
","""event"",""trial"",""time""
""fullscreenexit"",""118"",""575040""
","null","<p></p>","null","","","","","","","","","","","","","","","","","","","","","","",""
"","do_trial","204","853432","0.0-110.0-0.0","""event"",""trial"",""time""
""fullscreenenter"",""0"",""3540""
""fullscreenexit"",""118"",""575040""
","
","
","""event"",""trial"",""time""
""fullscreenenter"",""0"",""3540""
","""event"",""trial"",""time""
""fullscreenexit"",""118"",""575040""
","1239.3999999761581","","","","","","","","49","1,1,0","1","coast","47","probe-66","0.26757069406425077","0.738236991138109","0.06941999582119122","1","","","","","","","",""
"","html-keyboard-response","205","854450","0.0-110.0-1.0","""event"",""trial"",""time""
""fullscreenenter"",""0"",""3540""
""fullscreenexit"",""118"",""575040""
","
","
","""event"",""trial"",""time""
""fullscreenenter"",""0"",""3540""
","""event"",""trial"",""time""
""fullscreenexit"",""118"",""575040""
","null","<p></p>","null","","","","","","","","","","","","","","","","","","","","","","",""
"","do_trial","206","861337","0.0-111.0-0.0","""event"",""trial"",""time""
""fullscreenenter"",""0"",""3540""
""fullscreenexit"",""118"",""575040""
","
","
","""event"",""trial"",""time""
""fullscreenenter"",""0"",""3540""
","""event"",""trial"",""time""
""fullscreenexit"",""118"",""575040""
","2302.5","","","","","","","","49","1,1,0","1","coast","48","probe-212","0.34961146128392356","0.6785985904239267","0.07899974264821259","1","","","","","","","",""
"","html-keyboard-response","207","862353","0.0-111.0-1.0","""event"",""trial"",""time""
""fullscreenenter"",""0"",""3540""
""fullscreenexit"",""118"",""575040""
","
","
","""event"",""trial"",""time""
""fullscreenenter"",""0"",""3540""
","""event"",""trial"",""time""
""fullscreenexit"",""118"",""575040""
","null","<p></p>","null","","","","","","","","","","","","","","","","","","","","","","",""
"","do_trial","208","867045","0.0-112.0-0.0","""event"",""trial"",""time""
""fullscreenenter"",""0"",""3540""
""fullscreenexit"",""118"",""575040""
","
","
","""event"",""trial"",""time""
""fullscreenenter"",""0"",""3540""
","""event"",""trial"",""time""
""fullscreenexit"",""118"",""575040""
","121.5","","","","","","","","50","0,1,0","1","coast","49","probe-70","0.3936190881874423","0.580512789938186","0.07893196302695552","1","","","","","","","",""
"","html-keyboard-response","209","868057","0.0-112.0-1.0","""event"",""trial"",""time""
""fullscreenenter"",""0"",""3540""
""fullscreenexit"",""118"",""575040""
","
","
","""event"",""trial"",""time""
""fullscreenenter"",""0"",""3540""
","""event"",""trial"",""time""
""fullscreenexit"",""118"",""575040""
","null","<p></p>","null","","","","","","","","","","","","","","","","","","","","","","",""
"","do_trial","210","872648","0.0-113.0-0.0","""event"",""trial"",""time""
""fullscreenenter"",""0"",""3540""
""fullscreenexit"",""118"",""575040""
","
","
","""event"",""trial"",""time""
""fullscreenenter"",""0"",""3540""
","""event"",""trial"",""time""
""fullscreenexit"",""118"",""575040""
","3.899999976158142","","","","","","","","50","1,1,0","1","coast","50","probe-223","0.4869481492366833","0.47410697409470337","0.11181736650599558","1","","","","","","","",""
"","html-keyboard-response","211","873667","0.0-113.0-1.0","""event"",""trial"",""time""
""fullscreenenter"",""0"",""3540""
""fullscreenexit"",""118"",""575040""
","
","
","""event"",""trial"",""time""
""fullscreenenter"",""0"",""3540""
","""event"",""trial"",""time""
""fullscreenexit"",""118"",""575040""
","null","<p></p>","null","","","","","","","","","","","","","","","","","","","","","","",""
"","do_trial","212","878252","0.0-114.0-0.0","""event"",""trial"",""time""
""fullscreenenter"",""0"",""3540""
""fullscreenexit"",""118"",""575040""
","
","
","""event"",""trial"",""time""
""fullscreenenter"",""0"",""3540""
","""event"",""trial"",""time""
""fullscreenexit"",""118"",""575040""
","0.5","","","","","","","","51","1,0,0","1","coast","51","probe-178","0.4695014345543564","0.5318448546799407","0.19019610088378827","0","","","","","","","",""
"","html-keyboard-response","213","879270","0.0-114.0-1.0","""event"",""trial"",""time""
""fullscreenenter"",""0"",""3540""
""fullscreenexit"",""118"",""575040""
","
","
","""event"",""trial"",""time""
""fullscreenenter"",""0"",""3540""
","""event"",""trial"",""time""
""fullscreenexit"",""118"",""575040""
","null","<p></p>","null","","","","","","","","","","","","","","","","","","","","","","",""
"","do_trial","214","883929","0.0-115.0-0.0","""event"",""trial"",""time""
""fullscreenenter"",""0"",""3540""
""fullscreenexit"",""118"",""575040""
","
","
","""event"",""trial"",""time""
""fullscreenenter"",""0"",""3540""
","""event"",""trial"",""time""
""fullscreenexit"",""118"",""575040""
","69.90000009536743","","","","","","","","50","0,0,1","1","coast","52","probe-97","0.5094089972723979","0.5992161619458292","0.1521614768861503","0","","","","","","","",""
"","html-keyboard-response","215","884936","0.0-115.0-1.0","""event"",""trial"",""time""
""fullscreenenter"",""0"",""3540""
""fullscreenexit"",""118"",""575040""
","
","
","""event"",""trial"",""time""
""fullscreenenter"",""0"",""3540""
","""event"",""trial"",""time""
""fullscreenexit"",""118"",""575040""
","null","<p></p>","null","","","","","","","","","","","","","","","","","","","","","","",""
"","do_trial","216","889525","0.0-116.0-0.0","""event"",""trial"",""time""
""fullscreenenter"",""0"",""3540""
""fullscreenexit"",""118"",""575040""
","
","
","""event"",""trial"",""time""
""fullscreenenter"",""0"",""3540""
","""event"",""trial"",""time""
""fullscreenexit"",""118"",""575040""
","0","","","","","","","","51","1,0,0","1","coast","53","probe-153","0.44443424370677004","0.717923030285194","0.062192283721328345","0","","","","","","","",""
"","html-keyboard-response","217","890540","0.0-116.0-1.0","""event"",""trial"",""time""
""fullscreenenter"",""0"",""3540""
""fullscreenexit"",""118"",""575040""
","
","
","""event"",""trial"",""time""
""fullscreenenter"",""0"",""3540""
","""event"",""trial"",""time""
""fullscreenexit"",""118"",""575040""
","null","<p></p>","null","","","","","","","","","","","","","","","","","","","","","","",""
"","do_trial","218","895438","0.0-117.0-0.0","""event"",""trial"",""time""
""fullscreenenter"",""0"",""3540""
""fullscreenexit"",""118"",""575040""
","
","
","""event"",""trial"",""time""
""fullscreenenter"",""0"",""3540""
","""event"",""trial"",""time""
""fullscreenexit"",""118"",""575040""
","322.10000002384186","","","","","","","","49","0,1,0","1","coast","54","probe-108","0.3578059824640964","0.8556705427932627","0.2786511995485301","0","","","","","","","",""
"","html-keyboard-response","219","896442","0.0-117.0-1.0","""event"",""trial"",""time""
""fullscreenenter"",""0"",""3540""
""fullscreenexit"",""118"",""575040""
","
","
","""event"",""trial"",""time""
""fullscreenenter"",""0"",""3540""
","""event"",""trial"",""time""
""fullscreenexit"",""118"",""575040""
","null","<p></p>","null","","","","","","","","","","","","","","","","","","","","","","",""
"","do_trial","220","902239","0.0-118.0-0.0","""event"",""trial"",""time""
""fullscreenenter"",""0"",""3540""
""fullscreenexit"",""118"",""575040""
","
","
","""event"",""trial"",""time""
""fullscreenenter"",""0"",""3540""
","""event"",""trial"",""time""
""fullscreenexit"",""118"",""575040""
","1180.8000000715256","","","","","","","","49","1,1,0","1","coast","55","probe-28","0.16030044316884015","0.7277458116075771","0.16011123671527572","1","","","","","","","",""
"","html-keyboard-response","221","903244","0.0-118.0-1.0","""event"",""trial"",""time""
""fullscreenenter"",""0"",""3540""
""fullscreenexit"",""118"",""575040""
","
","
","""event"",""trial"",""time""
""fullscreenenter"",""0"",""3540""
","""event"",""trial"",""time""
""fullscreenexit"",""118"",""575040""
","null","<p></p>","null","","","","","","","","","","","","","","","","","","","","","","",""
"","do_trial","222","908361","0.0-119.0-0.0","""event"",""trial"",""time""
""fullscreenenter"",""0"",""3540""
""fullscreenexit"",""118"",""575040""
","
","
","""event"",""trial"",""time""
""fullscreenenter"",""0"",""3540""
","""event"",""trial"",""time""
""fullscreenexit"",""118"",""575040""
","507.39999997615814","","","","","","","","49","0,1,0","1","coast","56","probe-173","0.23706180576015384","0.6178414996687838","0.2137130245737879","0","","","","","","","",""
"","html-keyboard-response","223","909368","0.0-119.0-1.0","""event"",""trial"",""time""
""fullscreenenter"",""0"",""3540""
""fullscreenexit"",""118"",""575040""
","
","
","""event"",""trial"",""time""
""fullscreenenter"",""0"",""3540""
","""event"",""trial"",""time""
""fullscreenexit"",""118"",""575040""
","null","<p></p>","null","","","","","","","","","","","","","","","","","","","","","","",""
"","do_trial","224","914306","0.0-120.0-0.0","""event"",""trial"",""time""
""fullscreenenter"",""0"",""3540""
""fullscreenexit"",""118"",""575040""
","
","
","""event"",""trial"",""time""
""fullscreenenter"",""0"",""3540""
","""event"",""trial"",""time""
""fullscreenexit"",""118"",""575040""
","353","","","","","","","","51","0,1,0","1","coast","57","probe-07","0.15358374000106564","0.691410206917038","0.2893850368636926","0","","","","","","","",""
"","html-keyboard-response","225","915324","0.0-120.0-1.0","""event"",""trial"",""time""
""fullscreenenter"",""0"",""3540""
""fullscreenexit"",""118"",""575040""
","
","
","""event"",""trial"",""time""
""fullscreenenter"",""0"",""3540""
","""event"",""trial"",""time""
""fullscreenexit"",""118"",""575040""
