"success","trial_type","trial_index","time_elapsed","internal_node_id","interactions","blur_events","focus_events","fullscreenenter_events","fullscreenexit_events","rt","stimulus","key_press","subject_id","participant_id","age","gender","prompt","response","choice_outcomes","context_n","context_img_id","trial_n","probe_img_id","pR_red","pR_white","pR_black","outcome","contextArray_ind","validImageProbes","invalidImageProbes","pRew_Red","pRew_White","pRew_Black","availableForMemProbe","choice_blocks"
"true","fullscreen","0","4129","0.0-0.0","""event"",""trial"",""time""
""fullscreenenter"",""0"",""3149""
","
","
","""event"",""trial"",""time""
""fullscreenenter"",""0"",""3149""
","
","","","","","","","","","","","","","","","","","","","","","","","","","",""
"","pavlovia","1","4132","0.0-1.0","""event"",""trial"",""time""
""fullscreenenter"",""0"",""3149""
","
","
","""event"",""trial"",""time""
""fullscreenenter"",""0"",""3149""
","
","","","","","","","","","","","","","","","","","","","","","","","","","",""
"","instruc1","2","49307","0.0-2.0","""event"",""trial"",""time""
""fullscreenenter"",""0"",""3149""
","
","
","""event"",""trial"",""time""
""fullscreenenter"",""0"",""3149""
","
","null","run_exp/static/audio/clip_1_welcome.m4a","null","1468","1724","25","Male","<div class='center'><p>Welcome! This is the first part of the study. It will last ~30 minutes. In part 1 and part 2 of the study, you are the head captain of a pirate ship traveling around the world to different islands. You will play a few different games throughout these two parts. Here is an overview of them:</p><br><p>Part 1 (today)</p><p>1. Instructions, practice game, and quiz</p><p>2. Pick a pirate game on 6 different islands</p><br><p>Part 2 (tomorrow)</p><p>3. Pick a pirate game and memory game</p><p>4. Where did you see this ship? </p></div>","","","","","","","","","","","","","","","","","",""
"","html-keyboard-response","3","51122","0.0-3.0","""event"",""trial"",""time""
""fullscreenenter"",""0"",""3149""
","
","
","""event"",""trial"",""time""
""fullscreenenter"",""0"",""3149""
","
","1814.0999999642372","<div class='center'><p>Welcome! This is the first part of the study. It will last ~30 minutes. In part 1 and part 2 of the study, you are the head captain of a pirate ship traveling around the world to different islands. You will play a few different games throughout these two parts. Here is an overview of them:</p><br><p>Part 1 (today)</p><p>1. Instructions, practice game, and quiz</p><p>2. Pick a pirate game on 6 different islands</p><br><p>Part 2 (tomorrow)</p><p>3. Pick a pirate game and memory game</p><p>4. Where did you see this ship? </p><p><b>[Press the space bar to continue]</b></p></div>","32","","","","","","","","","","","","","","","","","","","","","","",""
"","instruc2","4","56481","0.0-4.0","""event"",""trial"",""time""
""fullscreenenter"",""0"",""3149""
","
","
","""event"",""trial"",""time""
""fullscreenenter"",""0"",""3149""
","
","null","run_exp/static/audio/clip_2_different_places.m4a","null","","","","","<div class='center'><p>Today, you’ll visit these 6 islands on your journey. You'll be able to see these islands from your ship.</p><p><img src='run_exp/static/images/contexts/all_contexts.png' height='500'></p></div>","","","","","","","","","","","","","","","","","",""
"","html-keyboard-response","5","59477","0.0-5.0","""event"",""trial"",""time""
""fullscreenenter"",""0"",""3149""
","
","
","""event"",""trial"",""time""
""fullscreenenter"",""0"",""3149""
","
","2994.199999988079","<div class='center'><p>Today, you’ll visit these 6 islands on your journey. You'll be able to see these islands from your ship.</p><p><img src='run_exp/static/images/contexts/all_contexts.png' height='500'></p><p><b>[Press the space bar to continue]</b></p></div>","32","","","","","","","","","","","","","","","","","","","","","","",""
"","instruc3","6","69206","0.0-6.0","""event"",""trial"",""time""
""fullscreenenter"",""0"",""3149""
","
","
","""event"",""trial"",""time""
""fullscreenenter"",""0"",""3149""
","
","null","run_exp/static/audio/clip_3_goal_of_game_1.m4a","null","","","","","<div class='center'><p> The pirates on your ship will rob other ships as they leave the island.</p> These ships have just sold their goods to the islanders, so they will be filled with lots and lots of gold.</p><p><img src='run_exp/static/images/tutorial/ship_center.png' height='400'></p></div>","","","","","","","","","","","","","","","","","",""
"","html-keyboard-response","7","71623","0.0-7.0","""event"",""trial"",""time""
""fullscreenenter"",""0"",""3149""
","
","
","""event"",""trial"",""time""
""fullscreenenter"",""0"",""3149""
","
","2416.300000011921","<div class='center'><p> The pirates on your ship will rob other ships as they leave the island.</p> These ships have just sold their goods to the islanders, so they will be filled with lots and lots of gold.</p><p><img src='run_exp/static/images/tutorial/ship_center.png' height='400'></p><p><b>[Press the space bar to continue]</b></p></div>","32","","","","","","","","","","","","","","","","","","","","","","",""
"","instruc4","8","99671","0.0-8.0","""event"",""trial"",""time""
""fullscreenenter"",""0"",""3149""
","
","
","""event"",""trial"",""time""
""fullscreenenter"",""0"",""3149""
","
","null","run_exp/static/audio/clip_4_goal_of_game_2.m4a","null","","","","","<div class='center'><p>As the head captain, you do not have to rob any ships yourself. Another pirate will be doing the robbing for you. First, you will choose a pirate to rob the next ship.</p><p><img src='run_exp/static/images/tutorial/pirates_all_crop.png' height='200'></p><p>Then, you'll see if the pirate successfully robbed the ship of their gold. If they were successful, then you'll get a stack of gold coins like this:</p><p><img src='run_exp/static/images/tutorial/reward.png' height='150'></p><p> If they were <b>not</b> successful, then you'll get no gold coins, and you'll see a big red x like this: </p><p><img src='run_exp/static/images/tutorial/reward_no.png' height='150'></p><p> How much bonus money you make is based on how many gold coins you collect.</p><div>","","","","","","","","","","","","","","","","","",""
"","html-keyboard-response","9","113829","0.0-9.0","""event"",""trial"",""time""
""fullscreenenter"",""0"",""3149""
","
","
","""event"",""trial"",""time""
""fullscreenenter"",""0"",""3149""
","
","14156.600000023842","<div class='center'><p>As the head captain, you do not have to rob any ships yourself. Another pirate will be doing the robbing for you. First, you will choose a pirate to rob the next ship.</p><p><img src='run_exp/static/images/tutorial/pirates_all_crop.png' height='200'></p><p>Then, you'll see if the pirate successfully robbed the ship of their gold. If they were successful, then you'll get a stack of gold coins like this:</p><p><img src='run_exp/static/images/tutorial/reward.png' height='150'></p><p> If they were <b>not</b> successful, then you'll get no gold coins, and you'll see a big red x like this: </p><p><img src='run_exp/static/images/tutorial/reward_no.png' height='150'></p><p> How much bonus money you make is based on how many gold coins you collect.</p<p><b>[Press the space bar to continue]</b></p></div>","32","","","","","","","","","","","","","","","","","","","","","","",""
"","instruc5","10","135553","0.0-10.0","""event"",""trial"",""time""
""fullscreenenter"",""0"",""3149""
","
","
","""event"",""trial"",""time""
""fullscreenenter"",""0"",""3149""
","
","21722","run_exp/static/audio/clip_5_probabilistic.m4a","49","","","","","<div class='center'><p>Even the most skilled pirate can not rob EVERY ship.</p><p> Some ships will have very strong protections against pirate attacks.</p><p> Blue beard, here, is very, very good at robbing ships, but he won't be successful every time he tries to rob one.</p><p> You can press the <b>‘1’</b> key on the keyboard to choose him.</p><p> Try choosing him 10 times to see how often he succeeds at robbing a ship. </p><p><img src='run_exp/static/images/tutorial/blue.png' height='500'></p></div>","","","","","","","","","","","","","","","","","",""
"","html-keyboard-response","11","137054","0.0-11.0","""event"",""trial"",""time""
""fullscreenenter"",""0"",""3149""
","
","
","""event"",""trial"",""time""
""fullscreenenter"",""0"",""3149""
","
","null","<div class='center'><p><img src='run_exp/static/images/tutorial/blue_win.png' height='500'></p></div>","null","","","","","","","","","","","","","","","","","","","","","","",""
"","html-keyboard-response","12","137987","0.0-12.0","""event"",""trial"",""time""
""fullscreenenter"",""0"",""3149""
","
","
","""event"",""trial"",""time""
""fullscreenenter"",""0"",""3149""
","
","932.1999999880791","<div class='center'><img src='run_exp/static/images/tutorial/blue.png' height='500'></p></div>","49","","","","","","","","","","","","","","","","","","","","","","",""
"","html-keyboard-response","13","139491","0.0-13.0","""event"",""trial"",""time""
""fullscreenenter"",""0"",""3149""
","
","
","""event"",""trial"",""time""
""fullscreenenter"",""0"",""3149""
","
","null","<div class='center'><p><img src='run_exp/static/images/tutorial/blue_win.png' height='500'></p></div>","null","","","","","","","","","","","","","","","","","","","","","","",""
"","html-keyboard-response","14","140267","0.0-14.0","""event"",""trial"",""time""
""fullscreenenter"",""0"",""3149""
","
","
","""event"",""trial"",""time""
""fullscreenenter"",""0"",""3149""
","
","774.6999999880791","<div class='center'><img src='run_exp/static/images/tutorial/blue.png' height='500'></p></div>","49","","","","","","","","","","","","","","","","","","","","","","",""
"","html-keyboard-response","15","141768","0.0-15.0","""event"",""trial"",""time""
""fullscreenenter"",""0"",""3149""
","
","
","""event"",""trial"",""time""
""fullscreenenter"",""0"",""3149""
","
","null","<div class='center'><p><img src='run_exp/static/images/tutorial/blue_win.png' height='500'></p></div>","null","","","","","","","","","","","","","","","","","","","","","","",""
"","html-keyboard-response","16","142066","0.0-16.0","""event"",""trial"",""time""
""fullscreenenter"",""0"",""3149""
","
","
","""event"",""trial"",""time""
""fullscreenenter"",""0"",""3149""
","
","296.80000001192093","<div class='center'><img src='run_exp/static/images/tutorial/blue.png' height='500'></p></div>","49","","","","","","","","","","","","","","","","","","","","","","",""
"","html-keyboard-response","17","143567","0.0-17.0","""event"",""trial"",""time""
""fullscreenenter"",""0"",""3149""
","
","
","""event"",""trial"",""time""
""fullscreenenter"",""0"",""3149""
","
","null","<div class='center'><p><img src='run_exp/static/images/tutorial/blue_no_win.png' height='500'></p></div>","null","","","","","","","","","","","","","","","","","","","","","","",""
"","html-keyboard-response","18","143862","0.0-18.0","""event"",""trial"",""time""
""fullscreenenter"",""0"",""3149""
","
","
","""event"",""trial"",""time""
""fullscreenenter"",""0"",""3149""
","
","294.4000000357628","<div class='center'><img src='run_exp/static/images/tutorial/blue.png' height='500'></p></div>","49","","","","","","","","","","","","","","","","","","","","","","",""
"","html-keyboard-response","19","145368","0.0-19.0","""event"",""trial"",""time""
""fullscreenenter"",""0"",""3149""
","
","
","""event"",""trial"",""time""
""fullscreenenter"",""0"",""3149""
","
","null","<div class='center'><p><img src='run_exp/static/images/tutorial/blue_win.png' height='500'></p></div>","null","","","","","","","","","","","","","","","","","","","","","","",""
"","html-keyboard-response","20","145670","0.0-20.0","""event"",""trial"",""time""
""fullscreenenter"",""0"",""3149""
","
","
","""event"",""trial"",""time""
""fullscreenenter"",""0"",""3149""
","
","301.80000001192093","<div class='center'><img src='run_exp/static/images/tutorial/blue.png' height='500'></p></div>","49","","","","","","","","","","","","","","","","","","","","","","",""
"","html-keyboard-response","21","147176","0.0-21.0","""event"",""trial"",""time""
""fullscreenenter"",""0"",""3149""
","
","
","""event"",""trial"",""time""
""fullscreenenter"",""0"",""3149""
","
","null","<div class='center'><p><img src='run_exp/static/images/tutorial/blue_win.png' height='500'></p></div>","null","","","","","","","","","","","","","","","","","","","","","","",""
"","html-keyboard-response","22","147472","0.0-22.0","""event"",""trial"",""time""
""fullscreenenter"",""0"",""3149""
","
","
","""event"",""trial"",""time""
""fullscreenenter"",""0"",""3149""
","
","294.7000000476837","<div class='center'><img src='run_exp/static/images/tutorial/blue.png' height='500'></p></div>","49","","","","","","","","","","","","","","","","","","","","","","",""
"","html-keyboard-response","23","148973","0.0-23.0","""event"",""trial"",""time""
""fullscreenenter"",""0"",""3149""
","
","
","""event"",""trial"",""time""
""fullscreenenter"",""0"",""3149""
","
","null","<div class='center'><p><img src='run_exp/static/images/tutorial/blue_win.png' height='500'></p></div>","null","","","","","","","","","","","","","","","","","","","","","","",""
"","html-keyboard-response","24","149263","0.0-24.0","""event"",""trial"",""time""
""fullscreenenter"",""0"",""3149""
","
","
","""event"",""trial"",""time""
""fullscreenenter"",""0"",""3149""
","
","288.7999999523163","<div class='center'><img src='run_exp/static/images/tutorial/blue.png' height='500'></p></div>","49","","","","","","","","","","","","","","","","","","","","","","",""
"","html-keyboard-response","25","150767","0.0-25.0","""event"",""trial"",""time""
""fullscreenenter"",""0"",""3149""
","
","
","""event"",""trial"",""time""
""fullscreenenter"",""0"",""3149""
","
","null","<div class='center'><p><img src='run_exp/static/images/tutorial/blue_no_win.png' height='500'></p></div>","null","","","","","","","","","","","","","","","","","","","","","","",""
"","html-keyboard-response","26","151063","0.0-26.0","""event"",""trial"",""time""
""fullscreenenter"",""0"",""3149""
","
","
","""event"",""trial"",""time""
""fullscreenenter"",""0"",""3149""
","
","294.60000002384186","<div class='center'><img src='run_exp/static/images/tutorial/blue.png' height='500'></p></div>","49","","","","","","","","","","","","","","","","","","","","","","",""
"","html-keyboard-response","27","152567","0.0-27.0","""event"",""trial"",""time""
""fullscreenenter"",""0"",""3149""
","
","
","""event"",""trial"",""time""
""fullscreenenter"",""0"",""3149""
","
","null","<div class='center'><p><img src='run_exp/static/images/tutorial/blue_win.png' height='500'></p></div>","null","","","","","","","","","","","","","","","","","","","","","","",""
"","html-keyboard-response","28","152852","0.0-28.0","""event"",""trial"",""time""
""fullscreenenter"",""0"",""3149""
","
","
","""event"",""trial"",""time""
""fullscreenenter"",""0"",""3149""
","
","283.80000001192093","<div class='center'><img src='run_exp/static/images/tutorial/blue.png' height='500'></p></div>","49","","","","","","","","","","","","","","","","","","","","","","",""
"","html-keyboard-response","29","154355","0.0-29.0","""event"",""trial"",""time""
""fullscreenenter"",""0"",""3149""
","
","
","""event"",""trial"",""time""
""fullscreenenter"",""0"",""3149""
","
","null","<div class='center'><p><img src='run_exp/static/images/tutorial/blue_win.png' height='500'></p></div>","null","","","","","","","","","","","","","","","","","","","","","","",""
"","instruc6","30","159928","0.0-30.0","""event"",""trial"",""time""
""fullscreenenter"",""0"",""3149""
","
","
","""event"",""trial"",""time""
""fullscreenenter"",""0"",""3149""
","
","null","run_exp/static/audio/clip_6_blue_beard_outcome.m4a","null","","","","","<div class='center'><p> See, he succeeded in robbing the ships most of the time but not every time. </p></div>","","","","","","","","","","","","","","","","","",""
"","html-keyboard-response","31","161861","0.0-31.0","""event"",""trial"",""time""
""fullscreenenter"",""0"",""3149""
","
","
","""event"",""trial"",""time""
""fullscreenenter"",""0"",""3149""
","
","1932.3999999761581","<div class='center'><p> See, he succeeded in robbing the ships most of the time but not every time. </p><p><b>[Press the space bar to continue]</b></p></div>","32","","","","","","","","","","","","","","","","","","","","","","",""
"","audio-keyboard-response","32","179713","0.0-32.0","""event"",""trial"",""time""
""fullscreenenter"",""0"",""3149""
","
","
","""event"",""trial"",""time""
""fullscreenenter"",""0"",""3149""
","
","17850.69999998808","run_exp/static/audio/clip_7_pick_pirate.m4a","51","","","","","","","","","","","","","","","","","","","","","","",""
"","audio-keyboard-response","33","185432","0.0-33.0-0.0","""event"",""trial"",""time""
""fullscreenenter"",""0"",""3149""
","
","
","""event"",""trial"",""time""
""fullscreenenter"",""0"",""3149""
","
","5717.399999976158","run_exp/static/audio/clip_8_chosen_pirate_win.m4a","32","","","","","","","","","","","","","","","","","","","","","","",""
"","audio-keyboard-response","34","190991","0.0-33.0-1.0","""event"",""trial"",""time""
""fullscreenenter"",""0"",""3149""
","
","
","""event"",""trial"",""time""
""fullscreenenter"",""0"",""3149""
","
","5558.899999976158","run_exp/static/audio/clip_9_pick_a_pirate_again.m4a","50","","","","","","","","","","","","","","","","","","","","","","",""
"","audio-keyboard-response","35","196668","0.0-34.0-0.0","""event"",""trial"",""time""
""fullscreenenter"",""0"",""3149""
","
","
","""event"",""trial"",""time""
""fullscreenenter"",""0"",""3149""
","
","5674.699999988079","run_exp/static/audio/clip_10_chosen_pirate_loss.m4a","32","","","","","","","","","","","","","","","","","","","","","","",""
"","instruc9","36","202189","0.0-35.0-0.0","""event"",""trial"",""time""
""fullscreenenter"",""0"",""3149""
","
","
","""event"",""trial"",""time""
""fullscreenenter"",""0"",""3149""
","
","null","run_exp/static/audio/clip_11_time_out.m4a","null","","","","","<div class='center'><p>If you don’t make your choice fast enough, you’ll have to wait a few seconds before you can make another one. </p><p><img src='run_exp/static/images/miscellaneous/hurry_up.png' height='500'></p></div>","","","","","","","","","","","","","","","","","",""
"","html-keyboard-response","37","203573","0.0-35.0-1.0","""event"",""trial"",""time""
""fullscreenenter"",""0"",""3149""
","
","
","""event"",""trial"",""time""
""fullscreenenter"",""0"",""3149""
","
","1383.0999999642372","<div class='center'><p>If you don’t make your choice fast enough, you’ll have to wait a few seconds before you can make another one. </p><p><img src='run_exp/static/images/miscellaneous/hurry_up.png' height='500'></p><p><b>[Press the space bar to continue]</b></p></div>","32","","","","","","","","","","","","","","","","","","","","","","",""
"","instruc10","38","242709","0.0-35.0-2.0","""event"",""trial"",""time""
""fullscreenenter"",""0"",""3149""
","
","
","""event"",""trial"",""time""
""fullscreenenter"",""0"",""3149""
","
","null","run_exp/static/audio/clip_12_probe.m4a","null","","","","","<div class='center'><p>Once you've chosen a pirate, you’ll be shown the ship they are robbing. You will never rob the same ship twice. Ships can be told apart from one another by the image on them. These are the goods that they sell. See, this ship has a travel mug on it. </p><p> You’ll have to remember which island you saw each ship on. You will win more gold coins and hence more bonus money if you remember correctly! To help you remember, you can imagine a story. For example, here, you could imagine a mug full of water in the desert. Or, as another example, if on the forest island, your pirate robbed a ship with an apple on it, you could imagine an apple falling from a tree in the forest. </p><p><img src='run_exp/static/images/tutorial/example_probe.png' height='500'></p></div>","","","","","","","","","","","","","","","","","",""
"","html-keyboard-response","39","246541","0.0-35.0-3.0","""event"",""trial"",""time""
""fullscreenenter"",""0"",""3149""
","
","
","""event"",""trial"",""time""
""fullscreenenter"",""0"",""3149""
","
","3831.300000011921","<div class='center'><p>Once you've chosen a pirate, you’ll be shown the ship they are robbing. You will never rob the same ship twice. Ships can be told apart from one another by the image on them. These are the goods that they sell. See, this ship has a travel mug on it. </p><p> You’ll have to remember which island you saw each ship on. You will win more gold coins and hence more bonus money if you remember correctly! To help you remember, you can imagine a story. For example, here, you could imagine a mug full of water in the desert. Or, as another example, if on the forest island, your pirate robbed a ship with an apple on it, you could imagine an apple falling from a tree in the forest. </p><p><img src='run_exp/static/images/tutorial/example_probe.png' height='500'></p><p><b>[Press the space bar to continue]</b></p></div>","32","","","","","","","","","","","","","","","","","","","","","","",""
"","instruc11","40","262980","0.0-35.0-4.0","""event"",""trial"",""time""
""fullscreenenter"",""0"",""3149""
","
","
","""event"",""trial"",""time""
""fullscreenenter"",""0"",""3149""
","
","null","run_exp/static/audio/clip_13_changepoint.m4a","null","","","","","<div class='center'><p>How successful a pirate is at robbing ships will depend on the island you’re on.</p><p> A pirate may have visited this island many times before and gained a lot of practice robbing ships there.</p><p>So, they’re more likely to be successful than a pirate who has never visited the island before.</p></div>","","","","","","","","","","","","","","","","","",""
"","html-keyboard-response","41","264171","0.0-35.0-5.0","""event"",""trial"",""time""
""fullscreenenter"",""0"",""3149""
","
","
","""event"",""trial"",""time""
""fullscreenenter"",""0"",""3149""
","
","1189.7999999523163","<div class='center'><p>How successful a pirate is at robbing ships will depend on the island you’re on.</p><p> A pirate may have visited this island many times before and gained a lot of practice robbing ships there.</p><p>So, they’re more likely to be successful than a pirate who has never visited the island before.</p><p><b>[Press the space bar to continue]</b></p></div>","32","","","","","","","","","","","","","","","","","","","","","","",""
"","instruc12","42","305311","0.0-35.0-6.0","""event"",""trial"",""time""
""fullscreenenter"",""0"",""3149""
","
","
","""event"",""trial"",""time""
""fullscreenenter"",""0"",""3149""
","
","null","run_exp/static/audio/clip_14_drift.m4a","null","","","","","<div class='center'><p>How successful a pirate is at robbing ships can also change over the time spent on the island. </p><p> Ships may hear from islanders about the pirates coming and will improve their protections against the attack. This may make it harder to rob them.</p><p> Ships may also become lazy and weaken the strength of their protections. This may make it easier to rob them.</p><br><p>Things are always changing on the high seas! So, try your best to pay attention!</p><p><img src='run_exp/static/images/tutorial/contingency.png' height='500'></p></div>","","","","","","","","","","","","","","","","","",""
"","html-keyboard-response","43","307310","0.0-35.0-7.0","""event"",""trial"",""time""
""fullscreenenter"",""0"",""3149""
","
","
","""event"",""trial"",""time""
""fullscreenenter"",""0"",""3149""
","
","1997.6000000238419","<div class='center'><p>How successful a pirate is at robbing ships can also change over the time spent on the island. </p><p> Ships may hear from islanders about the pirates coming and will improve their protections against the attack. This may make it harder to rob them.</p><p> Ships may also become lazy and weaken the strength of their protections. This may make it easier to rob them.</p><br><p>Things are always changing on the high seas! So, try your best to pay attention!</p><p><img src='run_exp/static/images/tutorial/contingency.png' height='500'></p><p><b>[Press the space bar to continue]</b></p></div>","32","","","","","","","","","","","","","","","","","","","","","","",""
"","instruc13","44","342533","0.0-35.0-8.0","""event"",""trial"",""time""
""fullscreenenter"",""0"",""3149""
","
","
","""event"",""trial"",""time""
""fullscreenenter"",""0"",""3149""
","
","null","run_exp/static/audio/clip_15_summary.m4a","null","","","","","<div class='center'><p>Let's go over the instructions quickly again. You have two important things to do: </p><b><p> 1. Pick the pirate who is the best at robbing ships on the current island. </p></b><b><p> 2. Remember on which island a ship was robbed.</p> </b><p>The amount of bonus money you can win depends on both.</p><p><br><p>Let’s try a practice game. The game will start by showing you the pirates. First, pick a pirate using the <b> 1, 2, 3 </b> keys on your keyboard. When you are shown a ship, try to remember which island you’re on by making up a story.</p><p>This is just a practice game, so you’re not playing for money. </p><p> Good luck! This game will be very difficult but try your best!</p></div>","","","","","","","","","","","","","","","","","",""
"","html-keyboard-response","45","343635","0.0-35.0-9.0","""event"",""trial"",""time""
""fullscreenenter"",""0"",""3149""
","
","
","""event"",""trial"",""time""
""fullscreenenter"",""0"",""3149""
","
","1101","<div class='center'><p>Let's go over the instructions quickly again. You have two important things to do: </p><b><p> 1. Pick the pirate who is the best at robbing ships on the current island. </p></b><b><p> 2. Remember on which island a ship was robbed.</p> </b><p>The amount of bonus money you can win depends on both.</p><p><br><p>Let’s try a practice game. The game will start by showing you the pirates. First, pick a pirate using the <b> 1, 2, 3 </b> keys on your keyboard. When you are shown a ship, try to remember which island you’re on by making up a story.</p><p>This is just a practice game, so you’re not playing for money. </p><p> Good luck! This game will be very difficult but try your best!</p><p><b>[Press the space bar to continue]</b></p></div>","32","","","","","","","","","","","","","","","","","","","","","","",""
"","do_welcome","46","347642","0.0-35.0-10.0","""event"",""trial"",""time""
""fullscreenenter"",""0"",""3149""
","
","
","""event"",""trial"",""time""
""fullscreenenter"",""0"",""3149""
","
","null","","","","","","","","null","","","","","","","","","","","","","","","","",""
"","do_trial","47","354259","0.0-35.0-11.0","""event"",""trial"",""time""
""fullscreenenter"",""0"",""3149""
","
","
","""event"",""trial"",""time""
""fullscreenenter"",""0"",""3149""
","
","2109.899999976158","","","","","","","","49","1,0,0","","","","","","","","","","","","","","","",""
"","html-keyboard-response","48","355264","0.0-36.0-0.0","""event"",""trial"",""time""
""fullscreenenter"",""0"",""3149""
","
","
","""event"",""trial"",""time""
""fullscreenenter"",""0"",""3149""
","
","null","<p></p>","null","","","","","","","","","","","","","","","","","","","","","","",""
"","do_trial","49","361274","0.0-36.0-1.0","""event"",""trial"",""time""
""fullscreenenter"",""0"",""3149""
","
","
","""event"",""trial"",""time""
""fullscreenenter"",""0"",""3149""
","
","null","","","","","","","","null","1,1,0","","","","","","","","","","","","","","","",""
"","html-keyboard-response","50","362277","0.0-37.0-0.0","""event"",""trial"",""time""
""fullscreenenter"",""0"",""3149""
","
","
","""event"",""trial"",""time""
""fullscreenenter"",""0"",""3149""
","
","null","<p></p>","null","","","","","","","","","","","","","","","","","","","","","","",""
"","do_trial","51","367619","0.0-37.0-1.0","""event"",""trial"",""time""
""fullscreenenter"",""0"",""3149""
","
","
","""event"",""trial"",""time""
""fullscreenenter"",""0"",""3149""
","
","831.3000000119209","","","","","","","","49","1,1,0","","","","","","","","","","","","","","","",""
"","html-keyboard-response","52","368625","0.0-38.0-0.0","""event"",""trial"",""time""
""fullscreenenter"",""0"",""3149""
","
","
","""event"",""trial"",""time""
""fullscreenenter"",""0"",""3149""
","
","null","<p></p>","null","","","","","","","","","","","","","","","","","","","","","","",""
"","do_trial","53","374303","0.0-38.0-1.0","""event"",""trial"",""time""
""fullscreenenter"",""0"",""3149""
","
","
","""event"",""trial"",""time""
""fullscreenenter"",""0"",""3149""
","
","1168.199999988079","","","","","","","","49","1,0,1","","","","","","","","","","","","","","","",""
"","html-keyboard-response","54","375306","0.0-39.0-0.0","""event"",""trial"",""time""
""fullscreenenter"",""0"",""3149""
","
","
","""event"",""trial"",""time""
""fullscreenenter"",""0"",""3149""
","
","null","<p></p>","null","","","","","","","","","","","","","","","","","","","","","","",""
"","do_trial","55","381713","0.0-39.0-1.0","""event"",""trial"",""time""
""fullscreenenter"",""0"",""3149""
","
","
","""event"",""trial"",""time""
""fullscreenenter"",""0"",""3149""
","
","1898.7000000476837","","","","","","","","49","0,1,0","","","","","","","","","","","","","","","",""
"","html-keyboard-response","56","382716","0.0-40.0-0.0","""event"",""trial"",""time""
""fullscreenenter"",""0"",""3149""
","
","
","""event"",""trial"",""time""
""fullscreenenter"",""0"",""3149""
","
","null","<p></p>","null","","","","","","","","","","","","","","","","","","","","","","",""
"","do_trial","57","388636","0.0-40.0-1.0","""event"",""trial"",""time""
""fullscreenenter"",""0"",""3149""
","
","
","""event"",""trial"",""time""
""fullscreenenter"",""0"",""3149""
","
","1413.699999988079","","","","","","","","50","1,0,0","","","","","","","","","","","","","","","",""
"","do_bye","58","390143","0.0-41.0-0.0","""event"",""trial"",""time""
""fullscreenenter"",""0"",""3149""
","
","
","""event"",""trial"",""time""
""fullscreenenter"",""0"",""3149""
","
","null","","","","","","","","null","","","","","","","","","","","","","","","","",""
"","do_travel","59","399150","0.0-41.0-1.0","""event"",""trial"",""time""
""fullscreenenter"",""0"",""3149""
","
","
","""event"",""trial"",""time""
""fullscreenenter"",""0"",""3149""
","
","null","","","","","","","","null","","","","","","","","","","","","","","","","",""
"","do_welcome","60","403156","0.0-41.0-2.0","""event"",""trial"",""time""
""fullscreenenter"",""0"",""3149""
","
","
","""event"",""trial"",""time""
""fullscreenenter"",""0"",""3149""
","
","null","","","","","","","","null","","","","","","","","","","","","","","","","",""
"","do_trial","61","409793","0.0-41.0-3.0","""event"",""trial"",""time""
""fullscreenenter"",""0"",""3149""
","
","
","""event"",""trial"",""time""
""fullscreenenter"",""0"",""3149""
","
","2131.100000023842","","","","","","","","49","1,0,0","","","","","","","","","","","","","","","",""
"","html-keyboard-response","62","410796","0.0-42.0-0.0","""event"",""trial"",""time""
""fullscreenenter"",""0"",""3149""
","
","
","""event"",""trial"",""time""
""fullscreenenter"",""0"",""3149""
","
","null","<p></p>","null","","","","","","","","","","","","","","","","","","","","","","",""
"","do_trial","63","417834","0.0-42.0-1.0","""event"",""trial"",""time""
""fullscreenenter"",""0"",""3149""
","
","
","""event"",""trial"",""time""
""fullscreenenter"",""0"",""3149""
","
","2528.300000011921","","","","","","","","51","1,0,1","","","","","","","","","","","","","","","",""
"","html-keyboard-response","64","418836","0.0-43.0-0.0","""event"",""trial"",""time""
""fullscreenenter"",""0"",""3149""
","
","
","""event"",""trial"",""time""
""fullscreenenter"",""0"",""3149""
","
","null","<p></p>","null","","","","","","","","","","","","","","","","","","","","","","",""
"","do_trial","65","425772","0.0-43.0-1.0","""event"",""trial"",""time""
""fullscreenenter"",""0"",""3149""
","
","
","""event"",""trial"",""time""
""fullscreenenter"",""0"",""3149""
","
","2425.5","","","","","","","","50","1,1,0","","","","","","","","","","","","","","","",""
"","html-keyboard-response","66","426774","0.0-44.0-0.0","""event"",""trial"",""time""
""fullscreenenter"",""0"",""3149""
","
","
","""event"",""trial"",""time""
""fullscreenenter"",""0"",""3149""
","
","null","<p></p>","null","","","","","","","","","","","","","","","","","","","","","","",""
"","do_trial","67","433825","0.0-44.0-1.0","""event"",""trial"",""time""
""fullscreenenter"",""0"",""3149""
","
","
","""event"",""trial"",""time""
""fullscreenenter"",""0"",""3149""
","
","2542.600000023842","","","","","","","","49","0,0,1","","","","","","","","","","","","","","","",""
"","html-keyboard-response","68","434827","0.0-45.0-0.0","""event"",""trial"",""time""
""fullscreenenter"",""0"",""3149""
","
","
","""event"",""trial"",""time""
""fullscreenenter"",""0"",""3149""
","
","null","<p></p>","null","","","","","","","","","","","","","","","","","","","","","","",""
"","do_trial","69","441920","0.0-45.0-1.0","""event"",""trial"",""time""
""fullscreenenter"",""0"",""3149""
","
","
","""event"",""trial"",""time""
""fullscreenenter"",""0"",""3149""
","
","2581.400000035763","","","","","","","","49","1,0,1","","","","","","","","","","","","","","","",""
"","html-keyboard-response","70","447496","0.0-46.0-0.0","""event"",""trial"",""time""
""fullscreenenter"",""0"",""3149""
","
","
","""event"",""trial"",""time""
""fullscreenenter"",""0"",""3149""
","
","5574.399999976158","<div class='center'><p><img src='run_exp/static/images/tutorial/prac_best_pirate.png'  height='500'></p></div>","49","","","","","","","","","","","","","","","","","","","","","","",""
"","html-keyboard-response","71","449877","0.0-47.0-0.0","""event"",""trial"",""time""
""fullscreenenter"",""0"",""3149""
","
","
","""event"",""trial"",""time""
""fullscreenenter"",""0"",""3149""
","
","2380.100000023842","<div class='center'><p>That's correct! Red beard was the best.</p><p><b>[Press the space bar to continue]</b></p></div>","32","","","","","","","","","","","","","","","","","","","","","","",""
"","html-keyboard-response","72","460549","0.0-47.0-1.0","""event"",""trial"",""time""
""fullscreenenter"",""0"",""3149""
","
","
","""event"",""trial"",""time""
""fullscreenenter"",""0"",""3149""
","
","10671.800000011921","<div class='center'><p><img src='run_exp/static/images/tutorial/prac_source.png'  height='500'></p></div>","50","","","","","","","","","","","","","","","","","","","","","","",""
"","html-keyboard-response","73","463251","0.0-48.0-0.0","""event"",""trial"",""time""
""fullscreenenter"",""0"",""3149""
","
","
","""event"",""trial"",""time""
""fullscreenenter"",""0"",""3149""
","
","2700.5","<div class='center'><p>That's correct! You saw this ship on the cavern island.</p><p><b>[Press the space bar to continue]</b></p></div>","32","","","","","","","","","","","","","","","","","","","","","","",""
"","quiz_beginning","74","474602","0.0-48.0-1.0","""event"",""trial"",""time""
""fullscreenenter"",""0"",""3149""
","
","
","""event"",""trial"",""time""
""fullscreenenter"",""0"",""3149""
","
","null","run_exp/static/audio/clip_16_quiz_intro.m4a","null","","","","","<div class='center'><p>Good job on the practice game! Now, you will be asked some true or false questions to make sure you really understand the rules of the game.</p><p> Press <b>'1'</b> on the keyboard for true and press <b>'2'</b> for false.</p></div>","","","","","","","","","","","","","","","","","",""
"","audio-keyboard-response","75","479531","0.0-48.0-2.0","""event"",""trial"",""time""
""fullscreenenter"",""0"",""3149""
","
","
","""event"",""trial"",""time""
""fullscreenenter"",""0"",""3149""
","
","4927.399999976158","run_exp/static/audio/clip_17_q1.m4a","49","","","","","","","","","","","","","","","","","","","","","","",""
"","correct","76","481940","0.0-49.0-0.0","""event"",""trial"",""time""
""fullscreenenter"",""0"",""3149""
","
","
","""event"",""trial"",""time""
""fullscreenenter"",""0"",""3149""
","
","null","run_exp/static/audio/clip_18_correct.m4a","null","","","","","<div class='center'><p>That's correct!</p></div>","","","","","","","","","","","","","","","","","",""
"","html-keyboard-response","77","483150","0.0-49.0-1.0","""event"",""trial"",""time""
""fullscreenenter"",""0"",""3149""
","
","
","""event"",""trial"",""time""
""fullscreenenter"",""0"",""3149""
","
","1209.199999988079","<div class='center'><p>That's correct!</p><p><b>[Press the space bar to continue]</b></p></div>","32","","","","","","","","","","","","","","","","","","","","","","",""
"","audio-keyboard-response","78","491105","0.0-49.0-2.0","""event"",""trial"",""time""
""fullscreenenter"",""0"",""3149""
","
","
","""event"",""trial"",""time""
""fullscreenenter"",""0"",""3149""
","
","7954.699999988079","run_exp/static/audio/clip_20_q2.m4a","50","","","","","","","","","","","","","","","","","","","","","","",""
"","correct","79","493504","0.0-50.0-0.0","""event"",""trial"",""time""
""fullscreenenter"",""0"",""3149""
","
","
","""event"",""trial"",""time""
""fullscreenenter"",""0"",""3149""
","
","null","run_exp/static/audio/clip_18_correct.m4a","null","","","","","<div class='center'><p>That's correct!</p></div>","","","","","","","","","","","","","","","","","",""
"","html-keyboard-response","80","494674","0.0-50.0-1.0","""event"",""trial"",""time""
""fullscreenenter"",""0"",""3149""
","
","
","""event"",""trial"",""time""
""fullscreenenter"",""0"",""3149""
","
","1169.199999988079","<div class='center'><p>That's correct!</p><p><b>[Press the space bar to continue]</b></p></div>","32","","","","","","","","","","","","","","","","","","","","","","",""
"","audio-keyboard-response","81","501560","0.0-50.0-2.0","""event"",""trial"",""time""
""fullscreenenter"",""0"",""3149""
","
","
","""event"",""trial"",""time""
""fullscreenenter"",""0"",""3149""
","
","6885.400000035763","run_exp/static/audio/clip_22_q3.m4a","50","","","","","","","","","","","","","","","","","","","","","","",""
"","correct","82","503976","0.0-51.0-0.0","""event"",""trial"",""time""
""fullscreenenter"",""0"",""3149""
","
","
","""event"",""trial"",""time""
""fullscreenenter"",""0"",""3149""
","
","null","run_exp/static/audio/clip_18_correct.m4a","null","","","","","<div class='center'><p>That's correct!</p></div>","","","","","","","","","","","","","","","","","",""
"","html-keyboard-response","83","505120","0.0-51.0-1.0","""event"",""trial"",""time""
""fullscreenenter"",""0"",""3149""
","
","
","""event"",""trial"",""time""
""fullscreenenter"",""0"",""3149""
","
","1143.300000011921","<div class='center'><p>That's correct!</p><p><b>[Press the space bar to continue]</b></p></div>","32","","","","","","","","","","","","","","","","","","","","","","",""
"","audio-keyboard-response","84","511872","0.0-51.0-2.0","""event"",""trial"",""time""
""fullscreenenter"",""0"",""3149""
","
","
","""event"",""trial"",""time""
""fullscreenenter"",""0"",""3149""
","
","6751.300000011921","run_exp/static/audio/clip_24_q4.m4a","49","","","","","","","","","","","","","","","","","","","","","","",""
"","correct","85","514310","0.0-52.0-0.0","""event"",""trial"",""time""
""fullscreenenter"",""0"",""3149""
","
","
","""event"",""trial"",""time""
""fullscreenenter"",""0"",""3149""
","
","null","run_exp/static/audio/clip_18_correct.m4a","null","","","","","<div class='center'><p>That's correct!</p></div>","","","","","","","","","","","","","","","","","",""
"","html-keyboard-response","86","515228","0.0-52.0-1.0","""event"",""trial"",""time""
""fullscreenenter"",""0"",""3149""
","
","
","""event"",""trial"",""time""
""fullscreenenter"",""0"",""3149""
","
","917.7000000476837","<div class='center'><p>That's correct!</p><p><b>[Press the space bar to continue]</b></p></div>","32","","","","","","","","","","","","","","","","","","","","","","",""
"","q_all_corr","87","523737","0.0-53.0-0.0","""event"",""trial"",""time""
""fullscreenenter"",""0"",""3149""
","
","
","""event"",""trial"",""time""
""fullscreenenter"",""0"",""3149""
","
","null","run_exp/static/audio/clip_27_quiz_all_correct.m4a","null","","","","","<div class='center'><p>Good job! You’re now ready to move on to the real game! Remember this game will be difficult but don't get discouraged and try your best!</p></div>","","","","","","","","","","","","","","","","","",""
"","html-keyboard-response","88","525887","0.0-53.0-1.0","""event"",""trial"",""time""
""fullscreenenter"",""0"",""3149""
","
","
","""event"",""trial"",""time""
""fullscreenenter"",""0"",""3149""
","
","2148.5","<div class='center'><p>Good job! You’re now ready to move on to the real game! Remember this game will be difficult but don't get discouraged and try your best!</p><p><b>[Press the space bar to continue]</b></p></div>","32","","","","","","","","","","","","","","","","","","","","","","",""
"","do_welcome","89","529892","0.0-54.0-0.0","""event"",""trial"",""time""
""fullscreenenter"",""0"",""3149""
","
","
","""event"",""trial"",""time""
""fullscreenenter"",""0"",""3149""
","
","null","","","","","","","","null","","","","","","","","","","","","","","","","",""
"","do_trial","90","537104","0.0-55.0-0.0","""event"",""trial"",""time""
""fullscreenenter"",""0"",""3149""
","
","
","""event"",""trial"",""time""
""fullscreenenter"",""0"",""3149""
","
","2668.199999988079","","","","","","","","49","0,1,0","0","forest","0","probe-70","0.6","0.3","0.1","0","","","","","","","",""
"","html-keyboard-response","91","538109","0.0-55.0-1.0","""event"",""trial"",""time""
""fullscreenenter"",""0"",""3149""
","
","
","""event"",""trial"",""time""
""fullscreenenter"",""0"",""3149""
","
","null","<p></p>","null","","","","","","","","","","","","","","","","","","","","","","",""
"","do_trial","92","544974","0.0-56.0-0.0","""event"",""trial"",""time""
""fullscreenenter"",""0"",""3149""
","
","
","""event"",""trial"",""time""
""fullscreenenter"",""0"",""3149""
","
","2324.400000035763","","","","","","","","50","1,1,0","0","forest","1","probe-230","0.5391737459712116","0.3841503543824532","0.10684912909308626","1","","","","","","","",""
"","html-keyboard-response","93","545978","0.0-56.0-1.0","""event"",""trial"",""time""
""fullscreenenter"",""0"",""3149""
","
","
","""event"",""trial"",""time""
""fullscreenenter"",""0"",""3149""
","
","null","<p></p>","null","","","","","","","","","","","","","","","","","","","","","","",""
"","do_trial","94","552349","0.0-57.0-0.0","""event"",""trial"",""time""
""fullscreenenter"",""0"",""3149""
","
","
","""event"",""trial"",""time""
""fullscreenenter"",""0"",""3149""
","
","1832","","","","","","","","51","1,0,0","0","forest","2","probe-175","0.5695803593119954","0.4701515866984532","0.1425265975931717","0","","","","","","","",""
"","html-keyboard-response","95","553354","0.0-57.0-1.0","""event"",""trial"",""time""
""fullscreenenter"",""0"",""3149""
","
","
","""event"",""trial"",""time""
""fullscreenenter"",""0"",""3149""
","
","null","<p></p>","null","","","","","","","","","","","","","","","","","","","","","","",""
"","do_trial","96","558122","0.0-58.0-0.0","""event"",""trial"",""time""
""fullscreenenter"",""0"",""3149""
","
","
","""event"",""trial"",""time""
""fullscreenenter"",""0"",""3149""
","
","224.69999998807907","","","","","","","","50","1,1,1","0","forest","3","probe-141","0.5638801757242982","0.4732162310905116","0.15187740877559913","1","","","","","","","",""
"","html-keyboard-response","97","559125","0.0-58.0-1.0","""event"",""trial"",""time""
""fullscreenenter"",""0"",""3149""
","
","
","""event"",""trial"",""time""
""fullscreenenter"",""0"",""3149""
","
","null","<p></p>","null","","","","","","","","","","","","","","","","","","","","","","",""
"","do_trial","98","566104","0.0-59.0-0.0","""event"",""trial"",""time""
""fullscreenenter"",""0"",""3149""
","
","
","""event"",""trial"",""time""
""fullscreenenter"",""0"",""3149""
","
","2436.199999988079","","","","","","","","50","1,0,1","0","forest","4","probe-187","0.6553256098717818","0.40914903770785715","0.22318802674940627","0","","","","","","","",""
"","html-keyboard-response","99","567108","0.0-59.0-1.0","""event"",""trial"",""time""
""fullscreenenter"",""0"",""3149""
","
","
","""event"",""trial"",""time""
""fullscreenenter"",""0"",""3149""
","
","null","<p></p>","null","","","","","","","","","","","","","","","","","","","","","","",""
"","do_trial","100","572307","0.0-60.0-0.0","""event"",""trial"",""time""
""fullscreenenter"",""0"",""3149""
","
","
","""event"",""trial"",""time""
""fullscreenenter"",""0"",""3149""
","
","657.3999999761581","","","","","","","","49","1,0,0","0","forest","5","probe-115","0.6289381501831619","0.248626093188152","0.2675729751261259","1","","","","","","","",""
"","html-keyboard-response","101","573311","0.0-60.0-1.0","""event"",""trial"",""time""
""fullscreenenter"",""0"",""3149""
","
","
","""event"",""trial"",""time""
""fullscreenenter"",""0"",""3149""
","
","null","<p></p>","null","","","","","","","","","","","","","","","","","","","","","","",""
"","do_trial","102","578760","0.0-61.0-0.0","""event"",""trial"",""time""
""fullscreenenter"",""0"",""3149""
","
","
","""event"",""trial"",""time""
""fullscreenenter"",""0"",""3149""
","
","906.3000000119209","","","","","","","","50","0,0,1","0","forest","6","probe-32","0.5628476087400281","0.2641496993637955","0.306139555940512","0","","","","","","","",""
"","html-keyboard-response","103","579764","0.0-61.0-1.0","""event"",""trial"",""time""
""fullscreenenter"",""0"",""3149""
","
","
","""event"",""trial"",""time""
""fullscreenenter"",""0"",""3149""
","
","null","<p></p>","null","","","","","","","","","","","","","","","","","","","","","","",""
"","do_trial","104","585395","0.0-62.0-0.0","""event"",""trial"",""time""
""fullscreenenter"",""0"",""3149""
","
","
","""event"",""trial"",""time""
""fullscreenenter"",""0"",""3149""
","
","1091.7000000476837","","","","","","","","51","1,0,1","0","forest","7","probe-166","0.6141480718590435","0.2558336455535696","0.3241383509595663","1","","","","","","","",""
"","html-keyboard-response","105","586400","0.0-62.0-1.0","""event"",""trial"",""time""
""fullscreenenter"",""0"",""3149""
","
","
","""event"",""trial"",""time""
""fullscreenenter"",""0"",""3149""
","
","null","<p></p>","null","","","","","","","","","","","","","","","","","","","","","","",""
"","do_trial","106","592177","0.0-63.0-0.0","""event"",""trial"",""time""
""fullscreenenter"",""0"",""3149""
","
","
","""event"",""trial"",""time""
""fullscreenenter"",""0"",""3149""
","
","1236.6000000238419","","","","","","","","49","0,1,1","0","forest","8","probe-126","0.6560916698635666","0.2653001402012748","0.33406572542620555","0","","","","","","","",""
"","html-keyboard-response","107","593183","0.0-63.0-1.0","""event"",""trial"",""time""
""fullscreenenter"",""0"",""3149""
","
","
","""event"",""trial"",""time""
""fullscreenenter"",""0"",""3149""
","
","null","<p></p>","null","","","","","","","","","","","","","","","","","","","","","","",""
"","do_trial","108","598273","0.0-64.0-0.0","""event"",""trial"",""time""
""fullscreenenter"",""0"",""3149""
","
","
","""event"",""trial"",""time""
""fullscreenenter"",""0"",""3149""
","
","550.3999999761581","","","","","","","","50","1,0,0","0","forest","9","probe-202","0.6614378363434942","0.22595882609966078","0.3459431987406495","0","","","","","","","",""
"","html-keyboard-response","109","599275","0.0-64.0-1.0","""event"",""trial"",""time""
""fullscreenenter"",""0"",""3149""
","
","
","""event"",""trial"",""time""
""fullscreenenter"",""0"",""3149""
","
","null","<p></p>","null","","","","","","","","","","","","","","","","","","","","","","",""
"","do_trial","110","604762","0.0-65.0-0.0","""event"",""trial"",""time""
""fullscreenenter"",""0"",""3149""
","
","
","""event"",""trial"",""time""
""fullscreenenter"",""0"",""3149""
","
","945.5999999642372","","","","","","","","51","0,0,1","0","forest","10","probe-76","0.6370541199315133","0.2572779465343595","0.1671544432675905","1","","","","","","","",""
"","html-keyboard-response","111","605765","0.0-65.0-1.0","""event"",""trial"",""time""
""fullscreenenter"",""0"",""3149""
","
","
","""event"",""trial"",""time""
""fullscreenenter"",""0"",""3149""
","
","null","<p></p>","null","","","","","","","","","","","","","","","","","","","","","","",""
"","do_trial","112","611663","0.0-66.0-0.0","""event"",""trial"",""time""
""fullscreenenter"",""0"",""3149""
","
","
","""event"",""trial"",""time""
""fullscreenenter"",""0"",""3149""
","
","1354.300000011921","","","","","","","","51","0,0,0","0","forest","11","probe-185","0.5888383413093767","0.2229348673852934","0.23653541862456695","0","","","","","","","",""
"","html-keyboard-response","113","612667","0.0-66.0-1.0","""event"",""trial"",""time""
""fullscreenenter"",""0"",""3149""
","
","
","""event"",""trial"",""time""
""fullscreenenter"",""0"",""3149""
","
","null","<p></p>","null","","","","","","","","","","","","","","","","","","","","","","",""
"","do_trial","114","619747","0.0-67.0-0.0","""event"",""trial"",""time""
""fullscreenenter"",""0"",""3149""
","
","
","""event"",""trial"",""time""
""fullscreenenter"",""0"",""3149""
","
","2536","","","","","","","","49","0,0,1","0","forest","12","probe-131","0.5745056793592399","0.11285466775154797","0.23352237414763535","0","","","","","","","",""
"","html-keyboard-response","115","620754","0.0-67.0-1.0","""event"",""trial"",""time""
""fullscreenenter"",""0"",""3149""
","
","
","""event"",""trial"",""time""
""fullscreenenter"",""0"",""3149""
","
","null","<p></p>","null","","","","","","","","","","","","","","","","","","","","","","",""
"","do_trial","116","625871","0.0-68.0-0.0","""event"",""trial"",""time""
""fullscreenenter"",""0"",""3149""
","
","
","""event"",""trial"",""time""
""fullscreenenter"",""0"",""3149""
","
","577","","","","","","","","50","1,1,0","0","forest","13","probe-56","0.5720772741077985","0.16102929704233443","0.16259920475534007","1","","","","","","","",""
"","html-keyboard-response","117","626875","0.0-68.0-1.0","""event"",""trial"",""time""
""fullscreenenter"",""0"",""3149""
","
","
","""event"",""trial"",""time""
""fullscreenenter"",""0"",""3149""
","
","null","<p></p>","null","","","","","","","","","","","","","","","","","","","","","","",""
"","do_trial","118","633234","0.0-69.0-0.0","""event"",""trial"",""time""
""fullscreenenter"",""0"",""3149""
","
","
","""event"",""trial"",""time""
""fullscreenenter"",""0"",""3149""
","
","1816.9000000357628","","","","","","","","51","1,0,0","0","forest","14","probe-159","0.589201097707399","0.27434204885730534","0.17813884474590105","0","","","","","","","",""
"","html-keyboard-response","119","634239","0.0-69.0-1.0","""event"",""trial"",""time""
""fullscreenenter"",""0"",""3149""
","
","
","""event"",""trial"",""time""
""fullscreenenter"",""0"",""3149""
","
","null","<p></p>","null","","","","","","","","","","","","","","","","","","","","","","",""
"","do_trial","120","639650","0.0-70.0-0.0","""event"",""trial"",""time""
""fullscreenenter"",""0"",""3149""
","
","
","""event"",""trial"",""time""
""fullscreenenter"",""0"",""3149""
","
","867.3000000119209","","","","","","","","50","0,1,0","0","forest","15","probe-66","0.5337408081910706","0.30956434960625784","0.19929205029791747","1","","","","","","","",""
"","html-keyboard-response","121","640655","0.0-70.0-1.0","""event"",""trial"",""time""
""fullscreenenter"",""0"",""3149""
","
","
","""event"",""trial"",""time""
""fullscreenenter"",""0"",""3149""
","
","null","<p></p>","null","","","","","","","","","","","","","","","","","","","","","","",""
"","do_trial","122","646221","0.0-71.0-0.0","""event"",""trial"",""time""
""fullscreenenter"",""0"",""3149""
","
","
","""event"",""trial"",""time""
""fullscreenenter"",""0"",""3149""
","
","1023.7999999523163","","","","","","","","50","0,0,0","0","forest","16","probe-01","0.6279926009455127","0.28716313849867875","0.13887531106758721","0","","","","","","","",""
"","html-keyboard-response","123","647225","0.0-71.0-1.0","""event"",""trial"",""time""
""fullscreenenter"",""0"",""3149""
","
","
","""event"",""trial"",""time""
""fullscreenenter"",""0"",""3149""
","
","null","<p></p>","null","","","","","","","","","","","","","","","","","","","","","","",""
"","do_trial","124","653953","0.0-72.0-0.0","""event"",""trial"",""time""
""fullscreenenter"",""0"",""3149""
","
","
","""event"",""trial"",""time""
""fullscreenenter"",""0"",""3149""
","
","2184.400000035763","","","","","","","","51","0,1,1","0","forest","17","probe-207","0.7335347158362305","0.34214614225841056","0.14195363285312568","1","","","","","","","",""
"","html-keyboard-response","125","654957","0.0-72.0-1.0","""event"",""trial"",""time""
""fullscreenenter"",""0"",""3149""
","
","
","""event"",""trial"",""time""
""fullscreenenter"",""0"",""3149""
","
","null","<p></p>","null","","","","","","","","","","","","","","","","","","","","","","",""
"","do_trial","126","660922","0.0-73.0-0.0","""event"",""trial"",""time""
""fullscreenenter"",""0"",""3149""
","
","
","""event"",""trial"",""time""
""fullscreenenter"",""0"",""3149""
","
","1421.1000000238419","","","","","","","","49","0,1,0","0","forest","18","probe-224","0.6042756861076499","0.28470388081469233","0.16792551699812883","0","","","","","","","",""
"","html-keyboard-response","127","661926","0.0-73.0-1.0","""event"",""trial"",""time""
""fullscreenenter"",""0"",""3149""
","
","
","""event"",""trial"",""time""
""fullscreenenter"",""0"",""3149""
","
","null","<p></p>","null","","","","","","","","","","","","","","","","","","","","","","",""
"","do_trial","128","666988","0.0-74.0-0.0","""event"",""trial"",""time""
""fullscreenenter"",""0"",""3149""
","
","
","""event"",""trial"",""time""
""fullscreenenter"",""0"",""3149""
","
","523.1999999880791","","","","","","","","51","1,0,0","0","forest","19","probe-204","0.5107700868078854","0.29676777402666277","0.17810855854965746","0","","","","","","","",""
"","html-keyboard-response","129","667993","0.0-74.0-1.0","""event"",""trial"",""time""
""fullscreenenter"",""0"",""3149""
","
","
","""event"",""trial"",""time""
""fullscreenenter"",""0"",""3149""
","
","null","<p></p>","null","","","","","","","","","","","","","","","","","","","","","","",""
"","do_trial","130","673124","0.0-75.0-0.0","""event"",""trial"",""time""
""fullscreenenter"",""0"",""3149""
","
","
","""event"",""trial"",""time""
""fullscreenenter"",""0"",""3149""
","
","590.1999999880791","","","","","","","","51","1,0,0","0","forest","20","probe-169","0.49853195226999397","0.2404127387332534","0.07991183584199522","0","","","","","","","",""
"","html-keyboard-response","131","674130","0.0-75.0-1.0","""event"",""trial"",""time""
""fullscreenenter"",""0"",""3149""
","
","
","""event"",""trial"",""time""
""fullscreenenter"",""0"",""3149""
","
","null","<p></p>","null","","","","","","","","","","","","","","","","","","","","","","",""
"","do_trial","132","679113","0.0-76.0-0.0","""event"",""trial"",""time""
""fullscreenenter"",""0"",""3149""
","
","
","""event"",""trial"",""time""
""fullscreenenter"",""0"",""3149""
","
","441.5999999642372","","","","","","","","50","0,0,0","0","forest","21","probe-37","0.593437218209495","0.15672901288453672","0.07308768641287446","0","","","","","","","",""
"","html-keyboard-response","133","680117","0.0-76.0-1.0","""event"",""trial"",""time""
""fullscreenenter"",""0"",""3149""
","
","
","""event"",""trial"",""time""
""fullscreenenter"",""0"",""3149""
","
","null","<p></p>","null","","","","","","","","","","","","","","","","","","","","","","",""
"","do_trial","134","685059","0.0-77.0-0.0","""event"",""trial"",""time""
""fullscreenenter"",""0"",""3149""
","
","
","""event"",""trial"",""time""
""fullscreenenter"",""0"",""3149""
","
","401.80000001192093","","","","","","","","51","1,0,0","0","forest","22","probe-91","0.581149529974009","0.08434754359792278","0.10833061964063083","0","","","","","","","",""
"","html-keyboard-response","135","686065","0.0-77.0-1.0","""event"",""trial"",""time""
""fullscreenenter"",""0"",""3149""
","
","
","""event"",""trial"",""time""
""fullscreenenter"",""0"",""3149""
","
","null","<p></p>","null","","","","","","","","","","","","","","","","","","","","","","",""
"","do_trial","136","691300","0.0-78.0-0.0","""event"",""trial"",""time""
""fullscreenenter"",""0"",""3149""
","
","
","""event"",""trial"",""time""
""fullscreenenter"",""0"",""3149""
","
","696.3000000119209","","","","","","","","49","0,0,0","0","forest","23","probe-79","0.6435637799870609","0.28126108375798886","0.05713086473327778","0","","","","","","","",""
"","html-keyboard-response","137","692305","0.0-78.0-1.0","""event"",""trial"",""time""
""fullscreenenter"",""0"",""3149""
","
","
","""event"",""trial"",""time""
""fullscreenenter"",""0"",""3149""
","
","null","<p></p>","null","","","","","","","","","","","","","","","","","","","","","","",""
"","do_trial","138","697429","0.0-79.0-0.0","""event"",""trial"",""time""
""fullscreenenter"",""0"",""3149""
","
","
","""event"",""trial"",""time""
""fullscreenenter"",""0"",""3149""
","
","584.7999999523163","","","","","","","","50","1,0,1","0","forest","24","probe-77","0.7343081701852191","0.33456312089518137","0.10891273075414928","0","","","","","","","",""
"","html-keyboard-response","139","698433","0.0-79.0-1.0","""event"",""trial"",""time""
""fullscreenenter"",""0"",""3149""
","
","
","""event"",""trial"",""time""
""fullscreenenter"",""0"",""3149""
","
","null","<p></p>","null","","","","","","","","","","","","","","","","","","","","","","",""
"","do_trial","140","703411","0.0-80.0-0.0","""event"",""trial"",""time""
""fullscreenenter"",""0"",""3149""
","
","
","""event"",""trial"",""time""
""fullscreenenter"",""0"",""3149""
","
","434.80000001192093","","","","","","","","50","1,1,0","0","forest","25","probe-19","0.7678479421155031","0.2689235005949714","0.09866950517781493","1","","","","","","","",""
"","html-keyboard-response","141","704415","0.0-80.0-1.0","""event"",""trial"",""time""
""fullscreenenter"",""0"",""3149""
","
","
","""event"",""trial"",""time""
""fullscreenenter"",""0"",""3149""
","
","null","<p></p>","null","","","","","","","","","","","","","","","","","","","","","","",""
"","do_trial","142","710203","0.0-81.0-0.0","""event"",""trial"",""time""
""fullscreenenter"",""0"",""3149""
","
","
","""event"",""trial"",""time""
""fullscreenenter"",""0"",""3149""
","
","1245.699999988079","","","","","","","","50","0,1,0","0","forest","26","probe-89","0.6879614233906218","0.21751564070453516","0.18791564729219043","1","","","","","","","",""
"","html-keyboard-response","143","711205","0.0-81.0-1.0","""event"",""trial"",""time""
""fullscreenenter"",""0"",""3149""
","
","
","""event"",""trial"",""time""
""fullscreenenter"",""0"",""3149""
","
","null","<p></p>","null","","","","","","","","","","","","","","","","","","","","","","",""
"","do_trial","144","717022","0.0-82.0-0.0","""event"",""trial"",""time""
""fullscreenenter"",""0"",""3149""
","
","
","""event"",""trial"",""time""
""fullscreenenter"",""0"",""3149""
","
","1272.6000000238419","","","","","","","","50","0,1,0","0","forest","27","probe-85","0.6319396327590788","0.3357438449590059","0.07215657911509732","1","","","","","","","",""
"","html-keyboard-response","145","718026","0.0-82.0-1.0","""event"",""trial"",""time""
""fullscreenenter"",""0"",""3149""
","
","
","""event"",""trial"",""time""
""fullscreenenter"",""0"",""3149""
","
","null","<p></p>","null","","","","","","","","","","","","","","","","","","","","","","",""
"","do_trial","146","724779","0.0-83.0-0.0","""event"",""trial"",""time""
""fullscreenenter"",""0"",""3149""
","
","
","""event"",""trial"",""time""
""fullscreenenter"",""0"",""3149""
","
","2213.100000023842","","","","","","","","50","1,1,0","0","forest","28","probe-28","0.6303982676131408","0.32103196097597886","0.09270789284408892","1","","","","","","","",""
"","html-keyboard-response","147","725780","0.0-83.0-1.0","""event"",""trial"",""time""
""fullscreenenter"",""0"",""3149""
","
","
","""event"",""trial"",""time""
""fullscreenenter"",""0"",""3149""
","
","null","<p></p>","null","","","","","","","","","","","","","","","","","","","","","","",""
"","do_trial","148","731189","0.0-84.0-0.0","""event"",""trial"",""time""
""fullscreenenter"",""0"",""3149""
","
","
","""event"",""trial"",""time""
""fullscreenenter"",""0"",""3149""
","
","869.1999999880791","","","","","","","","50","1,0,1","0","forest","29","probe-17","0.5719743449290671","0.25591498243283517","0.11492259047757543","0","","","","","","","",""
"","html-keyboard-response","149","732193","0.0-84.0-1.0","""event"",""trial"",""time""
""fullscreenenter"",""0"",""3149""
","
","
","""event"",""trial"",""time""
""fullscreenenter"",""0"",""3149""
","
","null","<p></p>","null","","","","","","","","","","","","","","","","","","","","","","",""
"","do_bye","150","733698","0.0-85.0-0.0","""event"",""trial"",""time""
""fullscreenenter"",""0"",""3149""
","
","
","""event"",""trial"",""time""
""fullscreenenter"",""0"",""3149""
","
","null","","","","","","","","null","","","","","","","","","","","","","","","","",""
"","break","151","738109","0.0-85.0-1.0","""event"",""trial"",""time""
""fullscreenenter"",""0"",""3149""
","
","
","""event"",""trial"",""time""
""fullscreenenter"",""0"",""3149""
","
","4409.600000023842","<div class='center'><p>Time to take a quick break! You have 2 minutes to rest, but you can move on sooner if you'd like.</p><p> Press the <b>space bar</b> to continue.</p></div>","32","","","","","","","","","","","","","","","","","","","","","","",""
"","do_travel","152","747114","0.0-86.0-0.0","""event"",""trial"",""time""
""fullscreenenter"",""0"",""3149""
","
","
","""event"",""trial"",""time""
""fullscreenenter"",""0"",""3149""
","
","null","","","","","","","","null","","","","","","","","","","","","","","","","",""
"","do_welcome","153","751122","0.0-86.0-1.0","""event"",""trial"",""time""
""fullscreenenter"",""0"",""3149""
","
","
","""event"",""trial"",""time""
""fullscreenenter"",""0"",""3149""
","
","null","","","","","","","","null","","","","","","","","","","","","","","","","",""
"","do_trial","154","757169","0.0-87.0-0.0","""event"",""trial"",""time""
""fullscreenenter"",""0"",""3149""
","
","
","""event"",""trial"",""time""
""fullscreenenter"",""0"",""3149""
","
","null","","","","","","","","null","1,0,0","1","coast","30","probe-99","1","0.24207478026178023","0.1389823938210943","","","","","","","","",""
"","html-keyboard-response","155","758172","0.0-87.0-1.0","""event"",""trial"",""time""
""fullscreenenter"",""0"",""3149""
","
","
","""event"",""trial"",""time""
""fullscreenenter"",""0"",""3149""
","
","null","<p></p>","null","","","","","","","","","","","","","","","","","","","","","","",""
"","do_trial","156","763533","0.0-88.0-0.0","""event"",""trial"",""time""
""fullscreenenter"",""0"",""3149""
","
","
","""event"",""trial"",""time""
""fullscreenenter"",""0"",""3149""
","
","820.1999999880791","","","","","","","","51","1,1,0","1","coast","31","probe-205","1","0.17160311547985557","0.20881685079857715","0","","","","","","","",""
"","html-keyboard-response","157","764539","0.0-88.0-1.0","""event"",""trial"",""time""
""fullscreenenter"",""0"",""3149""
","
","
","""event"",""trial"",""time""
""fullscreenenter"",""0"",""3149""
","
","null","<p></p>","null","","","","","","","","","","","","","","","","","","","","","","",""
"","do_trial","158","769875","0.0-89.0-0.0","""event"",""trial"",""time""
""fullscreenenter"",""0"",""3149""
","
","
","""event"",""trial"",""time""
""fullscreenenter"",""0"",""3149""
","
","793.5","","","","","","","","50","1,0,0","1","coast","32","probe-59","1","0.2448326331078163","0.08130244724949771","0","","","","","","","",""
"","html-keyboard-response","159","770878","0.0-89.0-1.0","""event"",""trial"",""time""
""fullscreenenter"",""0"",""3149""
","
","
","""event"",""trial"",""time""
""fullscreenenter"",""0"",""3149""
","
","null","<p></p>","null","","","","","","","","","","","","","","","","","","","","","","",""
"","do_trial","160","776053","0.0-90.0-0.0","""event"",""trial"",""time""
""fullscreenenter"",""0"",""3149""
","
","
","""event"",""trial"",""time""
""fullscreenenter"",""0"",""3149""
","
","630.5","","","","","","","","49","1,1,1","1","coast","33","probe-38","0.7645392065634786","0.3467785231770121","0.20417929066463814","1","","","","","","","",""
"","html-keyboard-response","161","777056","0.0-90.0-1.0","""event"",""trial"",""time""
""fullscreenenter"",""0"",""3149""
","
","
","""event"",""trial"",""time""
""fullscreenenter"",""0"",""3149""
","
","null","<p></p>","null","","","","","","","","","","","","","","","","","","","","","","",""
"","do_trial","162","782139","0.0-91.0-0.0","""event"",""trial"",""time""
""fullscreenenter"",""0"",""3149""
","
","
","""event"",""trial"",""time""
""fullscreenenter"",""0"",""3149""
","
","540.5999999642372","","","","","","","","49","1,0,1","1","coast","34","probe-65","0.6013734475631444","0.08817715057355283","0.25160555531281054","1","","","","","","","",""
"","html-keyboard-response","163","783143","0.0-91.0-1.0","""event"",""trial"",""time""
""fullscreenenter"",""0"",""3149""
","
","
","""event"",""trial"",""time""
""fullscreenenter"",""0"",""3149""
","
","null","<p></p>","null","","","","","","","","","","","","","","","","","","","","","","",""
"","do_trial","164","789939","0.0-92.0-0.0","""event"",""trial"",""time""
""fullscreenenter"",""0"",""3149""
","
","
","""event"",""trial"",""time""
""fullscreenenter"",""0"",""3149""
","
","2257.199999988079","","","","","","","","49","1,0,0","1","coast","35","probe-139","0.47620230185800405","0.05530119852147534","0.14875625233373657","1","","","","","","","",""
"","html-keyboard-response","165","790944","0.0-92.0-1.0","""event"",""trial"",""time""
""fullscreenenter"",""0"",""3149""
","
","
","""event"",""trial"",""time""
""fullscreenenter"",""0"",""3149""
","
","null","<p></p>","null","","","","","","","","","","","","","","","","","","","","","","",""
"","do_trial","166","796023","0.0-93.0-0.0","""event"",""trial"",""time""
""fullscreenenter"",""0"",""3149""
","
","
","""event"",""trial"",""time""
""fullscreenenter"",""0"",""3149""
","
","535","","","","","","","","50","1,0,1","1","coast","36","probe-71","0.5639340116915219","0.0793950803979108","0.1990223901386537","0","","","","","","","",""
"","html-keyboard-response","167","797027","0.0-93.0-1.0","""event"",""trial"",""time""
""fullscreenenter"",""0"",""3149""
","
","
","""event"",""trial"",""time""
""fullscreenenter"",""0"",""3149""
","
","null","<p></p>","null","","","","","","","","","","","","","","","","","","","","","","",""
"","do_trial","168","803864","0.0-94.0-0.0","""event"",""trial"",""time""
""fullscreenenter"",""0"",""3149""
","
","
","""event"",""trial"",""time""
""fullscreenenter"",""0"",""3149""
","
","2296.099999964237","","","","","","","","51","0,0,0","1","coast","37","probe-156","0.4576851980042765","0.14595885307880577","0.07951653648375082","0","","","","","","","",""
"","html-keyboard-response","169","804869","0.0-94.0-1.0","""event"",""trial"",""time""
""fullscreenenter"",""0"",""3149""
","
","
","""event"",""trial"",""time""
""fullscreenenter"",""0"",""3149""
","
","null","<p></p>","null","","","","","","","","","","","","","","","","","","","","","","",""
"","do_trial","170","809833","0.0-95.0-0.0","""event"",""trial"",""time""
""fullscreenenter"",""0"",""3149""
","
","
","""event"",""trial"",""time""
""fullscreenenter"",""0"",""3149""
","
","423.7999999523163","","","","","","","","49","0,0,0","1","coast","38","probe-58","0.2812968498180341","0.2521728158568223","0.14689476890886727","0","","","","","","","",""
"","html-keyboard-response","171","810839","0.0-95.0-1.0","""event"",""trial"",""time""
""fullscreenenter"",""0"",""3149""
","
","
","""event"",""trial"",""time""
""fullscreenenter"",""0"",""3149""
","
","null","<p></p>","null","","","","","","","","","","","","","","","","","","","","","","",""
"","do_trial","172","815754","0.0-96.0-0.0","""event"",""trial"",""time""
""fullscreenenter"",""0"",""3149""
","
","
","""event"",""trial"",""time""
""fullscreenenter"",""0"",""3149""
","
","372.10000002384186","","","","","","","","50","0,0,0","1","coast","39","probe-43","0.3792591488846476","0.3582568048740319","0.21903477785956882","0","","","","","","","",""
"","html-keyboard-response","173","816756","0.0-96.0-1.0","""event"",""trial"",""time""
""fullscreenenter"",""0"",""3149""
","
","
","""event"",""trial"",""time""
""fullscreenenter"",""0"",""3149""
","
","null","<p></p>","null","","","","","","","","","","","","","","","","","","","","","","",""
"","do_trial","174","821843","0.0-97.0-0.0","""event"",""trial"",""time""
""fullscreenenter"",""0"",""3149""
","
","
","""event"",""trial"",""time""
""fullscreenenter"",""0"",""3149""
","
","545.6999999880791","","","","","","","","49","0,1,1","1","coast","40","probe-151","0.3179561508259127","0.3046274908305194","0.22154948247694162","0","","","","","","","",""
"","html-keyboard-response","175","822849","0.0-97.0-1.0","""event"",""trial"",""time""
""fullscreenenter"",""0"",""3149""
","
","
","""event"",""trial"",""time""
""fullscreenenter"",""0"",""3149""
","
","null","<p></p>","null","","","","","","","","","","","","","","","","","","","","","","",""
"","do_trial","176","827798","0.0-98.0-0.0","""event"",""trial"",""time""
""fullscreenenter"",""0"",""3149""
","
","
","""event"",""trial"",""time""
""fullscreenenter"",""0"",""3149""
","
","408.80000001192093","","","","","","","","51","0,0,0","1","coast","41","probe-145","0.30063209371261773","0.34892216311822505","0.0827081705127471","0","","","","","","","",""
"","html-keyboard-response","177","828800","0.0-98.0-1.0","""event"",""trial"",""time""
""fullscreenenter"",""0"",""3149""
","
","
","""event"",""trial"",""time""
""fullscreenenter"",""0"",""3149""
","
","null","<p></p>","null","","","","","","","","","","","","","","","","","","","","","","",""
"","do_trial","178","833781","0.0-99.0-0.0","""event"",""trial"",""time""
""fullscreenenter"",""0"",""3149""
","
","
","""event"",""trial"",""time""
""fullscreenenter"",""0"",""3149""
","
","442.19999998807907","","","","","","","","49","0,1,0","1","coast","42","probe-68","0.08759691219395437","0.41851818167375066","0.09674533818792001","0","","","","","","","",""
"","html-keyboard-response","179","834783","0.0-99.0-1.0","""event"",""trial"",""time""
""fullscreenenter"",""0"",""3149""
","
","
","""event"",""trial"",""time""
""fullscreenenter"",""0"",""3149""
","
","null","<p></p>","null","","","","","","","","","","","","","","","","","","","","","","",""
"","do_trial","180","839783","0.0-100.0-0.0","""event"",""trial"",""time""
""fullscreenenter"",""0"",""3149""
","
","
","""event"",""trial"",""time""
""fullscreenenter"",""0"",""3149""
","
","460.10000002384186","","","","","","","","50","0,0,0","1","coast","43","probe-40","0.16007875010784614","0.4271937082148682","0.22956430753049475","0","","","","","","","",""
"","html-keyboard-response","181","840785","0.0-100.0-1.0","""event"",""trial"",""time""
""fullscreenenter"",""0"",""3149""
","
","
","""event"",""trial"",""time""
""fullscreenenter"",""0"",""3149""
","
","null","<p></p>","null","","","","","","","","","","","","","","","","","","","","","","",""
"","do_trial","182","846316","0.0-101.0-0.0","""event"",""trial"",""time""
""fullscreenenter"",""0"",""3149""
","
","
","""event"",""trial"",""time""
""fullscreenenter"",""0"",""3149""
","
","990.4000000357628","","","","","","","","50","1,1,0","1","coast","44","probe-21","0.1443236142079167","0.5884773981972874","0.2498061691705435","1","","","","","","","",""
"","html-keyboard-response","183","847317","0.0-101.0-1.0","""event"",""trial"",""time""
""fullscreenenter"",""0"",""3149""
","
","
","""event"",""trial"",""time""
""fullscreenenter"",""0"",""3149""
","
","null","<p></p>","null","","","","","","","","","","","","","","","","","","","","","","",""
"","do_trial","184","852445","0.0-102.0-0.0","""event"",""trial"",""time""
""fullscreenenter"",""0"",""3149""
","
","
","""event"",""trial"",""time""
""fullscreenenter"",""0"",""3149""
","
","586.0999999642372","","","","","","","","49","0,1,0","1","coast","45","probe-12","0.11705059344324839","0.6712039373719243","0.34018532966628795","0","","","","","","","",""
"","html-keyboard-response","185","853447","0.0-102.0-1.0","""event"",""trial"",""time""
""fullscreenenter"",""0"",""3149""
","
","
","""event"",""trial"",""time""
""fullscreenenter"",""0"",""3149""
","
","null","<p></p>","null","","","","","","","","","","","","","","","","","","","","","","",""
"","do_trial","186","858394","0.0-103.0-0.0","""event"",""trial"",""time""
""fullscreenenter"",""0"",""3149""
","
","
","""event"",""trial"",""time""
""fullscreenenter"",""0"",""3149""
","
","407.7999999523163","","","","","","","","50","0,1,0","1","coast","46","probe-114","0.1631266106961109","0.6874364295480614","0.3028275102652645","1","","","","","","","",""
"","html-keyboard-response","187","859400","0.0-103.0-1.0","""event"",""trial"",""time""
""fullscreenenter"",""0"",""3149""
","
","
","""event"",""trial"",""time""
""fullscreenenter"",""0"",""3149""
","
","null","<p></p>","null","","","","","","","","","","","","","","","","","","","","","","",""
"","do_trial","188","865928","0.0-104.0-0.0","""event"",""trial"",""time""
""fullscreenenter"",""0"",""3149""
","
","
","""event"",""trial"",""time""
""fullscreenenter"",""0"",""3149""
","
","1984.800000011921","","","","","","","","50","0,1,0","1","coast","47","probe-176","0.12077117367149857","0.5972503997138096","0.27918293312840137","1","","","","","","","",""
"","html-keyboard-response","189","866931","0.0-104.0-1.0","""event"",""trial"",""time""
""fullscreenenter"",""0"",""3149""
","
","
","""event"",""trial"",""time""
""fullscreenenter"",""0"",""3149""
","
","null","<p></p>","null","","","","","","","","","","","","","","","","","","","","","","",""
"","do_trial","190","872318","0.0-105.0-0.0","""event"",""trial"",""time""
""fullscreenenter"",""0"",""3149""
","
","
","""event"",""trial"",""time""
""fullscreenenter"",""0"",""3149""
","
","844.8999999761581","","","","","","","","50","0,1,1","1","coast","48","probe-120","0.11511138271359006","0.5593522749484146","0.39546380380446805","1","","","","","","","",""
"","html-keyboard-response","191","873323","0.0-105.0-1.0","""event"",""trial"",""time""
""fullscreenenter"",""0"",""3149""
","
","
","""event"",""trial"",""time""
""fullscreenenter"",""0"",""3149""
","
","null","<p></p>","null","","","","","","","","","","","","","","","","","","","","","","",""
"","do_trial","192","878782","0.0-106.0-0.0","""event"",""trial"",""time""
""fullscreenenter"",""0"",""3149""
","
","
","""event"",""trial"",""time""
""fullscreenenter"",""0"",""3149""
","
","918.6999999880791","","","","","","","","50","0,0,0","1","coast","49","probe-154","0.22262708419823532","0.6477989860110899","0.2214161143906322","0","","","","","","","",""
"","html-keyboard-response","193","879784","0.0-106.0-1.0","""event"",""trial"",""time""
""fullscreenenter"",""0"",""3149""
","
","
","""event"",""trial"",""time""
""fullscreenenter"",""0"",""3149""
","
","null","<p></p>","null","","","","","","","","","","","","","","","","","","","","","","",""
"","do_trial","194","884700","0.0-107.0-0.0","""event"",""trial"",""time""
""fullscreenenter"",""0"",""3149""
","
","
","""event"",""trial"",""time""
""fullscreenenter"",""0"",""3149""
","
","374.9000000357628","","","","","","","","51","0,1,0","1","coast","50","probe-200","0.05084264764649877","0.6391246806914247","0.21119912438395463","0","","","","","","","",""
"","html-keyboard-response","195","885706","0.0-107.0-1.0","""event"",""trial"",""time""
""fullscreenenter"",""0"",""3149""
","
","
","""event"",""trial"",""time""
""fullscreenenter"",""0"",""3149""
","
","null","<p></p>","null","","","","","","","","","","","","","","","","","","","","","","",""
"","do_trial","196","890782","0.0-108.0-0.0","""event"",""trial"",""time""
""fullscreenenter"",""0"",""3149""
","
","
","""event"",""trial"",""time""
""fullscreenenter"",""0"",""3149""
","
","535","","","","","","","","49","0,1,0","1","coast","51","probe-63","0.09177954220187207","0.6127377968989162","0.22119753355976546","0","","","","","","","",""
"","html-keyboard-response","197","891785","0.0-108.0-1.0","""event"",""trial"",""time""
""fullscreenenter"",""0"",""3149""
","
","
","""event"",""trial"",""time""
""fullscreenenter"",""0"",""3149""
","
","null","<p></p>","null","","","","","","","","","","","","","","","","","","","","","","",""
"","do_trial","198","896740","0.0-109.0-0.0","""event"",""trial"",""time""
""fullscreenenter"",""0"",""3149""
","
","
","""event"",""trial"",""time""
""fullscreenenter"",""0"",""3149""
","
","415.69999998807907","","","","","","","","50","0,1,0","1","coast","52","probe-173","0.12762055812152925","0.6607362050147446","0.2649800816321767","1","","","","","","","",""
"","html-keyboard-response","199","897746","0.0-109.0-1.0","""event"",""trial"",""time""
""fullscreenenter"",""0"",""3149""
","
","
","""event"",""trial"",""time""
""fullscreenenter"",""0"",""3149""
","
","null","<p></p>","null","","","","","","","","","","","","","","","","","","","","","","",""
"","do_trial","200","902882","0.0-110.0-0.0","""event"",""trial"",""time""
""fullscreenenter"",""0"",""3149""
","
","
","""event"",""trial"",""time""
""fullscreenenter"",""0"",""3149""
","
","597.6999999880791","","","","","","","","50","0,1,0","1","coast","53","probe-104","0.096607679034905","0.645728639071946","0.1643356539399028","1","","","","","","","",""
"","html-keyboard-response","201","903884","0.0-110.0-1.0","""event"",""trial"",""time""
""fullscreenenter"",""0"",""3149""
","
","
","""event"",""trial"",""time""
""fullscreenenter"",""0"",""3149""
","
","null","<p></p>","null","","","","","","","","","","","","","","","","","","","","","","",""
"","do_trial","202","908951","0.0-111.0-0.0","""event"",""trial"",""time""
""fullscreenenter"",""0"",""3149""
","
","
","""event"",""trial"",""time""
""fullscreenenter"",""0"",""3149""
","
","523.1000000238419","","","","","","","","50","0,1,0","1","coast","54","probe-143","0.052243304696157726","0.6283520087787156","0.14189187085459068","1","","","","","","","",""
"","html-keyboard-response","203","909957","0.0-111.0-1.0","""event"",""trial"",""time""
""fullscreenenter"",""0"",""3149""
","
","
","""event"",""trial"",""time""
""fullscreenenter"",""0"",""3149""
","
","null","<p></p>","null","","","","","","","","","","","","","","","","","","","","","","",""
"","do_trial","204","915507","0.0-112.0-0.0","""event"",""trial"",""time""
""fullscreenenter"",""0"",""3149""
","
","
","""event"",""trial"",""time""
""fullscreenenter"",""0"",""3149""
","
","1006.8999999761581","","","","","","","","50","0,1,1","1","coast","55","probe-60","0.09471239171986623","0.5966005593031763","0.154689541502262","1","","","","","","","",""
"","html-keyboard-response","205","916512","0.0-112.0-1.0","""event"",""trial"",""time""
""fullscreenenter"",""0"",""3149""
","
","
","""event"",""trial"",""time""
""fullscreenenter"",""0"",""3149""
","
","null","<p></p>","null","","","","","","","","","","","","","","","","","","","","","","",""
"","do_trial","206","921640","0.0-113.0-0.0","""event"",""trial"",""time""
""fullscreenenter"",""0"",""3149""
","
","
","""event"",""trial"",""time""
""fullscreenenter"",""0"",""3149""
","
","584.8999999761581","","","","","","","","50","0,1,0","1","coast","56","probe-198","0.08625192683650128","0.5745374672453245","0.1862584343339816","1","","","","","","","",""
"","html-keyboard-response","207","922646","0.0-113.0-1.0","""event"",""trial"",""time""
""fullscreenenter"",""0"",""3149""
","
","
","""event"",""trial"",""time""
""fullscreenenter"",""0"",""3149""
","
","null","<p></p>","null","","","","","","","","","","","","","","","","","","","","","","",""
"","do_trial","208","927885","0.0-114.0-0.0","""event"",""trial"",""time""
""fullscreenenter"",""0"",""3149""
","
","
","""event"",""trial"",""time""
""fullscreenenter"",""0"",""3149""
","
","699","","","","","","","","50","0,1,0","1","coast","57","probe-80","0.2579813201151946","0.5794929611318789","0.15689971914392403","1","","","","","","","",""
"","html-keyboard-response","209","928890","0.0-114.0-1.0","""event"",""trial"",""time""
""fullscreenenter"",""0"",""3149""
","
","
","""event"",""trial"",""time""
""fullscreenenter"",""0"",""3149""
","
","null","<p></p>","null","","","","","","","","","","","","","","","","","","","","","","",""
"","do_trial","210","934017","0.0-115.0-0.0","""event"",""trial"",""time""
""fullscreenenter"",""0"",""3149""
","
","
","""event"",""trial"",""time""
""fullscreenenter"",""0"",""3149""
","
","582.5","","","","","","","","50","0,0,0","1","coast","58","probe-213","0.08698585995312519","0.7036814281605303","0.1497608615077761","0","","","","","","","",""
"","html-keyboard-response","211","935020","0.0-115.0-1.0","""event"",""trial"",""time""
""fullscreenenter"",""0"",""3149""
","
","
","""event"",""trial"",""time""
""fullscreenenter"",""0"",""3149""
","
","null","<p></p>","null","","","","","","","","","","","","","","","","","","","","","","",""
"","do_trial","212","939940","0.0-116.0-0.0","""event"",""trial"",""time""
""fullscreenenter"",""0"",""3149""
","
","
","""event"",""trial"",""time""
""fullscreenenter"",""0"",""3149""
","
","378.19999998807907","","","","","","","","50","1,1,0","1","coast","59","probe-74","0.11653619554701941","0.7262862304783412","0.2713268509895195","1","","","","","","","",""
"","html-keyboard-response","213","940947","0.0-116.0-1.0","""event"",""trial"",""time""
""fullscreenenter"",""0"",""3149""
","
","
","""event"",""trial"",""time""
""fullscreenenter"",""0"",""3149""
","
","null","<p></p>","null","","","","","","","","","","","","","","","","","","","","","","",""
"","do_trial","214","946290","0.0-117.0-0.0","""event"",""trial"",""time""
""fullscreenenter"",""0"",""3149""
","
","
","""event"",""trial"",""time""
""fullscreenenter"",""0"",""3149""
","
","800","","","","","","","","50","0,1,0","1","coast","60","probe-130","0.09478708575244398","0.6524818033280043","0.23555617425799968","1","","","","","","","",""
"","html-keyboard-response","215","947294","0.0-117.0-1.0","""event"",""trial"",""time""
""fullscreenenter"",""0"",""3149""
","
","
","""event"",""trial"",""time""
""fullscreenenter"",""0"",""3149""
","
","null","<p></p>","null","","","","","","","","","","","","","","","","","","","","","","",""
"","do_trial","216","952754","0.0-118.0-0.0","""event"",""trial"",""time""
""fullscreenenter"",""0"",""3149""
","
","
","""event"",""trial"",""time""
""fullscreenenter"",""0"",""3149""
","
","916.6000000238419","","","","","","","","50","0,0,0","1","coast","61","probe-124","0.08191328904574643","0.5827438893279494","0.21408017969077653","0","","","","","","","",""
"","html-keyboard-response","217","953757","0.0-118.0-1.0","""event"",""trial"",""time""
""fullscreenenter"",""0"",""3149""
","
","
","""event"",""trial"",""time""
""fullscreenenter"",""0"",""3149""
","
","null","<p></p>","null","","","","","","","","","","","","","","","","","","","","","","",""
"","do_trial","218","958612","0.0-119.0-0.0","""event"",""trial"",""time""
""fullscreenenter"",""0"",""3149""
","
","
","""event"",""trial"",""time""
""fullscreenenter"",""0"",""3149""
","
","313.30000001192093","","","","","","","","50","0,1,1","1","coast","62","probe-172","0.19540769203399855","0.5159405809678237","0.23114401792358574","1","","","","","","","",""
"","html-keyboard-response","219","959614","0.0-119.0-1.0","""event"",""trial"",""time""
""fullscreenenter"",""0"",""3149""
","
","
","""event"",""trial"",""time""
""fullscreenenter"",""0"",""3149""
","
","null","<p></p>","null","","","","","","","","","","","","","","","","","","","","","","",""
"","do_trial","220","964963","0.0-120.0-0.0","""event"",""trial"",""time""
""fullscreenenter"",""0"",""3149""
","
","
","""event"",""trial"",""time""
""fullscreenenter"",""0"",""3149""
","
","804.1999999880791","","","","","","","","50","0,0,0","1","coast","63","probe-110","0.1514182496055067","0.5529404204624774","0.2891830602109559","0","","","","","","","",""
"","html-keyboard-response","221","965969","0.0-120.0-1.0","""event"",""trial"",""time""
""fullscreenenter"",""0"",""3149""
","
","
","""event"",""trial"",""time""
""fullscreenenter"",""0"",""3149""
","
","null","<p></p>","null","","","","","","","","","","","","","","","","","","","","","","",""
"","do_trial","222","970846","0.0-121.0-0.0","""event"",""trial"",""time""
""fullscreenenter"",""0"",""3149""
","
","
","""event"",""trial"",""time""
""fullscreenenter"",""0"",""3149""
","
","334.30000001192093","","","","","","","","50","0,0,0","1","coast","64","probe-08","0.1943997517417595","0.5691883056739565","0.17828204185326882","0","","","","","","","",""
"","html-keyboard-response","223","971852","0.0-121.0-1.0","""event"",""trial"",""time""
""fullscreenenter"",""0"",""3149""
","
","
","""event"",""trial"",""time""
""fullscreenenter"",""0"",""3149""
","
","null","<p></p>","null","","","","","","","","","","","","","","","","","","","","","","",""
"","do_trial","224","977519","0.0-122.0-0.0","""event"",""trial"",""time""
""fullscreenenter"",""0"",""3149""
","
","
","""event"",""trial"",""time""
""fullscreenenter"",""0"",""3149""
","
","1127.4000000357628","","","","","","","","50","0,1,0","1","coast","65","probe-39","0.2734058811244101","0.6102752262830871","0.21657264890344913","1","","","","","","","",""
"","html-keyboard-response","225","978524","0.0-122.0-1.0","""event"",""trial"",""time""
""fullscreenenter"",""0"",""3149""
","
","
","""event"",""trial"",""time""
""fullscreenenter"",""0"",""3149""
","
","null","<p></p>","null","","","","","","","","","","","","","","","","","","","","","","",""
"","do_trial","226","983732","0.0-123.0-0.0","""event"",""trial"",""time""
""fullscreenenter"",""0"",""3149""
","
","
","""event"",""trial"",""time""
""fullscreenenter"",""0"",""3149""
","
","668","","","","","","","","50","0,1,0","1","coast","66","probe-229","0.15491877346316507","0.736111955231533","0.17967481089408271","1","","","","","","","",""
"","html-keyboard-response","227","984736","0.0-123.0-1.0","""event"",""trial"",""time""
""fullscreenenter"",""0"",""3149""
","
","
","""event"",""trial"",""time""
""fullscreenenter"",""0"",""3149""
","
","null","<p></p>","null","","","","","","","","","","","","","","","","","","","","","","",""
"","do_trial","228","990024","0.0-124.0-0.0","""event"",""trial"",""time""
""fullscreenenter"",""0"",""3149""
","
","
","""event"",""trial"",""time""
""fullscreenenter"",""0"",""3149""
","
","745.5","","","","","","","","50","0,1,0","1","coast","67","probe-16","0.06689510686206843","0.6671522193160682","0.1494729715469574","1","","","","","","","",""
"","html-keyboard-response","229","991030","0.0-124.0-1.0","""event"",""trial"",""time""
""fullscreenenter"",""0"",""3149""
","
","
","""event"",""trial"",""time""
""fullscreenenter"",""0"",""3149""
","
","null","<p></p>","null","","","","","","","","","","","","","","","","","","","","","","",""
"","do_trial","230","996685","0.0-125.0-0.0","""event"",""trial"",""time""
""fullscreenenter"",""0"",""3149""
","
","
","""event"",""trial"",""time""
""fullscreenenter"",""0"",""3149""
","
","1113.199999988079","","","","","","","","50","0,0,0","1","coast","68","probe-161","0.15729991040149166","0.7207820449542856","0.18648935964336041","0","","","","","","","",""
"","html-keyboard-response","231","997691","0.0-125.0-1.0","""event"",""trial"",""time""
""fullscreenenter"",""0"",""3149""
","
","
","""event"",""trial"",""time""
""fullscreenenter"",""0"",""3149""
","
","null","<p></p>","null","","","","","","","","","","","","","","","","","","","","","","",""
"","do_trial","232","1003597","0.0-126.0-0.0","""event"",""trial"",""time""
""fullscreenenter"",""0"",""3149""
","
","
","""event"",""trial"",""time""
""fullscreenenter"",""0"",""3149""
","
","1362","","","","","","","","50","0,1,0","1","coast","69","probe-188","0.16037853689598894","0.6682785592896362","0.3260118171370642","1","","","","","","","",""
"","html-keyboard-response","233","1004601","0.0-126.0-1.0","""event"",""trial"",""time""
""fullscreenenter"",""0"",""3149""
","
","
","""event"",""trial"",""time""
""fullscreenenter"",""0"",""3149""
","
","null","<p></p>","null","","","","","","","","","","","","","","","","","","","","","","",""
"","do_bye","234","1006107","0.0-127.0-0.0","""event"",""trial"",""time""
""fullscreenenter"",""0"",""3149""
","
","
","""event"",""trial"",""time""
""fullscreenenter"",""0"",""3149""
","
","null","","","","","","","","null","","","","","","","","","","","","","","","","",""
"","break","235","1008397","0.0-127.0-1.0","""event"",""trial"",""time""
""fullscreenenter"",""0"",""3149""
","
","
","""event"",""trial"",""time""
""fullscreenenter"",""0"",""3149""
","
","2288.5","<div class='center'><p>Time to take a quick break! You have 2 minutes to rest, but you can move on sooner if you'd like.</p><p> Press the <b>space bar</b> to continue.</p></div>","32","","","","","","","","","","","","","","","","","","","","","","",""
"","do_travel","236","1017402","0.0-128.0-0.0","""event"",""trial"",""time""
""fullscreenenter"",""0"",""3149""
","
","
","""event"",""trial"",""time""
""fullscreenenter"",""0"",""3149""
","
","null","","","","","","","","null","","","","","","","","","","","","","","","","",""
"","do_welcome","237","1021408","0.0-128.0-1.0","""event"",""trial"",""time""
""fullscreenenter"",""0"",""3149""
","
","
","""event"",""trial"",""time""
""fullscreenenter"",""0"",""3149""
","
","null","","","","","","","","null","","","","","","","","","","","","","","","","",""
"","do_trial","238","1028291","0.0-129.0-0.0","""event"",""trial"",""time""
""fullscreenenter"",""0"",""3149""
","
","
","""event"",""trial"",""time""
""fullscreenenter"",""0"",""3149""
","
","2345.099999964237","","","","","","","","49","0,1,1","2","countryside","70","probe-195","0.07724084439176832","1","0.37370432132000553","0","","","","","","","",""
"","html-keyboard-response","239","1029295","0.0-129.0-1.0","""event"",""trial"",""time""
""fullscreenenter"",""0"",""3149""
","
","
","""event"",""trial"",""time""
""fullscreenenter"",""0"",""3149""
","
","null","<p></p>","null","","","","","","","","","","","","","","","","","","","","","","",""
"","do_trial","240","1035097","0.0-130.0-0.0","""event"",""trial"",""time""
""fullscreenenter"",""0"",""3149""
","
","
","""event"",""trial"",""time""
""fullscreenenter"",""0"",""3149""
","
","1257.5","","","","","","","","51","0,1,0","2","countryside","71","probe-215","0.05831666651787301","1","0.2115066231366693","0","","","","","","","",""
"","html-keyboard-response","241","1036101","0.0-130.0-1.0","""event"",""trial"",""time""
""fullscreenenter"",""0"",""3149""
","
","
","""event"",""trial"",""time""
""fullscreenenter"",""0"",""3149""
","
","null","<p></p>","null","","","","","","","","","","","","","","","","","","","","","","",""
"","do_trial","242","1041019","0.0-131.0-0.0","""event"",""trial"",""time""
""fullscreenenter"",""0"",""3149""
","
","
","""event"",""trial"",""time""
""fullscreenenter"",""0"",""3149""
","
","374.10000002384186","","","","","","","","50","0,1,0","2","countryside","72","probe-222","0.08390870778417141","0.8616201292634917","0.13673734836274673","1","","","","","","","",""
"","html-keyboard-response","243","1042024","0.0-131.0-1.0","""event"",""trial"",""time""
""fullscreenenter"",""0"",""3149""
","
","
","""event"",""trial"",""time""
""fullscreenenter"",""0"",""3149""
","
","null","<p></p>","null","","","","","","","","","","","","","","","","","","","","","","",""
"","do_trial","244","1047327","0.0-132.0-0.0","""event"",""trial"",""time""
""fullscreenenter"",""0"",""3149""
","
","
","""event"",""trial"",""time""
""fullscreenenter"",""0"",""3149""
","
","759.3999999761581","","","","","","","","49","0,1,0","2","countryside","73","probe-149","0.05161469791531659","0.8358839385857765","0.1449316878811392","0","","","","","","","",""
"","html-keyboard-response","245","1048330","0.0-132.0-1.0","""event"",""trial"",""time""
""fullscreenenter"",""0"",""3149""
","
","
","""event"",""trial"",""time""
""fullscreenenter"",""0"",""3149""
","
","null","<p></p>","null","","","","","","","","","","","","","","","","","","","","","","",""
"","do_trial","246","1053532","0.0-133.0-0.0","""event"",""trial"",""time""
""fullscreenenter"",""0"",""3149""
","
","
","""event"",""trial"",""time""
""fullscreenenter"",""0"",""3149""
","
","660.3000000119209","","","","","","","","49","0,0,0","2","countryside","74","probe-88","0.05113705810359635","0.6262564216741585","0.22324555818813038","0","","","","","","","",""
"","html-keyboard-response","247","1054536","0.0-133.0-1.0","""event"",""trial"",""time""
""fullscreenenter"",""0"",""3149""
","
","
","""event"",""trial"",""time""
""fullscreenenter"",""0"",""3149""
","
","null","<p></p>","null","","","","","","","","","","","","","","","","","","","","","","",""
"","do_trial","248","1060300","0.0-134.0-0.0","""event"",""trial"",""time""
""fullscreenenter"",""0"",""3149""
","
","
","""event"",""trial"",""time""
""fullscreenenter"",""0"",""3149""
","
","1224.2999999523163","","","","","","","","49","0,1,0","2","countryside","75","probe-111","0.10972695238856311","0.7070734562655722","0.08662001072490512","0","","","","","","","",""
"","html-keyboard-response","249","1061302","0.0-134.0-1.0","""event"",""trial"",""time""
""fullscreenenter"",""0"",""3149""
","
","
","""event"",""trial"",""time""
""fullscreenenter"",""0"",""3149""
","
","null","<p></p>","null","","","","","","","","","","","","","","","","","","","","","","",""
"","do_trial","250","1066275","0.0-135.0-0.0","""event"",""trial"",""time""
""fullscreenenter"",""0"",""3149""
","
","
","""event"",""trial"",""time""
""fullscreenenter"",""0"",""3149""
","
","432.0999999642372","","","","","","","","51","0,1,0","2","countryside","76","probe-128","0.19002760687830658","0.577039914400396","0.11982549152144607","0","","","","","","","",""
"","html-keyboard-response","251","1067279","0.0-135.0-1.0","""event"",""trial"",""time""
""fullscreenenter"",""0"",""3149""
","
","
","""event"",""trial"",""time""
""fullscreenenter"",""0"",""3149""
","
","null","<p></p>","null","","","","","","","","","","","","","","","","","","","","","","",""
"","do_trial","252","1072258","0.0-136.0-0.0","""event"",""trial"",""time""
""fullscreenenter"",""0"",""3149""
","
","
","""event"",""trial"",""time""
""fullscreenenter"",""0"",""3149""
","
","439.69999998807907","","","","","","","","50","0,1,0","2","countryside","77","probe-150","0.1623696213951174","0.6095088481967949","0.20026594282684446","1","","","","","","","",""
"","html-keyboard-response","253","1073262","0.0-136.0-1.0","""event"",""trial"",""time""
""fullscreenenter"",""0"",""3149""
","
","
","""event"",""trial"",""time""
""fullscreenenter"",""0"",""3149""
","
","null","<p></p>","null","","","","","","","","","","","","","","","","","","","","","","",""
"","do_trial","254","1078463","0.0-137.0-0.0","""event"",""trial"",""time""
""fullscreenenter"",""0"",""3149""
","
","
","""event"",""trial"",""time""
""fullscreenenter"",""0"",""3149""
","
","658.8000000119209","","","","","","","","50","0,0,0","2","countryside","78","probe-225","0.13668803590649167","0.6789231691087738","0.2984758886278807","0","","","","","","","",""
"","html-keyboard-response","255","1079464","0.0-137.0-1.0","""event"",""trial"",""time""
""fullscreenenter"",""0"",""3149""
","
","
","""event"",""trial"",""time""
""fullscreenenter"",""0"",""3149""
","
","null","<p></p>","null","","","","","","","","","","","","","","","","","","","","","","",""
"","do_trial","256","1084378","0.0-138.0-0.0","""event"",""trial"",""time""
""fullscreenenter"",""0"",""3149""
","
","
","""event"",""trial"",""time""
""fullscreenenter"",""0"",""3149""
","
","374.39999997615814","","","","","","","","51","0,1,0","2","countryside","79","probe-112","0.06538252293153239","0.749493316508586","0.11579475688544097","0","","","","","","","",""
"","html-keyboard-response","257","1085381","0.0-138.0-1.0","""event"",""trial"",""time""
""fullscreenenter"",""0"",""3149""
","
","
","""event"",""trial"",""time""
""fullscreenenter"",""0"",""3149""
","
","null","<p></p>","null","","","","","","","","","","","","","","","","","","","","","","",""
"","do_trial","258","1090291","0.0-139.0-0.0","""event"",""trial"",""time""
""fullscreenenter"",""0"",""3149""
","
","
","""event"",""trial"",""time""
""fullscreenenter"",""0"",""3149""
","
","369.2999999523163","","","","","","","","50","0,0,0","2","countryside","80","probe-148","0.24801938194164566","0.6391995713221255","0.17231841335249137","0","","","","","","","",""
"","html-keyboard-response","259","1091297","0.0-139.0-1.0","""event"",""trial"",""time""
""fullscreenenter"",""0"",""3149""
","
","
","""event"",""trial"",""time""
""fullscreenenter"",""0"",""3149""
","
","null","<p></p>","null","","","","","","","","","","","","","","","","","","","","","","",""
"","do_trial","260","1096232","0.0-140.0-0.0","""event"",""trial"",""time""
""fullscreenenter"",""0"",""3149""
","
","
","""event"",""trial"",""time""
""fullscreenenter"",""0"",""3149""
","
","391.0999999642372","","","","","","","","49","0,1,0","2","countryside","81","probe-118","0.2704024815520003","0.5733705328488915","0.1915643496802185","0","","","","","","","",""
"","html-keyboard-response","261","1097235","0.0-140.0-1.0","""event"",""trial"",""time""
""fullscreenenter"",""0"",""3149""
","
","
","""event"",""trial"",""time""
""fullscreenenter"",""0"",""3149""
","
