"success","trial_type","trial_index","time_elapsed","internal_node_id","interactions","blur_events","focus_events","fullscreenenter_events","fullscreenexit_events","rt","stimulus","key_press","subject_id","participant_id","age","gender","prompt","response","choice_outcomes","context_n","context_img_id","trial_n","probe_img_id","pR_red","pR_white","pR_black","outcome","contextArray_ind","validImageProbes","invalidImageProbes","pRew_Red","pRew_White","pRew_Black","availableForMemProbe","choice_blocks"
"true","fullscreen","0","5673","0.0-0.0","""event"",""trial"",""time""
""fullscreenenter"",""0"",""4691""
","
","
","""event"",""trial"",""time""
""fullscreenenter"",""0"",""4691""
","
","","","","","","","","","","","","","","","","","","","","","","","","","",""
"","pavlovia","1","5676","0.0-1.0","""event"",""trial"",""time""
""fullscreenenter"",""0"",""4691""
","
","
","""event"",""trial"",""time""
""fullscreenenter"",""0"",""4691""
","
","","","","","","","","","","","","","","","","","","","","","","","","","",""
"","instruc1","2","50897","0.0-2.0","""event"",""trial"",""time""
""fullscreenenter"",""0"",""4691""
","
","
","""event"",""trial"",""time""
""fullscreenenter"",""0"",""4691""
","
","null","run_exp/static/audio/clip_1_welcome.m4a","null","2925","2712","23","Male","<div class='center'><p>Welcome! This is the first part of the study. It will last ~30 minutes. In part 1 and part 2 of the study, you are the head captain of a pirate ship traveling around the world to different islands. You will play a few different games throughout these two parts. Here is an overview of them:</p><br><p>Part 1 (today)</p><p>1. Instructions, practice game, and quiz</p><p>2. Pick a pirate game on 6 different islands</p><br><p>Part 2 (tomorrow)</p><p>3. Pick a pirate game and memory game</p><p>4. Where did you see this ship? </p></div>","","","","","","","","","","","","","","","","","",""
"","html-keyboard-response","3","51593","0.0-3.0","""event"",""trial"",""time""
""fullscreenenter"",""0"",""4691""
","
","
","""event"",""trial"",""time""
""fullscreenenter"",""0"",""4691""
","
","694.5999999996275","<div class='center'><p>Welcome! This is the first part of the study. It will last ~30 minutes. In part 1 and part 2 of the study, you are the head captain of a pirate ship traveling around the world to different islands. You will play a few different games throughout these two parts. Here is an overview of them:</p><br><p>Part 1 (today)</p><p>1. Instructions, practice game, and quiz</p><p>2. Pick a pirate game on 6 different islands</p><br><p>Part 2 (tomorrow)</p><p>3. Pick a pirate game and memory game</p><p>4. Where did you see this ship? </p><p><b>[Press the space bar to continue]</b></p></div>","32","","","","","","","","","","","","","","","","","","","","","","",""
"","instruc2","4","56910","0.0-4.0","""event"",""trial"",""time""
""fullscreenenter"",""0"",""4691""
","
","
","""event"",""trial"",""time""
""fullscreenenter"",""0"",""4691""
","
","null","run_exp/static/audio/clip_2_different_places.m4a","null","","","","","<div class='center'><p>Today, you’ll visit these 6 islands on your journey. You'll be able to see these islands from your ship.</p><p><img src='run_exp/static/images/contexts/all_contexts.png' height='500'></p></div>","","","","","","","","","","","","","","","","","",""
"","html-keyboard-response","5","71225","0.0-5.0","""event"",""trial"",""time""
""fullscreenenter"",""0"",""4691""
","
","
","""event"",""trial"",""time""
""fullscreenenter"",""0"",""4691""
","
","14313.700000000186","<div class='center'><p>Today, you’ll visit these 6 islands on your journey. You'll be able to see these islands from your ship.</p><p><img src='run_exp/static/images/contexts/all_contexts.png' height='500'></p><p><b>[Press the space bar to continue]</b></p></div>","32","","","","","","","","","","","","","","","","","","","","","","",""
"","instruc3","6","80930","0.0-6.0","""event"",""trial"",""time""
""fullscreenenter"",""0"",""4691""
","
","
","""event"",""trial"",""time""
""fullscreenenter"",""0"",""4691""
","
","null","run_exp/static/audio/clip_3_goal_of_game_1.m4a","null","","","","","<div class='center'><p> The pirates on your ship will rob other ships as they leave the island.</p> These ships have just sold their goods to the islanders, so they will be filled with lots and lots of gold.</p><p><img src='run_exp/static/images/tutorial/ship_center.png' height='400'></p></div>","","","","","","","","","","","","","","","","","",""
"","html-keyboard-response","7","91162","0.0-7.0","""event"",""trial"",""time""
""fullscreenenter"",""0"",""4691""
","
","
","""event"",""trial"",""time""
""fullscreenenter"",""0"",""4691""
","
","10229.799999999814","<div class='center'><p> The pirates on your ship will rob other ships as they leave the island.</p> These ships have just sold their goods to the islanders, so they will be filled with lots and lots of gold.</p><p><img src='run_exp/static/images/tutorial/ship_center.png' height='400'></p><p><b>[Press the space bar to continue]</b></p></div>","32","","","","","","","","","","","","","","","","","","","","","","",""
"","instruc4","8","119165","0.0-8.0","""event"",""trial"",""time""
""fullscreenenter"",""0"",""4691""
","
","
","""event"",""trial"",""time""
""fullscreenenter"",""0"",""4691""
","
","null","run_exp/static/audio/clip_4_goal_of_game_2.m4a","null","","","","","<div class='center'><p>As the head captain, you do not have to rob any ships yourself. Another pirate will be doing the robbing for you. First, you will choose a pirate to rob the next ship.</p><p><img src='run_exp/static/images/tutorial/pirates_all_crop.png' height='200'></p><p>Then, you'll see if the pirate successfully robbed the ship of their gold. If they were successful, then you'll get a stack of gold coins like this:</p><p><img src='run_exp/static/images/tutorial/reward.png' height='150'></p><p> If they were <b>not</b> successful, then you'll get no gold coins, and you'll see a big red x like this: </p><p><img src='run_exp/static/images/tutorial/reward_no.png' height='150'></p><p> How much bonus money you make is based on how many gold coins you collect.</p><div>","","","","","","","","","","","","","","","","","",""
"","html-keyboard-response","9","120292","0.0-9.0","""event"",""trial"",""time""
""fullscreenenter"",""0"",""4691""
","
","
","""event"",""trial"",""time""
""fullscreenenter"",""0"",""4691""
","
","1124.7000000001863","<div class='center'><p>As the head captain, you do not have to rob any ships yourself. Another pirate will be doing the robbing for you. First, you will choose a pirate to rob the next ship.</p><p><img src='run_exp/static/images/tutorial/pirates_all_crop.png' height='200'></p><p>Then, you'll see if the pirate successfully robbed the ship of their gold. If they were successful, then you'll get a stack of gold coins like this:</p><p><img src='run_exp/static/images/tutorial/reward.png' height='150'></p><p> If they were <b>not</b> successful, then you'll get no gold coins, and you'll see a big red x like this: </p><p><img src='run_exp/static/images/tutorial/reward_no.png' height='150'></p><p> How much bonus money you make is based on how many gold coins you collect.</p<p><b>[Press the space bar to continue]</b></p></div>","32","","","","","","","","","","","","","","","","","","","","","","",""
"","instruc5","10","140966","0.0-10.0","""event"",""trial"",""time""
""fullscreenenter"",""0"",""4691""
","
","
","""event"",""trial"",""time""
""fullscreenenter"",""0"",""4691""
","
","20673.700000000186","run_exp/static/audio/clip_5_probabilistic.m4a","49","","","","","<div class='center'><p>Even the most skilled pirate can not rob EVERY ship.</p><p> Some ships will have very strong protections against pirate attacks.</p><p> Blue beard, here, is very, very good at robbing ships, but he won't be successful every time he tries to rob one.</p><p> You can press the <b>‘1’</b> key on the keyboard to choose him.</p><p> Try choosing him 10 times to see how often he succeeds at robbing a ship. </p><p><img src='run_exp/static/images/tutorial/blue.png' height='500'></p></div>","","","","","","","","","","","","","","","","","",""
"","html-keyboard-response","11","142472","0.0-11.0","""event"",""trial"",""time""
""fullscreenenter"",""0"",""4691""
","
","
","""event"",""trial"",""time""
""fullscreenenter"",""0"",""4691""
","
","null","<div class='center'><p><img src='run_exp/static/images/tutorial/blue_win.png' height='500'></p></div>","null","","","","","","","","","","","","","","","","","","","","","","",""
"","html-keyboard-response","12","145212","0.0-12.0","""event"",""trial"",""time""
""fullscreenenter"",""0"",""4691""
","
","
","""event"",""trial"",""time""
""fullscreenenter"",""0"",""4691""
","
","2739.9000000003725","<div class='center'><img src='run_exp/static/images/tutorial/blue.png' height='500'></p></div>","49","","","","","","","","","","","","","","","","","","","","","","",""
"","html-keyboard-response","13","146718","0.0-13.0","""event"",""trial"",""time""
""fullscreenenter"",""0"",""4691""
","
","
","""event"",""trial"",""time""
""fullscreenenter"",""0"",""4691""
","
","null","<div class='center'><p><img src='run_exp/static/images/tutorial/blue_win.png' height='500'></p></div>","null","","","","","","","","","","","","","","","","","","","","","","",""
"","html-keyboard-response","14","147495","0.0-14.0","""event"",""trial"",""time""
""fullscreenenter"",""0"",""4691""
","
","
","""event"",""trial"",""time""
""fullscreenenter"",""0"",""4691""
","
","775.6000000005588","<div class='center'><img src='run_exp/static/images/tutorial/blue.png' height='500'></p></div>","49","","","","","","","","","","","","","","","","","","","","","","",""
"","html-keyboard-response","15","149001","0.0-15.0","""event"",""trial"",""time""
""fullscreenenter"",""0"",""4691""
","
","
","""event"",""trial"",""time""
""fullscreenenter"",""0"",""4691""
","
","null","<div class='center'><p><img src='run_exp/static/images/tutorial/blue_win.png' height='500'></p></div>","null","","","","","","","","","","","","","","","","","","","","","","",""
"","html-keyboard-response","16","149707","0.0-16.0","""event"",""trial"",""time""
""fullscreenenter"",""0"",""4691""
","
","
","""event"",""trial"",""time""
""fullscreenenter"",""0"",""4691""
","
","705.1000000005588","<div class='center'><img src='run_exp/static/images/tutorial/blue.png' height='500'></p></div>","49","","","","","","","","","","","","","","","","","","","","","","",""
"","html-keyboard-response","17","151213","0.0-17.0","""event"",""trial"",""time""
""fullscreenenter"",""0"",""4691""
","
","
","""event"",""trial"",""time""
""fullscreenenter"",""0"",""4691""
","
","null","<div class='center'><p><img src='run_exp/static/images/tutorial/blue_no_win.png' height='500'></p></div>","null","","","","","","","","","","","","","","","","","","","","","","",""
"","html-keyboard-response","18","151627","0.0-18.0","""event"",""trial"",""time""
""fullscreenenter"",""0"",""4691""
","
","
","""event"",""trial"",""time""
""fullscreenenter"",""0"",""4691""
","
","412.79999999981374","<div class='center'><img src='run_exp/static/images/tutorial/blue.png' height='500'></p></div>","49","","","","","","","","","","","","","","","","","","","","","","",""
"","html-keyboard-response","19","153128","0.0-19.0","""event"",""trial"",""time""
""fullscreenenter"",""0"",""4691""
","
","
","""event"",""trial"",""time""
""fullscreenenter"",""0"",""4691""
","
","null","<div class='center'><p><img src='run_exp/static/images/tutorial/blue_win.png' height='500'></p></div>","null","","","","","","","","","","","","","","","","","","","","","","",""
"","html-keyboard-response","20","153461","0.0-20.0","""event"",""trial"",""time""
""fullscreenenter"",""0"",""4691""
","
","
","""event"",""trial"",""time""
""fullscreenenter"",""0"",""4691""
","
","331.70000000018626","<div class='center'><img src='run_exp/static/images/tutorial/blue.png' height='500'></p></div>","49","","","","","","","","","","","","","","","","","","","","","","",""
"","html-keyboard-response","21","154966","0.0-21.0","""event"",""trial"",""time""
""fullscreenenter"",""0"",""4691""
","
","
","""event"",""trial"",""time""
""fullscreenenter"",""0"",""4691""
","
","null","<div class='center'><p><img src='run_exp/static/images/tutorial/blue_win.png' height='500'></p></div>","null","","","","","","","","","","","","","","","","","","","","","","",""
"","html-keyboard-response","22","155273","0.0-22.0","""event"",""trial"",""time""
""fullscreenenter"",""0"",""4691""
","
","
","""event"",""trial"",""time""
""fullscreenenter"",""0"",""4691""
","
","305.29999999981374","<div class='center'><img src='run_exp/static/images/tutorial/blue.png' height='500'></p></div>","49","","","","","","","","","","","","","","","","","","","","","","",""
"","html-keyboard-response","23","156778","0.0-23.0","""event"",""trial"",""time""
""fullscreenenter"",""0"",""4691""
","
","
","""event"",""trial"",""time""
""fullscreenenter"",""0"",""4691""
","
","null","<div class='center'><p><img src='run_exp/static/images/tutorial/blue_win.png' height='500'></p></div>","null","","","","","","","","","","","","","","","","","","","","","","",""
"","html-keyboard-response","24","157060","0.0-24.0","""event"",""trial"",""time""
""fullscreenenter"",""0"",""4691""
","
","
","""event"",""trial"",""time""
""fullscreenenter"",""0"",""4691""
","
","280.80000000074506","<div class='center'><img src='run_exp/static/images/tutorial/blue.png' height='500'></p></div>","49","","","","","","","","","","","","","","","","","","","","","","",""
"","html-keyboard-response","25","158566","0.0-25.0","""event"",""trial"",""time""
""fullscreenenter"",""0"",""4691""
","
","
","""event"",""trial"",""time""
""fullscreenenter"",""0"",""4691""
","
","null","<div class='center'><p><img src='run_exp/static/images/tutorial/blue_no_win.png' height='500'></p></div>","null","","","","","","","","","","","","","","","","","","","","","","",""
"","html-keyboard-response","26","158840","0.0-26.0","""event"",""trial"",""time""
""fullscreenenter"",""0"",""4691""
","
","
","""event"",""trial"",""time""
""fullscreenenter"",""0"",""4691""
","
","273","<div class='center'><img src='run_exp/static/images/tutorial/blue.png' height='500'></p></div>","49","","","","","","","","","","","","","","","","","","","","","","",""
"","html-keyboard-response","27","160345","0.0-27.0","""event"",""trial"",""time""
""fullscreenenter"",""0"",""4691""
","
","
","""event"",""trial"",""time""
""fullscreenenter"",""0"",""4691""
","
","null","<div class='center'><p><img src='run_exp/static/images/tutorial/blue_win.png' height='500'></p></div>","null","","","","","","","","","","","","","","","","","","","","","","",""
"","html-keyboard-response","28","160638","0.0-28.0","""event"",""trial"",""time""
""fullscreenenter"",""0"",""4691""
","
","
","""event"",""trial"",""time""
""fullscreenenter"",""0"",""4691""
","
","291.8999999994412","<div class='center'><img src='run_exp/static/images/tutorial/blue.png' height='500'></p></div>","49","","","","","","","","","","","","","","","","","","","","","","",""
"","html-keyboard-response","29","162139","0.0-29.0","""event"",""trial"",""time""
""fullscreenenter"",""0"",""4691""
","
","
","""event"",""trial"",""time""
""fullscreenenter"",""0"",""4691""
","
","null","<div class='center'><p><img src='run_exp/static/images/tutorial/blue_win.png' height='500'></p></div>","null","","","","","","","","","","","","","","","","","","","","","","",""
"","instruc6","30","167706","0.0-30.0","""event"",""trial"",""time""
""fullscreenenter"",""0"",""4691""
","
","
","""event"",""trial"",""time""
""fullscreenenter"",""0"",""4691""
","
","null","run_exp/static/audio/clip_6_blue_beard_outcome.m4a","null","","","","","<div class='center'><p> See, he succeeded in robbing the ships most of the time but not every time. </p></div>","","","","","","","","","","","","","","","","","",""
"","html-keyboard-response","31","169162","0.0-31.0","""event"",""trial"",""time""
""fullscreenenter"",""0"",""4691""
","
","
","""event"",""trial"",""time""
""fullscreenenter"",""0"",""4691""
","
","1455.0999999996275","<div class='center'><p> See, he succeeded in robbing the ships most of the time but not every time. </p><p><b>[Press the space bar to continue]</b></p></div>","32","","","","","","","","","","","","","","","","","","","","","","",""
"","audio-keyboard-response","32","186358","0.0-32.0","""event"",""trial"",""time""
""fullscreenenter"",""0"",""4691""
","
","
","""event"",""trial"",""time""
""fullscreenenter"",""0"",""4691""
","
","17194.5","run_exp/static/audio/clip_7_pick_pirate.m4a","49","","","","","","","","","","","","","","","","","","","","","","",""
"","audio-keyboard-response","33","193480","0.0-33.0-0.0","""event"",""trial"",""time""
""fullscreenenter"",""0"",""4691""
","
","
","""event"",""trial"",""time""
""fullscreenenter"",""0"",""4691""
","
","7120.300000000745","run_exp/static/audio/clip_8_chosen_pirate_win.m4a","32","","","","","","","","","","","","","","","","","","","","","","",""
"","audio-keyboard-response","34","195691","0.0-33.0-1.0","""event"",""trial"",""time""
""fullscreenenter"",""0"",""4691""
","
","
","""event"",""trial"",""time""
""fullscreenenter"",""0"",""4691""
","
","2209.7999999998137","run_exp/static/audio/clip_9_pick_a_pirate_again.m4a","50","","","","","","","","","","","","","","","","","","","","","","",""
"","audio-keyboard-response","35","202129","0.0-34.0-0.0","""event"",""trial"",""time""
""fullscreenenter"",""0"",""4691""
","
","
","""event"",""trial"",""time""
""fullscreenenter"",""0"",""4691""
","
","6436.5999999996275","run_exp/static/audio/clip_10_chosen_pirate_loss.m4a","32","","","","","","","","","","","","","","","","","","","","","","",""
"","instruc9","36","207645","0.0-35.0-0.0","""event"",""trial"",""time""
""fullscreenenter"",""0"",""4691""
","
","
","""event"",""trial"",""time""
""fullscreenenter"",""0"",""4691""
","
","null","run_exp/static/audio/clip_11_time_out.m4a","null","","","","","<div class='center'><p>If you don’t make your choice fast enough, you’ll have to wait a few seconds before you can make another one. </p><p><img src='run_exp/static/images/miscellaneous/hurry_up.png' height='500'></p></div>","","","","","","","","","","","","","","","","","",""
"","html-keyboard-response","37","209656","0.0-35.0-1.0","""event"",""trial"",""time""
""fullscreenenter"",""0"",""4691""
","
","
","""event"",""trial"",""time""
""fullscreenenter"",""0"",""4691""
","
","2010.7000000001863","<div class='center'><p>If you don’t make your choice fast enough, you’ll have to wait a few seconds before you can make another one. </p><p><img src='run_exp/static/images/miscellaneous/hurry_up.png' height='500'></p><p><b>[Press the space bar to continue]</b></p></div>","32","","","","","","","","","","","","","","","","","","","","","","",""
"","instruc10","38","248769","0.0-35.0-2.0","""event"",""trial"",""time""
""fullscreenenter"",""0"",""4691""
","
","
","""event"",""trial"",""time""
""fullscreenenter"",""0"",""4691""
","
","null","run_exp/static/audio/clip_12_probe.m4a","null","","","","","<div class='center'><p>Once you've chosen a pirate, you’ll be shown the ship they are robbing. You will never rob the same ship twice. Ships can be told apart from one another by the image on them. These are the goods that they sell. See, this ship has a travel mug on it. </p><p> You’ll have to remember which island you saw each ship on. You will win more gold coins and hence more bonus money if you remember correctly! To help you remember, you can imagine a story. For example, here, you could imagine a mug full of water in the desert. Or, as another example, if on the forest island, your pirate robbed a ship with an apple on it, you could imagine an apple falling from a tree in the forest. </p><p><img src='run_exp/static/images/tutorial/example_probe.png' height='500'></p></div>","","","","","","","","","","","","","","","","","",""
"","html-keyboard-response","39","250533","0.0-35.0-3.0","""event"",""trial"",""time""
""fullscreenenter"",""0"",""4691""
","
","
","""event"",""trial"",""time""
""fullscreenenter"",""0"",""4691""
","
","1763.2999999998137","<div class='center'><p>Once you've chosen a pirate, you’ll be shown the ship they are robbing. You will never rob the same ship twice. Ships can be told apart from one another by the image on them. These are the goods that they sell. See, this ship has a travel mug on it. </p><p> You’ll have to remember which island you saw each ship on. You will win more gold coins and hence more bonus money if you remember correctly! To help you remember, you can imagine a story. For example, here, you could imagine a mug full of water in the desert. Or, as another example, if on the forest island, your pirate robbed a ship with an apple on it, you could imagine an apple falling from a tree in the forest. </p><p><img src='run_exp/static/images/tutorial/example_probe.png' height='500'></p><p><b>[Press the space bar to continue]</b></p></div>","32","","","","","","","","","","","","","","","","","","","","","","",""
"","instruc11","40","266950","0.0-35.0-4.0","""event"",""trial"",""time""
""fullscreenenter"",""0"",""4691""
","
","
","""event"",""trial"",""time""
""fullscreenenter"",""0"",""4691""
","
","null","run_exp/static/audio/clip_13_changepoint.m4a","null","","","","","<div class='center'><p>How successful a pirate is at robbing ships will depend on the island you’re on.</p><p> A pirate may have visited this island many times before and gained a lot of practice robbing ships there.</p><p>So, they’re more likely to be successful than a pirate who has never visited the island before.</p></div>","","","","","","","","","","","","","","","","","",""
"","html-keyboard-response","41","298387","0.0-35.0-5.0","""event"",""trial"",""time""
""fullscreenenter"",""0"",""4691""
","
","
","""event"",""trial"",""time""
""fullscreenenter"",""0"",""4691""
","
","31435.700000000186","<div class='center'><p>How successful a pirate is at robbing ships will depend on the island you’re on.</p><p> A pirate may have visited this island many times before and gained a lot of practice robbing ships there.</p><p>So, they’re more likely to be successful than a pirate who has never visited the island before.</p><p><b>[Press the space bar to continue]</b></p></div>","32","","","","","","","","","","","","","","","","","","","","","","",""
"","instruc12","42","339562","0.0-35.0-6.0","""event"",""trial"",""time""
""fullscreenenter"",""0"",""4691""
","
","
","""event"",""trial"",""time""
""fullscreenenter"",""0"",""4691""
","
","null","run_exp/static/audio/clip_14_drift.m4a","null","","","","","<div class='center'><p>How successful a pirate is at robbing ships can also change over the time spent on the island. </p><p> Ships may hear from islanders about the pirates coming and will improve their protections against the attack. This may make it harder to rob them.</p><p> Ships may also become lazy and weaken the strength of their protections. This may make it easier to rob them.</p><br><p>Things are always changing on the high seas! So, try your best to pay attention!</p><p><img src='run_exp/static/images/tutorial/contingency.png' height='500'></p></div>","","","","","","","","","","","","","","","","","",""
"","html-keyboard-response","43","400596","0.0-35.0-7.0","""event"",""trial"",""time""
""fullscreenenter"",""0"",""4691""
","
","
","""event"",""trial"",""time""
""fullscreenenter"",""0"",""4691""
","
","61032.200000000186","<div class='center'><p>How successful a pirate is at robbing ships can also change over the time spent on the island. </p><p> Ships may hear from islanders about the pirates coming and will improve their protections against the attack. This may make it harder to rob them.</p><p> Ships may also become lazy and weaken the strength of their protections. This may make it easier to rob them.</p><br><p>Things are always changing on the high seas! So, try your best to pay attention!</p><p><img src='run_exp/static/images/tutorial/contingency.png' height='500'></p><p><b>[Press the space bar to continue]</b></p></div>","32","","","","","","","","","","","","","","","","","","","","","","",""
"","instruc13","44","436083","0.0-35.0-8.0","""event"",""trial"",""time""
""fullscreenenter"",""0"",""4691""
","
","
","""event"",""trial"",""time""
""fullscreenenter"",""0"",""4691""
","
","null","run_exp/static/audio/clip_15_summary.m4a","null","","","","","<div class='center'><p>Let's go over the instructions quickly again. You have two important things to do: </p><b><p> 1. Pick the pirate who is the best at robbing ships on the current island. </p></b><b><p> 2. Remember on which island a ship was robbed.</p> </b><p>The amount of bonus money you can win depends on both.</p><p><br><p>Let’s try a practice game. The game will start by showing you the pirates. First, pick a pirate using the <b> 1, 2, 3 </b> keys on your keyboard. When you are shown a ship, try to remember which island you’re on by making up a story.</p><p>This is just a practice game, so you’re not playing for money. </p><p> Good luck! This game will be very difficult but try your best!</p></div>","","","","","","","","","","","","","","","","","",""
"","html-keyboard-response","45","438404","0.0-35.0-9.0","""event"",""trial"",""time""
""fullscreenenter"",""0"",""4691""
","
","
","""event"",""trial"",""time""
""fullscreenenter"",""0"",""4691""
","
","2320","<div class='center'><p>Let's go over the instructions quickly again. You have two important things to do: </p><b><p> 1. Pick the pirate who is the best at robbing ships on the current island. </p></b><b><p> 2. Remember on which island a ship was robbed.</p> </b><p>The amount of bonus money you can win depends on both.</p><p><br><p>Let’s try a practice game. The game will start by showing you the pirates. First, pick a pirate using the <b> 1, 2, 3 </b> keys on your keyboard. When you are shown a ship, try to remember which island you’re on by making up a story.</p><p>This is just a practice game, so you’re not playing for money. </p><p> Good luck! This game will be very difficult but try your best!</p><p><b>[Press the space bar to continue]</b></p></div>","32","","","","","","","","","","","","","","","","","","","","","","",""
"","do_welcome","46","442417","0.0-35.0-10.0","""event"",""trial"",""time""
""fullscreenenter"",""0"",""4691""
","
","
","""event"",""trial"",""time""
""fullscreenenter"",""0"",""4691""
","
","null","","","","","","","","null","","","","","","","","","","","","","","","","",""
"","do_trial","47","448428","0.0-35.0-11.0","""event"",""trial"",""time""
""fullscreenenter"",""0"",""4691""
","
","
","""event"",""trial"",""time""
""fullscreenenter"",""0"",""4691""
","
","1499.7000000001863","","","","","","","","49","1,0,0","","","","","","","","","","","","","","","",""
"","html-keyboard-response","48","449432","0.0-36.0-0.0","""event"",""trial"",""time""
""fullscreenenter"",""0"",""4691""
","
","
","""event"",""trial"",""time""
""fullscreenenter"",""0"",""4691""
","
","null","<p></p>","null","","","","","","","","","","","","","","","","","","","","","","",""
"","do_trial","49","455545","0.0-36.0-1.0","""event"",""trial"",""time""
""fullscreenenter"",""0"",""4691""
","
","
","""event"",""trial"",""time""
""fullscreenenter"",""0"",""4691""
","
","1603.8999999994412","","","","","","","","49","1,1,0","","","","","","","","","","","","","","","",""
"","html-keyboard-response","50","456550","0.0-37.0-0.0","""event"",""trial"",""time""
""fullscreenenter"",""0"",""4691""
","
","
","""event"",""trial"",""time""
""fullscreenenter"",""0"",""4691""
","
","null","<p></p>","null","","","","","","","","","","","","","","","","","","","","","","",""
"","do_trial","51","463806","0.0-37.0-1.0","""event"",""trial"",""time""
""fullscreenenter"",""0"",""4691""
","
","
","""event"",""trial"",""time""
""fullscreenenter"",""0"",""4691""
","
","2736.9000000003725","","","","","","","","49","1,0,1","","","","","","","","","","","","","","","",""
"","html-keyboard-response","52","464813","0.0-38.0-0.0","""event"",""trial"",""time""
""fullscreenenter"",""0"",""4691""
","
","
","""event"",""trial"",""time""
""fullscreenenter"",""0"",""4691""
","
","null","<p></p>","null","","","","","","","","","","","","","","","","","","","","","","",""
"","do_trial","53","470147","0.0-38.0-1.0","""event"",""trial"",""time""
""fullscreenenter"",""0"",""4691""
","
","
","""event"",""trial"",""time""
""fullscreenenter"",""0"",""4691""
","
","826.8999999994412","","","","","","","","49","0,1,0","","","","","","","","","","","","","","","",""
"","html-keyboard-response","54","471153","0.0-39.0-0.0","""event"",""trial"",""time""
""fullscreenenter"",""0"",""4691""
","
","
","""event"",""trial"",""time""
""fullscreenenter"",""0"",""4691""
","
","null","<p></p>","null","","","","","","","","","","","","","","","","","","","","","","",""
"","do_trial","55","476374","0.0-39.0-1.0","""event"",""trial"",""time""
""fullscreenenter"",""0"",""4691""
","
","
","""event"",""trial"",""time""
""fullscreenenter"",""0"",""4691""
","
","713","","","","","","","","49","1,0,0","","","","","","","","","","","","","","","",""
"","do_bye","56","477884","0.0-40.0-0.0","""event"",""trial"",""time""
""fullscreenenter"",""0"",""4691""
","
","
","""event"",""trial"",""time""
""fullscreenenter"",""0"",""4691""
","
","null","","","","","","","","null","","","","","","","","","","","","","","","","",""
"","do_travel","57","486889","0.0-40.0-1.0","""event"",""trial"",""time""
""fullscreenenter"",""0"",""4691""
","
","
","""event"",""trial"",""time""
""fullscreenenter"",""0"",""4691""
","
","null","","","","","","","","null","","","","","","","","","","","","","","","","",""
"","do_welcome","58","490905","0.0-40.0-2.0","""event"",""trial"",""time""
""fullscreenenter"",""0"",""4691""
","
","
","""event"",""trial"",""time""
""fullscreenenter"",""0"",""4691""
","
","null","","","","","","","","null","","","","","","","","","","","","","","","","",""
"","do_trial","59","496920","0.0-40.0-3.0","""event"",""trial"",""time""
""fullscreenenter"",""0"",""4691""
","
","
","""event"",""trial"",""time""
""fullscreenenter"",""0"",""4691""
","
","null","","","","","","","","null","1,0,0","","","","","","","","","","","","","","","",""
"","do_bye","60","498431","0.0-41.0-0.0","""event"",""trial"",""time""
""fullscreenenter"",""0"",""4691""
","
","
","""event"",""trial"",""time""
""fullscreenenter"",""0"",""4691""
","
","null","","","","","","","","null","","","","","","","","","","","","","","","","",""
"","do_travel","61","507433","0.0-41.0-1.0","""event"",""trial"",""time""
""fullscreenenter"",""0"",""4691""
","
","
","""event"",""trial"",""time""
""fullscreenenter"",""0"",""4691""
","
","null","","","","","","","","null","","","","","","","","","","","","","","","","",""
"","do_welcome","62","511442","0.0-41.0-2.0","""event"",""trial"",""time""
""fullscreenenter"",""0"",""4691""
","
","
","""event"",""trial"",""time""
""fullscreenenter"",""0"",""4691""
","
","null","","","","","","","","null","","","","","","","","","","","","","","","","",""
"","do_trial","63","516249","0.0-41.0-3.0","""event"",""trial"",""time""
""fullscreenenter"",""0"",""4691""
","
","
","""event"",""trial"",""time""
""fullscreenenter"",""0"",""4691""
","
","299.09999999962747","","","","","","","","50","1,0,0","","","","","","","","","","","","","","","",""
"","html-keyboard-response","64","517254","0.0-42.0-0.0","""event"",""trial"",""time""
""fullscreenenter"",""0"",""4691""
","
","
","""event"",""trial"",""time""
""fullscreenenter"",""0"",""4691""
","
","null","<p></p>","null","","","","","","","","","","","","","","","","","","","","","","",""
"","do_trial","65","522220","0.0-42.0-1.0","""event"",""trial"",""time""
""fullscreenenter"",""0"",""4691""
","
","
","""event"",""trial"",""time""
""fullscreenenter"",""0"",""4691""
","
","455.3999999994412","","","","","","","","51","1,0,1","","","","","","","","","","","","","","","",""
"","html-keyboard-response","66","523226","0.0-43.0-0.0","""event"",""trial"",""time""
""fullscreenenter"",""0"",""4691""
","
","
","""event"",""trial"",""time""
""fullscreenenter"",""0"",""4691""
","
","null","<p></p>","null","","","","","","","","","","","","","","","","","","","","","","",""
"","do_trial","67","528182","0.0-43.0-1.0","""event"",""trial"",""time""
""fullscreenenter"",""0"",""4691""
","
","
","""event"",""trial"",""time""
""fullscreenenter"",""0"",""4691""
","
","447.5","","","","","","","","51","1,1,0","","","","","","","","","","","","","","","",""
"","html-keyboard-response","68","529188","0.0-44.0-0.0","""event"",""trial"",""time""
""fullscreenenter"",""0"",""4691""
","
","
","""event"",""trial"",""time""
""fullscreenenter"",""0"",""4691""
","
","null","<p></p>","null","","","","","","","","","","","","","","","","","","","","","","",""
"","do_trial","69","534120","0.0-44.0-1.0","""event"",""trial"",""time""
""fullscreenenter"",""0"",""4691""
","
","
","""event"",""trial"",""time""
""fullscreenenter"",""0"",""4691""
","
","420.79999999981374","","","","","","","","51","0,0,1","","","","","","","","","","","","","","","",""
"","html-keyboard-response","70","535125","0.0-45.0-0.0","""event"",""trial"",""time""
""fullscreenenter"",""0"",""4691""
","
","
","""event"",""trial"",""time""
""fullscreenenter"",""0"",""4691""
","
","null","<p></p>","null","","","","","","","","","","","","","","","","","","","","","","",""
"","do_trial","71","540002","0.0-45.0-1.0","""event"",""trial"",""time""
""fullscreenenter"",""0"",""4691""
","
","
","""event"",""trial"",""time""
""fullscreenenter"",""0"",""4691""
","
","365.30000000074506","","","","","","","","51","1,0,1","","","","","","","","","","","","","","","",""
"","html-keyboard-response","72","543781","0.0-46.0-0.0","""event"",""trial"",""time""
""fullscreenenter"",""0"",""4691""
","
","
","""event"",""trial"",""time""
""fullscreenenter"",""0"",""4691""
","
","3775.5999999996275","<div class='center'><p><img src='run_exp/static/images/tutorial/prac_best_pirate.png'  height='500'></p></div>","49","","","","","","","","","","","","","","","","","","","","","","",""
"","html-keyboard-response","73","546826","0.0-47.0-0.0","""event"",""trial"",""time""
""fullscreenenter"",""0"",""4691""
","
","
","""event"",""trial"",""time""
""fullscreenenter"",""0"",""4691""
","
","3044.2000000001863","<div class='center'><p>That's correct! Red beard was the best.</p><p><b>[Press the space bar to continue]</b></p></div>","32","","","","","","","","","","","","","","","","","","","","","","",""
"","html-keyboard-response","74","550859","0.0-47.0-1.0","""event"",""trial"",""time""
""fullscreenenter"",""0"",""4691""
","
","
","""event"",""trial"",""time""
""fullscreenenter"",""0"",""4691""
","
","4032.2999999998137","<div class='center'><p><img src='run_exp/static/images/tutorial/prac_source.png'  height='500'></p></div>","50","","","","","","","","","","","","","","","","","","","","","","",""
"","html-keyboard-response","75","553172","0.0-48.0-0.0","""event"",""trial"",""time""
""fullscreenenter"",""0"",""4691""
","
","
","""event"",""trial"",""time""
""fullscreenenter"",""0"",""4691""
","
","2311.7000000001863","<div class='center'><p>That's correct! You saw this ship on the cavern island.</p><p><b>[Press the space bar to continue]</b></p></div>","32","","","","","","","","","","","","","","","","","","","","","","",""
"","quiz_beginning","76","564669","0.0-48.0-1.0","""event"",""trial"",""time""
""fullscreenenter"",""0"",""4691""
","
","
","""event"",""trial"",""time""
""fullscreenenter"",""0"",""4691""
","
","null","run_exp/static/audio/clip_16_quiz_intro.m4a","null","","","","","<div class='center'><p>Good job on the practice game! Now, you will be asked some true or false questions to make sure you really understand the rules of the game.</p><p> Press <b>'1'</b> on the keyboard for true and press <b>'2'</b> for false.</p></div>","","","","","","","","","","","","","","","","","",""
"","audio-keyboard-response","77","572179","0.0-48.0-2.0","""event"",""trial"",""time""
""fullscreenenter"",""0"",""4691""
","
","
","""event"",""trial"",""time""
""fullscreenenter"",""0"",""4691""
","
","7508.4000000003725","run_exp/static/audio/clip_17_q1.m4a","49","","","","","","","","","","","","","","","","","","","","","","",""
"","correct","78","574584","0.0-49.0-0.0","""event"",""trial"",""time""
""fullscreenenter"",""0"",""4691""
","
","
","""event"",""trial"",""time""
""fullscreenenter"",""0"",""4691""
","
","null","run_exp/static/audio/clip_18_correct.m4a","null","","","","","<div class='center'><p>That's correct!</p></div>","","","","","","","","","","","","","","","","","",""
"","html-keyboard-response","79","576663","0.0-49.0-1.0","""event"",""trial"",""time""
""fullscreenenter"",""0"",""4691""
","
","
","""event"",""trial"",""time""
""fullscreenenter"",""0"",""4691""
","
","2078.0999999996275","<div class='center'><p>That's correct!</p><p><b>[Press the space bar to continue]</b></p></div>","32","","","","","","","","","","","","","","","","","","","","","","",""
"","audio-keyboard-response","80","584953","0.0-49.0-2.0","""event"",""trial"",""time""
""fullscreenenter"",""0"",""4691""
","
","
","""event"",""trial"",""time""
""fullscreenenter"",""0"",""4691""
","
","8288.599999999627","run_exp/static/audio/clip_20_q2.m4a","50","","","","","","","","","","","","","","","","","","","","","","",""
"","correct","81","587356","0.0-50.0-0.0","""event"",""trial"",""time""
""fullscreenenter"",""0"",""4691""
","
","
","""event"",""trial"",""time""
""fullscreenenter"",""0"",""4691""
","
","null","run_exp/static/audio/clip_18_correct.m4a","null","","","","","<div class='center'><p>That's correct!</p></div>","","","","","","","","","","","","","","","","","",""
"","html-keyboard-response","82","588281","0.0-50.0-1.0","""event"",""trial"",""time""
""fullscreenenter"",""0"",""4691""
","
","
","""event"",""trial"",""time""
""fullscreenenter"",""0"",""4691""
","
","924.7999999998137","<div class='center'><p>That's correct!</p><p><b>[Press the space bar to continue]</b></p></div>","32","","","","","","","","","","","","","","","","","","","","","","",""
"","audio-keyboard-response","83","592826","0.0-50.0-2.0","""event"",""trial"",""time""
""fullscreenenter"",""0"",""4691""
","
","
","""event"",""trial"",""time""
""fullscreenenter"",""0"",""4691""
","
","4544","run_exp/static/audio/clip_22_q3.m4a","50","","","","","","","","","","","","","","","","","","","","","","",""
"","correct","84","595227","0.0-51.0-0.0","""event"",""trial"",""time""
""fullscreenenter"",""0"",""4691""
","
","
","""event"",""trial"",""time""
""fullscreenenter"",""0"",""4691""
","
","null","run_exp/static/audio/clip_18_correct.m4a","null","","","","","<div class='center'><p>That's correct!</p></div>","","","","","","","","","","","","","","","","","",""
"","html-keyboard-response","85","596140","0.0-51.0-1.0","""event"",""trial"",""time""
""fullscreenenter"",""0"",""4691""
","
","
","""event"",""trial"",""time""
""fullscreenenter"",""0"",""4691""
","
","911.7999999998137","<div class='center'><p>That's correct!</p><p><b>[Press the space bar to continue]</b></p></div>","32","","","","","","","","","","","","","","","","","","","","","","",""
"","audio-keyboard-response","86","599053","0.0-51.0-2.0","""event"",""trial"",""time""
""fullscreenenter"",""0"",""4691""
","
","
","""event"",""trial"",""time""
""fullscreenenter"",""0"",""4691""
","
","2912.7999999998137","run_exp/static/audio/clip_24_q4.m4a","49","","","","","","","","","","","","","","","","","","","","","","",""
"","correct","87","601497","0.0-52.0-0.0","""event"",""trial"",""time""
""fullscreenenter"",""0"",""4691""
","
","
","""event"",""trial"",""time""
""fullscreenenter"",""0"",""4691""
","
","null","run_exp/static/audio/clip_18_correct.m4a","null","","","","","<div class='center'><p>That's correct!</p></div>","","","","","","","","","","","","","","","","","",""
"","html-keyboard-response","88","602335","0.0-52.0-1.0","""event"",""trial"",""time""
""fullscreenenter"",""0"",""4691""
","
","
","""event"",""trial"",""time""
""fullscreenenter"",""0"",""4691""
","
","837.7000000001863","<div class='center'><p>That's correct!</p><p><b>[Press the space bar to continue]</b></p></div>","32","","","","","","","","","","","","","","","","","","","","","","",""
"","q_all_corr","89","610832","0.0-53.0-0.0","""event"",""trial"",""time""
""fullscreenenter"",""0"",""4691""
","
","
","""event"",""trial"",""time""
""fullscreenenter"",""0"",""4691""
","
","null","run_exp/static/audio/clip_27_quiz_all_correct.m4a","null","","","","","<div class='center'><p>Good job! You’re now ready to move on to the real game! Remember this game will be difficult but don't get discouraged and try your best!</p></div>","","","","","","","","","","","","","","","","","",""
"","html-keyboard-response","90","612409","0.0-53.0-1.0","""event"",""trial"",""time""
""fullscreenenter"",""0"",""4691""
","
","
","""event"",""trial"",""time""
""fullscreenenter"",""0"",""4691""
","
","1576.7999999998137","<div class='center'><p>Good job! You’re now ready to move on to the real game! Remember this game will be difficult but don't get discouraged and try your best!</p><p><b>[Press the space bar to continue]</b></p></div>","32","","","","","","","","","","","","","","","","","","","","","","",""
"","do_welcome","91","616414","0.0-54.0-0.0","""event"",""trial"",""time""
""fullscreenenter"",""0"",""4691""
","
","
","""event"",""trial"",""time""
""fullscreenenter"",""0"",""4691""
","
","null","","","","","","","","null","","","","","","","","","","","","","","","","",""
"","do_trial","92","621641","0.0-55.0-0.0","""event"",""trial"",""time""
""fullscreenenter"",""0"",""4691""
","
","
","""event"",""trial"",""time""
""fullscreenenter"",""0"",""4691""
","
","687.6000000005588","","","","","","","","49","0,0,0","0","coast","0","probe-134","0.6","0.3","0.1","0","","","","","","","",""
"","html-keyboard-response","93","622647","0.0-55.0-1.0","""event"",""trial"",""time""
""fullscreenenter"",""0"",""4691""
","
","
","""event"",""trial"",""time""
""fullscreenenter"",""0"",""4691""
","
","null","<p></p>","null","","","","","","","","","","","","","","","","","","","","","","",""
"","do_trial","94","627748","0.0-56.0-0.0","""event"",""trial"",""time""
""fullscreenenter"",""0"",""4691""
","
","
","""event"",""trial"",""time""
""fullscreenenter"",""0"",""4691""
","
","555.5","","","","","","","","50","0,0,0","0","coast","1","probe-159","0.63492403122027","0.35192691879727134","0.12811358567141792","0","","","","","","","",""
"","html-keyboard-response","95","628754","0.0-56.0-1.0","""event"",""trial"",""time""
""fullscreenenter"",""0"",""4691""
","
","
","""event"",""trial"",""time""
""fullscreenenter"",""0"",""4691""
","
","null","<p></p>","null","","","","","","","","","","","","","","","","","","","","","","",""
"","do_trial","96","633743","0.0-57.0-0.0","""event"",""trial"",""time""
""fullscreenenter"",""0"",""4691""
","
","
","""event"",""trial"",""time""
""fullscreenenter"",""0"",""4691""
","
","444.79999999981374","","","","","","","","51","1,0,0","0","coast","2","probe-196","0.7100270928954345","0.2878084067810618","0.07038304979752695","0","","","","","","","",""
"","html-keyboard-response","97","634749","0.0-57.0-1.0","""event"",""trial"",""time""
""fullscreenenter"",""0"",""4691""
","
","
","""event"",""trial"",""time""
""fullscreenenter"",""0"",""4691""
","
","null","<p></p>","null","","","","","","","","","","","","","","","","","","","","","","",""
"","do_trial","98","639673","0.0-58.0-0.0","""event"",""trial"",""time""
""fullscreenenter"",""0"",""4691""
","
","
","""event"",""trial"",""time""
""fullscreenenter"",""0"",""4691""
","
","378","","","","","","","","49","1,0,0","0","coast","3","probe-167","0.6519186361153981","0.3425682280798308","0.11443888865474473","1","","","","","","","",""
"","html-keyboard-response","99","640678","0.0-58.0-1.0","""event"",""trial"",""time""
""fullscreenenter"",""0"",""4691""
","
","
","""event"",""trial"",""time""
""fullscreenenter"",""0"",""4691""
","
","null","<p></p>","null","","","","","","","","","","","","","","","","","","","","","","",""
"","do_trial","100","645471","0.0-59.0-0.0","""event"",""trial"",""time""
""fullscreenenter"",""0"",""4691""
","
","
","""event"",""trial"",""time""
""fullscreenenter"",""0"",""4691""
","
","252.29999999981374","","","","","","","","49","1,0,0","0","coast","4","probe-189","0.6455037464919643","0.38484243320617856","0.15662080762655253","1","","","","","","","",""
"","html-keyboard-response","101","646477","0.0-59.0-1.0","""event"",""trial"",""time""
""fullscreenenter"",""0"",""4691""
","
","
","""event"",""trial"",""time""
""fullscreenenter"",""0"",""4691""
","
","null","<p></p>","null","","","","","","","","","","","","","","","","","","","","","","",""
"","do_trial","102","651412","0.0-60.0-0.0","""event"",""trial"",""time""
""fullscreenenter"",""0"",""4691""
","
","
","""event"",""trial"",""time""
""fullscreenenter"",""0"",""4691""
","
","393.70000000018626","","","","","","","","49","0,1,0","0","coast","5","probe-125","0.6039694451303487","0.3660278030019301","0.052331715136977514","0","","","","","","","",""
"","html-keyboard-response","103","652417","0.0-60.0-1.0","""event"",""trial"",""time""
""fullscreenenter"",""0"",""4691""
","
","
","""event"",""trial"",""time""
""fullscreenenter"",""0"",""4691""
","
","null","<p></p>","null","","","","","","","","","","","","","","","","","","","","","","",""
"","do_trial","104","657483","0.0-61.0-0.0","""event"",""trial"",""time""
""fullscreenenter"",""0"",""4691""
","
","
","""event"",""trial"",""time""
""fullscreenenter"",""0"",""4691""
","
","522.7999999998137","","","","","","","","49","0,0,0","0","coast","6","probe-91","0.7859455511787874","0.4144133871308007","0.11910239345389335","0","","","","","","","",""
"","html-keyboard-response","105","658488","0.0-61.0-1.0","""event"",""trial"",""time""
""fullscreenenter"",""0"",""4691""
","
","
","""event"",""trial"",""time""
""fullscreenenter"",""0"",""4691""
","
","null","<p></p>","null","","","","","","","","","","","","","","","","","","","","","","",""
"","do_trial","106","663279","0.0-62.0-0.0","""event"",""trial"",""time""
""fullscreenenter"",""0"",""4691""
","
","
","""event"",""trial"",""time""
""fullscreenenter"",""0"",""4691""
","
","249.20000000018626","","","","","","","","50","1,0,0","0","coast","7","probe-15","0.6478924000505427","0.19384452495377485","0.0622706829926827","0","","","","","","","",""
"","html-keyboard-response","107","664285","0.0-62.0-1.0","""event"",""trial"",""time""
""fullscreenenter"",""0"",""4691""
","
","
","""event"",""trial"",""time""
""fullscreenenter"",""0"",""4691""
","
","null","<p></p>","null","","","","","","","","","","","","","","","","","","","","","","",""
"","do_trial","108","669339","0.0-63.0-0.0","""event"",""trial"",""time""
""fullscreenenter"",""0"",""4691""
","
","
","""event"",""trial"",""time""
""fullscreenenter"",""0"",""4691""
","
","512.8999999994412","","","","","","","","50","0,1,0","0","coast","8","probe-214","0.5574121350489994","0.11358382267366032","0.09038921612169862","1","","","","","","","",""
"","html-keyboard-response","109","670345","0.0-63.0-1.0","""event"",""trial"",""time""
""fullscreenenter"",""0"",""4691""
","
","
","""event"",""trial"",""time""
""fullscreenenter"",""0"",""4691""
","
","null","<p></p>","null","","","","","","","","","","","","","","","","","","","","","","",""
"","do_trial","110","675378","0.0-64.0-0.0","""event"",""trial"",""time""
""fullscreenenter"",""0"",""4691""
","
","
","""event"",""trial"",""time""
""fullscreenenter"",""0"",""4691""
","
","493.70000000018626","","","","","","","","50","0,1,0","0","coast","9","probe-24","0.5793087722572209","0.37527296690820733","0.06895229634218732","1","","","","","","","",""
"","html-keyboard-response","111","676384","0.0-64.0-1.0","""event"",""trial"",""time""
""fullscreenenter"",""0"",""4691""
","
","
","""event"",""trial"",""time""
""fullscreenenter"",""0"",""4691""
","
","null","<p></p>","null","","","","","","","","","","","","","","","","","","","","","","",""
"","do_trial","112","681295","0.0-65.0-0.0","""event"",""trial"",""time""
""fullscreenenter"",""0"",""4691""
","
","
","""event"",""trial"",""time""
""fullscreenenter"",""0"",""4691""
","
","370.8999999994412","","","","","","","","50","0,1,0","0","coast","10","probe-118","0.5549486875547993","0.36180840840710177","0.05583979803396451","1","","","","","","","",""
"","html-keyboard-response","113","682297","0.0-65.0-1.0","""event"",""trial"",""time""
""fullscreenenter"",""0"",""4691""
","
","
","""event"",""trial"",""time""
""fullscreenenter"",""0"",""4691""
","
","null","<p></p>","null","","","","","","","","","","","","","","","","","","","","","","",""
"","do_trial","114","687174","0.0-66.0-0.0","""event"",""trial"",""time""
""fullscreenenter"",""0"",""4691""
","
","
","""event"",""trial"",""time""
""fullscreenenter"",""0"",""4691""
","
","333","","","","","","","","50","0,0,0","0","coast","11","probe-82","0.5454307218843999","0.3449585476511344","0.07751542248101174","0","","","","","","","",""
"","html-keyboard-response","115","688177","0.0-66.0-1.0","""event"",""trial"",""time""
""fullscreenenter"",""0"",""4691""
","
","
","""event"",""trial"",""time""
""fullscreenenter"",""0"",""4691""
","
","null","<p></p>","null","","","","","","","","","","","","","","","","","","","","","","",""
"","do_trial","116","692977","0.0-67.0-0.0","""event"",""trial"",""time""
""fullscreenenter"",""0"",""4691""
","
","
","""event"",""trial"",""time""
""fullscreenenter"",""0"",""4691""
","
","258.29999999981374","","","","","","","","50","1,0,0","0","coast","12","probe-59","0.5653360890730009","0.30035198000584784","0.08788724757832063","0","","","","","","","",""
"","html-keyboard-response","117","693983","0.0-67.0-1.0","""event"",""trial"",""time""
""fullscreenenter"",""0"",""4691""
","
","
","""event"",""trial"",""time""
""fullscreenenter"",""0"",""4691""
","
","null","<p></p>","null","","","","","","","","","","","","","","","","","","","","","","",""
"","do_trial","118","699228","0.0-68.0-0.0","""event"",""trial"",""time""
""fullscreenenter"",""0"",""4691""
","
","
","""event"",""trial"",""time""
""fullscreenenter"",""0"",""4691""
","
","701.5","","","","","","","","50","1,0,0","0","coast","13","probe-17","0.5760599563973666","0.24616969292661764","0.13017884162367344","0","","","","","","","",""
"","html-keyboard-response","119","700234","0.0-68.0-1.0","""event"",""trial"",""time""
""fullscreenenter"",""0"",""4691""
","
","
","""event"",""trial"",""time""
""fullscreenenter"",""0"",""4691""
","
","null","<p></p>","null","","","","","","","","","","","","","","","","","","","","","","",""
"","do_trial","120","705138","0.0-69.0-0.0","""event"",""trial"",""time""
""fullscreenenter"",""0"",""4691""
","
","
","""event"",""trial"",""time""
""fullscreenenter"",""0"",""4691""
","
","363","","","","","","","","51","1,1,0","0","coast","14","probe-75","0.6806713470185313","0.28806964868972323","0.1801031441635326","0","","","","","","","",""
"","html-keyboard-response","121","706143","0.0-69.0-1.0","""event"",""trial"",""time""
""fullscreenenter"",""0"",""4691""
","
","
","""event"",""trial"",""time""
""fullscreenenter"",""0"",""4691""
","
","null","<p></p>","null","","","","","","","","","","","","","","","","","","","","","","",""
"","do_trial","122","711418","0.0-70.0-0.0","""event"",""trial"",""time""
""fullscreenenter"",""0"",""4691""
","
","
","""event"",""trial"",""time""
""fullscreenenter"",""0"",""4691""
","
","730.3999999994412","","","","","","","","51","1,0,1","0","coast","15","probe-146","0.6950072741729598","0.28271853560714283","0.2856970595324366","1","","","","","","","",""
"","html-keyboard-response","123","712424","0.0-70.0-1.0","""event"",""trial"",""time""
""fullscreenenter"",""0"",""4691""
","
","
","""event"",""trial"",""time""
""fullscreenenter"",""0"",""4691""
","
","null","<p></p>","null","","","","","","","","","","","","","","","","","","","","","","",""
"","do_trial","124","717437","0.0-71.0-0.0","""event"",""trial"",""time""
""fullscreenenter"",""0"",""4691""
","
","
","""event"",""trial"",""time""
""fullscreenenter"",""0"",""4691""
","
","468.3999999994412","","","","","","","","51","1,0,0","0","coast","16","probe-226","0.5549640988288393","0.2662066588458804","0.24676376742846565","0","","","","","","","",""
"","html-keyboard-response","125","718439","0.0-71.0-1.0","""event"",""trial"",""time""
""fullscreenenter"",""0"",""4691""
","
","
","""event"",""trial"",""time""
""fullscreenenter"",""0"",""4691""
","
","null","<p></p>","null","","","","","","","","","","","","","","","","","","","","","","",""
"","do_trial","126","723256","0.0-72.0-0.0","""event"",""trial"",""time""
""fullscreenenter"",""0"",""4691""
","
","
","""event"",""trial"",""time""
""fullscreenenter"",""0"",""4691""
","
","271.70000000018626","","","","","","","","51","1,0,0","0","coast","17","probe-181","0.5255973790344806","0.4107369576499481","0.1483864595160332","0","","","","","","","",""
"","html-keyboard-response","127","724258","0.0-72.0-1.0","""event"",""trial"",""time""
""fullscreenenter"",""0"",""4691""
","
","
","""event"",""trial"",""time""
""fullscreenenter"",""0"",""4691""
","
","null","<p></p>","null","","","","","","","","","","","","","","","","","","","","","","",""
"","do_trial","128","729216","0.0-73.0-0.0","""event"",""trial"",""time""
""fullscreenenter"",""0"",""4691""
","
","
","""event"",""trial"",""time""
""fullscreenenter"",""0"",""4691""
","
","418.90000000037253","","","","","","","","51","0,0,0","0","coast","18","probe-221","0.6653931027546749","0.34733451344561966","0.11599002761746674","0","","","","","","","",""
"","html-keyboard-response","129","730218","0.0-73.0-1.0","""event"",""trial"",""time""
""fullscreenenter"",""0"",""4691""
","
","
","""event"",""trial"",""time""
""fullscreenenter"",""0"",""4691""
","
","null","<p></p>","null","","","","","","","","","","","","","","","","","","","","","","",""
"","do_trial","130","735037","0.0-74.0-0.0","""event"",""trial"",""time""
""fullscreenenter"",""0"",""4691""
","
","
","""event"",""trial"",""time""
""fullscreenenter"",""0"",""4691""
","
","275.6000000005588","","","","","","","","50","1,1,0","0","coast","19","probe-172","0.7047867100193334","0.3479638365181153","0.2904122260375211","1","","","","","","","",""
"","html-keyboard-response","131","736043","0.0-74.0-1.0","""event"",""trial"",""time""
""fullscreenenter"",""0"",""4691""
","
","
","""event"",""trial"",""time""
""fullscreenenter"",""0"",""4691""
","
","null","<p></p>","null","","","","","","","","","","","","","","","","","","","","","","",""
"","do_trial","132","741033","0.0-75.0-0.0","""event"",""trial"",""time""
""fullscreenenter"",""0"",""4691""
","
","
","""event"",""trial"",""time""
""fullscreenenter"",""0"",""4691""
","
","447.29999999981374","","","","","","","","50","1,0,0","0","coast","20","probe-80","0.6031817248976439","0.4835409511953946","0.22182916517033655","0","","","","","","","",""
"","html-keyboard-response","133","742039","0.0-75.0-1.0","""event"",""trial"",""time""
""fullscreenenter"",""0"",""4691""
","
","
","""event"",""trial"",""time""
""fullscreenenter"",""0"",""4691""
","
","null","<p></p>","null","","","","","","","","","","","","","","","","","","","","","","",""
"","do_trial","134","746847","0.0-76.0-0.0","""event"",""trial"",""time""
""fullscreenenter"",""0"",""4691""
","
","
","""event"",""trial"",""time""
""fullscreenenter"",""0"",""4691""
","
","267.59999999962747","","","","","","","","50","1,0,0","0","coast","21","probe-153","0.6172380529894992","0.4613029996805181","0.2575758304101054","0","","","","","","","",""
"","html-keyboard-response","135","747852","0.0-76.0-1.0","""event"",""trial"",""time""
""fullscreenenter"",""0"",""4691""
","
","
","""event"",""trial"",""time""
""fullscreenenter"",""0"",""4691""
","
","null","<p></p>","null","","","","","","","","","","","","","","","","","","","","","","",""
"","do_trial","136","752799","0.0-77.0-0.0","""event"",""trial"",""time""
""fullscreenenter"",""0"",""4691""
","
","
","""event"",""trial"",""time""
""fullscreenenter"",""0"",""4691""
","
","401.79999999981374","","","","","","","","50","0,1,0","0","coast","22","probe-192","0.5290907561252263","0.4000325394788502","0.2163450528293115","1","","","","","","","",""
"","html-keyboard-response","137","753804","0.0-77.0-1.0","""event"",""trial"",""time""
""fullscreenenter"",""0"",""4691""
","
","
","""event"",""trial"",""time""
""fullscreenenter"",""0"",""4691""
","
","null","<p></p>","null","","","","","","","","","","","","","","","","","","","","","","",""
"","do_trial","138","758788","0.0-78.0-0.0","""event"",""trial"",""time""
""fullscreenenter"",""0"",""4691""
","
","
","""event"",""trial"",""time""
""fullscreenenter"",""0"",""4691""
","
","441.90000000037253","","","","","","","","50","0,0,1","0","coast","23","probe-145","0.3727800168948233","0.2999737854063424","0.2409605088989901","0","","","","","","","",""
"","html-keyboard-response","139","759793","0.0-78.0-1.0","""event"",""trial"",""time""
""fullscreenenter"",""0"",""4691""
","
","
","""event"",""trial"",""time""
""fullscreenenter"",""0"",""4691""
","
","null","<p></p>","null","","","","","","","","","","","","","","","","","","","","","","",""
"","do_trial","140","764682","0.0-79.0-0.0","""event"",""trial"",""time""
""fullscreenenter"",""0"",""4691""
","
","
","""event"",""trial"",""time""
""fullscreenenter"",""0"",""4691""
","
","344.29999999981374","","","","","","","","50","0,0,0","0","coast","24","probe-96","0.4067935700784348","0.2815152993802774","0.22517444596230338","0","","","","","","","",""
"","html-keyboard-response","141","765687","0.0-79.0-1.0","""event"",""trial"",""time""
""fullscreenenter"",""0"",""4691""
","
","
","""event"",""trial"",""time""
""fullscreenenter"",""0"",""4691""
","
","null","<p></p>","null","","","","","","","","","","","","","","","","","","","","","","",""
"","do_trial","142","770801","0.0-80.0-0.0","""event"",""trial"",""time""
""fullscreenenter"",""0"",""4691""
","
","
","""event"",""trial"",""time""
""fullscreenenter"",""0"",""4691""
","
","569","","","","","","","","50","1,0,0","0","coast","25","probe-139","0.48270776952598865","0.15712709762014876","0.3140072357043176","0","","","","","","","",""
"","html-keyboard-response","143","771807","0.0-80.0-1.0","""event"",""trial"",""time""
""fullscreenenter"",""0"",""4691""
","
","
","""event"",""trial"",""time""
""fullscreenenter"",""0"",""4691""
","
","null","<p></p>","null","","","","","","","","","","","","","","","","","","","","","","",""
"","do_trial","144","776350","0.0-81.0-0.0","""event"",""trial"",""time""
""fullscreenenter"",""0"",""4691""
","
","
","""event"",""trial"",""time""
""fullscreenenter"",""0"",""4691""
","
","0.09999999962747097","","","","","","","","49","0,0,0","0","coast","26","probe-67","0.47180643731335864","0.3152916431978599","0.3910159606267588","0","","","","","","","",""
"","html-keyboard-response","145","777356","0.0-81.0-1.0","""event"",""trial"",""time""
""fullscreenenter"",""0"",""4691""
","
","
","""event"",""trial"",""time""
""fullscreenenter"",""0"",""4691""
","
","null","<p></p>","null","","","","","","","","","","","","","","","","","","","","","","",""
"","do_trial","146","782214","0.0-82.0-0.0","""event"",""trial"",""time""
""fullscreenenter"",""0"",""4691""
","
","
","""event"",""trial"",""time""
""fullscreenenter"",""0"",""4691""
","
","317.40000000037253","","","","","","","","49","0,1,0","0","coast","27","probe-99","0.5668995297528533","0.2736869266628466","0.4274834011578724","0","","","","","","","",""
"","html-keyboard-response","147","783219","0.0-82.0-1.0","""event"",""trial"",""time""
""fullscreenenter"",""0"",""4691""
","
","
","""event"",""trial"",""time""
""fullscreenenter"",""0"",""4691""
","
","null","<p></p>","null","","","","","","","","","","","","","","","","","","","","","","",""
"","do_trial","148","788591","0.0-83.0-0.0","""event"",""trial"",""time""
""fullscreenenter"",""0"",""4691""
","
","
","""event"",""trial"",""time""
""fullscreenenter"",""0"",""4691""
","
","831.4000000003725","","","","","","","","49","0,0,0","0","coast","28","probe-130","0.5353708540613354","0.3178989629962654","0.2735332988655504","0","","","","","","","",""
"","html-keyboard-response","149","789597","0.0-83.0-1.0","""event"",""trial"",""time""
""fullscreenenter"",""0"",""4691""
","
","
","""event"",""trial"",""time""
""fullscreenenter"",""0"",""4691""
","
","null","<p></p>","null","","","","","","","","","","","","","","","","","","","","","","",""
"","do_trial","150","794393","0.0-84.0-0.0","""event"",""trial"",""time""
""fullscreenenter"",""0"",""4691""
","
","
","""event"",""trial"",""time""
""fullscreenenter"",""0"",""4691""
","
","257.09999999962747","","","","","","","","49","1,1,0","0","coast","29","probe-227","0.591277458238603","0.2418613421502624","0.23027257377061677","1","","","","","","","",""
"","html-keyboard-response","151","795399","0.0-84.0-1.0","""event"",""trial"",""time""
""fullscreenenter"",""0"",""4691""
","
","
","""event"",""trial"",""time""
""fullscreenenter"",""0"",""4691""
","
","null","<p></p>","null","","","","","","","","","","","","","","","","","","","","","","",""
"","do_bye","152","796909","0.0-85.0-0.0","""event"",""trial"",""time""
""fullscreenenter"",""0"",""4691""
","
","
","""event"",""trial"",""time""
""fullscreenenter"",""0"",""4691""
","
","null","","","","","","","","null","","","","","","","","","","","","","","","","",""
"","break","153","809376","0.0-85.0-1.0","""event"",""trial"",""time""
""fullscreenenter"",""0"",""4691""
","
","
","""event"",""trial"",""time""
""fullscreenenter"",""0"",""4691""
","
","12465.600000000559","<div class='center'><p>Time to take a quick break! You have 2 minutes to rest, but you can move on sooner if you'd like.</p><p> Press the <b>space bar</b> to continue.</p></div>","32","","","","","","","","","","","","","","","","","","","","","","",""
"","do_travel","154","818379","0.0-86.0-0.0","""event"",""trial"",""time""
""fullscreenenter"",""0"",""4691""
","
","
","""event"",""trial"",""time""
""fullscreenenter"",""0"",""4691""
","
","null","","","","","","","","null","","","","","","","","","","","","","","","","",""
"","do_welcome","155","822385","0.0-86.0-1.0","""event"",""trial"",""time""
""fullscreenenter"",""0"",""4691""
","
","
","""event"",""trial"",""time""
""fullscreenenter"",""0"",""4691""
","
","null","","","","","","","","null","","","","","","","","","","","","","","","","",""
"","do_trial","156","827969","0.0-87.0-0.0","""event"",""trial"",""time""
""fullscreenenter"",""0"",""4691""
","
","
","""event"",""trial"",""time""
""fullscreenenter"",""0"",""4691""
","
","1042.5999999996275","","","","","","","","49","1,1,1","1","mountain","30","probe-199","1","0.25894276910621783","0.3331671991496656","1","","","","","","","",""
"","html-keyboard-response","157","828973","0.0-87.0-1.0","""event"",""trial"",""time""
""fullscreenenter"",""0"",""4691""
","
","
","""event"",""trial"",""time""
""fullscreenenter"",""0"",""4691""
","
","null","<p></p>","null","","","","","","","","","","","","","","","","","","","","","","",""
"","do_trial","158","833813","0.0-88.0-0.0","""event"",""trial"",""time""
""fullscreenenter"",""0"",""4691""
","
","
","""event"",""trial"",""time""
""fullscreenenter"",""0"",""4691""
","
","301.70000000018626","","","","","","","","49","1,0,0","1","mountain","31","probe-51","1","0.2278632619200147","0.18875161831432205","1","","","","","","","",""
"","html-keyboard-response","159","834817","0.0-88.0-1.0","""event"",""trial"",""time""
""fullscreenenter"",""0"",""4691""
","
","
","""event"",""trial"",""time""
""fullscreenenter"",""0"",""4691""
","
","null","<p></p>","null","","","","","","","","","","","","","","","","","","","","","","",""
"","do_trial","160","839727","0.0-89.0-0.0","""event"",""trial"",""time""
""fullscreenenter"",""0"",""4691""
","
","
","""event"",""trial"",""time""
""fullscreenenter"",""0"",""4691""
","
","365.20000000018626","","","","","","","","49","1,0,0","1","mountain","32","probe-141","1","0.35202848885165267","0.08429467568846248","1","","","","","","","",""
"","html-keyboard-response","161","840733","0.0-89.0-1.0","""event"",""trial"",""time""
""fullscreenenter"",""0"",""4691""
","
","
","""event"",""trial"",""time""
""fullscreenenter"",""0"",""4691""
","
","null","<p></p>","null","","","","","","","","","","","","","","","","","","","","","","",""
"","do_trial","162","845634","0.0-90.0-0.0","""event"",""trial"",""time""
""fullscreenenter"",""0"",""4691""
","
","
","""event"",""trial"",""time""
""fullscreenenter"",""0"",""4691""
","
","358.40000000037253","","","","","","","","49","1,0,0","1","mountain","33","probe-45","0.8366972955352259","0.3616138602858414","0.10773245346223374","1","","","","","","","",""
"","html-keyboard-response","163","846640","0.0-90.0-1.0","""event"",""trial"",""time""
""fullscreenenter"",""0"",""4691""
","
","
","""event"",""trial"",""time""
""fullscreenenter"",""0"",""4691""
","
","null","<p></p>","null","","","","","","","","","","","","","","","","","","","","","","",""
"","do_trial","164","851641","0.0-91.0-0.0","""event"",""trial"",""time""
""fullscreenenter"",""0"",""4691""
","
","
","""event"",""trial"",""time""
""fullscreenenter"",""0"",""4691""
","
","458.8999999994412","","","","","","","","49","0,1,0","1","mountain","34","probe-53","0.6661293492146813","0.3082182348218223","0.0956204913919751","0","","","","","","","",""
"","html-keyboard-response","165","852647","0.0-91.0-1.0","""event"",""trial"",""time""
""fullscreenenter"",""0"",""4691""
","
","
","""event"",""trial"",""time""
""fullscreenenter"",""0"",""4691""
","
","null","<p></p>","null","","","","","","","","","","","","","","","","","","","","","","",""
"","do_trial","166","857519","0.0-92.0-0.0","""event"",""trial"",""time""
""fullscreenenter"",""0"",""4691""
","
","
","""event"",""trial"",""time""
""fullscreenenter"",""0"",""4691""
","
","327.20000000018626","","","","","","","","50","1,0,0","1","mountain","35","probe-33","0.6067949525957321","0.3215769431861989","0.15621452889795598","0","","","","","","","",""
"","html-keyboard-response","167","858521","0.0-92.0-1.0","""event"",""trial"",""time""
""fullscreenenter"",""0"",""4691""
","
","
","""event"",""trial"",""time""
""fullscreenenter"",""0"",""4691""
","
","null","<p></p>","null","","","","","","","","","","","","","","","","","","","","","","",""
"","do_trial","168","863323","0.0-93.0-0.0","""event"",""trial"",""time""
""fullscreenenter"",""0"",""4691""
","
","
","""event"",""trial"",""time""
""fullscreenenter"",""0"",""4691""
","
","259.79999999981374","","","","","","","","50","1,0,0","1","mountain","36","probe-62","0.5055434856074633","0.2620564767326124","0.12402004078071556","0","","","","","","","",""
"","html-keyboard-response","169","864329","0.0-93.0-1.0","""event"",""trial"",""time""
""fullscreenenter"",""0"",""4691""
","
","
","""event"",""trial"",""time""
""fullscreenenter"",""0"",""4691""
","
","null","<p></p>","null","","","","","","","","","","","","","","","","","","","","","","",""
"","do_trial","170","869291","0.0-94.0-0.0","""event"",""trial"",""time""
""fullscreenenter"",""0"",""4691""
","
","
","""event"",""trial"",""time""
""fullscreenenter"",""0"",""4691""
","
","422.79999999981374","","","","","","","","50","1,1,0","1","mountain","37","probe-197","0.5006758912510764","0.3154917743225154","0.2809693212129036","1","","","","","","","",""
"","html-keyboard-response","171","870298","0.0-94.0-1.0","""event"",""trial"",""time""
""fullscreenenter"",""0"",""4691""
","
","
","""event"",""trial"",""time""
""fullscreenenter"",""0"",""4691""
","
","null","<p></p>","null","","","","","","","","","","","","","","","","","","","","","","",""
"","do_trial","172","875159","0.0-95.0-0.0","""event"",""trial"",""time""
""fullscreenenter"",""0"",""4691""
","
","
","""event"",""trial"",""time""
""fullscreenenter"",""0"",""4691""
","
","317","","","","","","","","50","0,0,0","1","mountain","38","probe-112","0.5795554873370373","0.23083147912139138","0.1368434316737633","0","","","","","","","",""
"","html-keyboard-response","173","876165","0.0-95.0-1.0","""event"",""trial"",""time""
""fullscreenenter"",""0"",""4691""
","
","
","""event"",""trial"",""time""
""fullscreenenter"",""0"",""4691""
","
","null","<p></p>","null","","","","","","","","","","","","","","","","","","","","","","",""
"","do_trial","174","881044","0.0-96.0-0.0","""event"",""trial"",""time""
""fullscreenenter"",""0"",""4691""
","
","
","""event"",""trial"",""time""
""fullscreenenter"",""0"",""4691""
","
","334.29999999981374","","","","","","","","51","1,0,0","1","mountain","39","probe-43","0.7678323783550799","0.35282546278704446","0.28957359447549236","0","","","","","","","",""
"","html-keyboard-response","175","882050","0.0-96.0-1.0","""event"",""trial"",""time""
""fullscreenenter"",""0"",""4691""
","
","
","""event"",""trial"",""time""
""fullscreenenter"",""0"",""4691""
","
","null","<p></p>","null","","","","","","","","","","","","","","","","","","","","","","",""
"","do_trial","176","886890","0.0-97.0-0.0","""event"",""trial"",""time""
""fullscreenenter"",""0"",""4691""
","
","
","""event"",""trial"",""time""
""fullscreenenter"",""0"",""4691""
","
","299.59999999962747","","","","","","","","51","1,0,0","1","mountain","40","probe-176","0.807906966529078","0.2460107310801005","0.35802602637053194","0","","","","","","","",""
"","html-keyboard-response","177","887895","0.0-97.0-1.0","""event"",""trial"",""time""
""fullscreenenter"",""0"",""4691""
","
","
","""event"",""trial"",""time""
""fullscreenenter"",""0"",""4691""
","
","null","<p></p>","null","","","","","","","","","","","","","","","","","","","","","","",""
"","do_trial","178","892833","0.0-98.0-0.0","""event"",""trial"",""time""
""fullscreenenter"",""0"",""4691""
","
","
","""event"",""trial"",""time""
""fullscreenenter"",""0"",""4691""
","
","398.09999999962747","","","","","","","","51","1,0,1","1","mountain","41","probe-136","0.8435785668512626","0.27795797483316453","0.41228394153086667","1","","","","","","","",""
"","html-keyboard-response","179","893839","0.0-98.0-1.0","""event"",""trial"",""time""
""fullscreenenter"",""0"",""4691""
","
","
","""event"",""trial"",""time""
""fullscreenenter"",""0"",""4691""
","
","null","<p></p>","null","","","","","","","","","","","","","","","","","","","","","","",""
"","do_trial","180","898609","0.0-99.0-0.0","""event"",""trial"",""time""
""fullscreenenter"",""0"",""4691""
","
","
","""event"",""trial"",""time""
""fullscreenenter"",""0"",""4691""
","
","228","","","","","","","","51","0,1,1","1","mountain","42","probe-32","0.4841914089025147","0.4015173159010755","0.5073867149228097","1","","","","","","","",""
"","html-keyboard-response","181","899613","0.0-99.0-1.0","""event"",""trial"",""time""
""fullscreenenter"",""0"",""4691""
","
","
","""event"",""trial"",""time""
""fullscreenenter"",""0"",""4691""
","
","null","<p></p>","null","","","","","","","","","","","","","","","","","","","","","","",""
"","do_trial","182","904449","0.0-100.0-0.0","""event"",""trial"",""time""
""fullscreenenter"",""0"",""4691""
","
","
","""event"",""trial"",""time""
""fullscreenenter"",""0"",""4691""
","
","293.79999999981374","","","","","","","","51","0,0,1","1","mountain","43","probe-55","0.37471394962923454","0.4865803353163338","0.4489842529518855","1","","","","","","","",""
"","html-keyboard-response","183","905455","0.0-100.0-1.0","""event"",""trial"",""time""
""fullscreenenter"",""0"",""4691""
","
","
","""event"",""trial"",""time""
""fullscreenenter"",""0"",""4691""
","
","null","<p></p>","null","","","","","","","","","","","","","","","","","","","","","","",""
"","do_trial","184","910061","0.0-101.0-0.0","""event"",""trial"",""time""
""fullscreenenter"",""0"",""4691""
","
","
","""event"",""trial"",""time""
""fullscreenenter"",""0"",""4691""
","
","61.69999999925494","","","","","","","","51","1,0,1","1","mountain","44","probe-95","0.3098217055562154","0.4901508571624053","0.5045997647945728","1","","","","","","","",""
"","html-keyboard-response","185","911067","0.0-101.0-1.0","""event"",""trial"",""time""
""fullscreenenter"",""0"",""4691""
","
","
","""event"",""trial"",""time""
""fullscreenenter"",""0"",""4691""
","
","null","<p></p>","null","","","","","","","","","","","","","","","","","","","","","","",""
"","do_trial","186","915860","0.0-102.0-0.0","""event"",""trial"",""time""
""fullscreenenter"",""0"",""4691""
","
","
","""event"",""trial"",""time""
""fullscreenenter"",""0"",""4691""
","
","249","","","","","","","","51","0,0,1","1","mountain","45","probe-182","0.33209590989803667","0.48635444594416416","0.5076182935480792","1","","","","","","","",""
"","html-keyboard-response","187","916866","0.0-102.0-1.0","""event"",""trial"",""time""
""fullscreenenter"",""0"",""4691""
","
","
","""event"",""trial"",""time""
""fullscreenenter"",""0"",""4691""
","
","null","<p></p>","null","","","","","","","","","","","","","","","","","","","","","","",""
"","do_trial","188","921487","0.0-103.0-0.0","""event"",""trial"",""time""
""fullscreenenter"",""0"",""4691""
","
","
","""event"",""trial"",""time""
""fullscreenenter"",""0"",""4691""
","
","79.29999999981374","","","","","","","","51","0,0,0","1","mountain","46","probe-211","0.33683309332521144","0.5510338270096952","0.30495635249670927","0","","","","","","","",""
"","html-keyboard-response","189","922492","0.0-103.0-1.0","""event"",""trial"",""time""
""fullscreenenter"",""0"",""4691""
","
","
","""event"",""trial"",""time""
""fullscreenenter"",""0"",""4691""
","
","null","<p></p>","null","","","","","","","","","","","","","","","","","","","","","","",""
"","do_trial","190","927260","0.0-104.0-0.0","""event"",""trial"",""time""
""fullscreenenter"",""0"",""4691""
","
","
","""event"",""trial"",""time""
""fullscreenenter"",""0"",""4691""
","
","223.79999999981374","","","","","","","","51","0,0,0","1","mountain","47","probe-213","0.3121434741294586","0.4209133321564358","0.3159672208114854","0","","","","","","","",""
"","html-keyboard-response","191","928266","0.0-104.0-1.0","""event"",""trial"",""time""
""fullscreenenter"",""0"",""4691""
","
","
","""event"",""trial"",""time""
""fullscreenenter"",""0"",""4691""
","
","null","<p></p>","null","","","","","","","","","","","","","","","","","","","","","","",""
"","do_trial","192","933093","0.0-105.0-0.0","""event"",""trial"",""time""
""fullscreenenter"",""0"",""4691""
","
","
","""event"",""trial"",""time""
""fullscreenenter"",""0"",""4691""
","
","285.59999999962747","","","","","","","","51","1,0,1","1","mountain","48","probe-206","0.2680296573517528","0.38269103356181416","0.48258936508090516","1","","","","","","","",""
"","html-keyboard-response","193","934099","0.0-105.0-1.0","""event"",""trial"",""time""
""fullscreenenter"",""0"",""4691""
","
","
","""event"",""trial"",""time""
""fullscreenenter"",""0"",""4691""
","
","null","<p></p>","null","","","","","","","","","","","","","","","","","","","","","","",""
"","do_trial","194","938952","0.0-106.0-0.0","""event"",""trial"",""time""
""fullscreenenter"",""0"",""4691""
","
","
","""event"",""trial"",""time""
""fullscreenenter"",""0"",""4691""
","
","309.20000000018626","","","","","","","","51","0,0,1","1","mountain","49","probe-37","0.20058477331451638","0.2484278861568992","0.4561400746646721","1","","","","","","","",""
"","html-keyboard-response","195","939958","0.0-106.0-1.0","""event"",""trial"",""time""
""fullscreenenter"",""0"",""4691""
","
","
","""event"",""trial"",""time""
""fullscreenenter"",""0"",""4691""
","
","null","<p></p>","null","","","","","","","","","","","","","","","","","","","","","","",""
"","do_trial","196","944939","0.0-107.0-0.0","""event"",""trial"",""time""
""fullscreenenter"",""0"",""4691""
","
","
","""event"",""trial"",""time""
""fullscreenenter"",""0"",""4691""
","
","436.40000000037253","","","","","","","","51","0,0,0","1","mountain","50","probe-215","0.13042717878484633","0.4719087687744633","0.5233811301111888","0","","","","","","","",""
"","html-keyboard-response","197","945944","0.0-107.0-1.0","""event"",""trial"",""time""
""fullscreenenter"",""0"",""4691""
","
","
","""event"",""trial"",""time""
""fullscreenenter"",""0"",""4691""
","
","null","<p></p>","null","","","","","","","","","","","","","","","","","","","","","","",""
"","do_trial","198","950861","0.0-108.0-0.0","""event"",""trial"",""time""
""fullscreenenter"",""0"",""4691""
","
","
","""event"",""trial"",""time""
""fullscreenenter"",""0"",""4691""
","
","372.5","","","","","","","","51","0,1,0","1","mountain","51","probe-100","0.14151614139238378","0.38446803594783213","0.4991290071579318","0","","","","","","","",""
"","html-keyboard-response","199","951867","0.0-108.0-1.0","""event"",""trial"",""time""
""fullscreenenter"",""0"",""4691""
","
","
","""event"",""trial"",""time""
""fullscreenenter"",""0"",""4691""
","
","null","<p></p>","null","","","","","","","","","","","","","","","","","","","","","","",""
"","do_trial","200","956629","0.0-109.0-0.0","""event"",""trial"",""time""
""fullscreenenter"",""0"",""4691""
","
","
","""event"",""trial"",""time""
""fullscreenenter"",""0"",""4691""
","
","217.70000000018626","","","","","","","","49","0,1,0","1","mountain","52","probe-184","0.236717050271997","0.47006105686913574","0.5211284808074085","0","","","","","","","",""
"","html-keyboard-response","201","957635","0.0-109.0-1.0","""event"",""trial"",""time""
""fullscreenenter"",""0"",""4691""
","
","
","""event"",""trial"",""time""
""fullscreenenter"",""0"",""4691""
","
","null","<p></p>","null","","","","","","","","","","","","","","","","","","","","","","",""
"","do_trial","202","962477","0.0-110.0-0.0","""event"",""trial"",""time""
""fullscreenenter"",""0"",""4691""
","
","
","""event"",""trial"",""time""
""fullscreenenter"",""0"",""4691""
","
","298.79999999981374","","","","","","","","49","0,1,1","1","mountain","53","probe-230","0.1810598352888129","0.31919494556458916","0.5960793248189254","0","","","","","","","",""
"","html-keyboard-response","203","963483","0.0-110.0-1.0","""event"",""trial"",""time""
""fullscreenenter"",""0"",""4691""
","
","
","""event"",""trial"",""time""
""fullscreenenter"",""0"",""4691""
","
","null","<p></p>","null","","","","","","","","","","","","","","","","","","","","","","",""
"","do_trial","204","968026","0.0-111.0-0.0","""event"",""trial"",""time""
""fullscreenenter"",""0"",""4691""
","
","
","""event"",""trial"",""time""
""fullscreenenter"",""0"",""4691""
","
","0","","","","","","","","49","0,0,1","1","mountain","54","probe-106","0.060138933707231175","0.3232273769825142","0.7018901008762432","0","","","","","","","",""
"","html-keyboard-response","205","969029","0.0-111.0-1.0","""event"",""trial"",""time""
""fullscreenenter"",""0"",""4691""
","
","
","""event"",""trial"",""time""
""fullscreenenter"",""0"",""4691""
","
","null","<p></p>","null","","","","","","","","","","","","","","","","","","","","","","",""
"","do_trial","206","974589","0.0-112.0-0.0","""event"",""trial"",""time""
""fullscreenenter"",""0"",""4691""
","
","
","""event"",""trial"",""time""
""fullscreenenter"",""0"",""4691""
","
","1014.2000000001863","","","","","","","","51","0,1,0","1","mountain","55","probe-210","0.1789001223153047","0.4956945912956596","0.5610926740836412","0","","","","","","","",""
"","html-keyboard-response","207","975595","0.0-112.0-1.0","""event"",""trial"",""time""
""fullscreenenter"",""0"",""4691""
","
","
","""event"",""trial"",""time""
""fullscreenenter"",""0"",""4691""
","
","null","<p></p>","null","","","","","","","","","","","","","","","","","","","","","","",""
"","do_trial","208","980635","0.0-113.0-0.0","""event"",""trial"",""time""
""fullscreenenter"",""0"",""4691""
","
","
","""event"",""trial"",""time""
""fullscreenenter"",""0"",""4691""
","
","496.70000000018626","","","","","","","","51","0,1,0","1","mountain","56","probe-200","0.30997571339287056","0.38459895389638166","0.6424354839180458","0","","","","","","","",""
"","html-keyboard-response","209","981638","0.0-113.0-1.0","""event"",""trial"",""time""
""fullscreenenter"",""0"",""4691""
","
","
","""event"",""trial"",""time""
""fullscreenenter"",""0"",""4691""
","
","null","<p></p>","null","","","","","","","","","","","","","","","","","","","","","","",""
"","do_trial","210","986512","0.0-114.0-0.0","""event"",""trial"",""time""
""fullscreenenter"",""0"",""4691""
","
","
","""event"",""trial"",""time""
""fullscreenenter"",""0"",""4691""
","
","330.59999999962747","","","","","","","","51","1,0,0","1","mountain","57","probe-140","0.28375646837899426","0.2111773817706436","0.5736795321479534","0","","","","","","","",""
"","html-keyboard-response","211","987515","0.0-114.0-1.0","""event"",""trial"",""time""
""fullscreenenter"",""0"",""4691""
","
","
","""event"",""trial"",""time""
""fullscreenenter"",""0"",""4691""
","
","null","<p></p>","null","","","","","","","","","","","","","","","","","","","","","","",""
"","do_trial","212","992339","0.0-115.0-0.0","""event"",""trial"",""time""
""fullscreenenter"",""0"",""4691""
","
","
","""event"",""trial"",""time""
""fullscreenenter"",""0"",""4691""
","
","280","","","","","","","","51","0,1,1","1","mountain","58","probe-12","0.2961269781372648","0.24193604941437868","0.5028092969033122","1","","","","","","","",""
"","html-keyboard-response","213","993342","0.0-115.0-1.0","""event"",""trial"",""time""
""fullscreenenter"",""0"",""4691""
","
","
","""event"",""trial"",""time""
""fullscreenenter"",""0"",""4691""
","
","null","<p></p>","null","","","","","","","","","","","","","","","","","","","","","","",""
"","do_trial","214","998191","0.0-116.0-0.0","""event"",""trial"",""time""
""fullscreenenter"",""0"",""4691""
","
","
","""event"",""trial"",""time""
""fullscreenenter"",""0"",""4691""
","
","304.70000000018626","","","","","","","","51","0,0,0","1","mountain","59","probe-143","0.2779478167733892","0.33417120319700644","0.6015703370547717","0","","","","","","","",""
"","html-keyboard-response","215","999194","0.0-116.0-1.0","""event"",""trial"",""time""
""fullscreenenter"",""0"",""4691""
","
","
","""event"",""trial"",""time""
""fullscreenenter"",""0"",""4691""
","
","null","<p></p>","null","","","","","","","","","","","","","","","","","","","","","","",""
"","do_trial","216","1004132","0.0-117.0-0.0","""event"",""trial"",""time""
""fullscreenenter"",""0"",""4691""
","
","
","""event"",""trial"",""time""
""fullscreenenter"",""0"",""4691""
","
","396","","","","","","","","51","0,0,1","1","mountain","60","probe-79","0.08442207533681982","0.3790691171246013","0.6804894784787558","1","","","","","","","",""
"","html-keyboard-response","217","1005138","0.0-117.0-1.0","""event"",""trial"",""time""
""fullscreenenter"",""0"",""4691""
","
","
","""event"",""trial"",""time""
""fullscreenenter"",""0"",""4691""
","
","null","<p></p>","null","","","","","","","","","","","","","","","","","","","","","","",""
"","do_trial","218","1010262","0.0-118.0-0.0","""event"",""trial"",""time""
""fullscreenenter"",""0"",""4691""
","
","
","""event"",""trial"",""time""
""fullscreenenter"",""0"",""4691""
","
","584.2999999998137","","","","","","","","51","0,0,1","1","mountain","61","probe-25","0.2218019608784011","0.42613241167801597","0.5135660828137304","1","","","","","","","",""
"","html-keyboard-response","219","1011268","0.0-118.0-1.0","""event"",""trial"",""time""
""fullscreenenter"",""0"",""4691""
","
","
","""event"",""trial"",""time""
""fullscreenenter"",""0"",""4691""
","
","null","<p></p>","null","","","","","","","","","","","","","","","","","","","","","","",""
"","do_trial","220","1016108","0.0-119.0-0.0","""event"",""trial"",""time""
""fullscreenenter"",""0"",""4691""
","
","
","""event"",""trial"",""time""
""fullscreenenter"",""0"",""4691""
","
","295.30000000074506","","","","","","","","51","1,0,0","1","mountain","62","probe-28","0.1917840181699914","0.35190394363007554","0.49024950135158424","0","","","","","","","",""
"","html-keyboard-response","221","1017114","0.0-119.0-1.0","""event"",""trial"",""time""
""fullscreenenter"",""0"",""4691""
","
","
","""event"",""trial"",""time""
""fullscreenenter"",""0"",""4691""
","
","null","<p></p>","null","","","","","","","","","","","","","","","","","","","","","","",""
"","do_trial","222","1022074","0.0-120.0-0.0","""event"",""trial"",""time""
""fullscreenenter"",""0"",""4691""
","
","
","""event"",""trial"",""time""
""fullscreenenter"",""0"",""4691""
","
","416.5","","","","","","","","51","0,0,0","1","mountain","63","probe-66","0.12197316370714903","0.4402175800777098","0.5374317353910233","0","","","","","","","",""
"","html-keyboard-response","223","1023078","0.0-120.0-1.0","""event"",""trial"",""time""
""fullscreenenter"",""0"",""4691""
","
","
","""event"",""trial"",""time""
""fullscreenenter"",""0"",""4691""
","
","null","<p></p>","null","","","","","","","","","","","","","","","","","","","","","","",""
"","do_trial","224","1028076","0.0-121.0-0.0","""event"",""trial"",""time""
""fullscreenenter"",""0"",""4691""
","
","
","""event"",""trial"",""time""
""fullscreenenter"",""0"",""4691""
","
","453.90000000037253","","","","","","","","51","0,0,1","1","mountain","64","probe-35","0.1299134257370264","0.4338962923134466","0.5672110361562999","1","","","","","","","",""
"","html-keyboard-response","225","1029082","0.0-121.0-1.0","""event"",""trial"",""time""
""fullscreenenter"",""0"",""4691""
","
","
","""event"",""trial"",""time""
""fullscreenenter"",""0"",""4691""
","
","null","<p></p>","null","","","","","","","","","","","","","","","","","","","","","","",""
"","do_trial","226","1033703","0.0-122.0-0.0","""event"",""trial"",""time""
""fullscreenenter"",""0"",""4691""
","
","
","""event"",""trial"",""time""
""fullscreenenter"",""0"",""4691""
","
","79.09999999962747","","","","","","","","51","0,0,0","1","mountain","65","probe-13","0.07054859222731501","0.37483240424118686","0.5550730774129853","0","","","","","","","",""
"","html-keyboard-response","227","1034708","0.0-122.0-1.0","""event"",""trial"",""time""
""fullscreenenter"",""0"",""4691""
","
","
","""event"",""trial"",""time""
""fullscreenenter"",""0"",""4691""
","
","null","<p></p>","null","","","","","","","","","","","","","","","","","","","","","","",""
"","do_trial","228","1039386","0.0-123.0-0.0","""event"",""trial"",""time""
""fullscreenenter"",""0"",""4691""
","
","
","""event"",""trial"",""time""
""fullscreenenter"",""0"",""4691""
","
","136.70000000018626","","","","","","","","51","0,1,0","1","mountain","66","probe-29","0.07655196510341565","0.21337284693328362","0.6082605623444071","0","","","","","","","",""
"","html-keyboard-response","229","1040391","0.0-123.0-1.0","""event"",""trial"",""time""
""fullscreenenter"",""0"",""4691""
","
","
","""event"",""trial"",""time""
""fullscreenenter"",""0"",""4691""
","
","null","<p></p>","null","","","","","","","","","","","","","","","","","","","","","","",""
"","do_trial","230","1045462","0.0-124.0-0.0","""event"",""trial"",""time""
""fullscreenenter"",""0"",""4691""
","
","
","""event"",""trial"",""time""
""fullscreenenter"",""0"",""4691""
","
","528.8999999994412","","","","","","","","51","0,1,1","1","mountain","67","probe-160","0.05388096191143221","0.33564188050118354","0.6355680021846001","1","","","","","","","",""
"","html-keyboard-response","231","1046466","0.0-124.0-1.0","""event"",""trial"",""time""
""fullscreenenter"",""0"",""4691""
","
","
","""event"",""trial"",""time""
""fullscreenenter"",""0"",""4691""
","
","null","<p></p>","null","","","","","","","","","","","","","","","","","","","","","","",""
"","do_trial","232","1051445","0.0-125.0-0.0","""event"",""trial"",""time""
""fullscreenenter"",""0"",""4691""
","
","
","""event"",""trial"",""time""
""fullscreenenter"",""0"",""4691""
","
","435.30000000074506","","","","","","","","51","0,0,1","1","mountain","68","probe-89","0.1297615979775968","0.17522180858836428","0.6087154467266862","1","","","","","","","",""
"","html-keyboard-response","233","1052450","0.0-125.0-1.0","""event"",""trial"",""time""
""fullscreenenter"",""0"",""4691""
","
","
","""event"",""trial"",""time""
""fullscreenenter"",""0"",""4691""
","
","null","<p></p>","null","","","","","","","","","","","","","","","","","","","","","","",""
"","do_trial","234","1057983","0.0-126.0-0.0","""event"",""trial"",""time""
""fullscreenenter"",""0"",""4691""
","
","
","""event"",""trial"",""time""
""fullscreenenter"",""0"",""4691""
","
","991.8999999994412","","","","","","","","51","0,1,0","1","mountain","69","probe-108","0.13258080569078204","0.22819365461532531","0.6424425489224456","0","","","","","","","",""
"","html-keyboard-response","235","1058989","0.0-126.0-1.0","""event"",""trial"",""time""
""fullscreenenter"",""0"",""4691""
","
","
","""event"",""trial"",""time""
""fullscreenenter"",""0"",""4691""
","
","null","<p></p>","null","","","","","","","","","","","","","","","","","","","","","","",""
"","do_bye","236","1060497","0.0-127.0-0.0","""event"",""trial"",""time""
""fullscreenenter"",""0"",""4691""
","
","
","""event"",""trial"",""time""
""fullscreenenter"",""0"",""4691""
","
","null","","","","","","","","null","","","","","","","","","","","","","","","","",""
"","break","237","1063156","0.0-127.0-1.0","""event"",""trial"",""time""
""fullscreenenter"",""0"",""4691""
","
","
","""event"",""trial"",""time""
""fullscreenenter"",""0"",""4691""
","
","2658","<div class='center'><p>Time to take a quick break! You have 2 minutes to rest, but you can move on sooner if you'd like.</p><p> Press the <b>space bar</b> to continue.</p></div>","32","","","","","","","","","","","","","","","","","","","","","","",""
"","do_travel","238","1072161","0.0-128.0-0.0","""event"",""trial"",""time""
""fullscreenenter"",""0"",""4691""
","
","
","""event"",""trial"",""time""
""fullscreenenter"",""0"",""4691""
","
","null","","","","","","","","null","","","","","","","","","","","","","","","","",""
"","do_welcome","239","1076166","0.0-128.0-1.0","""event"",""trial"",""time""
""fullscreenenter"",""0"",""4691""
","
","
","""event"",""trial"",""time""
""fullscreenenter"",""0"",""4691""
","
","null","","","","","","","","null","","","","","","","","","","","","","","","","",""
"","do_trial","240","1081269","0.0-129.0-0.0","""event"",""trial"",""time""
""fullscreenenter"",""0"",""4691""
","
","
","""event"",""trial"",""time""
""fullscreenenter"",""0"",""4691""
","
","558.0999999996275","","","","","","","","49","0,1,1","2","forest","70","probe-57","0.15921543439624444","0.2980732832030826","1","0","","","","","","","",""
"","html-keyboard-response","241","1082274","0.0-129.0-1.0","""event"",""trial"",""time""
""fullscreenenter"",""0"",""4691""
","
","
","""event"",""trial"",""time""
""fullscreenenter"",""0"",""4691""
","
","null","<p></p>","null","","","","","","","","","","","","","","","","","","","","","","",""
"","do_trial","242","1086957","0.0-130.0-0.0","""event"",""trial"",""time""
""fullscreenenter"",""0"",""4691""
","
","
","""event"",""trial"",""time""
""fullscreenenter"",""0"",""4691""
","
","142.09999999962747","","","","","","","","49","0,0,1","2","forest","71","probe-14","0.06149267100082646","0.2845868990856781","1","0","","","","","","","",""
"","html-keyboard-response","243","1087963","0.0-130.0-1.0","""event"",""trial"",""time""
""fullscreenenter"",""0"",""4691""
","
","
","""event"",""trial"",""time""
""fullscreenenter"",""0"",""4691""
","
","null","<p></p>","null","","","","","","","","","","","","","","","","","","","","","","",""
"","do_trial","244","1092890","0.0-131.0-0.0","""event"",""trial"",""time""
""fullscreenenter"",""0"",""4691""
","
","
","""event"",""trial"",""time""
""fullscreenenter"",""0"",""4691""
","
","382.79999999981374","","","","","","","","49","0,0,1","2","forest","72","probe-11","0.19962595273626668","0.3077816419846974","0.9233771542304645","0","","","","","","","",""
"","html-keyboard-response","245","1093896","0.0-131.0-1.0","""event"",""trial"",""time""
""fullscreenenter"",""0"",""4691""
","
","
","""event"",""trial"",""time""
""fullscreenenter"",""0"",""4691""
","
","null","<p></p>","null","","","","","","","","","","","","","","","","","","","","","","",""
"","do_trial","246","1098503","0.0-132.0-0.0","""event"",""trial"",""time""
""fullscreenenter"",""0"",""4691""
","
","
","""event"",""trial"",""time""
""fullscreenenter"",""0"",""4691""
","
","68","","","","","","","","49","0,0,0","2","forest","73","probe-205","0.08855680611050247","0.3946184422640739","0.754510729931102","0","","","","","","","",""
"","html-keyboard-response","247","1099505","0.0-132.0-1.0","""event"",""trial"",""time""
""fullscreenenter"",""0"",""4691""
","
","
","""event"",""trial"",""time""
""fullscreenenter"",""0"",""4691""
","
","null","<p></p>","null","","","","","","","","","","","","","","","","","","","","","","",""
"","do_trial","248","1104464","0.0-133.0-0.0","""event"",""trial"",""time""
""fullscreenenter"",""0"",""4691""
","
","
","""event"",""trial"",""time""
""fullscreenenter"",""0"",""4691""
","
","419.5","","","","","","","","49","0,0,1","2","forest","74","probe-78","0.06695757234560659","0.2864284674479594","0.6844762978746971","0","","","","","","","",""
"","html-keyboard-response","249","1105470","0.0-133.0-1.0","""event"",""trial"",""time""
""fullscreenenter"",""0"",""4691""
","
","
","""event"",""trial"",""time""
""fullscreenenter"",""0"",""4691""
","
","null","<p></p>","null","","","","","","","","","","","","","","","","","","","","","","",""
"","do_trial","250","1110525","0.0-134.0-0.0","""event"",""trial"",""time""
""fullscreenenter"",""0"",""4691""
","
","
","""event"",""trial"",""time""
""fullscreenenter"",""0"",""4691""
","
","511.20000000018626","","","","","","","","49","0,1,1","2","forest","75","probe-218","0.0895901270552389","0.3846443145184743","0.6861838166444924","0","","","","","","","",""
"","html-keyboard-response","251","1111531","0.0-134.0-1.0","""event"",""trial"",""time""
""fullscreenenter"",""0"",""4691""
","
","
","""event"",""trial"",""time""
""fullscreenenter"",""0"",""4691""
","
","null","<p></p>","null","","","","","","","","","","","","","","","","","","","","","","",""
"","do_trial","252","1116554","0.0-135.0-0.0","""event"",""trial"",""time""
""fullscreenenter"",""0"",""4691""
","
","
","""event"",""trial"",""time""
""fullscreenenter"",""0"",""4691""
","
","478.6000000005588","","","","","","","","49","0,1,1","2","forest","76","probe-212","0.14930175111078028","0.4004681446813708","0.6114771085054421","0","","","","","","","",""
"","html-keyboard-response","253","1117560","0.0-135.0-1.0","""event"",""trial"",""time""
""fullscreenenter"",""0"",""4691""
","
","
","""event"",""trial"",""time""
""fullscreenenter"",""0"",""4691""
","
","null","<p></p>","null","","","","","","","","","","","","","","","","","","","","","","",""
"","do_trial","254","1122506","0.0-136.0-0.0","""event"",""trial"",""time""
""fullscreenenter"",""0"",""4691""
","
","
","""event"",""trial"",""time""
""fullscreenenter"",""0"",""4691""
","
","402","","","","","","","","49","1,0,1","2","forest","77","probe-58","0.3658995848186269","0.38316104232032944","0.7659185435371072","1","","","","","","","",""
"","html-keyboard-response","255","1123510","0.0-136.0-1.0","""event"",""trial"",""time""
""fullscreenenter"",""0"",""4691""
","
","
","""event"",""trial"",""time""
""fullscreenenter"",""0"",""4691""
","
","null","<p></p>","null","","","","","","","","","","","","","","","","","","","","","","",""
"","do_trial","256","1128275","0.0-137.0-0.0","""event"",""trial"",""time""
""fullscreenenter"",""0"",""4691""
","
","
","""event"",""trial"",""time""
""fullscreenenter"",""0"",""4691""
","
","219.29999999981374","","","","","","","","49","0,0,1","2","forest","78","probe-170","0.23731405328232552","0.4144465609154227","0.705024689201124","0","","","","","","","",""
"","html-keyboard-response","257","1129280","0.0-137.0-1.0","""event"",""trial"",""time""
""fullscreenenter"",""0"",""4691""
","
","
","""event"",""trial"",""time""
""fullscreenenter"",""0"",""4691""
","
","null","<p></p>","null","","","","","","","","","","","","","","","","","","","","","","",""
"","do_trial","258","1134138","0.0-138.0-0.0","""event"",""trial"",""time""
""fullscreenenter"",""0"",""4691""
","
","
","""event"",""trial"",""time""
""fullscreenenter"",""0"",""4691""
","
","315.40000000037253","","","","","","","","49","0,1,0","2","forest","79","probe-203","0.20512913732025362","0.5091007952369618","0.5775896976245551","0","","","","","","","",""
"","html-keyboard-response","259","1135140","0.0-138.0-1.0","""event"",""trial"",""time""
""fullscreenenter"",""0"",""4691""
","
","
","""event"",""trial"",""time""
""fullscreenenter"",""0"",""4691""
","
","null","<p></p>","null","","","","","","","","","","","","","","","","","","","","","","",""
"","do_trial","260","1140053","0.0-139.0-0.0","""event"",""trial"",""time""
""fullscreenenter"",""0"",""4691""
","
","
","""event"",""trial"",""time""
""fullscreenenter"",""0"",""4691""
","
","369.30000000074506","","","","","","","","50","0,1,0","2","forest","80","probe-129","0.1324912113844735","0.3856269553153659","0.36353023804467144","1","","","","","","","",""
"","html-keyboard-response","261","1141059","0.0-139.0-1.0","""event"",""trial"",""time""
""fullscreenenter"",""0"",""4691""
","
","
","""event"",""trial"",""time""
""fullscreenenter"",""0"",""4691""
","
","null","<p></p>","null","","","","","","","","","","","","","","","","","","","","","","",""
