success,trial_type,trial_index,time_elapsed,internal_node_id,interactions,blur_events,focus_events,fullscreenenter_events,fullscreenexit_events,rt,stimulus,key_press,subject_id,participant_id,age,gender,prompt,response,choice_outcomes,context_n,context_img_id,trial_n,probe_img_id,pR_red,pR_white,pR_black,outcome,contextArray_ind,validImageProbes,invalidImageProbes,pRew_Red,pRew_White,pRew_Black,availableForMemProbe,choice_blocks
TRUE,fullscreen,0,6372,0.0-0.0,"""event"",""trial"",""time""
""fullscreenenter"",""0"",""5390""
","
","
","""event"",""trial"",""time""
""fullscreenenter"",""0"",""5390""
","
",,,,,,,,,,,,,,,,,,,,,,,,,,
,pavlovia,1,6379,0.0-1.0,"""event"",""trial"",""time""
""fullscreenenter"",""0"",""5390""
","
","
","""event"",""trial"",""time""
""fullscreenenter"",""0"",""5390""
","
",,,,,,,,,,,,,,,,,,,,,,,,,,
,instruc1,2,51497,0.0-2.0,"""event"",""trial"",""time""
""fullscreenenter"",""0"",""5390""
","
","
","""event"",""trial"",""time""
""fullscreenenter"",""0"",""5390""
","
",null,run_exp/static/audio/clip_1_welcome.m4a,null,318,363,18,Female,"<div class='center'><p>Welcome! This is the first part of the study. It will last ~30 minutes. In part 1 and part 2 of the study, you are the head captain of a pirate ship traveling around the world to different islands. You will play a few different games throughout these two parts. Here is an overview of them:</p><br><p>Part 1 (today)</p><p>1. Instructions, practice game, and quiz</p><p>2. Pick a pirate game on 6 different islands</p><br><p>Part 2 (tomorrow)</p><p>3. Pick a pirate game and memory game</p><p>4. Where did you see this ship? </p></div>",,,,,,,,,,,,,,,,,,
,html-keyboard-response,3,51681,0.0-3.0,"""event"",""trial"",""time""
""fullscreenenter"",""0"",""5390""
","
","
","""event"",""trial"",""time""
""fullscreenenter"",""0"",""5390""
","
",180,"<div class='center'><p>Welcome! This is the first part of the study. It will last ~30 minutes. In part 1 and part 2 of the study, you are the head captain of a pirate ship traveling around the world to different islands. You will play a few different games throughout these two parts. Here is an overview of them:</p><br><p>Part 1 (today)</p><p>1. Instructions, practice game, and quiz</p><p>2. Pick a pirate game on 6 different islands</p><br><p>Part 2 (tomorrow)</p><p>3. Pick a pirate game and memory game</p><p>4. Where did you see this ship? </p><p><b>[Press the space bar to continue]</b></p></div>",32,,,,,,,,,,,,,,,,,,,,,,,
,instruc2,4,56995,0.0-4.0,"""event"",""trial"",""time""
""fullscreenenter"",""0"",""5390""
","
","
","""event"",""trial"",""time""
""fullscreenenter"",""0"",""5390""
","
",null,run_exp/static/audio/clip_2_different_places.m4a,null,,,,,"<div class='center'><p>Today, you’ll visit these 6 islands on your journey. You'll be able to see these islands from your ship.</p><p><img src='run_exp/static/images/contexts/all_contexts.png' height='500'></p></div>",,,,,,,,,,,,,,,,,,
,html-keyboard-response,5,67331,0.0-5.0,"""event"",""trial"",""time""
""fullscreenenter"",""0"",""5390""
","
","
","""event"",""trial"",""time""
""fullscreenenter"",""0"",""5390""
","
",10332.5,"<div class='center'><p>Today, you’ll visit these 6 islands on your journey. You'll be able to see these islands from your ship.</p><p><img src='run_exp/static/images/contexts/all_contexts.png' height='500'></p><p><b>[Press the space bar to continue]</b></p></div>",32,,,,,,,,,,,,,,,,,,,,,,,
,instruc3,6,77005,0.0-6.0,"""event"",""trial"",""time""
""fullscreenenter"",""0"",""5390""
","
","
","""event"",""trial"",""time""
""fullscreenenter"",""0"",""5390""
","
",null,run_exp/static/audio/clip_3_goal_of_game_1.m4a,null,,,,,"<div class='center'><p> The pirates on your ship will rob other ships as they leave the island.</p> These ships have just sold their goods to the islanders, so they will be filled with lots and lots of gold.</p><p><img src='run_exp/static/images/tutorial/ship_center.png' height='400'></p></div>",,,,,,,,,,,,,,,,,,
,html-keyboard-response,7,84422,0.0-7.0,"""event"",""trial"",""time""
""fullscreenenter"",""0"",""5390""
","
","
","""event"",""trial"",""time""
""fullscreenenter"",""0"",""5390""
","
",7414.7,"<div class='center'><p> The pirates on your ship will rob other ships as they leave the island.</p> These ships have just sold their goods to the islanders, so they will be filled with lots and lots of gold.</p><p><img src='run_exp/static/images/tutorial/ship_center.png' height='400'></p><p><b>[Press the space bar to continue]</b></p></div>",32,,,,,,,,,,,,,,,,,,,,,,,
,instruc4,8,112425,0.0-8.0,"""event"",""trial"",""time""
""fullscreenenter"",""0"",""5390""
","
","
","""event"",""trial"",""time""
""fullscreenenter"",""0"",""5390""
","
",null,run_exp/static/audio/clip_4_goal_of_game_2.m4a,null,,,,,"<div class='center'><p>As the head captain, you do not have to rob any ships yourself. Another pirate will be doing the robbing for you. First, you will choose a pirate to rob the next ship.</p><p><img src='run_exp/static/images/tutorial/pirates_all_crop.png' height='200'></p><p>Then, you'll see if the pirate successfully robbed the ship of their gold. If they were successful, then you'll get a stack of gold coins like this:</p><p><img src='run_exp/static/images/tutorial/reward.png' height='150'></p><p> If they were <b>not</b> successful, then you'll get no gold coins, and you'll see a big red x like this: </p><p><img src='run_exp/static/images/tutorial/reward_no.png' height='150'></p><p> How much bonus money you make is based on how many gold coins you collect.</p><div>",,,,,,,,,,,,,,,,,,
,html-keyboard-response,9,113677,0.0-9.0,"""event"",""trial"",""time""
""fullscreenenter"",""0"",""5390""
","
","
","""event"",""trial"",""time""
""fullscreenenter"",""0"",""5390""
","
",1247.2,"<div class='center'><p>As the head captain, you do not have to rob any ships yourself. Another pirate will be doing the robbing for you. First, you will choose a pirate to rob the next ship.</p><p><img src='run_exp/static/images/tutorial/pirates_all_crop.png' height='200'></p><p>Then, you'll see if the pirate successfully robbed the ship of their gold. If they were successful, then you'll get a stack of gold coins like this:</p><p><img src='run_exp/static/images/tutorial/reward.png' height='150'></p><p> If they were <b>not</b> successful, then you'll get no gold coins, and you'll see a big red x like this: </p><p><img src='run_exp/static/images/tutorial/reward_no.png' height='150'></p><p> How much bonus money you make is based on how many gold coins you collect.</p<p><b>[Press the space bar to continue]</b></p></div>",32,,,,,,,,,,,,,,,,,,,,,,,
,instruc5,10,137514,0.0-10.0,"""event"",""trial"",""time""
""fullscreenenter"",""0"",""5390""
","
","
","""event"",""trial"",""time""
""fullscreenenter"",""0"",""5390""
","
",23833.2,run_exp/static/audio/clip_5_probabilistic.m4a,49,,,,,"<div class='center'><p>Even the most skilled pirate can not rob EVERY ship.</p><p> Some ships will have very strong protections against pirate attacks.</p><p> Blue beard, here, is very, very good at robbing ships, but he won't be successful every time he tries to rob one.</p><p> You can press the <b>‘1’</b> key on the keyboard to choose him.</p><p> Try choosing him 10 times to see how often he succeeds at robbing a ship. </p><p><img src='run_exp/static/images/tutorial/blue.png' height='500'></p></div>",,,,,,,,,,,,,,,,,,
,html-keyboard-response,11,139025,0.0-11.0,"""event"",""trial"",""time""
""fullscreenenter"",""0"",""5390""
","
","
","""event"",""trial"",""time""
""fullscreenenter"",""0"",""5390""
","
",null,<div class='center'><p><img src='run_exp/static/images/tutorial/blue_win.png' height='500'></p></div>,null,,,,,,,,,,,,,,,,,,,,,,,
,html-keyboard-response,12,139199,0.0-12.0,"""event"",""trial"",""time""
""fullscreenenter"",""0"",""5390""
","
","
","""event"",""trial"",""time""
""fullscreenenter"",""0"",""5390""
","
",172.6,<div class='center'><img src='run_exp/static/images/tutorial/blue.png' height='500'></p></div>,49,,,,,,,,,,,,,,,,,,,,,,,
,html-keyboard-response,13,140710,0.0-13.0,"""event"",""trial"",""time""
""fullscreenenter"",""0"",""5390""
","
","
","""event"",""trial"",""time""
""fullscreenenter"",""0"",""5390""
","
",null,<div class='center'><p><img src='run_exp/static/images/tutorial/blue_win.png' height='500'></p></div>,null,,,,,,,,,,,,,,,,,,,,,,,
,html-keyboard-response,14,141807,0.0-14.0,"""event"",""trial"",""time""
""fullscreenenter"",""0"",""5390""
","
","
","""event"",""trial"",""time""
""fullscreenenter"",""0"",""5390""
","
",1095.4,<div class='center'><img src='run_exp/static/images/tutorial/blue.png' height='500'></p></div>,49,,,,,,,,,,,,,,,,,,,,,,,
,html-keyboard-response,15,143322,0.0-15.0,"""event"",""trial"",""time""
""fullscreenenter"",""0"",""5390""
","
","
","""event"",""trial"",""time""
""fullscreenenter"",""0"",""5390""
","
",null,<div class='center'><p><img src='run_exp/static/images/tutorial/blue_win.png' height='500'></p></div>,null,,,,,,,,,,,,,,,,,,,,,,,
,html-keyboard-response,16,144278,0.0-16.0,"""event"",""trial"",""time""
""fullscreenenter"",""0"",""5390""
","
","
","""event"",""trial"",""time""
""fullscreenenter"",""0"",""5390""
","
",954.4,<div class='center'><img src='run_exp/static/images/tutorial/blue.png' height='500'></p></div>,49,,,,,,,,,,,,,,,,,,,,,,,
,html-keyboard-response,17,145785,0.0-17.0,"""event"",""trial"",""time""
""fullscreenenter"",""0"",""5390""
","
","
","""event"",""trial"",""time""
""fullscreenenter"",""0"",""5390""
","
",null,<div class='center'><p><img src='run_exp/static/images/tutorial/blue_no_win.png' height='500'></p></div>,null,,,,,,,,,,,,,,,,,,,,,,,
,html-keyboard-response,18,146283,0.0-18.0,"""event"",""trial"",""time""
""fullscreenenter"",""0"",""5390""
","
","
","""event"",""trial"",""time""
""fullscreenenter"",""0"",""5390""
","
",495.8,<div class='center'><img src='run_exp/static/images/tutorial/blue.png' height='500'></p></div>,49,,,,,,,,,,,,,,,,,,,,,,,
,html-keyboard-response,19,147792,0.0-19.0,"""event"",""trial"",""time""
""fullscreenenter"",""0"",""5390""
","
","
","""event"",""trial"",""time""
""fullscreenenter"",""0"",""5390""
","
",null,<div class='center'><p><img src='run_exp/static/images/tutorial/blue_win.png' height='500'></p></div>,null,,,,,,,,,,,,,,,,,,,,,,,
,html-keyboard-response,20,149446,0.0-20.0,"""event"",""trial"",""time""
""fullscreenenter"",""0"",""5390""
","
","
","""event"",""trial"",""time""
""fullscreenenter"",""0"",""5390""
","
",1653.5,<div class='center'><img src='run_exp/static/images/tutorial/blue.png' height='500'></p></div>,49,,,,,,,,,,,,,,,,,,,,,,,
,html-keyboard-response,21,150949,0.0-21.0,"""event"",""trial"",""time""
""fullscreenenter"",""0"",""5390""
","
","
","""event"",""trial"",""time""
""fullscreenenter"",""0"",""5390""
","
",null,<div class='center'><p><img src='run_exp/static/images/tutorial/blue_win.png' height='500'></p></div>,null,,,,,,,,,,,,,,,,,,,,,,,
,html-keyboard-response,22,151412,0.0-22.0,"""event"",""trial"",""time""
""fullscreenenter"",""0"",""5390""
","
","
","""event"",""trial"",""time""
""fullscreenenter"",""0"",""5390""
","
",461.5,<div class='center'><img src='run_exp/static/images/tutorial/blue.png' height='500'></p></div>,49,,,,,,,,,,,,,,,,,,,,,,,
,html-keyboard-response,23,152925,0.0-23.0,"""event"",""trial"",""time""
""fullscreenenter"",""0"",""5390""
","
","
","""event"",""trial"",""time""
""fullscreenenter"",""0"",""5390""
","
",null,<div class='center'><p><img src='run_exp/static/images/tutorial/blue_win.png' height='500'></p></div>,null,,,,,,,,,,,,,,,,,,,,,,,
,html-keyboard-response,24,153301,0.0-24.0,"""event"",""trial"",""time""
""fullscreenenter"",""0"",""5390""
","
","
","""event"",""trial"",""time""
""fullscreenenter"",""0"",""5390""
","
",374.6,<div class='center'><img src='run_exp/static/images/tutorial/blue.png' height='500'></p></div>,49,,,,,,,,,,,,,,,,,,,,,,,
,html-keyboard-response,25,154817,0.0-25.0,"""event"",""trial"",""time""
""fullscreenenter"",""0"",""5390""
","
","
","""event"",""trial"",""time""
""fullscreenenter"",""0"",""5390""
","
",null,<div class='center'><p><img src='run_exp/static/images/tutorial/blue_no_win.png' height='500'></p></div>,null,,,,,,,,,,,,,,,,,,,,,,,
,html-keyboard-response,26,155874,0.0-26.0,"""event"",""trial"",""time""
""fullscreenenter"",""0"",""5390""
","
","
","""event"",""trial"",""time""
""fullscreenenter"",""0"",""5390""
","
",1054.9,<div class='center'><img src='run_exp/static/images/tutorial/blue.png' height='500'></p></div>,49,,,,,,,,,,,,,,,,,,,,,,,
,html-keyboard-response,27,157377,0.0-27.0,"""event"",""trial"",""time""
""fullscreenenter"",""0"",""5390""
","
","
","""event"",""trial"",""time""
""fullscreenenter"",""0"",""5390""
","
",null,<div class='center'><p><img src='run_exp/static/images/tutorial/blue_win.png' height='500'></p></div>,null,,,,,,,,,,,,,,,,,,,,,,,
,html-keyboard-response,28,157888,0.0-28.0,"""event"",""trial"",""time""
""fullscreenenter"",""0"",""5390""
","
","
","""event"",""trial"",""time""
""fullscreenenter"",""0"",""5390""
","
",508.8,<div class='center'><img src='run_exp/static/images/tutorial/blue.png' height='500'></p></div>,49,,,,,,,,,,,,,,,,,,,,,,,
,html-keyboard-response,29,159404,0.0-29.0,"""event"",""trial"",""time""
""fullscreenenter"",""0"",""5390""
","
","
","""event"",""trial"",""time""
""fullscreenenter"",""0"",""5390""
","
",null,<div class='center'><p><img src='run_exp/static/images/tutorial/blue_win.png' height='500'></p></div>,null,,,,,,,,,,,,,,,,,,,,,,,
,instruc6,30,164804,0.0-30.0,"""event"",""trial"",""time""
""fullscreenenter"",""0"",""5390""
","
","
","""event"",""trial"",""time""
""fullscreenenter"",""0"",""5390""
","
",null,run_exp/static/audio/clip_6_blue_beard_outcome.m4a,null,,,,,"<div class='center'><p> See, he succeeded in robbing the ships most of the time but not every time. </p></div>",,,,,,,,,,,,,,,,,,
,html-keyboard-response,31,166074,0.0-31.0,"""event"",""trial"",""time""
""fullscreenenter"",""0"",""5390""
","
","
","""event"",""trial"",""time""
""fullscreenenter"",""0"",""5390""
","
",1268.3,"<div class='center'><p> See, he succeeded in robbing the ships most of the time but not every time. </p><p><b>[Press the space bar to continue]</b></p></div>",32,,,,,,,,,,,,,,,,,,,,,,,
,audio-keyboard-response,32,183636,0.0-32.0,"""event"",""trial"",""time""
""fullscreenenter"",""0"",""5390""
","
","
","""event"",""trial"",""time""
""fullscreenenter"",""0"",""5390""
","
",17560.2,run_exp/static/audio/clip_7_pick_pirate.m4a,50,,,,,,,,,,,,,,,,,,,,,,,
,audio-keyboard-response,33,188140,0.0-33.0-0.0,"""event"",""trial"",""time""
""fullscreenenter"",""0"",""5390""
","
","
","""event"",""trial"",""time""
""fullscreenenter"",""0"",""5390""
","
",4501.2,run_exp/static/audio/clip_8_chosen_pirate_win.m4a,32,,,,,,,,,,,,,,,,,,,,,,,
,audio-keyboard-response,34,190786,0.0-33.0-1.0,"""event"",""trial"",""time""
""fullscreenenter"",""0"",""5390""
","
","
","""event"",""trial"",""time""
""fullscreenenter"",""0"",""5390""
","
",2642.2,run_exp/static/audio/clip_9_pick_a_pirate_again.m4a,49,,,,,,,,,,,,,,,,,,,,,,,
,audio-keyboard-response,35,195594,0.0-34.0-0.0,"""event"",""trial"",""time""
""fullscreenenter"",""0"",""5390""
","
","
","""event"",""trial"",""time""
""fullscreenenter"",""0"",""5390""
","
",4803.4,run_exp/static/audio/clip_10_chosen_pirate_loss.m4a,32,,,,,,,,,,,,,,,,,,,,,,,
,instruc9,36,201084,0.0-35.0-0.0,"""event"",""trial"",""time""
""fullscreenenter"",""0"",""5390""
","
","
","""event"",""trial"",""time""
""fullscreenenter"",""0"",""5390""
","
",null,run_exp/static/audio/clip_11_time_out.m4a,null,,,,,"<div class='center'><p>If you don’t make your choice fast enough, you’ll have to wait a few seconds before you can make another one. </p><p><img src='run_exp/static/images/miscellaneous/hurry_up.png' height='500'></p></div>",,,,,,,,,,,,,,,,,,
,html-keyboard-response,37,202264,0.0-35.0-1.0,"""event"",""trial"",""time""
""fullscreenenter"",""0"",""5390""
","
","
","""event"",""trial"",""time""
""fullscreenenter"",""0"",""5390""
","
",1177.4,"<div class='center'><p>If you don’t make your choice fast enough, you’ll have to wait a few seconds before you can make another one. </p><p><img src='run_exp/static/images/miscellaneous/hurry_up.png' height='500'></p><p><b>[Press the space bar to continue]</b></p></div>",32,,,,,,,,,,,,,,,,,,,,,,,
,instruc10,38,241364,0.0-35.0-2.0,"""event"",""trial"",""time""
""fullscreenenter"",""0"",""5390""
","
","
","""event"",""trial"",""time""
""fullscreenenter"",""0"",""5390""
","
",null,run_exp/static/audio/clip_12_probe.m4a,null,,,,,"<div class='center'><p>Once you've chosen a pirate, you’ll be shown the ship they are robbing. You will never rob the same ship twice. Ships can be told apart from one another by the image on them. These are the goods that they sell. See, this ship has a travel mug on it. </p><p> You’ll have to remember which island you saw each ship on. You will win more gold coins and hence more bonus money if you remember correctly! To help you remember, you can imagine a story. For example, here, you could imagine a mug full of water in the desert. Or, as another example, if on the forest island, your pirate robbed a ship with an apple on it, you could imagine an apple falling from a tree in the forest. </p><p><img src='run_exp/static/images/tutorial/example_probe.png' height='500'></p></div>",,,,,,,,,,,,,,,,,,
,html-keyboard-response,39,287781,0.0-35.0-3.0,"""event"",""trial"",""time""
""fullscreenenter"",""0"",""5390""
","
","
","""event"",""trial"",""time""
""fullscreenenter"",""0"",""5390""
","
",46413.6,"<div class='center'><p>Once you've chosen a pirate, you’ll be shown the ship they are robbing. You will never rob the same ship twice. Ships can be told apart from one another by the image on them. These are the goods that they sell. See, this ship has a travel mug on it. </p><p> You’ll have to remember which island you saw each ship on. You will win more gold coins and hence more bonus money if you remember correctly! To help you remember, you can imagine a story. For example, here, you could imagine a mug full of water in the desert. Or, as another example, if on the forest island, your pirate robbed a ship with an apple on it, you could imagine an apple falling from a tree in the forest. </p><p><img src='run_exp/static/images/tutorial/example_probe.png' height='500'></p><p><b>[Press the space bar to continue]</b></p></div>",32,,,,,,,,,,,,,,,,,,,,,,,
,instruc11,40,304194,0.0-35.0-4.0,"""event"",""trial"",""time""
""fullscreenenter"",""0"",""5390""
","
","
","""event"",""trial"",""time""
""fullscreenenter"",""0"",""5390""
","
",null,run_exp/static/audio/clip_13_changepoint.m4a,null,,,,,"<div class='center'><p>How successful a pirate is at robbing ships will depend on the island you’re on.</p><p> A pirate may have visited this island many times before and gained a lot of practice robbing ships there.</p><p>So, they’re more likely to be successful than a pirate who has never visited the island before.</p></div>",,,,,,,,,,,,,,,,,,
,html-keyboard-response,41,305975,0.0-35.0-5.0,"""event"",""trial"",""time""
""fullscreenenter"",""0"",""5390""
","
","
","""event"",""trial"",""time""
""fullscreenenter"",""0"",""5390""
","
",1779.3,"<div class='center'><p>How successful a pirate is at robbing ships will depend on the island you’re on.</p><p> A pirate may have visited this island many times before and gained a lot of practice robbing ships there.</p><p>So, they’re more likely to be successful than a pirate who has never visited the island before.</p><p><b>[Press the space bar to continue]</b></p></div>",32,,,,,,,,,,,,,,,,,,,,,,,
,instruc12,42,347074,0.0-35.0-6.0,"""event"",""trial"",""time""
""fullscreenenter"",""0"",""5390""
","
","
","""event"",""trial"",""time""
""fullscreenenter"",""0"",""5390""
","
",null,run_exp/static/audio/clip_14_drift.m4a,null,,,,,"<div class='center'><p>How successful a pirate is at robbing ships can also change over the time spent on the island. </p><p> Ships may hear from islanders about the pirates coming and will improve their protections against the attack. This may make it harder to rob them.</p><p> Ships may also become lazy and weaken the strength of their protections. This may make it easier to rob them.</p><br><p>Things are always changing on the high seas! So, try your best to pay attention!</p><p><img src='run_exp/static/images/tutorial/contingency.png' height='500'></p></div>",,,,,,,,,,,,,,,,,,
,html-keyboard-response,43,373906,0.0-35.0-7.0,"""event"",""trial"",""time""
""fullscreenenter"",""0"",""5390""
","
","
","""event"",""trial"",""time""
""fullscreenenter"",""0"",""5390""
","
",26829.2,"<div class='center'><p>How successful a pirate is at robbing ships can also change over the time spent on the island. </p><p> Ships may hear from islanders about the pirates coming and will improve their protections against the attack. This may make it harder to rob them.</p><p> Ships may also become lazy and weaken the strength of their protections. This may make it easier to rob them.</p><br><p>Things are always changing on the high seas! So, try your best to pay attention!</p><p><img src='run_exp/static/images/tutorial/contingency.png' height='500'></p><p><b>[Press the space bar to continue]</b></p></div>",32,,,,,,,,,,,,,,,,,,,,,,,
,instruc13,44,409088,0.0-35.0-8.0,"""event"",""trial"",""time""
""fullscreenenter"",""0"",""5390""
","
","
","""event"",""trial"",""time""
""fullscreenenter"",""0"",""5390""
","
",null,run_exp/static/audio/clip_15_summary.m4a,null,,,,,"<div class='center'><p>Let's go over the instructions quickly again. You have two important things to do: </p><b><p> 1. Pick the pirate who is the best at robbing ships on the current island. </p></b><b><p> 2. Remember on which island a ship was robbed.</p> </b><p>The amount of bonus money you can win depends on both.</p><p><br><p>Let’s try a practice game. The game will start by showing you the pirates. First, pick a pirate using the <b> 1, 2, 3 </b> keys on your keyboard. When you are shown a ship, try to remember which island you’re on by making up a story.</p><p>This is just a practice game, so you’re not playing for money. </p><p> Good luck! This game will be very difficult but try your best!</p></div>",,,,,,,,,,,,,,,,,,
,html-keyboard-response,45,440540,0.0-35.0-9.0,"""event"",""trial"",""time""
""fullscreenenter"",""0"",""5390""
","
","
","""event"",""trial"",""time""
""fullscreenenter"",""0"",""5390""
","
",31449.1,"<div class='center'><p>Let's go over the instructions quickly again. You have two important things to do: </p><b><p> 1. Pick the pirate who is the best at robbing ships on the current island. </p></b><b><p> 2. Remember on which island a ship was robbed.</p> </b><p>The amount of bonus money you can win depends on both.</p><p><br><p>Let’s try a practice game. The game will start by showing you the pirates. First, pick a pirate using the <b> 1, 2, 3 </b> keys on your keyboard. When you are shown a ship, try to remember which island you’re on by making up a story.</p><p>This is just a practice game, so you’re not playing for money. </p><p> Good luck! This game will be very difficult but try your best!</p><p><b>[Press the space bar to continue]</b></p></div>",32,,,,,,,,,,,,,,,,,,,,,,,
,do_welcome,46,444562,0.0-35.0-10.0,"""event"",""trial"",""time""
""fullscreenenter"",""0"",""5390""
","
","
","""event"",""trial"",""time""
""fullscreenenter"",""0"",""5390""
","
",null,,,,,,,,null,,,,,,,,,,,,,,,,,
,do_trial,47,451077,0.0-35.0-11.0,"""event"",""trial"",""time""
""fullscreenenter"",""0"",""5390""
","
","
","""event"",""trial"",""time""
""fullscreenenter"",""0"",""5390""
","
",1993.4,,,,,,,,49,"1,0,0",,,,,,,,,,,,,,,,
,html-keyboard-response,48,452081,0.0-36.0-0.0,"""event"",""trial"",""time""
""fullscreenenter"",""0"",""5390""
","
","
","""event"",""trial"",""time""
""fullscreenenter"",""0"",""5390""
","
",null,<p></p>,null,,,,,,,,,,,,,,,,,,,,,,,
,do_trial,49,458661,0.0-36.0-1.0,"""event"",""trial"",""time""
""fullscreenenter"",""0"",""5390""
","
","
","""event"",""trial"",""time""
""fullscreenenter"",""0"",""5390""
","
",2063.7,,,,,,,,49,"1,1,0",,,,,,,,,,,,,,,,
,html-keyboard-response,50,459670,0.0-37.0-0.0,"""event"",""trial"",""time""
""fullscreenenter"",""0"",""5390""
","
","
","""event"",""trial"",""time""
""fullscreenenter"",""0"",""5390""
","
",null,<p></p>,null,,,,,,,,,,,,,,,,,,,,,,,
,do_trial,51,466480,0.0-37.0-1.0,"""event"",""trial"",""time""
""fullscreenenter"",""0"",""5390""
","
","
","""event"",""trial"",""time""
""fullscreenenter"",""0"",""5390""
","
",2291,,,,,,,,49,"1,0,1",,,,,,,,,,,,,,,,
,html-keyboard-response,52,467485,0.0-38.0-0.0,"""event"",""trial"",""time""
""fullscreenenter"",""0"",""5390""
","
","
","""event"",""trial"",""time""
""fullscreenenter"",""0"",""5390""
","
",null,<p></p>,null,,,,,,,,,,,,,,,,,,,,,,,
,do_trial,53,475006,0.0-38.0-1.0,"""event"",""trial"",""time""
""fullscreenenter"",""0"",""5390""
","
","
","""event"",""trial"",""time""
""fullscreenenter"",""0"",""5390""
","
",2994.6,,,,,,,,49,"0,1,0",,,,,,,,,,,,,,,,
,html-keyboard-response,54,476012,0.0-39.0-0.0,"""event"",""trial"",""time""
""fullscreenenter"",""0"",""5390""
","
","
","""event"",""trial"",""time""
""fullscreenenter"",""0"",""5390""
","
",null,<p></p>,null,,,,,,,,,,,,,,,,,,,,,,,
,do_trial,55,482040,0.0-39.0-1.0,"""event"",""trial"",""time""
""fullscreenenter"",""0"",""5390""
","
","
","""event"",""trial"",""time""
""fullscreenenter"",""0"",""5390""
","
",null,,,,,,,,null,"1,0,0",,,,,,,,,,,,,,,,
,html-keyboard-response,56,483045,0.0-40.0-0.0,"""event"",""trial"",""time""
""fullscreenenter"",""0"",""5390""
","
","
","""event"",""trial"",""time""
""fullscreenenter"",""0"",""5390""
","
",null,<p></p>,null,,,,,,,,,,,,,,,,,,,,,,,
,do_trial,57,488257,0.0-40.0-1.0,"""event"",""trial"",""time""
""fullscreenenter"",""0"",""5390""
","
","
","""event"",""trial"",""time""
""fullscreenenter"",""0"",""5390""
","
",700.7,,,,,,,,51,"1,0,0",,,,,,,,,,,,,,,,
,do_bye,58,489778,0.0-41.0-0.0,"""event"",""trial"",""time""
""fullscreenenter"",""0"",""5390""
","
","
","""event"",""trial"",""time""
""fullscreenenter"",""0"",""5390""
","
",null,,,,,,,,null,,,,,,,,,,,,,,,,,
,do_travel,59,498789,0.0-41.0-1.0,"""event"",""trial"",""time""
""fullscreenenter"",""0"",""5390""
","
","
","""event"",""trial"",""time""
""fullscreenenter"",""0"",""5390""
","
",null,,,,,,,,null,,,,,,,,,,,,,,,,,
,do_welcome,60,502802,0.0-41.0-2.0,"""event"",""trial"",""time""
""fullscreenenter"",""0"",""5390""
","
","
","""event"",""trial"",""time""
""fullscreenenter"",""0"",""5390""
","
",null,,,,,,,,null,,,,,,,,,,,,,,,,,
,do_trial,61,508663,0.0-41.0-3.0,"""event"",""trial"",""time""
""fullscreenenter"",""0"",""5390""
","
","
","""event"",""trial"",""time""
""fullscreenenter"",""0"",""5390""
","
",1351.9,,,,,,,,50,"1,0,0",,,,,,,,,,,,,,,,
,html-keyboard-response,62,509681,0.0-42.0-0.0,"""event"",""trial"",""time""
""fullscreenenter"",""0"",""5390""
","
","
","""event"",""trial"",""time""
""fullscreenenter"",""0"",""5390""
","
",null,<p></p>,null,,,,,,,,,,,,,,,,,,,,,,,
,do_trial,63,515143,0.0-42.0-1.0,"""event"",""trial"",""time""
""fullscreenenter"",""0"",""5390""
","
","
","""event"",""trial"",""time""
""fullscreenenter"",""0"",""5390""
","
",949.6,,,,,,,,51,"1,0,1",,,,,,,,,,,,,,,,
,html-keyboard-response,64,516152,0.0-43.0-0.0,"""event"",""trial"",""time""
""fullscreenenter"",""0"",""5390""
","
","
","""event"",""trial"",""time""
""fullscreenenter"",""0"",""5390""
","
",null,<p></p>,null,,,,,,,,,,,,,,,,,,,,,,,
,do_trial,65,521833,0.0-43.0-1.0,"""event"",""trial"",""time""
""fullscreenenter"",""0"",""5390""
","
","
","""event"",""trial"",""time""
""fullscreenenter"",""0"",""5390""
","
",1169.1,,,,,,,,51,"1,1,0",,,,,,,,,,,,,,,,
,html-keyboard-response,66,522849,0.0-44.0-0.0,"""event"",""trial"",""time""
""fullscreenenter"",""0"",""5390""
","
","
","""event"",""trial"",""time""
""fullscreenenter"",""0"",""5390""
","
",null,<p></p>,null,,,,,,,,,,,,,,,,,,,,,,,
,do_trial,67,528369,0.0-44.0-1.0,"""event"",""trial"",""time""
""fullscreenenter"",""0"",""5390""
","
","
","""event"",""trial"",""time""
""fullscreenenter"",""0"",""5390""
","
",996.3,,,,,,,,49,"0,0,1",,,,,,,,,,,,,,,,
,html-keyboard-response,68,529378,0.0-45.0-0.0,"""event"",""trial"",""time""
""fullscreenenter"",""0"",""5390""
","
","
","""event"",""trial"",""time""
""fullscreenenter"",""0"",""5390""
","
",null,<p></p>,null,,,,,,,,,,,,,,,,,,,,,,,
,do_trial,69,535696,0.0-45.0-1.0,"""event"",""trial"",""time""
""fullscreenenter"",""0"",""5390""
","
","
","""event"",""trial"",""time""
""fullscreenenter"",""0"",""5390""
","
",1809.6,,,,,,,,50,"1,0,1",,,,,,,,,,,,,,,,
,html-keyboard-response,70,540352,0.0-46.0-0.0,"""event"",""trial"",""time""
""fullscreenenter"",""0"",""5390""
","
","
","""event"",""trial"",""time""
""fullscreenenter"",""0"",""5390""
","
",4652.3,<div class='center'><p><img src='run_exp/static/images/tutorial/prac_best_pirate.png'  height='500'></p></div>,50,,,,,,,,,,,,,,,,,,,,,,,
,html-keyboard-response,71,545182,0.0-47.0-0.0,"""event"",""trial"",""time""
""fullscreenenter"",""0"",""5390""
","
","
","""event"",""trial"",""time""
""fullscreenenter"",""0"",""5390""
","
",4828.2,<div class='center'><p>That's incorrect! Red beard was the best.</p><p><b>[Press the space bar to continue]</b></p></div>,32,,,,,,,,,,,,,,,,,,,,,,,
,html-keyboard-response,72,547696,0.0-47.0-1.0,"""event"",""trial"",""time""
""fullscreenenter"",""0"",""5390""
","
","
","""event"",""trial"",""time""
""fullscreenenter"",""0"",""5390""
","
",2512.5,<div class='center'><p><img src='run_exp/static/images/tutorial/prac_source.png'  height='500'></p></div>,50,,,,,,,,,,,,,,,,,,,,,,,
,html-keyboard-response,73,549677,0.0-48.0-0.0,"""event"",""trial"",""time""
""fullscreenenter"",""0"",""5390""
","
","
","""event"",""trial"",""time""
""fullscreenenter"",""0"",""5390""
","
",1980.1,<div class='center'><p>That's correct! You saw this ship on the cavern island.</p><p><b>[Press the space bar to continue]</b></p></div>,32,,,,,,,,,,,,,,,,,,,,,,,
,quiz_beginning,74,560871,0.0-48.0-1.0,"""event"",""trial"",""time""
""fullscreenenter"",""0"",""5390""
","
","
","""event"",""trial"",""time""
""fullscreenenter"",""0"",""5390""
","
",null,run_exp/static/audio/clip_16_quiz_intro.m4a,null,,,,,"<div class='center'><p>Good job on the practice game! Now, you will be asked some true or false questions to make sure you really understand the rules of the game.</p><p> Press <b>'1'</b> on the keyboard for true and press <b>'2'</b> for false.</p></div>",,,,,,,,,,,,,,,,,,
,audio-keyboard-response,75,571891,0.0-48.0-2.0,"""event"",""trial"",""time""
""fullscreenenter"",""0"",""5390""
","
","
","""event"",""trial"",""time""
""fullscreenenter"",""0"",""5390""
","
",11014.5,run_exp/static/audio/clip_17_q1.m4a,50,,,,,,,,,,,,,,,,,,,,,,,
,q1_err,76,576791,0.0-49.0-0.0,"""event"",""trial"",""time""
""fullscreenenter"",""0"",""5390""
","
","
","""event"",""trial"",""time""
""fullscreenenter"",""0"",""5390""
","
",null,run_exp/static/audio/clip_19_wrong_q1.m4a,null,,,,,<div class='center'><p>That’s incorrect. You win bonus money by collecting gold coins.</p></div>,,,,,,,,,,,,,,,,,,
,html-keyboard-response,77,577750,0.0-49.0-1.0,"""event"",""trial"",""time""
""fullscreenenter"",""0"",""5390""
","
","
","""event"",""trial"",""time""
""fullscreenenter"",""0"",""5390""
","
",957.9,<div class='center'><p>That’s incorrect. You win bonus money by collecting gold coins.</p><p><b>[Press the space bar to continue]</b></p></div>,32,,,,,,,,,,,,,,,,,,,,,,,
,audio-keyboard-response,78,587695,0.0-49.0-2.0,"""event"",""trial"",""time""
""fullscreenenter"",""0"",""5390""
","
","
","""event"",""trial"",""time""
""fullscreenenter"",""0"",""5390""
","
",9943.7,run_exp/static/audio/clip_20_q2.m4a,50,,,,,,,,,,,,,,,,,,,,,,,
,correct,79,590091,0.0-50.0-0.0,"""event"",""trial"",""time""
""fullscreenenter"",""0"",""5390""
","
","
","""event"",""trial"",""time""
""fullscreenenter"",""0"",""5390""
","
",null,run_exp/static/audio/clip_18_correct.m4a,null,,,,,<div class='center'><p>That's correct!</p></div>,,,,,,,,,,,,,,,,,,
,html-keyboard-response,80,591093,0.0-50.0-1.0,"""event"",""trial"",""time""
""fullscreenenter"",""0"",""5390""
","
","
","""event"",""trial"",""time""
""fullscreenenter"",""0"",""5390""
","
",1000.2,<div class='center'><p>That's correct!</p><p><b>[Press the space bar to continue]</b></p></div>,32,,,,,,,,,,,,,,,,,,,,,,,
,audio-keyboard-response,81,596267,0.0-50.0-2.0,"""event"",""trial"",""time""
""fullscreenenter"",""0"",""5390""
","
","
","""event"",""trial"",""time""
""fullscreenenter"",""0"",""5390""
","
",5171.5,run_exp/static/audio/clip_22_q3.m4a,50,,,,,,,,,,,,,,,,,,,,,,,
,correct,82,598671,0.0-51.0-0.0,"""event"",""trial"",""time""
""fullscreenenter"",""0"",""5390""
","
","
","""event"",""trial"",""time""
""fullscreenenter"",""0"",""5390""
","
",null,run_exp/static/audio/clip_18_correct.m4a,null,,,,,<div class='center'><p>That's correct!</p></div>,,,,,,,,,,,,,,,,,,
,html-keyboard-response,83,599166,0.0-51.0-1.0,"""event"",""trial"",""time""
""fullscreenenter"",""0"",""5390""
","
","
","""event"",""trial"",""time""
""fullscreenenter"",""0"",""5390""
","
",494.7,<div class='center'><p>That's correct!</p><p><b>[Press the space bar to continue]</b></p></div>,32,,,,,,,,,,,,,,,,,,,,,,,
,audio-keyboard-response,84,604704,0.0-51.0-2.0,"""event"",""trial"",""time""
""fullscreenenter"",""0"",""5390""
","
","
","""event"",""trial"",""time""
""fullscreenenter"",""0"",""5390""
","
",5535.6,run_exp/static/audio/clip_24_q4.m4a,49,,,,,,,,,,,,,,,,,,,,,,,
,correct,85,607091,0.0-52.0-0.0,"""event"",""trial"",""time""
""fullscreenenter"",""0"",""5390""
","
","
","""event"",""trial"",""time""
""fullscreenenter"",""0"",""5390""
","
",null,run_exp/static/audio/clip_18_correct.m4a,null,,,,,<div class='center'><p>That's correct!</p></div>,,,,,,,,,,,,,,,,,,
,html-keyboard-response,86,607693,0.0-52.0-1.0,"""event"",""trial"",""time""
""fullscreenenter"",""0"",""5390""
","
","
","""event"",""trial"",""time""
""fullscreenenter"",""0"",""5390""
","
",600.9,<div class='center'><p>That's correct!</p><p><b>[Press the space bar to continue]</b></p></div>,32,,,,,,,,,,,,,,,,,,,,,,,
,q_all_err,87,613891,0.0-53.0-0.0,"""event"",""trial"",""time""
""fullscreenenter"",""0"",""5390""
","
","
","""event"",""trial"",""time""
""fullscreenenter"",""0"",""5390""
","
",null,run_exp/static/audio/clip_26_quiz_redo.m4a,null,,,,,"<div class='center'><p>Oops, you missed some questions. Now that you’ve heard the correct answers. Try the quiz again! </p></div>",,,,,,,,,,,,,,,,,,
,html-keyboard-response,88,614370,0.0-53.0-1.0,"""event"",""trial"",""time""
""fullscreenenter"",""0"",""5390""
","
","
","""event"",""trial"",""time""
""fullscreenenter"",""0"",""5390""
","
",476.7,"<div class='center'><p>Oops, you missed some questions. Now that you’ve heard the correct answers. Try the quiz again! </p><p><b>[Press the space bar to continue]</b></p></div>",32,,,,,,,,,,,,,,,,,,,,,,,
,audio-keyboard-response,89,617649,0.0-53.0-2.0,"""event"",""trial"",""time""
""fullscreenenter"",""0"",""5390""
","
","
","""event"",""trial"",""time""
""fullscreenenter"",""0"",""5390""
","
",3278.8,run_exp/static/audio/clip_17_q1.m4a,49,,,,,,,,,,,,,,,,,,,,,,,
,correct,90,620051,0.0-54.0-0.0,"""event"",""trial"",""time""
""fullscreenenter"",""0"",""5390""
","
","
","""event"",""trial"",""time""
""fullscreenenter"",""0"",""5390""
","
",null,run_exp/static/audio/clip_18_correct.m4a,null,,,,,<div class='center'><p>That's correct!</p></div>,,,,,,,,,,,,,,,,,,
,html-keyboard-response,91,620374,0.0-54.0-1.0,"""event"",""trial"",""time""
""fullscreenenter"",""0"",""5390""
","
","
","""event"",""trial"",""time""
""fullscreenenter"",""0"",""5390""
","
",321.7,<div class='center'><p>That's correct!</p><p><b>[Press the space bar to continue]</b></p></div>,32,,,,,,,,,,,,,,,,,,,,,,,
,audio-keyboard-response,92,628398,0.0-54.0-2.0,"""event"",""trial"",""time""
""fullscreenenter"",""0"",""5390""
","
","
","""event"",""trial"",""time""
""fullscreenenter"",""0"",""5390""
","
",8022.7,run_exp/static/audio/clip_20_q2.m4a,50,,,,,,,,,,,,,,,,,,,,,,,
,correct,93,630791,0.0-55.0-0.0,"""event"",""trial"",""time""
""fullscreenenter"",""0"",""5390""
","
","
","""event"",""trial"",""time""
""fullscreenenter"",""0"",""5390""
","
",null,run_exp/static/audio/clip_18_correct.m4a,null,,,,,<div class='center'><p>That's correct!</p></div>,,,,,,,,,,,,,,,,,,
,html-keyboard-response,94,631143,0.0-55.0-1.0,"""event"",""trial"",""time""
""fullscreenenter"",""0"",""5390""
","
","
","""event"",""trial"",""time""
""fullscreenenter"",""0"",""5390""
","
",351.2,<div class='center'><p>That's correct!</p><p><b>[Press the space bar to continue]</b></p></div>,32,,,,,,,,,,,,,,,,,,,,,,,
,audio-keyboard-response,95,637863,0.0-55.0-2.0,"""event"",""trial"",""time""
""fullscreenenter"",""0"",""5390""
","
","
","""event"",""trial"",""time""
""fullscreenenter"",""0"",""5390""
","
",6719,run_exp/static/audio/clip_22_q3.m4a,50,,,,,,,,,,,,,,,,,,,,,,,
,correct,96,640251,0.0-56.0-0.0,"""event"",""trial"",""time""
""fullscreenenter"",""0"",""5390""
","
","
","""event"",""trial"",""time""
""fullscreenenter"",""0"",""5390""
","
",null,run_exp/static/audio/clip_18_correct.m4a,null,,,,,<div class='center'><p>That's correct!</p></div>,,,,,,,,,,,,,,,,,,
,html-keyboard-response,97,640803,0.0-56.0-1.0,"""event"",""trial"",""time""
""fullscreenenter"",""0"",""5390""
","
","
","""event"",""trial"",""time""
""fullscreenenter"",""0"",""5390""
","
",550.6,<div class='center'><p>That's correct!</p><p><b>[Press the space bar to continue]</b></p></div>,32,,,,,,,,,,,,,,,,,,,,,,,
,audio-keyboard-response,98,645441,0.0-56.0-2.0,"""event"",""trial"",""time""
""fullscreenenter"",""0"",""5390""
","
","
","""event"",""trial"",""time""
""fullscreenenter"",""0"",""5390""
","
",4637.1,run_exp/static/audio/clip_24_q4.m4a,49,,,,,,,,,,,,,,,,,,,,,,,
,correct,99,647872,0.0-57.0-0.0,"""event"",""trial"",""time""
""fullscreenenter"",""0"",""5390""
","
","
","""event"",""trial"",""time""
""fullscreenenter"",""0"",""5390""
","
",null,run_exp/static/audio/clip_18_correct.m4a,null,,,,,<div class='center'><p>That's correct!</p></div>,,,,,,,,,,,,,,,,,,
,html-keyboard-response,100,648340,0.0-57.0-1.0,"""event"",""trial"",""time""
""fullscreenenter"",""0"",""5390""
","
","
","""event"",""trial"",""time""
""fullscreenenter"",""0"",""5390""
","
",467.6,<div class='center'><p>That's correct!</p><p><b>[Press the space bar to continue]</b></p></div>,32,,,,,,,,,,,,,,,,,,,,,,,
,q_all_corr,101,656831,0.0-58.0-0.0,"""event"",""trial"",""time""
""fullscreenenter"",""0"",""5390""
","
","
","""event"",""trial"",""time""
""fullscreenenter"",""0"",""5390""
","
",null,run_exp/static/audio/clip_27_quiz_all_correct.m4a,null,,,,,<div class='center'><p>Good job! You’re now ready to move on to the real game! Remember this game will be difficult but don't get discouraged and try your best!</p></div>,,,,,,,,,,,,,,,,,,
,html-keyboard-response,102,949952,0.0-58.0-1.0,"""event"",""trial"",""time""
""fullscreenenter"",""0"",""5390""
","
","
","""event"",""trial"",""time""
""fullscreenenter"",""0"",""5390""
","
",293119.2,<div class='center'><p>Good job! You’re now ready to move on to the real game! Remember this game will be difficult but don't get discouraged and try your best!</p><p><b>[Press the space bar to continue]</b></p></div>,32,,,,,,,,,,,,,,,,,,,,,,,
,do_welcome,103,953960,0.0-59.0-0.0,"""event"",""trial"",""time""
""fullscreenenter"",""0"",""5390""
","
","
","""event"",""trial"",""time""
""fullscreenenter"",""0"",""5390""
","
",null,,,,,,,,null,,,,,,,,,,,,,,,,,
,do_trial,104,959741,0.0-60.0-0.0,"""event"",""trial"",""time""
""fullscreenenter"",""0"",""5390""
","
","
","""event"",""trial"",""time""
""fullscreenenter"",""0"",""5390""
","
",1234.2,,,,,,,,49,"0,0,0",0,mountain,0,probe-113,0.6,0.3,0.1,0,,,,,,,,
,html-keyboard-response,105,960746,0.0-60.0-1.0,"""event"",""trial"",""time""
""fullscreenenter"",""0"",""5390""
","
","
","""event"",""trial"",""time""
""fullscreenenter"",""0"",""5390""
","
",null,<p></p>,null,,,,,,,,,,,,,,,,,,,,,,,
,do_trial,106,965988,0.0-61.0-0.0,"""event"",""trial"",""time""
""fullscreenenter"",""0"",""5390""
","
","
","""event"",""trial"",""time""
""fullscreenenter"",""0"",""5390""
","
",702.3,,,,,,,,50,"0,0,1",0,mountain,1,probe-68,0.564627598,0.356809017,0.149448789,0,,,,,,,,
,html-keyboard-response,107,966993,0.0-61.0-1.0,"""event"",""trial"",""time""
""fullscreenenter"",""0"",""5390""
","
","
","""event"",""trial"",""time""
""fullscreenenter"",""0"",""5390""
","
",null,<p></p>,null,,,,,,,,,,,,,,,,,,,,,,,
,do_trial,108,971654,0.0-62.0-0.0,"""event"",""trial"",""time""
""fullscreenenter"",""0"",""5390""
","
","
","""event"",""trial"",""time""
""fullscreenenter"",""0"",""5390""
","
",107.8,,,,,,,,51,"0,1,0",0,mountain,2,probe-01,0.575304389,0.421013731,0.051731298,0,,,,,,,,
,html-keyboard-response,109,972656,0.0-62.0-1.0,"""event"",""trial"",""time""
""fullscreenenter"",""0"",""5390""
","
","
","""event"",""trial"",""time""
""fullscreenenter"",""0"",""5390""
","
",null,<p></p>,null,,,,,,,,,,,,,,,,,,,,,,,
,do_trial,110,978297,0.0-63.0-0.0,"""event"",""trial"",""time""
""fullscreenenter"",""0"",""5390""
","
","
","""event"",""trial"",""time""
""fullscreenenter"",""0"",""5390""
","
",1094.1,,,,,,,,51,"0,0,1",0,mountain,3,probe-20,0.63349369,0.370884856,0.089721863,1,,,,,,,,
,html-keyboard-response,111,979310,0.0-63.0-1.0,"""event"",""trial"",""time""
""fullscreenenter"",""0"",""5390""
","
","
","""event"",""trial"",""time""
""fullscreenenter"",""0"",""5390""
","
",null,<p></p>,null,,,,,,,,,,,,,,,,,,,,,,,
,do_trial,112,984589,0.0-64.0-0.0,"""event"",""trial"",""time""
""fullscreenenter"",""0"",""5390""
","
","
","""event"",""trial"",""time""
""fullscreenenter"",""0"",""5390""
","
",733.4,,,,,,,,51,"0,0,0",0,mountain,4,probe-228,0.606851438,0.610031812,0.177209172,0,,,,,,,,
,html-keyboard-response,113,985593,0.0-64.0-1.0,"""event"",""trial"",""time""
""fullscreenenter"",""0"",""5390""
","
","
","""event"",""trial"",""time""
""fullscreenenter"",""0"",""5390""
","
",null,<p></p>,null,,,,,,,,,,,,,,,,,,,,,,,
,do_trial,114,991161,0.0-65.0-0.0,"""event"",""trial"",""time""
""fullscreenenter"",""0"",""5390""
","
","
","""event"",""trial"",""time""
""fullscreenenter"",""0"",""5390""
","
",1020.8,,,,,,,,49,"1,0,0",0,mountain,5,probe-141,0.73662072,0.526069947,0.099047778,1,,,,,,,,
,html-keyboard-response,115,992174,0.0-65.0-1.0,"""event"",""trial"",""time""
""fullscreenenter"",""0"",""5390""
","
","
","""event"",""trial"",""time""
""fullscreenenter"",""0"",""5390""
","
",null,<p></p>,null,,,,,,,,,,,,,,,,,,,,,,,
,do_trial,116,997597,0.0-66.0-0.0,"""event"",""trial"",""time""
""fullscreenenter"",""0"",""5390""
","
","
","""event"",""trial"",""time""
""fullscreenenter"",""0"",""5390""
","
",881.4,,,,,,,,49,"1,0,0",0,mountain,6,probe-212,0.578653722,0.32466772,0.094936449,1,,,,,,,,
,html-keyboard-response,117,998613,0.0-66.0-1.0,"""event"",""trial"",""time""
""fullscreenenter"",""0"",""5390""
","
","
","""event"",""trial"",""time""
""fullscreenenter"",""0"",""5390""
","
",null,<p></p>,null,,,,,,,,,,,,,,,,,,,,,,,
,do_trial,118,1003745,0.0-67.0-0.0,"""event"",""trial"",""time""
""fullscreenenter"",""0"",""5390""
","
","
","""event"",""trial"",""time""
""fullscreenenter"",""0"",""5390""
","
",584.3,,,,,,,,49,"0,1,0",0,mountain,7,probe-92,0.590422292,0.380385664,0.071057692,0,,,,,,,,
,html-keyboard-response,119,1004752,0.0-67.0-1.0,"""event"",""trial"",""time""
""fullscreenenter"",""0"",""5390""
","
","
","""event"",""trial"",""time""
""fullscreenenter"",""0"",""5390""
","
",null,<p></p>,null,,,,,,,,,,,,,,,,,,,,,,,
,do_trial,120,1011171,0.0-68.0-0.0,"""event"",""trial"",""time""
""fullscreenenter"",""0"",""5390""
","
","
","""event"",""trial"",""time""
""fullscreenenter"",""0"",""5390""
","
",1866.2,,,,,,,,50,"1,0,0",0,mountain,8,probe-124,0.636532272,0.414917078,0.051926725,0,,,,,,,,
,html-keyboard-response,121,1012181,0.0-68.0-1.0,"""event"",""trial"",""time""
""fullscreenenter"",""0"",""5390""
","
","
","""event"",""trial"",""time""
""fullscreenenter"",""0"",""5390""
","
",null,<p></p>,null,,,,,,,,,,,,,,,,,,,,,,,
,do_trial,122,1017339,0.0-69.0-0.0,"""event"",""trial"",""time""
""fullscreenenter"",""0"",""5390""
","
","
","""event"",""trial"",""time""
""fullscreenenter"",""0"",""5390""
","
",607.7,,,,,,,,49,"1,1,0",0,mountain,9,probe-136,0.721120044,0.362968736,0.152950563,1,,,,,,,,
,html-keyboard-response,123,1018352,0.0-69.0-1.0,"""event"",""trial"",""time""
""fullscreenenter"",""0"",""5390""
","
","
","""event"",""trial"",""time""
""fullscreenenter"",""0"",""5390""
","
",null,<p></p>,null,,,,,,,,,,,,,,,,,,,,,,,
,do_trial,124,1023788,0.0-70.0-0.0,"""event"",""trial"",""time""
""fullscreenenter"",""0"",""5390""
","
","
","""event"",""trial"",""time""
""fullscreenenter"",""0"",""5390""
","
",890.6,,,,,,,,49,"1,0,0",0,mountain,10,probe-11,0.436046554,0.31257814,0.126514814,1,,,,,,,,
,html-keyboard-response,125,1024794,0.0-70.0-1.0,"""event"",""trial"",""time""
""fullscreenenter"",""0"",""5390""
","
","
","""event"",""trial"",""time""
""fullscreenenter"",""0"",""5390""
","
",null,<p></p>,null,,,,,,,,,,,,,,,,,,,,,,,
,do_trial,126,1030066,0.0-71.0-0.0,"""event"",""trial"",""time""
""fullscreenenter"",""0"",""5390""
","
","
","""event"",""trial"",""time""
""fullscreenenter"",""0"",""5390""
","
",724.2,,,,,,,,49,"0,0,0",0,mountain,11,probe-119,0.591594276,0.447012767,0.064900781,0,,,,,,,,
,html-keyboard-response,127,1031081,0.0-71.0-1.0,"""event"",""trial"",""time""
""fullscreenenter"",""0"",""5390""
","
","
","""event"",""trial"",""time""
""fullscreenenter"",""0"",""5390""
","
",null,<p></p>,null,,,,,,,,,,,,,,,,,,,,,,,
,do_trial,128,1036174,0.0-72.0-0.0,"""event"",""trial"",""time""
""fullscreenenter"",""0"",""5390""
","
","
","""event"",""trial"",""time""
""fullscreenenter"",""0"",""5390""
","
",537,,,,,,,,49,"0,0,0",0,mountain,12,probe-22,0.610673251,0.257187264,0.067941077,0,,,,,,,,
,html-keyboard-response,129,1037186,0.0-72.0-1.0,"""event"",""trial"",""time""
""fullscreenenter"",""0"",""5390""
","
","
","""event"",""trial"",""time""
""fullscreenenter"",""0"",""5390""
","
",null,<p></p>,null,,,,,,,,,,,,,,,,,,,,,,,
,do_trial,130,1042641,0.0-73.0-0.0,"""event"",""trial"",""time""
""fullscreenenter"",""0"",""5390""
","
","
","""event"",""trial"",""time""
""fullscreenenter"",""0"",""5390""
","
",910.9,,,,,,,,49,"1,0,0",0,mountain,13,probe-78,0.669410886,0.174021513,0.221413675,1,,,,,,,,
,html-keyboard-response,131,1043650,0.0-73.0-1.0,"""event"",""trial"",""time""
""fullscreenenter"",""0"",""5390""
","
","
","""event"",""trial"",""time""
""fullscreenenter"",""0"",""5390""
","
",null,<p></p>,null,,,,,,,,,,,,,,,,,,,,,,,
,do_trial,132,1048880,0.0-74.0-0.0,"""event"",""trial"",""time""
""fullscreenenter"",""0"",""5390""
","
","
","""event"",""trial"",""time""
""fullscreenenter"",""0"",""5390""
","
",678,,,,,,,,49,"1,0,0",0,mountain,14,probe-135,0.598140577,0.25342733,0.141051358,1,,,,,,,,
,html-keyboard-response,133,1049893,0.0-74.0-1.0,"""event"",""trial"",""time""
""fullscreenenter"",""0"",""5390""
","
","
","""event"",""trial"",""time""
""fullscreenenter"",""0"",""5390""
","
",null,<p></p>,null,,,,,,,,,,,,,,,,,,,,,,,
,do_trial,134,1054800,0.0-75.0-0.0,"""event"",""trial"",""time""
""fullscreenenter"",""0"",""5390""
","
","
","""event"",""trial"",""time""
""fullscreenenter"",""0"",""5390""
","
",359.5,,,,,,,,49,"1,1,0",0,mountain,15,probe-115,0.643257269,0.442810001,0.086470168,1,,,,,,,,
,html-keyboard-response,135,1055807,0.0-75.0-1.0,"""event"",""trial"",""time""
""fullscreenenter"",""0"",""5390""
","
","
","""event"",""trial"",""time""
""fullscreenenter"",""0"",""5390""
","
",null,<p></p>,null,,,,,,,,,,,,,,,,,,,,,,,
,do_trial,136,1061159,0.0-76.0-0.0,"""event"",""trial"",""time""
""fullscreenenter"",""0"",""5390""
","
","
","""event"",""trial"",""time""
""fullscreenenter"",""0"",""5390""
","
",799.3,,,,,,,,49,"1,1,1",0,mountain,16,probe-64,0.759845456,0.34312123,0.267426386,1,,,,,,,,
,html-keyboard-response,137,1062166,0.0-76.0-1.0,"""event"",""trial"",""time""
""fullscreenenter"",""0"",""5390""
","
","
","""event"",""trial"",""time""
""fullscreenenter"",""0"",""5390""
","
",null,<p></p>,null,,,,,,,,,,,,,,,,,,,,,,,
,do_trial,138,1067193,0.0-77.0-0.0,"""event"",""trial"",""time""
""fullscreenenter"",""0"",""5390""
","
","
","""event"",""trial"",""time""
""fullscreenenter"",""0"",""5390""
","
",485.8,,,,,,,,49,"1,0,0",0,mountain,17,probe-83,0.82794597,0.196618407,0.162566872,1,,,,,,,,
,html-keyboard-response,139,1068202,0.0-77.0-1.0,"""event"",""trial"",""time""
""fullscreenenter"",""0"",""5390""
","
","
","""event"",""trial"",""time""
""fullscreenenter"",""0"",""5390""
","
",null,<p></p>,null,,,,,,,,,,,,,,,,,,,,,,,
,do_trial,140,1073151,0.0-78.0-0.0,"""event"",""trial"",""time""
""fullscreenenter"",""0"",""5390""
","
","
","""event"",""trial"",""time""
""fullscreenenter"",""0"",""5390""
","
",396,,,,,,,,49,"1,0,0",0,mountain,18,probe-51,0.734941623,0.326568498,0.161094107,1,,,,,,,,
,html-keyboard-response,141,1074164,0.0-78.0-1.0,"""event"",""trial"",""time""
""fullscreenenter"",""0"",""5390""
","
","
","""event"",""trial"",""time""
""fullscreenenter"",""0"",""5390""
","
",null,<p></p>,null,,,,,,,,,,,,,,,,,,,,,,,
,do_trial,142,1079072,0.0-79.0-0.0,"""event"",""trial"",""time""
""fullscreenenter"",""0"",""5390""
","
","
","""event"",""trial"",""time""
""fullscreenenter"",""0"",""5390""
","
",364.5,,,,,,,,49,"0,0,0",0,mountain,19,probe-57,0.532269776,0.224191672,0.140172818,0,,,,,,,,
,html-keyboard-response,143,1080083,0.0-79.0-1.0,"""event"",""trial"",""time""
""fullscreenenter"",""0"",""5390""
","
","
","""event"",""trial"",""time""
""fullscreenenter"",""0"",""5390""
","
",null,<p></p>,null,,,,,,,,,,,,,,,,,,,,,,,
,do_trial,144,1085201,0.0-80.0-0.0,"""event"",""trial"",""time""
""fullscreenenter"",""0"",""5390""
","
","
","""event"",""trial"",""time""
""fullscreenenter"",""0"",""5390""
","
",578.6,,,,,,,,49,"1,0,0",0,mountain,20,probe-198,0.623218224,0.256662545,0.089438472,1,,,,,,,,
,html-keyboard-response,145,1086213,0.0-80.0-1.0,"""event"",""trial"",""time""
""fullscreenenter"",""0"",""5390""
","
","
","""event"",""trial"",""time""
""fullscreenenter"",""0"",""5390""
","
",null,<p></p>,null,,,,,,,,,,,,,,,,,,,,,,,
,do_trial,146,1091309,0.0-81.0-0.0,"""event"",""trial"",""time""
""fullscreenenter"",""0"",""5390""
","
","
","""event"",""trial"",""time""
""fullscreenenter"",""0"",""5390""
","
",553.8,,,,,,,,49,"0,1,0",0,mountain,21,probe-173,0.527563963,0.139152611,0.109925106,0,,,,,,,,
,html-keyboard-response,147,1092317,0.0-81.0-1.0,"""event"",""trial"",""time""
""fullscreenenter"",""0"",""5390""
","
","
","""event"",""trial"",""time""
""fullscreenenter"",""0"",""5390""
","
",null,<p></p>,null,,,,,,,,,,,,,,,,,,,,,,,
,do_trial,148,1097453,0.0-82.0-0.0,"""event"",""trial"",""time""
""fullscreenenter"",""0"",""5390""
","
","
","""event"",""trial"",""time""
""fullscreenenter"",""0"",""5390""
","
",586,,,,,,,,49,"1,0,1",0,mountain,22,probe-144,0.494568067,0.242324687,0.110270008,1,,,,,,,,
,html-keyboard-response,149,1098457,0.0-82.0-1.0,"""event"",""trial"",""time""
""fullscreenenter"",""0"",""5390""
","
","
","""event"",""trial"",""time""
""fullscreenenter"",""0"",""5390""
","
",null,<p></p>,null,,,,,,,,,,,,,,,,,,,,,,,
,do_trial,150,1103598,0.0-83.0-0.0,"""event"",""trial"",""time""
""fullscreenenter"",""0"",""5390""
","
","
","""event"",""trial"",""time""
""fullscreenenter"",""0"",""5390""
","
",593,,,,,,,,51,"0,0,1",0,mountain,23,probe-226,0.416140506,0.309307718,0.0926888,1,,,,,,,,
,html-keyboard-response,151,1104607,0.0-83.0-1.0,"""event"",""trial"",""time""
""fullscreenenter"",""0"",""5390""
","
","
","""event"",""trial"",""time""
""fullscreenenter"",""0"",""5390""
","
",null,<p></p>,null,,,,,,,,,,,,,,,,,,,,,,,
,do_trial,152,1109635,0.0-84.0-0.0,"""event"",""trial"",""time""
""fullscreenenter"",""0"",""5390""
","
","
","""event"",""trial"",""time""
""fullscreenenter"",""0"",""5390""
","
",470.7,,,,,,,,49,"0,1,0",0,mountain,24,probe-95,0.552873084,0.333943939,0.07081345,0,,,,,,,,
,html-keyboard-response,153,1110645,0.0-84.0-1.0,"""event"",""trial"",""time""
""fullscreenenter"",""0"",""5390""
","
","
","""event"",""trial"",""time""
""fullscreenenter"",""0"",""5390""
","
",null,<p></p>,null,,,,,,,,,,,,,,,,,,,,,,,
,do_trial,154,1115613,0.0-85.0-0.0,"""event"",""trial"",""time""
""fullscreenenter"",""0"",""5390""
","
","
","""event"",""trial"",""time""
""fullscreenenter"",""0"",""5390""
","
",409,,,,,,,,49,"0,0,0",0,mountain,25,probe-80,0.531127966,0.358661362,0.131369674,0,,,,,,,,
,html-keyboard-response,155,1116624,0.0-85.0-1.0,"""event"",""trial"",""time""
""fullscreenenter"",""0"",""5390""
","
","
","""event"",""trial"",""time""
""fullscreenenter"",""0"",""5390""
","
",null,<p></p>,null,,,,,,,,,,,,,,,,,,,,,,,
,do_trial,156,1121665,0.0-86.0-0.0,"""event"",""trial"",""time""
""fullscreenenter"",""0"",""5390""
","
","
","""event"",""trial"",""time""
""fullscreenenter"",""0"",""5390""
","
",479.1,,,,,,,,49,"0,0,1",0,mountain,26,probe-177,0.505839982,0.399901422,0.061719634,0,,,,,,,,
,html-keyboard-response,157,1122675,0.0-86.0-1.0,"""event"",""trial"",""time""
""fullscreenenter"",""0"",""5390""
","
","
","""event"",""trial"",""time""
""fullscreenenter"",""0"",""5390""
","
",null,<p></p>,null,,,,,,,,,,,,,,,,,,,,,,,
,do_trial,158,1127635,0.0-87.0-0.0,"""event"",""trial"",""time""
""fullscreenenter"",""0"",""5390""
","
","
","""event"",""trial"",""time""
""fullscreenenter"",""0"",""5390""
","
",409.6,,,,,,,,50,"1,0,0",0,mountain,27,probe-126,0.559241106,0.387452703,0.165718274,0,,,,,,,,
,html-keyboard-response,159,1128647,0.0-87.0-1.0,"""event"",""trial"",""time""
""fullscreenenter"",""0"",""5390""
","
","
","""event"",""trial"",""time""
""fullscreenenter"",""0"",""5390""
","
",null,<p></p>,null,,,,,,,,,,,,,,,,,,,,,,,
,do_trial,160,1133667,0.0-88.0-0.0,"""event"",""trial"",""time""
""fullscreenenter"",""0"",""5390""
","
","
","""event"",""trial"",""time""
""fullscreenenter"",""0"",""5390""
","
",470.6,,,,,,,,49,"0,0,0",0,mountain,28,probe-50,0.404458186,0.284600726,0.140778023,0,,,,,,,,
,html-keyboard-response,161,1134682,0.0-88.0-1.0,"""event"",""trial"",""time""
""fullscreenenter"",""0"",""5390""
","
","
","""event"",""trial"",""time""
""fullscreenenter"",""0"",""5390""
","
",null,<p></p>,null,,,,,,,,,,,,,,,,,,,,,,,
,do_trial,162,1139665,0.0-89.0-0.0,"""event"",""trial"",""time""
""fullscreenenter"",""0"",""5390""
","
","
","""event"",""trial"",""time""
""fullscreenenter"",""0"",""5390""
","
",423.7,,,,,,,,51,"0,0,0",0,mountain,29,probe-139,0.434332225,0.258863681,0.060945487,0,,,,,,,,
,html-keyboard-response,163,1140675,0.0-89.0-1.0,"""event"",""trial"",""time""
""fullscreenenter"",""0"",""5390""
","
","
","""event"",""trial"",""time""
""fullscreenenter"",""0"",""5390""
","
",null,<p></p>,null,,,,,,,,,,,,,,,,,,,,,,,
,do_bye,164,1142192,0.0-90.0-0.0,"""event"",""trial"",""time""
""fullscreenenter"",""0"",""5390""
","
","
","""event"",""trial"",""time""
""fullscreenenter"",""0"",""5390""
","
",null,,,,,,,,null,,,,,,,,,,,,,,,,,
,break,165,1160774,0.0-90.0-1.0,"""event"",""trial"",""time""
""fullscreenenter"",""0"",""5390""
","
","
","""event"",""trial"",""time""
""fullscreenenter"",""0"",""5390""
","
",18580.7,"<div class='center'><p>Time to take a quick break! You have 2 minutes to rest, but you can move on sooner if you'd like.</p><p> Press the <b>space bar</b> to continue.</p></div>",32,,,,,,,,,,,,,,,,,,,,,,,
,do_travel,166,1169784,0.0-91.0-0.0,"""event"",""trial"",""time""
""fullscreenenter"",""0"",""5390""
","
","
","""event"",""trial"",""time""
""fullscreenenter"",""0"",""5390""
","
",null,,,,,,,,null,,,,,,,,,,,,,,,,,
,do_welcome,167,1173798,0.0-91.0-1.0,"""event"",""trial"",""time""
""fullscreenenter"",""0"",""5390""
","
","
","""event"",""trial"",""time""
""fullscreenenter"",""0"",""5390""
","
",null,,,,,,,,null,,,,,,,,,,,,,,,,,
,do_trial,168,1179438,0.0-92.0-0.0,"""event"",""trial"",""time""
""fullscreenenter"",""0"",""5390""
","
","
","""event"",""trial"",""time""
""fullscreenenter"",""0"",""5390""
","
",1098.2,,,,,,,,49,"1,1,0",1,coast,30,probe-186,1,0.389374083,0.057217819,1,,,,,,,,
,html-keyboard-response,169,1180441,0.0-92.0-1.0,"""event"",""trial"",""time""
""fullscreenenter"",""0"",""5390""
","
","
","""event"",""trial"",""time""
""fullscreenenter"",""0"",""5390""
","
",null,<p></p>,null,,,,,,,,,,,,,,,,,,,,,,,
,do_trial,170,1185918,0.0-93.0-0.0,"""event"",""trial"",""time""
""fullscreenenter"",""0"",""5390""
","
","
","""event"",""trial"",""time""
""fullscreenenter"",""0"",""5390""
","
",932.3,,,,,,,,49,"1,0,0",1,coast,31,probe-150,1,0.368695158,0.051136236,1,,,,,,,,
,html-keyboard-response,171,1186927,0.0-93.0-1.0,"""event"",""trial"",""time""
""fullscreenenter"",""0"",""5390""
","
","
","""event"",""trial"",""time""
""fullscreenenter"",""0"",""5390""
","
",null,<p></p>,null,,,,,,,,,,,,,,,,,,,,,,,
,do_trial,172,1191925,0.0-94.0-0.0,"""event"",""trial"",""time""
""fullscreenenter"",""0"",""5390""
","
","
","""event"",""trial"",""time""
""fullscreenenter"",""0"",""5390""
","
",441.6,,,,,,,,49,"1,0,0",1,coast,32,probe-204,1,0.212771104,0.091518405,1,,,,,,,,
,html-keyboard-response,173,1192938,0.0-94.0-1.0,"""event"",""trial"",""time""
""fullscreenenter"",""0"",""5390""
","
","
","""event"",""trial"",""time""
""fullscreenenter"",""0"",""5390""
","
",null,<p></p>,null,,,,,,,,,,,,,,,,,,,,,,,
,do_trial,174,1197788,0.0-95.0-0.0,"""event"",""trial"",""time""
""fullscreenenter"",""0"",""5390""
","
","
","""event"",""trial"",""time""
""fullscreenenter"",""0"",""5390""
","
",306.6,,,,,,,,49,"1,0,0",1,coast,33,probe-117,0.933268587,0.33584826,0.128196704,1,,,,,,,,
,html-keyboard-response,175,1198801,0.0-95.0-1.0,"""event"",""trial"",""time""
""fullscreenenter"",""0"",""5390""
","
","
","""event"",""trial"",""time""
""fullscreenenter"",""0"",""5390""
","
",null,<p></p>,null,,,,,,,,,,,,,,,,,,,,,,,
,do_trial,176,1203935,0.0-96.0-0.0,"""event"",""trial"",""time""
""fullscreenenter"",""0"",""5390""
","
","
","""event"",""trial"",""time""
""fullscreenenter"",""0"",""5390""
","
",587.7,,,,,,,,49,"1,1,0",1,coast,34,probe-38,0.841194747,0.310894956,0.170794667,1,,,,,,,,
,html-keyboard-response,177,1204941,0.0-96.0-1.0,"""event"",""trial"",""time""
""fullscreenenter"",""0"",""5390""
","
","
","""event"",""trial"",""time""
""fullscreenenter"",""0"",""5390""
","
",null,<p></p>,null,,,,,,,,,,,,,,,,,,,,,,,
,do_trial,178,1210263,0.0-97.0-0.0,"""event"",""trial"",""time""
""fullscreenenter"",""0"",""5390""
","
","
","""event"",""trial"",""time""
""fullscreenenter"",""0"",""5390""
","
",760.7,,,,,,,,49,"1,1,0",1,coast,35,probe-39,0.603885172,0.353621248,0.19419293,1,,,,,,,,
,html-keyboard-response,179,1211270,0.0-97.0-1.0,"""event"",""trial"",""time""
""fullscreenenter"",""0"",""5390""
","
","
","""event"",""trial"",""time""
""fullscreenenter"",""0"",""5390""
","
",null,<p></p>,null,,,,,,,,,,,,,,,,,,,,,,,
,do_trial,180,1216290,0.0-98.0-0.0,"""event"",""trial"",""time""
""fullscreenenter"",""0"",""5390""
","
","
","""event"",""trial"",""time""
""fullscreenenter"",""0"",""5390""
","
",477.5,,,,,,,,49,"1,0,1",1,coast,36,probe-69,0.613878041,0.252705355,0.298129444,1,,,,,,,,
,html-keyboard-response,181,1217304,0.0-98.0-1.0,"""event"",""trial"",""time""
""fullscreenenter"",""0"",""5390""
","
","
","""event"",""trial"",""time""
""fullscreenenter"",""0"",""5390""
","
",null,<p></p>,null,,,,,,,,,,,,,,,,,,,,,,,
,do_trial,182,1222573,0.0-99.0-0.0,"""event"",""trial"",""time""
""fullscreenenter"",""0"",""5390""
","
","
","""event"",""trial"",""time""
""fullscreenenter"",""0"",""5390""
","
",725.4,,,,,,,,49,"1,0,1",1,coast,37,probe-219,0.667352895,0.306910345,0.214551265,1,,,,,,,,
,html-keyboard-response,183,1223587,0.0-99.0-1.0,"""event"",""trial"",""time""
""fullscreenenter"",""0"",""5390""
","
","
","""event"",""trial"",""time""
""fullscreenenter"",""0"",""5390""
","
",null,<p></p>,null,,,,,,,,,,,,,,,,,,,,,,,
,do_trial,184,1228497,0.0-100.0-0.0,"""event"",""trial"",""time""
""fullscreenenter"",""0"",""5390""
","
","
","""event"",""trial"",""time""
""fullscreenenter"",""0"",""5390""
","
",353.3,,,,,,,,49,"0,0,0",1,coast,38,probe-104,0.719809656,0.183569607,0.269911337,0,,,,,,,,
,html-keyboard-response,185,1229504,0.0-100.0-1.0,"""event"",""trial"",""time""
""fullscreenenter"",""0"",""5390""
","
","
","""event"",""trial"",""time""
""fullscreenenter"",""0"",""5390""
","
",null,<p></p>,null,,,,,,,,,,,,,,,,,,,,,,,
,do_trial,186,1234625,0.0-101.0-0.0,"""event"",""trial"",""time""
""fullscreenenter"",""0"",""5390""
","
","
","""event"",""trial"",""time""
""fullscreenenter"",""0"",""5390""
","
",574.3,,,,,,,,49,"0,0,0",1,coast,39,probe-185,0.571638138,0.137676807,0.227450677,0,,,,,,,,
,html-keyboard-response,187,1235636,0.0-101.0-1.0,"""event"",""trial"",""time""
""fullscreenenter"",""0"",""5390""
","
","
","""event"",""trial"",""time""
""fullscreenenter"",""0"",""5390""
","
",null,<p></p>,null,,,,,,,,,,,,,,,,,,,,,,,
,do_trial,188,1240631,0.0-102.0-0.0,"""event"",""trial"",""time""
""fullscreenenter"",""0"",""5390""
","
","
","""event"",""trial"",""time""
""fullscreenenter"",""0"",""5390""
","
",443.3,,,,,,,,49,"0,0,0",1,coast,40,probe-52,0.656376704,0.069630743,0.253098749,0,,,,,,,,
,html-keyboard-response,189,1241645,0.0-102.0-1.0,"""event"",""trial"",""time""
""fullscreenenter"",""0"",""5390""
","
","
","""event"",""trial"",""time""
""fullscreenenter"",""0"",""5390""
","
",null,<p></p>,null,,,,,,,,,,,,,,,,,,,,,,,
,do_trial,190,1246614,0.0-103.0-0.0,"""event"",""trial"",""time""
""fullscreenenter"",""0"",""5390""
","
","
","""event"",""trial"",""time""
""fullscreenenter"",""0"",""5390""
","
",427.7,,,,,,,,50,"1,0,0",1,coast,41,probe-176,0.549619822,0.065794271,0.295792889,0,,,,,,,,
,html-keyboard-response,191,1247625,0.0-103.0-1.0,"""event"",""trial"",""time""
""fullscreenenter"",""0"",""5390""
","
","
","""event"",""trial"",""time""
""fullscreenenter"",""0"",""5390""
","
",null,<p></p>,null,,,,,,,,,,,,,,,,,,,,,,,
,do_trial,192,1252675,0.0-104.0-0.0,"""event"",""trial"",""time""
""fullscreenenter"",""0"",""5390""
","
","
","""event"",""trial"",""time""
""fullscreenenter"",""0"",""5390""
","
",498.5,,,,,,,,51,"0,0,0",1,coast,42,probe-130,0.431887727,0.160368271,0.554350921,0,,,,,,,,
,html-keyboard-response,193,1253683,0.0-104.0-1.0,"""event"",""trial"",""time""
""fullscreenenter"",""0"",""5390""
","
","
","""event"",""trial"",""time""
""fullscreenenter"",""0"",""5390""
","
",null,<p></p>,null,,,,,,,,,,,,,,,,,,,,,,,
,do_trial,194,1258767,0.0-105.0-0.0,"""event"",""trial"",""time""
""fullscreenenter"",""0"",""5390""
","
","
","""event"",""trial"",""time""
""fullscreenenter"",""0"",""5390""
","
",531.3,,,,,,,,51,"0,0,1",1,coast,43,probe-101,0.376025796,0.107586318,0.561040728,1,,,,,,,,
,html-keyboard-response,195,1259782,0.0-105.0-1.0,"""event"",""trial"",""time""
""fullscreenenter"",""0"",""5390""
","
","
","""event"",""trial"",""time""
""fullscreenenter"",""0"",""5390""
","
",null,<p></p>,null,,,,,,,,,,,,,,,,,,,,,,,
,do_trial,196,1265336,0.0-106.0-0.0,"""event"",""trial"",""time""
""fullscreenenter"",""0"",""5390""
","
","
","""event"",""trial"",""time""
""fullscreenenter"",""0"",""5390""
","
",1007.4,,,,,,,,51,"0,0,1",1,coast,44,probe-98,0.337509161,0.092809695,0.678681795,1,,,,,,,,
,html-keyboard-response,197,1266347,0.0-106.0-1.0,"""event"",""trial"",""time""
""fullscreenenter"",""0"",""5390""
","
","
","""event"",""trial"",""time""
""fullscreenenter"",""0"",""5390""
","
",null,<p></p>,null,,,,,,,,,,,,,,,,,,,,,,,
,do_trial,198,1271315,0.0-107.0-0.0,"""event"",""trial"",""time""
""fullscreenenter"",""0"",""5390""
","
","
","""event"",""trial"",""time""
""fullscreenenter"",""0"",""5390""
","
",425.8,,,,,,,,51,"0,0,1",1,coast,45,probe-111,0.409126861,0.148046768,0.716856729,1,,,,,,,,
,html-keyboard-response,199,1272323,0.0-107.0-1.0,"""event"",""trial"",""time""
""fullscreenenter"",""0"",""5390""
","
","
","""event"",""trial"",""time""
""fullscreenenter"",""0"",""5390""
","
",null,<p></p>,null,,,,,,,,,,,,,,,,,,,,,,,
,do_trial,200,1277504,0.0-108.0-0.0,"""event"",""trial"",""time""
""fullscreenenter"",""0"",""5390""
","
","
","""event"",""trial"",""time""
""fullscreenenter"",""0"",""5390""
","
",624.6,,,,,,,,51,"1,0,1",1,coast,46,probe-160,0.456358179,0.232279704,0.799952045,1,,,,,,,,
,html-keyboard-response,201,1278511,0.0-108.0-1.0,"""event"",""trial"",""time""
""fullscreenenter"",""0"",""5390""
","
","
","""event"",""trial"",""time""
""fullscreenenter"",""0"",""5390""
","
",null,<p></p>,null,,,,,,,,,,,,,,,,,,,,,,,
,do_trial,202,1283438,0.0-109.0-0.0,"""event"",""trial"",""time""
""fullscreenenter"",""0"",""5390""
","
","
","""event"",""trial"",""time""
""fullscreenenter"",""0"",""5390""
","
",375.6,,,,,,,,51,"0,0,1",1,coast,47,probe-193,0.441499832,0.271535431,0.592459742,1,,,,,,,,
,html-keyboard-response,203,1284452,0.0-109.0-1.0,"""event"",""trial"",""time""
""fullscreenenter"",""0"",""5390""
","
","
","""event"",""trial"",""time""
""fullscreenenter"",""0"",""5390""
","
",null,<p></p>,null,,,,,,,,,,,,,,,,,,,,,,,
,do_trial,204,1289516,0.0-110.0-0.0,"""event"",""trial"",""time""
""fullscreenenter"",""0"",""5390""
","
","
","""event"",""trial"",""time""
""fullscreenenter"",""0"",""5390""
","
",510.3,,,,,,,,51,"0,0,1",1,coast,48,probe-84,0.371990105,0.331141537,0.653235339,1,,,,,,,,
,html-keyboard-response,205,1290528,0.0-110.0-1.0,"""event"",""trial"",""time""
""fullscreenenter"",""0"",""5390""
","
","
","""event"",""trial"",""time""
""fullscreenenter"",""0"",""5390""
","
",null,<p></p>,null,,,,,,,,,,,,,,,,,,,,,,,
,do_trial,206,1295746,0.0-111.0-0.0,"""event"",""trial"",""time""
""fullscreenenter"",""0"",""5390""
","
","
","""event"",""trial"",""time""
""fullscreenenter"",""0"",""5390""
","
",657.2,,,,,,,,51,"1,1,0",1,coast,49,probe-54,0.278290305,0.213155793,0.665412726,0,,,,,,,,
,html-keyboard-response,207,1296760,0.0-111.0-1.0,"""event"",""trial"",""time""
""fullscreenenter"",""0"",""5390""
","
","
","""event"",""trial"",""time""
""fullscreenenter"",""0"",""5390""
","
",null,<p></p>,null,,,,,,,,,,,,,,,,,,,,,,,
,do_trial,208,1301748,0.0-112.0-0.0,"""event"",""trial"",""time""
""fullscreenenter"",""0"",""5390""
","
","
","""event"",""trial"",""time""
""fullscreenenter"",""0"",""5390""
","
",440.6,,,,,,,,51,"1,0,1",1,coast,50,probe-192,0.280600882,0.183401806,0.674710377,1,,,,,,,,
,html-keyboard-response,209,1302755,0.0-112.0-1.0,"""event"",""trial"",""time""
""fullscreenenter"",""0"",""5390""
","
","
","""event"",""trial"",""time""
""fullscreenenter"",""0"",""5390""
","
",null,<p></p>,null,,,,,,,,,,,,,,,,,,,,,,,
,do_trial,210,1308109,0.0-113.0-0.0,"""event"",""trial"",""time""
""fullscreenenter"",""0"",""5390""
","
","
","""event"",""trial"",""time""
""fullscreenenter"",""0"",""5390""
","
",791,,,,,,,,51,"0,0,1",1,coast,51,probe-214,0.294931037,0.243399355,0.533066945,1,,,,,,,,
,html-keyboard-response,211,1309120,0.0-113.0-1.0,"""event"",""trial"",""time""
""fullscreenenter"",""0"",""5390""
","
","
","""event"",""trial"",""time""
""fullscreenenter"",""0"",""5390""
","
",null,<p></p>,null,,,,,,,,,,,,,,,,,,,,,,,
,do_trial,212,1314512,0.0-114.0-0.0,"""event"",""trial"",""time""
""fullscreenenter"",""0"",""5390""
","
","
","""event"",""trial"",""time""
""fullscreenenter"",""0"",""5390""
","
",844.2,,,,,,,,51,"0,0,1",1,coast,52,probe-194,0.209736923,0.062689308,0.706991097,1,,,,,,,,
,html-keyboard-response,213,1315521,0.0-114.0-1.0,"""event"",""trial"",""time""
""fullscreenenter"",""0"",""5390""
","
","
","""event"",""trial"",""time""
""fullscreenenter"",""0"",""5390""
","
",null,<p></p>,null,,,,,,,,,,,,,,,,,,,,,,,
,do_trial,214,1320308,0.0-115.0-0.0,"""event"",""trial"",""time""
""fullscreenenter"",""0"",""5390""
","
","
","""event"",""trial"",""time""
""fullscreenenter"",""0"",""5390""
","
",228.6,,,,,,,,51,"0,0,1",1,coast,53,probe-87,0.231813611,0.180890168,0.696212246,1,,,,,,,,
,html-keyboard-response,215,1321321,0.0-115.0-1.0,"""event"",""trial"",""time""
""fullscreenenter"",""0"",""5390""
","
","
","""event"",""trial"",""time""
""fullscreenenter"",""0"",""5390""
","
",null,<p></p>,null,,,,,,,,,,,,,,,,,,,,,,,
,do_trial,216,1326502,0.0-116.0-0.0,"""event"",""trial"",""time""
""fullscreenenter"",""0"",""5390""
","
","
","""event"",""trial"",""time""
""fullscreenenter"",""0"",""5390""
","
",638.1,,,,,,,,51,"1,1,0",1,coast,54,probe-28,0.247814373,0.248088691,0.550949632,0,,,,,,,,
,html-keyboard-response,217,1327516,0.0-116.0-1.0,"""event"",""trial"",""time""
""fullscreenenter"",""0"",""5390""
","
","
","""event"",""trial"",""time""
""fullscreenenter"",""0"",""5390""
","
",null,<p></p>,null,,,,,,,,,,,,,,,,,,,,,,,
,do_trial,218,1332390,0.0-117.0-0.0,"""event"",""trial"",""time""
""fullscreenenter"",""0"",""5390""
","
","
","""event"",""trial"",""time""
""fullscreenenter"",""0"",""5390""
","
",325.3,,,,,,,,51,"0,0,1",1,coast,55,probe-26,0.252415605,0.272717156,0.51817104,1,,,,,,,,
,html-keyboard-response,219,1333401,0.0-117.0-1.0,"""event"",""trial"",""time""
""fullscreenenter"",""0"",""5390""
","
","
","""event"",""trial"",""time""
""fullscreenenter"",""0"",""5390""
","
",null,<p></p>,null,,,,,,,,,,,,,,,,,,,,,,,
,do_trial,220,1338505,0.0-118.0-0.0,"""event"",""trial"",""time""
""fullscreenenter"",""0"",""5390""
","
","
","""event"",""trial"",""time""
""fullscreenenter"",""0"",""5390""
","
",547.4,,,,,,,,51,"1,0,1",1,coast,56,probe-222,0.351196832,0.13700585,0.655980915,1,,,,,,,,
,html-keyboard-response,221,1339521,0.0-118.0-1.0,"""event"",""trial"",""time""
""fullscreenenter"",""0"",""5390""
","
","
","""event"",""trial"",""time""
""fullscreenenter"",""0"",""5390""
","
",null,<p></p>,null,,,,,,,,,,,,,,,,,,,,,,,
,do_trial,222,1344671,0.0-119.0-0.0,"""event"",""trial"",""time""
""fullscreenenter"",""0"",""5390""
","
","
","""event"",""trial"",""time""
""fullscreenenter"",""0"",""5390""
","
",576.3,,,,,,,,51,"1,1,1",1,coast,57,probe-21,0.375892772,0.158021994,0.803789196,1,,,,,,,,
,html-keyboard-response,223,1345682,0.0-119.0-1.0,"""event"",""trial"",""time""
""fullscreenenter"",""0"",""5390""
","
","
","""event"",""trial"",""time""
""fullscreenenter"",""0"",""5390""
","
",null,<p></p>,null,,,,,,,,,,,,,,,,,,,,,,,
,do_trial,224,1350750,0.0-120.0-0.0,"""event"",""trial"",""time""
""fullscreenenter"",""0"",""5390""
","
","
","""event"",""trial"",""time""
""fullscreenenter"",""0"",""5390""
","
",525,,,,,,,,51,"1,1,1",1,coast,58,probe-225,0.344718717,0.326634898,0.647568694,1,,,,,,,,
,html-keyboard-response,225,1351765,0.0-120.0-1.0,"""event"",""trial"",""time""
""fullscreenenter"",""0"",""5390""
","
","
","""event"",""trial"",""time""
""fullscreenenter"",""0"",""5390""
","
",null,<p></p>,null,,,,,,,,,,,,,,,,,,,,,,,
,do_trial,226,1356822,0.0-121.0-0.0,"""event"",""trial"",""time""
""fullscreenenter"",""0"",""5390""
","
","
","""event"",""trial"",""time""
""fullscreenenter"",""0"",""5390""
","
",497.7,,,,,,,,51,"0,0,1",1,coast,59,probe-163,0.447670997,0.194602459,0.716329507,1,,,,,,,,
,html-keyboard-response,227,1357836,0.0-121.0-1.0,"""event"",""trial"",""time""
""fullscreenenter"",""0"",""5390""
","
","
","""event"",""trial"",""time""
""fullscreenenter"",""0"",""5390""
","
",null,<p></p>,null,,,,,,,,,,,,,,,,,,,,,,,
,do_trial,228,1362802,0.0-122.0-0.0,"""event"",""trial"",""time""
""fullscreenenter"",""0"",""5390""
","
","
","""event"",""trial"",""time""
""fullscreenenter"",""0"",""5390""
","
",409.6,,,,,,,,51,"0,0,1",1,coast,60,probe-82,0.369760644,0.157385709,0.728652885,1,,,,,,,,
,html-keyboard-response,229,1363812,0.0-122.0-1.0,"""event"",""trial"",""time""
""fullscreenenter"",""0"",""5390""
","
","
","""event"",""trial"",""time""
""fullscreenenter"",""0"",""5390""
","
",null,<p></p>,null,,,,,,,,,,,,,,,,,,,,,,,
,do_trial,230,1368878,0.0-123.0-0.0,"""event"",""trial"",""time""
""fullscreenenter"",""0"",""5390""
","
","
","""event"",""trial"",""time""
""fullscreenenter"",""0"",""5390""
","
",513,,,,,,,,51,"0,0,0",1,coast,61,probe-202,0.393538441,0.211680004,0.616535749,0,,,,,,,,
,html-keyboard-response,231,1369892,0.0-123.0-1.0,"""event"",""trial"",""time""
""fullscreenenter"",""0"",""5390""
","
","
","""event"",""trial"",""time""
""fullscreenenter"",""0"",""5390""
","
",null,<p></p>,null,,,,,,,,,,,,,,,,,,,,,,,
,do_trial,232,1374817,0.0-124.0-0.0,"""event"",""trial"",""time""
""fullscreenenter"",""0"",""5390""
","
","
","""event"",""trial"",""time""
""fullscreenenter"",""0"",""5390""
","
",367.5,,,,,,,,51,"1,0,1",1,coast,62,probe-205,0.3540693,0.16313656,0.692580564,1,,,,,,,,
,html-keyboard-response,233,1375834,0.0-124.0-1.0,"""event"",""trial"",""time""
""fullscreenenter"",""0"",""5390""
","
","
","""event"",""trial"",""time""
""fullscreenenter"",""0"",""5390""
","
",null,<p></p>,null,,,,,,,,,,,,,,,,,,,,,,,
,do_trial,234,1380768,0.0-125.0-0.0,"""event"",""trial"",""time""
""fullscreenenter"",""0"",""5390""
","
","
","""event"",""trial"",""time""
""fullscreenenter"",""0"",""5390""
","
",384.6,,,,,,,,51,"1,0,0",1,coast,63,probe-86,0.246610516,0.122953804,0.635114063,0,,,,,,,,
,html-keyboard-response,235,1381783,0.0-125.0-1.0,"""event"",""trial"",""time""
""fullscreenenter"",""0"",""5390""
","
","
","""event"",""trial"",""time""
""fullscreenenter"",""0"",""5390""
","
",null,<p></p>,null,,,,,,,,,,,,,,,,,,,,,,,
,do_trial,236,1386878,0.0-126.0-0.0,"""event"",""trial"",""time""
""fullscreenenter"",""0"",""5390""
","
","
","""event"",""trial"",""time""
""fullscreenenter"",""0"",""5390""
","
",550.8,,,,,,,,51,"0,0,0",1,coast,64,probe-47,0.178777892,0.084180575,0.561860519,0,,,,,,,,
,html-keyboard-response,237,1387886,0.0-126.0-1.0,"""event"",""trial"",""time""
""fullscreenenter"",""0"",""5390""
","
","
","""event"",""trial"",""time""
""fullscreenenter"",""0"",""5390""
","
",null,<p></p>,null,,,,,,,,,,,,,,,,,,,,,,,
,do_trial,238,1392844,0.0-127.0-0.0,"""event"",""trial"",""time""
""fullscreenenter"",""0"",""5390""
","
","
","""event"",""trial"",""time""
""fullscreenenter"",""0"",""5390""
","
",411.8,,,,,,,,51,"0,0,0",1,coast,65,probe-15,0.250405489,0.115688828,0.535022745,0,,,,,,,,
,html-keyboard-response,239,1393852,0.0-127.0-1.0,"""event"",""trial"",""time""
""fullscreenenter"",""0"",""5390""
","
","
","""event"",""trial"",""time""
""fullscreenenter"",""0"",""5390""
","
",null,<p></p>,null,,,,,,,,,,,,,,,,,,,,,,,
,do_trial,240,1398876,0.0-128.0-0.0,"""event"",""trial"",""time""
""fullscreenenter"",""0"",""5390""
","
","
","""event"",""trial"",""time""
""fullscreenenter"",""0"",""5390""
","
",469.5,,,,,,,,51,"1,0,1",1,coast,66,probe-208,0.301900965,0.225426323,0.675834025,1,,,,,,,,
,html-keyboard-response,241,1399885,0.0-128.0-1.0,"""event"",""trial"",""time""
""fullscreenenter"",""0"",""5390""
","
","
","""event"",""trial"",""time""
""fullscreenenter"",""0"",""5390""
","
",null,<p></p>,null,,,,,,,,,,,,,,,,,,,,,,,
,do_trial,242,1405039,0.0-129.0-0.0,"""event"",""trial"",""time""
""fullscreenenter"",""0"",""5390""
","
","
","""event"",""trial"",""time""
""fullscreenenter"",""0"",""5390""
","
",605.8,,,,,,,,51,"0,0,1",1,coast,67,probe-89,0.32688064,0.188501351,0.724928588,1,,,,,,,,
,html-keyboard-response,243,1406048,0.0-129.0-1.0,"""event"",""trial"",""time""
""fullscreenenter"",""0"",""5390""
","
","
","""event"",""trial"",""time""
""fullscreenenter"",""0"",""5390""
","
",null,<p></p>,null,,,,,,,,,,,,,,,,,,,,,,,
,do_trial,244,1410908,0.0-130.0-0.0,"""event"",""trial"",""time""
""fullscreenenter"",""0"",""5390""
","
","
","""event"",""trial"",""time""
""fullscreenenter"",""0"",""5390""
","
",309.9,,,,,,,,51,"0,1,0",1,coast,68,probe-137,0.267724786,0.208478981,0.572171824,0,,,,,,,,
,html-keyboard-response,245,1411912,0.0-130.0-1.0,"""event"",""trial"",""time""
""fullscreenenter"",""0"",""5390""
","
","
","""event"",""trial"",""time""
""fullscreenenter"",""0"",""5390""
","
",null,<p></p>,null,,,,,,,,,,,,,,,,,,,,,,,
,do_trial,246,1417034,0.0-131.0-0.0,"""event"",""trial"",""time""
""fullscreenenter"",""0"",""5390""
","
","
","""event"",""trial"",""time""
""fullscreenenter"",""0"",""5390""
","
",582.4,,,,,,,,51,"0,0,0",1,coast,69,probe-152,0.341342731,0.11252655,0.57737157,0,,,,,,,,
,html-keyboard-response,247,1418042,0.0-131.0-1.0,"""event"",""trial"",""time""
""fullscreenenter"",""0"",""5390""
","
","
","""event"",""trial"",""time""
""fullscreenenter"",""0"",""5390""
","
",null,<p></p>,null,,,,,,,,,,,,,,,,,,,,,,,
,do_bye,248,1419549,0.0-132.0-0.0,"""event"",""trial"",""time""
""fullscreenenter"",""0"",""5390""
","
","
","""event"",""trial"",""time""
""fullscreenenter"",""0"",""5390""
","
",null,,,,,,,,null,,,,,,,,,,,,,,,,,
,break,249,1456219,0.0-132.0-1.0,"""event"",""trial"",""time""
""fullscreenenter"",""0"",""5390""
","
","
","""event"",""trial"",""time""
""fullscreenenter"",""0"",""5390""
","
",36668.3,"<div class='center'><p>Time to take a quick break! You have 2 minutes to rest, but you can move on sooner if you'd like.</p><p> Press the <b>space bar</b> to continue.</p></div>",32,,,,,,,,,,,,,,,,,,,,,,,
,do_travel,250,1465226,0.0-133.0-0.0,"""event"",""trial"",""time""
""fullscreenenter"",""0"",""5390""
","
","
","""event"",""trial"",""time""
""fullscreenenter"",""0"",""5390""
","
",null,,,,,,,,null,,,,,,,,,,,,,,,,,
,do_welcome,251,1469247,0.0-133.0-1.0,"""event"",""trial"",""time""
""fullscreenenter"",""0"",""5390""
","
","
","""event"",""trial"",""time""
""fullscreenenter"",""0"",""5390""
","
",null,,,,,,,,null,,,,,,,,,,,,,,,,,
,do_trial,252,1474928,0.0-134.0-0.0,"""event"",""trial"",""time""
""fullscreenenter"",""0"",""5390""
","
","
","""event"",""trial"",""time""
""fullscreenenter"",""0"",""5390""
","
",1133.5,,,,,,,,50,"0,0,1",2,highway,70,probe-40,0.382877283,0.083324957,1,0,,,,,,,,
,html-keyboard-response,253,1475931,0.0-134.0-1.0,"""event"",""trial"",""time""
""fullscreenenter"",""0"",""5390""
","
","
","""event"",""trial"",""time""
""fullscreenenter"",""0"",""5390""
","
",null,<p></p>,null,,,,,,,,,,,,,,,,,,,,,,,
,do_trial,254,1481218,0.0-135.0-0.0,"""event"",""trial"",""time""
""fullscreenenter"",""0"",""5390""
","
","
","""event"",""trial"",""time""
""fullscreenenter"",""0"",""5390""
","
",742.5,,,,,,,,51,"0,0,1",2,highway,71,probe-93,0.335963483,0.057084026,1,1,,,,,,,,
,html-keyboard-response,255,1482227,0.0-135.0-1.0,"""event"",""trial"",""time""
""fullscreenenter"",""0"",""5390""
","
","
","""event"",""trial"",""time""
""fullscreenenter"",""0"",""5390""
","
",null,<p></p>,null,,,,,,,,,,,,,,,,,,,,,,,
,do_trial,256,1487207,0.0-136.0-0.0,"""event"",""trial"",""time""
""fullscreenenter"",""0"",""5390""
","
","
","""event"",""trial"",""time""
""fullscreenenter"",""0"",""5390""
","
",429.2,,,,,,,,51,"1,0,1",2,highway,72,probe-131,0.355357405,0.079988302,0.894827661,1,,,,,,,,
,html-keyboard-response,257,1488219,0.0-136.0-1.0,"""event"",""trial"",""time""
""fullscreenenter"",""0"",""5390""
","
","
","""event"",""trial"",""time""
""fullscreenenter"",""0"",""5390""
","
",null,<p></p>,null,,,,,,,,,,,,,,,,,,,,,,,
,do_trial,258,1493055,0.0-137.0-0.0,"""event"",""trial"",""time""
""fullscreenenter"",""0"",""5390""
","
","
","""event"",""trial"",""time""
""fullscreenenter"",""0"",""5390""
","
",291.7,,,,,,,,51,"0,0,1",2,highway,73,probe-70,0.309496356,0.184333747,0.729499084,1,,,,,,,,
,html-keyboard-response,259,1494069,0.0-137.0-1.0,"""event"",""trial"",""time""
""fullscreenenter"",""0"",""5390""
","
","
","""event"",""trial"",""time""
""fullscreenenter"",""0"",""5390""
","
",null,<p></p>,null,,,,,,,,,,,,,,,,,,,,,,,
,do_trial,260,1499097,0.0-138.0-0.0,"""event"",""trial"",""time""
""fullscreenenter"",""0"",""5390""
","
","
","""event"",""trial"",""time""
""fullscreenenter"",""0"",""5390""
","
",486.9,,,,,,,,51,"0,0,0",2,highway,74,probe-156,0.351402614,0.121951778,0.573937421,0,,,,,,,,
,html-keyboard-response,261,1500113,0.0-138.0-1.0,"""event"",""trial"",""time""
""fullscreenenter"",""0"",""5390""
","
","
","""event"",""trial"",""time""
""fullscreenenter"",""0"",""5390""
","
",null,<p></p>,null,,,,,,,,,,,,,,,,,,,,,,,
,do_trial,262,1505154,0.0-139.0-0.0,"""event"",""trial"",""time""
""fullscreenenter"",""0"",""5390""
","
","
","""event"",""trial"",""time""
""fullscreenenter"",""0"",""5390""
","
",484.7,,,,,,,,51,"1,1,0",2,highway,75,probe-73,0.179402235,0.208165925,0.605177053,0,,,,,,,,
,html-keyboard-response,263,1506157,0.0-139.0-1.0,"""event"",""trial"",""time""
""fullscreenenter"",""0"",""5390""
","
","
","""event"",""trial"",""time""
""fullscreenenter"",""0"",""5390""
","
",null,<p></p>,null,,,,,,,,,,,,,,,,,,,,,,,
,do_trial,264,1511250,0.0-140.0-0.0,"""event"",""trial"",""time""
""fullscreenenter"",""0"",""5390""
","
","
","""event"",""trial"",""time""
""fullscreenenter"",""0"",""5390""
","
",542.8,,,,,,,,51,"0,0,0",2,highway,76,probe-188,0.188524605,0.260467491,0.597661661,0,,,,,,,,
,html-keyboard-response,265,1512263,0.0-140.0-1.0,"""event"",""trial"",""time""
""fullscreenenter"",""0"",""5390""
","
","
","""event"",""trial"",""time""
""fullscreenenter"",""0"",""5390""
","
",null,<p></p>,null,,,,,,,,,,,,,,,,,,,,,,,
,do_trial,266,1517178,0.0-141.0-0.0,"""event"",""trial"",""time""
""fullscreenenter"",""0"",""5390""
","
","
","""event"",""trial"",""time""
""fullscreenenter"",""0"",""5390""
","
",369.3,,,,,,,,51,"0,0,0",2,highway,77,probe-61,0.310079968,0.147592307,0.626666187,0,,,,,,,,
,html-keyboard-response,267,1518194,0.0-141.0-1.0,"""event"",""trial"",""time""
""fullscreenenter"",""0"",""5390""
","
","
","""event"",""trial"",""time""
""fullscreenenter"",""0"",""5390""
","
",null,<p></p>,null,,,,,,,,,,,,,,,,,,,,,,,
,do_trial,268,1523120,0.0-142.0-0.0,"""event"",""trial"",""time""
""fullscreenenter"",""0"",""5390""
","
","
","""event"",""trial"",""time""
""fullscreenenter"",""0"",""5390""
","
",377.2,,,,,,,,49,"0,0,1",2,highway,78,probe-36,0.293936472,0.243882204,0.561360355,0,,,,,,,,
,html-keyboard-response,269,1524134,0.0-142.0-1.0,"""event"",""trial"",""time""
""fullscreenenter"",""0"",""5390""
","
","
","""event"",""trial"",""time""
""fullscreenenter"",""0"",""5390""
","
",null,<p></p>,null,,,,,,,,,,,,,,,,,,,,,,,
,do_trial,270,1529303,0.0-143.0-0.0,"""event"",""trial"",""time""
""fullscreenenter"",""0"",""5390""
","
","
","""event"",""trial"",""time""
""fullscreenenter"",""0"",""5390""
","
",623.1,,,,,,,,50,"0,0,0",2,highway,79,probe-118,0.241957815,0.154319869,0.575214117,0,,,,,,,,
,html-keyboard-response,271,1530316,0.0-143.0-1.0,"""event"",""trial"",""time""
""fullscreenenter"",""0"",""5390""
","
","
","""event"",""trial"",""time""
""fullscreenenter"",""0"",""5390""
","
",null,<p></p>,null,,,,,,,,,,,,,,,,,,,,,,,
,do_trial,272,1535265,0.0-144.0-0.0,"""event"",""trial"",""time""
""fullscreenenter"",""0"",""5390""
","
","
","""event"",""trial"",""time""
""fullscreenenter"",""0"",""5390""
","
",396.6,,,,,,,,49,"0,1,0",2,highway,80,probe-03,0.178735109,0.219797707,0.636293712,0,,,,,,,,
,html-keyboard-response,273,1536278,0.0-144.0-1.0,"""event"",""trial"",""time""
""fullscreenenter"",""0"",""5390""
","
","
","""event"",""trial"",""time""
""fullscreenenter"",""0"",""5390""
","
",null,<p></p>,null,,,,,,,,,,,,,,,,,,,,,,,
,do_trial,274,1541291,0.0-145.0-0.0,"""event"",""trial"",""time""
""fullscreenenter"",""0"",""5390""
","
","
","""event"",""trial"",""time""
""fullscreenenter"",""0"",""5390""
","
",463.8,,,,,,,,50,"0,0,0",2,highway,81,probe-05,0.095102026,0.390088448,0.449814273,0,,,,,,,,
,html-keyboard-response,275,1542301,0.0-145.0-1.0,"""event"",""trial"",""time""
""fullscreenenter"",""0"",""5390""
","
","
","""event"",""trial"",""time""
""fullscreenenter"",""0"",""5390""
","
",null,<p></p>,null,,,,,,,,,,,,,,,,,,,,,,,
,do_trial,276,1547339,0.0-146.0-0.0,"""event"",""trial"",""time""
""fullscreenenter"",""0"",""5390""
","
","
","""event"",""trial"",""time""
""fullscreenenter"",""0"",""5390""
","
",497.3,,,,,,,,51,"0,1,1",2,highway,82,probe-154,0.060184128,0.459070544,0.609469662,1,,,,,,,,
,html-keyboard-response,277,1548351,0.0-146.0-1.0,"""event"",""trial"",""time""
""fullscreenenter"",""0"",""5390""
","
","
","""event"",""trial"",""time""
""fullscreenenter"",""0"",""5390""
","
",null,<p></p>,null,,,,,,,,,,,,,,,,,,,,,,,
,do_trial,278,1553424,0.0-147.0-0.0,"""event"",""trial"",""time""
""fullscreenenter"",""0"",""5390""
","
","
","""event"",""trial"",""time""
""fullscreenenter"",""0"",""5390""
","
",534.7,,,,,,,,51,"0,1,1",2,highway,83,probe-120,0.058704576,0.530917049,0.335365023,1,,,,,,,,
,html-keyboard-response,279,1554438,0.0-147.0-1.0,"""event"",""trial"",""time""
""fullscreenenter"",""0"",""5390""
","
","
","""event"",""trial"",""time""
""fullscreenenter"",""0"",""5390""
","
",null,<p></p>,null,,,,,,,,,,,,,,,,,,,,,,,
,do_trial,280,1559564,0.0-148.0-0.0,"""event"",""trial"",""time""
""fullscreenenter"",""0"",""5390""
","
","
","""event"",""trial"",""time""
""fullscreenenter"",""0"",""5390""
","
",571.3,,,,,,,,51,"0,0,1",2,highway,84,probe-31,0.19477934,0.465027722,0.25114501,1,,,,,,,,
,html-keyboard-response,281,1560572,0.0-148.0-1.0,"""event"",""trial"",""time""
""fullscreenenter"",""0"",""5390""
","
","
","""event"",""trial"",""time""
""fullscreenenter"",""0"",""5390""
","
",null,<p></p>,null,,,,,,,,,,,,,,,,,,,,,,,
,do_trial,282,1566035,0.0-149.0-0.0,"""event"",""trial"",""time""
""fullscreenenter"",""0"",""5390""
","
","
","""event"",""trial"",""time""
""fullscreenenter"",""0"",""5390""
","
",919.5,,,,,,,,51,"0,1,0",2,highway,85,probe-96,0.133736495,0.676577871,0.303032671,0,,,,,,,,
,html-keyboard-response,283,1567046,0.0-149.0-1.0,"""event"",""trial"",""time""
""fullscreenenter"",""0"",""5390""
","
","
","""event"",""trial"",""time""
""fullscreenenter"",""0"",""5390""
","
",null,<p></p>,null,,,,,,,,,,,,,,,,,,,,,,,
,do_trial,284,1572354,0.0-150.0-0.0,"""event"",""trial"",""time""
""fullscreenenter"",""0"",""5390""
","
","
","""event"",""trial"",""time""
""fullscreenenter"",""0"",""5390""
","
",756.9,,,,,,,,51,"0,1,0",2,highway,86,probe-221,0.094724688,0.764976812,0.237910282,0,,,,,,,,
,html-keyboard-response,285,1573360,0.0-150.0-1.0,"""event"",""trial"",""time""
""fullscreenenter"",""0"",""5390""
","
","
","""event"",""trial"",""time""
""fullscreenenter"",""0"",""5390""
","
",null,<p></p>,null,,,,,,,,,,,,,,,,,,,,,,,
,do_trial,286,1578593,0.0-151.0-0.0,"""event"",""trial"",""time""
""fullscreenenter"",""0"",""5390""
","
","
","""event"",""trial"",""time""
""fullscreenenter"",""0"",""5390""
","
",686.6,,,,,,,,51,"1,0,0",2,highway,87,probe-184,0.095643863,0.630019686,0.26539139,0,,,,,,,,
,html-keyboard-response,287,1579601,0.0-151.0-1.0,"""event"",""trial"",""time""
""fullscreenenter"",""0"",""5390""
","
","
","""event"",""trial"",""time""
""fullscreenenter"",""0"",""5390""
","
",null,<p></p>,null,,,,,,,,,,,,,,,,,,,,,,,
,do_trial,288,1584470,0.0-152.0-0.0,"""event"",""trial"",""time""
""fullscreenenter"",""0"",""5390""
","
","
","""event"",""trial"",""time""
""fullscreenenter"",""0"",""5390""
","
",323.8,,,,,,,,50,"0,1,1",2,highway,88,probe-85,0.064285411,0.538739263,0.346061041,1,,,,,,,,
,html-keyboard-response,289,1585481,0.0-152.0-1.0,"""event"",""trial"",""time""
""fullscreenenter"",""0"",""5390""
","
","
","""event"",""trial"",""time""
""fullscreenenter"",""0"",""5390""
","
",null,<p></p>,null,,,,,,,,,,,,,,,,,,,,,,,
,do_trial,290,1590423,0.0-153.0-0.0,"""event"",""trial"",""time""
""fullscreenenter"",""0"",""5390""
","
","
","""event"",""trial"",""time""
""fullscreenenter"",""0"",""5390""
","
",391.8,,,,,,,,50,"1,0,0",2,highway,89,probe-49,0.134880245,0.51539305,0.327555595,0,,,,,,,,
,html-keyboard-response,291,1591437,0.0-153.0-1.0,"""event"",""trial"",""time""
""fullscreenenter"",""0"",""5390""
","
","
","""event"",""trial"",""time""
""fullscreenenter"",""0"",""5390""
","
",null,<p></p>,null,,,,,,,,,,,,,,,,,,,,,,,
,do_trial,292,1596344,0.0-154.0-0.0,"""event"",""trial"",""time""
""fullscreenenter"",""0"",""5390""
","
","
","""event"",""trial"",""time""
""fullscreenenter"",""0"",""5390""
","
",354.5,,,,,,,,50,"0,0,1",2,highway,90,probe-171,0.064975176,0.655744969,0.392288246,0,,,,,,,,
,html-keyboard-response,293,1597354,0.0-154.0-1.0,"""event"",""trial"",""time""
""fullscreenenter"",""0"",""5390""
","
","
","""event"",""trial"",""time""
""fullscreenenter"",""0"",""5390""
","
",null,<p></p>,null,,,,,,,,,,,,,,,,,,,,,,,
,do_trial,294,1602260,0.0-155.0-0.0,"""event"",""trial"",""time""
""fullscreenenter"",""0"",""5390""
","
","
","""event"",""trial"",""time""
""fullscreenenter"",""0"",""5390""
","
",364.6,,,,,,,,50,"0,1,1",2,highway,91,probe-14,0.130173847,0.70218572,0.362881244,1,,,,,,,,
,html-keyboard-response,295,1603271,0.0-155.0-1.0,"""event"",""trial"",""time""
""fullscreenenter"",""0"",""5390""
","
","
","""event"",""trial"",""time""
""fullscreenenter"",""0"",""5390""
","
",null,<p></p>,null,,,,,,,,,,,,,,,,,,,,,,,
,do_trial,296,1608132,0.0-156.0-0.0,"""event"",""trial"",""time""
""fullscreenenter"",""0"",""5390""
","
","
","""event"",""trial"",""time""
""fullscreenenter"",""0"",""5390""
","
",314.1,,,,,,,,50,"0,1,0",2,highway,92,probe-133,0.080902597,0.776921875,0.444131123,1,,,,,,,,
,html-keyboard-response,297,1609146,0.0-156.0-1.0,"""event"",""trial"",""time""
""fullscreenenter"",""0"",""5390""
","
","
","""event"",""trial"",""time""
""fullscreenenter"",""0"",""5390""
","
",null,<p></p>,null,,,,,,,,,,,,,,,,,,,,,,,
,do_trial,298,1614235,0.0-157.0-0.0,"""event"",""trial"",""time""
""fullscreenenter"",""0"",""5390""
","
","
","""event"",""trial"",""time""
""fullscreenenter"",""0"",""5390""
","
",533.5,,,,,,,,50,"0,1,1",2,highway,93,probe-197,0.095700696,0.803110717,0.494056745,1,,,,,,,,
,html-keyboard-response,299,1615247,0.0-157.0-1.0,"""event"",""trial"",""time""
""fullscreenenter"",""0"",""5390""
","
","
","""event"",""trial"",""time""
""fullscreenenter"",""0"",""5390""
","
",null,<p></p>,null,,,,,,,,,,,,,,,,,,,,,,,
,do_trial,300,1620434,0.0-158.0-0.0,"""event"",""trial"",""time""
""fullscreenenter"",""0"",""5390""
","
","
","""event"",""trial"",""time""
""fullscreenenter"",""0"",""5390""
","
",631.4,,,,,,,,50,"0,1,1",2,highway,94,probe-27,0.238065619,0.722734319,0.448520451,1,,,,,,,,
,html-keyboard-response,301,1621448,0.0-158.0-1.0,"""event"",""trial"",""time""
""fullscreenenter"",""0"",""5390""
","
","
","""event"",""trial"",""time""
""fullscreenenter"",""0"",""5390""
","
",null,<p></p>,null,,,,,,,,,,,,,,,,,,,,,,,
,do_trial,302,1626550,0.0-159.0-0.0,"""event"",""trial"",""time""
""fullscreenenter"",""0"",""5390""
","
","
","""event"",""trial"",""time""
""fullscreenenter"",""0"",""5390""
","
",558.3,,,,,,,,50,"0,0,1",2,highway,95,probe-75,0.215365852,0.713626504,0.399149038,0,,,,,,,,
,html-keyboard-response,303,1627562,0.0-159.0-1.0,"""event"",""trial"",""time""
""fullscreenenter"",""0"",""5390""
","
","
","""event"",""trial"",""time""
""fullscreenenter"",""0"",""5390""
","
",null,<p></p>,null,,,,,,,,,,,,,,,,,,,,,,,
,do_trial,304,1632358,0.0-160.0-0.0,"""event"",""trial"",""time""
""fullscreenenter"",""0"",""5390""
","
","
","""event"",""trial"",""time""
""fullscreenenter"",""0"",""5390""
","
",251.2,,,,,,,,50,"0,1,1",2,highway,96,probe-161,0.25256959,0.753607372,0.374537054,1,,,,,,,,
,html-keyboard-response,305,1633368,0.0-160.0-1.0,"""event"",""trial"",""time""
""fullscreenenter"",""0"",""5390""
","
","
","""event"",""trial"",""time""
""fullscreenenter"",""0"",""5390""
","
",null,<p></p>,null,,,,,,,,,,,,,,,,,,,,,,,
,do_trial,306,1638425,0.0-161.0-0.0,"""event"",""trial"",""time""
""fullscreenenter"",""0"",""5390""
","
","
","""event"",""trial"",""time""
""fullscreenenter"",""0"",""5390""
","
",503.3,,,,,,,,50,"1,0,1",2,highway,97,probe-106,0.271622442,0.662636385,0.303283135,0,,,,,,,,
,html-keyboard-response,307,1639434,0.0-161.0-1.0,"""event"",""trial"",""time""
""fullscreenenter"",""0"",""5390""
","
","
","""event"",""trial"",""time""
""fullscreenenter"",""0"",""5390""
","
",null,<p></p>,null,,,,,,,,,,,,,,,,,,,,,,,
,do_trial,308,1644282,0.0-162.0-0.0,"""event"",""trial"",""time""
""fullscreenenter"",""0"",""5390""
","
","
","""event"",""trial"",""time""
""fullscreenenter"",""0"",""5390""
","
",294.5,,,,,,,,50,"0,1,0",2,highway,98,probe-122,0.274425623,0.631533325,0.514581882,1,,,,,,,,
,html-keyboard-response,309,1645293,0.0-162.0-1.0,"""event"",""trial"",""time""
""fullscreenenter"",""0"",""5390""
","
","
","""event"",""trial"",""time""
""fullscreenenter"",""0"",""5390""
","
",null,<p></p>,null,,,,,,,,,,,,,,,,,,,,,,,
,do_trial,310,1650342,0.0-163.0-0.0,"""event"",""trial"",""time""
""fullscreenenter"",""0"",""5390""
","
","
","""event"",""trial"",""time""
""fullscreenenter"",""0"",""5390""
","
",500.4,,,,,,,,50,"0,1,1",2,highway,99,probe-217,0.418367432,0.724424736,0.466826355,1,,,,,,,,
,html-keyboard-response,311,1651352,0.0-163.0-1.0,"""event"",""trial"",""time""
""fullscreenenter"",""0"",""5390""
","
","
","""event"",""trial"",""time""
""fullscreenenter"",""0"",""5390""
","
",null,<p></p>,null,,,,,,,,,,,,,,,,,,,,,,,
,do_trial,312,1656602,0.0-164.0-0.0,"""event"",""trial"",""time""
""fullscreenenter"",""0"",""5390""
","
","
","""event"",""trial"",""time""
""fullscreenenter"",""0"",""5390""
","
",696.3,,,,,,,,50,"0,0,0",2,highway,100,probe-34,0.341754182,0.660680456,0.490567292,0,,,,,,,,
,html-keyboard-response,313,1657615,0.0-164.0-1.0,"""event"",""trial"",""time""
""fullscreenenter"",""0"",""5390""
","
","
","""event"",""trial"",""time""
""fullscreenenter"",""0"",""5390""
","
",null,<p></p>,null,,,,,,,,,,,,,,,,,,,,,,,
,do_trial,314,1662543,0.0-165.0-0.0,"""event"",""trial"",""time""
""fullscreenenter"",""0"",""5390""
","
","
","""event"",""trial"",""time""
""fullscreenenter"",""0"",""5390""
","
",371.5,,,,,,,,50,"0,0,0",2,highway,101,probe-35,0.224818633,0.730437797,0.288993286,0,,,,,,,,
,html-keyboard-response,315,1663553,0.0-165.0-1.0,"""event"",""trial"",""time""
""fullscreenenter"",""0"",""5390""
","
","
","""event"",""trial"",""time""
""fullscreenenter"",""0"",""5390""
","
",null,<p></p>,null,,,,,,,,,,,,,,,,,,,,,,,
,do_trial,316,1668627,0.0-166.0-0.0,"""event"",""trial"",""time""
""fullscreenenter"",""0"",""5390""
","
","
","""event"",""trial"",""time""
""fullscreenenter"",""0"",""5390""
","
",527,,,,,,,,50,"0,0,0",2,highway,102,probe-170,0.3465553,0.592761824,0.234042191,0,,,,,,,,
,html-keyboard-response,317,1669634,0.0-166.0-1.0,"""event"",""trial"",""time""
""fullscreenenter"",""0"",""5390""
","
","
","""event"",""trial"",""time""
""fullscreenenter"",""0"",""5390""
","
",null,<p></p>,null,,,,,,,,,,,,,,,,,,,,,,,
,do_trial,318,1674783,0.0-167.0-0.0,"""event"",""trial"",""time""
""fullscreenenter"",""0"",""5390""
","
","
","""event"",""trial"",""time""
""fullscreenenter"",""0"",""5390""
","
",603.5,,,,,,,,50,"1,0,0",2,highway,103,probe-29,0.36701907,0.573949916,0.310554954,0,,,,,,,,
,html-keyboard-response,319,1675791,0.0-167.0-1.0,"""event"",""trial"",""time""
""fullscreenenter"",""0"",""5390""
","
","
","""event"",""trial"",""time""
""fullscreenenter"",""0"",""5390""
","
",null,<p></p>,null,,,,,,,,,,,,,,,,,,,,,,,
,do_trial,320,1680659,0.0-168.0-0.0,"""event"",""trial"",""time""
""fullscreenenter"",""0"",""5390""
","
","
","""event"",""trial"",""time""
""fullscreenenter"",""0"",""5390""
","
",320.2,,,,,,,,49,"0,1,0",2,highway,104,probe-108,0.413504916,0.62662208,0.382072335,0,,,,,,,,
,html-keyboard-response,321,1681665,0.0-168.0-1.0,"""event"",""trial"",""time""
""fullscreenenter"",""0"",""5390""
","
","
","""event"",""trial"",""time""
""fullscreenenter"",""0"",""5390""
","
",null,<p></p>,null,,,,,,,,,,,,,,,,,,,,,,,
,do_trial,322,1686551,0.0-169.0-0.0,"""event"",""trial"",""time""
""fullscreenenter"",""0"",""5390""
","
","
","""event"",""trial"",""time""
""fullscreenenter"",""0"",""5390""
","
",343,,,,,,,,50,"0,1,0",2,highway,105,probe-42,0.23663751,0.51931174,0.110630566,1,,,,,,,,
,html-keyboard-response,323,1687559,0.0-169.0-1.0,"""event"",""trial"",""time""
""fullscreenenter"",""0"",""5390""
","
","
","""event"",""trial"",""time""
""fullscreenenter"",""0"",""5390""
","
",null,<p></p>,null,,,,,,,,,,,,,,,,,,,,,,,
,do_trial,324,1692431,0.0-170.0-0.0,"""event"",""trial"",""time""
""fullscreenenter"",""0"",""5390""
","
","
","""event"",""trial"",""time""
""fullscreenenter"",""0"",""5390""
","
",330.2,,,,,,,,50,"0,0,0",2,highway,106,probe-53,0.120641432,0.709402428,0.243888052,0,,,,,,,,
,html-keyboard-response,325,1693445,0.0-170.0-1.0,"""event"",""trial"",""time""
""fullscreenenter"",""0"",""5390""
","
","
","""event"",""trial"",""time""
""fullscreenenter"",""0"",""5390""
","
",null,<p></p>,null,,,,,,,,,,,,,,,,,,,,,,,
,do_trial,326,1698304,0.0-171.0-0.0,"""event"",""trial"",""time""
""fullscreenenter"",""0"",""5390""
","
","
","""event"",""trial"",""time""
""fullscreenenter"",""0"",""5390""
","
",314.6,,,,,,,,50,"0,0,0",2,highway,107,probe-181,0.109482306,0.591729554,0.180012508,0,,,,,,,,
,html-keyboard-response,327,1699318,0.0-171.0-1.0,"""event"",""trial"",""time""
""fullscreenenter"",""0"",""5390""
","
","
","""event"",""trial"",""time""
""fullscreenenter"",""0"",""5390""
","
",null,<p></p>,null,,,,,,,,,,,,,,,,,,,,,,,
,do_trial,328,1704220,0.0-172.0-0.0,"""event"",""trial"",""time""
""fullscreenenter"",""0"",""5390""
","
","
","""event"",""trial"",""time""
""fullscreenenter"",""0"",""5390""
","
",351.3,,,,,,,,50,"0,1,0",2,highway,108,probe-60,0.161958071,0.689084217,0.079186688,1,,,,,,,,
,html-keyboard-response,329,1705234,0.0-172.0-1.0,"""event"",""trial"",""time""
""fullscreenenter"",""0"",""5390""
","
","
","""event"",""trial"",""time""
""fullscreenenter"",""0"",""5390""
","
",null,<p></p>,null,,,,,,,,,,,,,,,,,,,,,,,
,do_trial,330,1710475,0.0-173.0-0.0,"""event"",""trial"",""time""
""fullscreenenter"",""0"",""5390""
","
","
","""event"",""trial"",""time""
""fullscreenenter"",""0"",""5390""
","
