"success","trial_type","trial_index","time_elapsed","internal_node_id","rt","stimulus","key_press","subject_id","participant_id","age","gender","prompt","response","choice_outcomes","context_n","context_img_id","trial_n","probe_img_id","pR_red","pR_white","pR_black","outcome","contextArray_ind","validImageProbes","invalidImageProbes","pRew_Red","pRew_White","pRew_Black","availableForMemProbe","choice_blocks"
"true","fullscreen","0","3693","0.0-0.0","","","","","","","","","","","","","","","","","","","","","","","","","",""
"","pavlovia","1","3696","0.0-1.0","","","","","","","","","","","","","","","","","","","","","","","","","",""
"","instruc1","2","54793","0.0-2.0","null","run_exp/static/audio/clip_1_welcome.m4a","null","111","69","10","Female","<div class='center'><p>Welcome! This is the first part of the experiment. It will last ~30 minutes. In this experiment, you are the head captain of a pirate ship traveling around the world to different islands. You will play a few different games during this experiment. Here is an overview of these games:</p><br><p>Part 1 (today)</p><p>1. Instructions, practice game, and quiz</p><p>2. Pick a pirate game on 6 different islands</p><br><p>Part 2 (1 day later)</p><p>3. Pick a pirate game and memory game</p><p>4. Where did I see this ship? game</p><p>5. Which pirate was the best? game</p><br><p>Part 3 (1 week later)</p><p>6. Memory game</p></div>","","","","","","","","","","","","","","","","","",""
"","html-keyboard-response","3","83721","0.0-3.0","28925.20000000298","<div class='center'><p>Welcome! This is the first part of the experiment. It will last ~30 minutes. In this experiment, you are the head captain of a pirate ship traveling around the world to different islands. You will play a few different games during this experiment. Here is an overview of these games:</p><br><p>Part 1 (today)</p><p>1. Instructions, practice game, and quiz</p><p>2. Pick a pirate game on 6 different islands</p><br><p>Part 2 (1 day later)</p><p>3. Pick a pirate game and memory game</p><p>4. Where did I see this ship? game</p><p>5. Which pirate was the best? game</p><br><p>Part 3 (1 week later)</p><p>6. Memory game</p><p><b>[Press the space bar to continue]</b></p></div>","32","","","","","","","","","","","","","","","","","","","","","","",""
"","instruc2","4","92034","0.0-4.0","null","run_exp/static/audio/clip_2_different_places.m4a","null","","","","","<div class='center'><p>Today, you’ll visit these 6 islands on your journey. You'll be able to see these islands from your ship.</p><p><img src='run_exp/static/images/contexts/all_contexts.png' height='500'></p></div>","","","","","","","","","","","","","","","","","",""
"","html-keyboard-response","5","94090","0.0-5.0","2053.7000000029802","<div class='center'><p>Today, you’ll visit these 6 islands on your journey. You'll be able to see these islands from your ship.</p><p><img src='run_exp/static/images/contexts/all_contexts.png' height='500'></p><p><b>[Press the space bar to continue]</b></p></div>","32","","","","","","","","","","","","","","","","","","","","","","",""
"","instruc3","6","106674","0.0-6.0","null","run_exp/static/audio/clip_3_goal_of_game_1.m4a","null","","","","","<div class='center'><p> The pirates on your ship will rob other ships as they leave the island</p> These ships have just sold their things to people on the island, so they will be filled with lots and lots of gold.</p><p><img src='run_exp/static/images/tutorial/ship_center.png' height='400'></p></div>","","","","","","","","","","","","","","","","","",""
"","html-keyboard-response","7","110394","0.0-7.0","3719.1999999955297","<div class='center'><p> The pirates on your ship will rob other ships as they leave the island</p> These ships have just sold their things to people on the island, so they will be filled with lots and lots of gold.</p><p><img src='run_exp/static/images/tutorial/ship_center.png' height='400'></p><p><b>[Press the space bar to continue]</b></p></div>","32","","","","","","","","","","","","","","","","","","","","","","",""
"","instruc4","8","143616","0.0-8.0","null","run_exp/static/audio/clip_4_goal_of_game_2.m4a","null","","","","","<div class='center'><p>As the head captain, you do not have to rob any ships yourself.</p><p>Another pirate will be doing the robbing for you. </p><p>First, you will  choose a pirate to rob the next ship.</p><p><img src='run_exp/static/images/tutorial/pirates_all_crop.png' height='200'></p><p>Then, you'll see if the pirate successfully robbed the ship of their gold. If they were successful, then you'll  get a stack of gold coins like this:</p><p><img src='run_exp/static/images/tutorial/reward.png' height='150'></p><p> If they were <b>not</b> successful, then you'll get no gold coins, and you'll see a big red x like this: </p><p><img src='run_exp/static/images/tutorial/reward_no.png' height='150'></p><p> How much bonus money you make is based on how many gold coins you collect.</p><div>","","","","","","","","","","","","","","","","","",""
"","html-keyboard-response","9","150476","0.0-9.0","6858.39999999851","<div class='center'><p>As the head captain, you do not have to rob any ships yourself.</p><p>Another pirate will be doing the robbing for you. </p><p>First, you will  choose a pirate to rob the next ship.</p><p><img src='run_exp/static/images/tutorial/pirates_all_crop.png' height='200'></p><p>Then, you'll see if the pirate successfully robbed the ship of their gold. If they were successful, then you'll  get a stack of gold coins like this:</p><p><img src='run_exp/static/images/tutorial/reward.png' height='150'></p><p> If they were <b>not</b> successful, then you'll get no gold coins, and you'll see a big red x like this: </p><p><img src='run_exp/static/images/tutorial/reward_no.png' height='150'></p><p> How much bonus money you make is based on how many gold coins you collect.</p<p><b>[Press the space bar to continue]</b></p></div>","32","","","","","","","","","","","","","","","","","","","","","","",""
"","instruc5","10","176826","0.0-10.0","26346.89999999851","run_exp/static/audio/clip_5_probabilistic.m4a","49","","","","","<div class='center'><p>Even the most skilled pirate can not rob EVERY ship.</p><p> Some ships will have very strong protections against pirate attacks.</p><p> Blue beard, here, is very, very good at robbing ships, but he won't be successful every time he tries to rob one.</p><p> You can press the <b>‘1’</b> key on the keyboard to choose him.</p><p> Try choosing him 10 times to see how often he succeeds at robbing a ship. </p><p><img src='run_exp/static/images/tutorial/blue.png' height='500'></p></div>","","","","","","","","","","","","","","","","","",""
"","html-keyboard-response","11","178343","0.0-11.0","null","<div class='center'><p><img src='run_exp/static/images/tutorial/blue_win.png' height='500'></p></div>","null","","","","","","","","","","","","","","","","","","","","","","",""
"","html-keyboard-response","12","178454","0.0-12.0","108.89999999850988","<div class='center'><img src='run_exp/static/images/tutorial/blue.png' height='500'></p></div>","49","","","","","","","","","","","","","","","","","","","","","","",""
"","html-keyboard-response","13","179963","0.0-13.0","null","<div class='center'><p><img src='run_exp/static/images/tutorial/blue_win.png' height='500'></p></div>","null","","","","","","","","","","","","","","","","","","","","","","",""
"","html-keyboard-response","14","180683","0.0-14.0","718.8999999985099","<div class='center'><img src='run_exp/static/images/tutorial/blue.png' height='500'></p></div>","49","","","","","","","","","","","","","","","","","","","","","","",""
"","html-keyboard-response","15","182203","0.0-15.0","null","<div class='center'><p><img src='run_exp/static/images/tutorial/blue_win.png' height='500'></p></div>","null","","","","","","","","","","","","","","","","","","","","","","",""
"","html-keyboard-response","16","182544","0.0-16.0","338.70000000298023","<div class='center'><img src='run_exp/static/images/tutorial/blue.png' height='500'></p></div>","49","","","","","","","","","","","","","","","","","","","","","","",""
"","html-keyboard-response","17","184054","0.0-17.0","null","<div class='center'><p><img src='run_exp/static/images/tutorial/blue_no_win.png' height='500'></p></div>","null","","","","","","","","","","","","","","","","","","","","","","",""
"","html-keyboard-response","18","184313","0.0-18.0","257.69999999552965","<div class='center'><img src='run_exp/static/images/tutorial/blue.png' height='500'></p></div>","49","","","","","","","","","","","","","","","","","","","","","","",""
"","html-keyboard-response","19","185823","0.0-19.0","null","<div class='center'><p><img src='run_exp/static/images/tutorial/blue_win.png' height='500'></p></div>","null","","","","","","","","","","","","","","","","","","","","","","",""
"","html-keyboard-response","20","186006","0.0-20.0","182","<div class='center'><img src='run_exp/static/images/tutorial/blue.png' height='500'></p></div>","49","","","","","","","","","","","","","","","","","","","","","","",""
"","html-keyboard-response","21","187520","0.0-21.0","null","<div class='center'><p><img src='run_exp/static/images/tutorial/blue_win.png' height='500'></p></div>","null","","","","","","","","","","","","","","","","","","","","","","",""
"","html-keyboard-response","22","187757","0.0-22.0","235.60000000149012","<div class='center'><img src='run_exp/static/images/tutorial/blue.png' height='500'></p></div>","49","","","","","","","","","","","","","","","","","","","","","","",""
"","html-keyboard-response","23","189274","0.0-23.0","null","<div class='center'><p><img src='run_exp/static/images/tutorial/blue_win.png' height='500'></p></div>","null","","","","","","","","","","","","","","","","","","","","","","",""
"","html-keyboard-response","24","189310","0.0-24.0","34.20000000298023","<div class='center'><img src='run_exp/static/images/tutorial/blue.png' height='500'></p></div>","49","","","","","","","","","","","","","","","","","","","","","","",""
"","html-keyboard-response","25","190825","0.0-25.0","null","<div class='center'><p><img src='run_exp/static/images/tutorial/blue_no_win.png' height='500'></p></div>","null","","","","","","","","","","","","","","","","","","","","","","",""
"","html-keyboard-response","26","191064","0.0-26.0","237.79999999701977","<div class='center'><img src='run_exp/static/images/tutorial/blue.png' height='500'></p></div>","49","","","","","","","","","","","","","","","","","","","","","","",""
"","html-keyboard-response","27","192577","0.0-27.0","null","<div class='center'><p><img src='run_exp/static/images/tutorial/blue_win.png' height='500'></p></div>","null","","","","","","","","","","","","","","","","","","","","","","",""
"","html-keyboard-response","28","192829","0.0-28.0","250.60000000149012","<div class='center'><img src='run_exp/static/images/tutorial/blue.png' height='500'></p></div>","49","","","","","","","","","","","","","","","","","","","","","","",""
"","html-keyboard-response","29","194345","0.0-29.0","null","<div class='center'><p><img src='run_exp/static/images/tutorial/blue_win.png' height='500'></p></div>","null","","","","","","","","","","","","","","","","","","","","","","",""
"","instruc6","30","201279","0.0-30.0","null","run_exp/static/audio/clip_6_blue_beard_outcome.m4a","null","","","","","<div class='center'><p> See, he succeeded in robbing the ships most of the time but not every time. </p></div>","","","","","","","","","","","","","","","","","",""
"","html-keyboard-response","31","202741","0.0-31.0","1461.5","<div class='center'><p> See, he succeeded in robbing the ships most of the time but not every time. </p><p><b>[Press the space bar to continue]</b></p></div>","32","","","","","","","","","","","","","","","","","","","","","","",""
"","audio-keyboard-response","32","229234","0.0-32.0","26490.79999999702","run_exp/static/audio/clip_7_pick_pirate.m4a","51","","","","","","","","","","","","","","","","","","","","","","",""
"","audio-keyboard-response","33","235323","0.0-33.0-0.0","6086.20000000298","run_exp/static/audio/clip_8_chosen_pirate_win.m4a","32","","","","","","","","","","","","","","","","","","","","","","",""
"","audio-keyboard-response","34","239619","0.0-33.0-1.0","4293.60000000149","run_exp/static/audio/clip_9_pick_a_pirate_again.m4a","50","","","","","","","","","","","","","","","","","","","","","","",""
"","audio-keyboard-response","35","243652","0.0-34.0-0.0","4031.10000000149","run_exp/static/audio/clip_10_chosen_pirate_loss.m4a","32","","","","","","","","","","","","","","","","","","","","","","",""
"","instruc9","36","250820","0.0-35.0-0.0","null","run_exp/static/audio/clip_11_time_out.m4a","null","","","","","<div class='center'><p>If you don’t make your choice fast enough, you’ll have to wait a few seconds before you can make another one. </p><p><img src='run_exp/static/images/miscellaneous/hurry_up.png' height='500'></p></div>","","","","","","","","","","","","","","","","","",""
"","html-keyboard-response","37","251636","0.0-35.0-1.0","814.3999999985099","<div class='center'><p>If you don’t make your choice fast enough, you’ll have to wait a few seconds before you can make another one. </p><p><img src='run_exp/static/images/miscellaneous/hurry_up.png' height='500'></p><p><b>[Press the space bar to continue]</b></p></div>","32","","","","","","","","","","","","","","","","","","","","","","",""
"","instruc10","38","300259","0.0-35.0-2.0","null","run_exp/static/audio/clip_12_probe.m4a","null","","","","","<div class='center'><p>Once you've choose a pirate, you’ll be shown the ship they are robbing.</p><p>You will never rob the same ship twice. After all, ships that have already been robbed won’t have gold on them. </p><p>Ships can be told apart from one another by the image on them. See, this one has a travel mug on it. </p><p> You’ll have to remember which island you saw each ship on.You will win more bonus money if you remember correctly! To help you remember, you can imagine a story. For example, here, you could imagine a mug full of water in the desert. Or, as another example, if on the forest island, your pirate robbed a ship with an apple on it, you could imagine an apple falling from a tree in the forest. </p><p><img src='run_exp/static/images/tutorial/example_probe.png' height='500'></p></div>","","","","","","","","","","","","","","","","","",""
"","html-keyboard-response","39","306438","0.0-35.0-3.0","6177.5","<div class='center'><p>Once you've choose a pirate, you’ll be shown the ship they are robbing.</p><p>You will never rob the same ship twice. After all, ships that have already been robbed won’t have gold on them. </p><p>Ships can be told apart from one another by the image on them. See, this one has a travel mug on it. </p><p> You’ll have to remember which island you saw each ship on.You will win more bonus money if you remember correctly! To help you remember, you can imagine a story. For example, here, you could imagine a mug full of water in the desert. Or, as another example, if on the forest island, your pirate robbed a ship with an apple on it, you could imagine an apple falling from a tree in the forest. </p><p><img src='run_exp/static/images/tutorial/example_probe.png' height='500'></p><p><b>[Press the space bar to continue]</b></p></div>","32","","","","","","","","","","","","","","","","","","","","","","",""
"","instruc11","40","327339","0.0-35.0-4.0","null","run_exp/static/audio/clip_13_changepoint.m4a","null","","","","","<div class='center'><p>How successful a pirate is at robbing ships will depend on the island you’re on.</p><p> A pirate may have visited this island many times before and gained a lot of practice robbing ships there.</p><p>So, they’re more likely to be successful than a pirate who has never visited the island before.</p></div>","","","","","","","","","","","","","","","","","",""
"","html-keyboard-response","41","331840","0.0-35.0-5.0","4499.60000000149","<div class='center'><p>How successful a pirate is at robbing ships will depend on the island you’re on.</p><p> A pirate may have visited this island many times before and gained a lot of practice robbing ships there.</p><p>So, they’re more likely to be successful than a pirate who has never visited the island before.</p><p><b>[Press the space bar to continue]</b></p></div>","32","","","","","","","","","","","","","","","","","","","","","","",""
"","instruc12","42","359860","0.0-35.0-6.0","null","run_exp/static/audio/clip_14_drift.m4a","null","","","","","<div class='center'><p>How successful a pirate is at robbing ships can also change over the time spent on the island. </p><p> Ships may hear from islanders about the pirates coming and will improve their protections against the attack. This may make it harder to rob them.</p><p> Ships may also become lazy and weaken the strength of their protections. This may make it easier to rob them.</p><br><p>Things are always changing on the high seas! So, try your best to pay attention!</p><p><img src='run_exp/static/images/tutorial/contingency.png' height='500'></p></div>","","","","","","","","","","","","","","","","","",""
"","html-keyboard-response","43","363507","0.0-35.0-7.0","3645.6999999955297","<div class='center'><p>How successful a pirate is at robbing ships can also change over the time spent on the island. </p><p> Ships may hear from islanders about the pirates coming and will improve their protections against the attack. This may make it harder to rob them.</p><p> Ships may also become lazy and weaken the strength of their protections. This may make it easier to rob them.</p><br><p>Things are always changing on the high seas! So, try your best to pay attention!</p><p><img src='run_exp/static/images/tutorial/contingency.png' height='500'></p><p><b>[Press the space bar to continue]</b></p></div>","32","","","","","","","","","","","","","","","","","","","","","","",""
"","instruc13","44","408698","0.0-35.0-8.0","null","run_exp/static/audio/clip_15_summary.m4a","null","","","","","<div class='center'><p>Let's go over the instructions quickly again. You have two important things to do: </p><b><p> 1. Pick the pirate who is the best at robbing ships on the current island. This way you'll collect more gold coins!</p></b><b><p> 2. Remember on which island a ship was robbed.</p> </b><p>The amount of bonus money you can win depends on both.</p><p><br><p>Let’s try a practice game. The game will start by showing you the pirates. First, pick a pirate using the <b> 1, 2, 3 </b> keys on your keyboard. When you are shown a ship, try to remember which island you’re on by making up a story.</p><p>This is just a practice game, so you’re not playing for money. </p><p> Good luck! This game will be very difficult but try your best!</p></div>","","","","","","","","","","","","","","","","","",""
"","html-keyboard-response","45","409592","0.0-35.0-9.0","892.5","<div class='center'><p>Let's go over the instructions quickly again. You have two important things to do: </p><b><p> 1. Pick the pirate who is the best at robbing ships on the current island. This way you'll collect more gold coins!</p></b><b><p> 2. Remember on which island a ship was robbed.</p> </b><p>The amount of bonus money you can win depends on both.</p><p><br><p>Let’s try a practice game. The game will start by showing you the pirates. First, pick a pirate using the <b> 1, 2, 3 </b> keys on your keyboard. When you are shown a ship, try to remember which island you’re on by making up a story.</p><p>This is just a practice game, so you’re not playing for money. </p><p> Good luck! This game will be very difficult but try your best!</p><p><b>[Press the space bar to continue]</b></p></div>","32","","","","","","","","","","","","","","","","","","","","","","",""
"","do_welcome","46","413617","0.0-35.0-10.0","null","","","","","","","","null","","","","","","","","","","","","","","","","",""
"","do_trial","47","419647","0.0-35.0-11.0","null","","","","","","","","null","1,0,0","","","","","","","","","","","","","","","",""
"","html-keyboard-response","48","420667","0.0-36.0-0.0","null","<p></p>","null","","","","","","","","","","","","","","","","","","","","","","",""
"","do_trial","49","426695","0.0-36.0-1.0","null","","","","","","","","null","1,0,0","","","","","","","","","","","","","","","",""
"","html-keyboard-response","50","427701","0.0-37.0-0.0","null","<p></p>","null","","","","","","","","","","","","","","","","","","","","","","",""
"","do_trial","51","432901","0.0-37.0-1.0","676.3999999985099","","","","","","","","51","1,0,0","","","","","","","","","","","","","","","",""
"","html-keyboard-response","52","433903","0.0-38.0-0.0","null","<p></p>","null","","","","","","","","","","","","","","","","","","","","","","",""
"","do_trial","53","439972","0.0-38.0-1.0","1556.3999999985099","","","","","","","","50","1,1,0","","","","","","","","","","","","","","","",""
"","html-keyboard-response","54","440987","0.0-39.0-0.0","null","<p></p>","null","","","","","","","","","","","","","","","","","","","","","","",""
"","do_trial","55","447082","0.0-39.0-1.0","1578.5","","","","","","","","49","1,0,1","","","","","","","","","","","","","","","",""
"","html-keyboard-response","56","448093","0.0-40.0-0.0","null","<p></p>","null","","","","","","","","","","","","","","","","","","","","","","",""
"","do_trial","57","455129","0.0-40.0-1.0","2525.2000000029802","","","","","","","","51","0,1,0","","","","","","","","","","","","","","","",""
"","html-keyboard-response","58","456137","0.0-41.0-0.0","null","<p></p>","null","","","","","","","","","","","","","","","","","","","","","","",""
"","do_trial","59","462224","0.0-41.0-1.0","1573.8000000044703","","","","","","","","49","1,0,0","","","","","","","","","","","","","","","",""
"","do_bye","60","463731","0.0-42.0-0.0","null","","","","","","","","null","","","","","","","","","","","","","","","","",""
"","do_travel","61","472749","0.0-42.0-1.0","null","","","","","","","","null","","","","","","","","","","","","","","","","",""
"","do_welcome","62","476759","0.0-42.0-2.0","null","","","","","","","","null","","","","","","","","","","","","","","","","",""
"","do_trial","63","482369","0.0-42.0-3.0","1091.7999999970198","","","","","","","","50","1,0,0","","","","","","","","","","","","","","","",""
"","html-keyboard-response","64","483389","0.0-43.0-0.0","null","<p></p>","null","","","","","","","","","","","","","","","","","","","","","","",""
"","do_trial","65","488337","0.0-43.0-1.0","428.5","","","","","","","","51","1,0,1","","","","","","","","","","","","","","","",""
"","html-keyboard-response","66","489349","0.0-44.0-0.0","null","<p></p>","null","","","","","","","","","","","","","","","","","","","","","","",""
"","do_trial","67","494529","0.0-44.0-1.0","657.8000000044703","","","","","","","","49","1,1,0","","","","","","","","","","","","","","","",""
"","html-keyboard-response","68","495546","0.0-45.0-0.0","null","<p></p>","null","","","","","","","","","","","","","","","","","","","","","","",""
"","do_trial","69","501787","0.0-45.0-1.0","1727.7999999970198","","","","","","","","50","0,0,1","","","","","","","","","","","","","","","",""
"","html-keyboard-response","70","502792","0.0-46.0-0.0","null","<p></p>","null","","","","","","","","","","","","","","","","","","","","","","",""
"","do_trial","71","509365","0.0-46.0-1.0","2062.89999999851","","","","","","","","51","1,0,1","","","","","","","","","","","","","","","",""
"","html-keyboard-response","72","513207","0.0-47.0-0.0","3838.7999999970198","<div class='center'><p><img src='run_exp/static/images/tutorial/prac_best_pirate.png'  height='500'></p></div>","51","","","","","","","","","","","","","","","","","","","","","","",""
"","html-keyboard-response","73","517933","0.0-48.0-0.0","4722.89999999851","<div class='center'><p>That's incorrect! Red beard was the best.</p><p><b>[Press the space bar to continue]</b></p></div>","32","","","","","","","","","","","","","","","","","","","","","","",""
"","html-keyboard-response","74","524803","0.0-48.0-1.0","6869","<div class='center'><p><img src='run_exp/static/images/tutorial/prac_source.png'  height='500'></p></div>","49","","","","","","","","","","","","","","","","","","","","","","",""
"","html-keyboard-response","75","529209","0.0-49.0-0.0","4404","<div class='center'><p>That's incorrect! You saw this ship on the cavern island</p><p><b>[Press the space bar to continue]</b></p></div>","32","","","","","","","","","","","","","","","","","","","","","","",""
"","quiz_beginning","76","542937","0.0-49.0-1.0","null","run_exp/static/audio/clip_16_quiz_intro.m4a","null","","","","","<div class='center'><p>Good job on the practice game! Now, you will be asked some true or false questions to make sure you really understand the rules of the game.</p><p> Press <b>'1'</b> on the keyboard for true and press <b>'2'</b> for false.</p></div>","","","","","","","","","","","","","","","","","",""
"","audio-keyboard-response","77","556343","0.0-49.0-2.0","13405.59999999404","run_exp/static/audio/clip_17_q1.m4a","49","","","","","","","","","","","","","","","","","","","","","","",""
"","q1_err","78","563975","0.0-50.0-0.0","null","run_exp/static/audio/clip_19_wrong_q1.m4a","null","","","","","<div class='center'><p>That’s incorrect! You win bonus money by collecting as many gold coins as possible!</p></div>","","","","","","","","","","","","","","","","","",""
"","html-keyboard-response","79","565696","0.0-50.0-1.0","1719.2999999970198","<div class='center'><p>That’s incorrect! You win bonus money by collecting as many gold coins as possible!</p><p><b>[Press the space bar to continue]</b></p></div>","32","","","","","","","","","","","","","","","","","","","","","","",""
"","audio-keyboard-response","80","570766","0.0-50.0-2.0","5068.60000000149","run_exp/static/audio/clip_20_q2.m4a","50","","","","","","","","","","","","","","","","","","","","","","",""
"","correct","81","573756","0.0-51.0-0.0","null","run_exp/static/audio/clip_18_correct.m4a","null","","","","","<div class='center'><p>That's correct!</p></div>","","","","","","","","","","","","","","","","","",""
"","html-keyboard-response","82","575857","0.0-51.0-1.0","2099.39999999851","<div class='center'><p>That's correct!</p><p><b>[Press the space bar to continue]</b></p></div>","32","","","","","","","","","","","","","","","","","","","","","","",""
"","audio-keyboard-response","83","579781","0.0-51.0-2.0","3922.2999999970198","run_exp/static/audio/clip_22_q3.m4a","50","","","","","","","","","","","","","","","","","","","","","","",""
"","correct","84","582757","0.0-52.0-0.0","null","run_exp/static/audio/clip_18_correct.m4a","null","","","","","<div class='center'><p>That's correct!</p></div>","","","","","","","","","","","","","","","","","",""
"","html-keyboard-response","85","586020","0.0-52.0-1.0","3262.3000000044703","<div class='center'><p>That's correct!</p><p><b>[Press the space bar to continue]</b></p></div>","32","","","","","","","","","","","","","","","","","","","","","","",""
"","audio-keyboard-response","86","590746","0.0-52.0-2.0","4725","run_exp/static/audio/clip_24_q4.m4a","50","","","","","","","","","","","","","","","","","","","","","","",""
"","q4_err","87","602897","0.0-53.0-0.0","null","run_exp/static/audio/clip_25_wrong_q4.m4a","null","","","","","<div class='center'><p>That’s incorrect! You should remember the island where a pirate robbed a ship. To help you remember, you can make up a story associating the object on the ship with the island</p></div>","","","","","","","","","","","","","","","","","",""
"","html-keyboard-response","88","604801","0.0-53.0-1.0","1903.5","<div class='center'><p>That’s incorrect! You should remember the island where a pirate robbed a ship. To help you remember, you can make up a story associating the object on the ship with the island</p><p><b>[Press the space bar to continue]</b></p></div>","32","","","","","","","","","","","","","","","","","","","","","","",""
"","q_all_err","89","612336","0.0-54.0-0.0","null","run_exp/static/audio/clip_26_quiz_redo.m4a","null","","","","","<div class='center'><p>Oops, you missed some questions. Now that you’ve heard the correct answers. Try the quiz again! </p></div>","","","","","","","","","","","","","","","","","",""
"","html-keyboard-response","90","613898","0.0-54.0-1.0","1560.6000000014901","<div class='center'><p>Oops, you missed some questions. Now that you’ve heard the correct answers. Try the quiz again! </p><p><b>[Press the space bar to continue]</b></p></div>","32","","","","","","","","","","","","","","","","","","","","","","",""
"","audio-keyboard-response","91","616755","0.0-54.0-2.0","2856.60000000149","run_exp/static/audio/clip_17_q1.m4a","50","","","","","","","","","","","","","","","","","","","","","","",""
"","correct","92","619737","0.0-55.0-0.0","null","run_exp/static/audio/clip_18_correct.m4a","null","","","","","<div class='center'><p>That's correct!</p></div>","","","","","","","","","","","","","","","","","",""
"","html-keyboard-response","93","620784","0.0-55.0-1.0","1046.2000000029802","<div class='center'><p>That's correct!</p><p><b>[Press the space bar to continue]</b></p></div>","32","","","","","","","","","","","","","","","","","","","","","","",""
"","audio-keyboard-response","94","624030","0.0-55.0-2.0","3245.6999999955297","run_exp/static/audio/clip_20_q2.m4a","50","","","","","","","","","","","","","","","","","","","","","","",""
"","correct","95","626997","0.0-56.0-0.0","null","run_exp/static/audio/clip_18_correct.m4a","null","","","","","<div class='center'><p>That's correct!</p></div>","","","","","","","","","","","","","","","","","",""
"","html-keyboard-response","96","627407","0.0-56.0-1.0","408.70000000298023","<div class='center'><p>That's correct!</p><p><b>[Press the space bar to continue]</b></p></div>","32","","","","","","","","","","","","","","","","","","","","","","",""
"","audio-keyboard-response","97","633772","0.0-56.0-2.0","6363.5","run_exp/static/audio/clip_22_q3.m4a","50","","","","","","","","","","","","","","","","","","","","","","",""
"","correct","98","636736","0.0-57.0-0.0","null","run_exp/static/audio/clip_18_correct.m4a","null","","","","","<div class='center'><p>That's correct!</p></div>","","","","","","","","","","","","","","","","","",""
"","html-keyboard-response","99","640491","0.0-57.0-1.0","3753.7000000029802","<div class='center'><p>That's correct!</p><p><b>[Press the space bar to continue]</b></p></div>","32","","","","","","","","","","","","","","","","","","","","","","",""
"","audio-keyboard-response","100","643117","0.0-57.0-2.0","2625","run_exp/static/audio/clip_24_q4.m4a","49","","","","","","","","","","","","","","","","","","","","","","",""
"","correct","101","646137","0.0-58.0-0.0","null","run_exp/static/audio/clip_18_correct.m4a","null","","","","","<div class='center'><p>That's correct!</p></div>","","","","","","","","","","","","","","","","","",""
"","html-keyboard-response","102","647942","0.0-58.0-1.0","1804.2000000029802","<div class='center'><p>That's correct!</p><p><b>[Press the space bar to continue]</b></p></div>","32","","","","","","","","","","","","","","","","","","","","","","",""
"","q_all_corr","103","656897","0.0-59.0-0.0","null","run_exp/static/audio/clip_27_quiz_all_correct.m4a","null","","","","","<div class='center'><p>Good job! You’re now ready to move on to the real game! Remember this game will be difficult but don't get discouraged and try your best!</p></div>","","","","","","","","","","","","","","","","","",""
"","html-keyboard-response","104","657359","0.0-59.0-1.0","460.70000000298023","<div class='center'><p>Good job! You’re now ready to move on to the real game! Remember this game will be difficult but don't get discouraged and try your best!</p><p><b>[Press the space bar to continue]</b></p></div>","32","","","","","","","","","","","","","","","","","","","","","","",""
"","do_welcome","105","661385","0.0-60.0-0.0","null","","","","","","","","null","","","","","","","","","","","","","","","","",""
"","do_trial","106","667075","0.0-61.0-0.0","1122.6000000014901","","","","","","","","51","0,1,0","0","countryside","0","probe-166","0.6","0.3","0.1","0","","","","","","","",""
"","html-keyboard-response","107","668095","0.0-61.0-1.0","null","<p></p>","null","","","","","","","","","","","","","","","","","","","","","","",""
"","do_trial","108","673951","0.0-62.0-0.0","1321.2999999970198","","","","","","","","50","0,0,0","0","countryside","1","probe-230","0.5204101972832987","0.24088317148637303","0.1731333788833345","0","","","","","","","",""
"","html-keyboard-response","109","674953","0.0-62.0-1.0","null","<p></p>","null","","","","","","","","","","","","","","","","","","","","","","",""
"","do_trial","110","680352","0.0-63.0-0.0","821","","","","","","","","49","1,0,1","0","countryside","2","probe-14","0.4470325689836632","0.18302674106006353","0.10719057536120694","1","","","","","","","",""
"","html-keyboard-response","111","681369","0.0-63.0-1.0","null","<p></p>","null","","","","","","","","","","","","","","","","","","","","","","",""
"","do_trial","112","686715","0.0-64.0-0.0","810.2000000029802","","","","","","","","49","1,0,0","0","countryside","3","probe-228","0.7066375417253294","0.20994638472649038","0.12090624674339409","1","","","","","","","",""
"","html-keyboard-response","113","687724","0.0-64.0-1.0","null","<p></p>","null","","","","","","","","","","","","","","","","","","","","","","",""
"","do_trial","114","693465","0.0-65.0-0.0","1159.5","","","","","","","","49","1,0,0","0","countryside","4","probe-131","0.552496408659261","0.33292061512981114","0.05303166848912439","1","","","","","","","",""
"","html-keyboard-response","115","694483","0.0-65.0-1.0","null","<p></p>","null","","","","","","","","","","","","","","","","","","","","","","",""
"","do_trial","116","700082","0.0-66.0-0.0","1017.3000000044703","","","","","","","","49","1,0,0","0","countryside","5","probe-54","0.6533931103120701","0.32001755315583663","0.14114190100841154","1","","","","","","","",""
"","html-keyboard-response","117","701097","0.0-66.0-1.0","null","<p></p>","null","","","","","","","","","","","","","","","","","","","","","","",""
"","do_trial","118","707158","0.0-67.0-0.0","null","","","","","","","","null","1,0,0","0","countryside","6","probe-105","0.6132151192112527","0.41221519209435153","0.06451498624545965","","","","","","","","",""
"","html-keyboard-response","119","708173","0.0-67.0-1.0","null","<p></p>","null","","","","","","","","","","","","","","","","","","","","","","",""
"","do_trial","120","713513","0.0-68.0-0.0","795.8999999985099","","","","","","","","49","0,0,0","0","countryside","7","probe-172","0.7224944255278399","0.2123448301462898","0.09227365679530934","0","","","","","","","",""
"","html-keyboard-response","121","714525","0.0-68.0-1.0","null","<p></p>","null","","","","","","","","","","","","","","","","","","","","","","",""
"","do_trial","122","719573","0.0-69.0-0.0","505.30000000447035","","","","","","","","50","1,0,0","0","countryside","8","probe-173","0.740256480444903","0.25697027783643944","0.10661718530402997","0","","","","","","","",""
"","html-keyboard-response","123","720576","0.0-69.0-1.0","null","<p></p>","null","","","","","","","","","","","","","","","","","","","","","","",""
"","do_trial","124","725566","0.0-70.0-0.0","444.5","","","","","","","","51","0,0,0","0","countryside","9","probe-97","0.7053048102931928","0.24180235700765426","0.06473258291633334","0","","","","","","","",""
"","html-keyboard-response","125","726583","0.0-70.0-1.0","null","<p></p>","null","","","","","","","","","","","","","","","","","","","","","","",""
"","do_trial","126","731925","0.0-71.0-0.0","786.8999999985099","","","","","","","","50","1,0,1","0","countryside","10","probe-213","0.7298810351422387","0.3025389068184306","0.07100851863239352","0","","","","","","","",""
"","html-keyboard-response","127","732935","0.0-71.0-1.0","null","<p></p>","null","","","","","","","","","","","","","","","","","","","","","","",""
"","do_trial","128","738019","0.0-72.0-0.0","516.3999999985099","","","","","","","","49","1,0,1","0","countryside","11","probe-50","0.6093981005047572","0.10163201000762076","0.055225950345497044","1","","","","","","","",""
"","html-keyboard-response","129","739024","0.0-72.0-1.0","null","<p></p>","null","","","","","","","","","","","","","","","","","","","","","","",""
"","do_trial","130","745016","0.0-73.0-0.0","1453.7999999970198","","","","","","","","49","0,0,0","0","countryside","12","probe-216","0.5519791979922158","0.3256886696928924","0.1048532030557178","0","","","","","","","",""
"","html-keyboard-response","131","746033","0.0-73.0-1.0","null","<p></p>","null","","","","","","","","","","","","","","","","","","","","","","",""
"","do_trial","132","751336","0.0-74.0-0.0","757.8999999985099","","","","","","","","50","1,1,0","0","countryside","13","probe-13","0.4818536083271087","0.38216445247851","0.12478231862569632","1","","","","","","","",""
"","html-keyboard-response","133","752351","0.0-74.0-1.0","null","<p></p>","null","","","","","","","","","","","","","","","","","","","","","","",""
"","do_trial","134","757639","0.0-75.0-0.0","709.8999999985099","","","","","","","","50","1,1,0","0","countryside","14","probe-179","0.4964647316033476","0.3574868788813224","0.2118985525713174","1","","","","","","","",""
"","html-keyboard-response","135","758655","0.0-75.0-1.0","null","<p></p>","null","","","","","","","","","","","","","","","","","","","","","","",""
"","do_trial","136","763635","0.0-76.0-0.0","403.5","","","","","","","","50","0,0,0","0","countryside","15","probe-36","0.5202312759270816","0.16881272190771265","0.2746526674622193","0","","","","","","","",""
"","html-keyboard-response","137","764636","0.0-76.0-1.0","null","<p></p>","null","","","","","","","","","","","","","","","","","","","","","","",""
"","do_trial","138","770608","0.0-77.0-0.0","1433.7999999970198","","","","","","","","50","1,1,0","0","countryside","16","probe-49","0.5753614210623819","0.23847047441337046","0.2077467518096076","1","","","","","","","",""
"","html-keyboard-response","139","771624","0.0-77.0-1.0","null","<p></p>","null","","","","","","","","","","","","","","","","","","","","","","",""
"","do_trial","140","777646","0.0-78.0-0.0","1471.7000000029802","","","","","","","","51","1,0,0","0","countryside","17","probe-168","0.5741364122360291","0.16411460238172965","0.22542507348325305","0","","","","","","","",""
"","html-keyboard-response","141","778656","0.0-78.0-1.0","null","<p></p>","null","","","","","","","","","","","","","","","","","","","","","","",""
"","do_trial","142","784872","0.0-79.0-0.0","1632.5","","","","","","","","50","0,0,0","0","countryside","18","probe-170","0.5186068505363856","0.2609157626232658","0.2664703431589902","0","","","","","","","",""
"","html-keyboard-response","143","785889","0.0-79.0-1.0","null","<p></p>","null","","","","","","","","","","","","","","","","","","","","","","",""
"","do_trial","144","792615","0.0-80.0-0.0","2159.89999999851","","","","","","","","50","0,0,0","0","countryside","19","probe-153","0.681271454763642","0.28142489660202236","0.1324941225310911","0","","","","","","","",""
"","html-keyboard-response","145","793631","0.0-80.0-1.0","null","<p></p>","null","","","","","","","","","","","","","","","","","","","","","","",""
"","do_trial","146","799232","0.0-81.0-0.0","1033.1000000014901","","","","","","","","50","1,0,0","0","countryside","20","probe-200","0.6047847272994805","0.14598689886879848","0.11787309215437697","0","","","","","","","",""
"","html-keyboard-response","147","800248","0.0-81.0-1.0","null","<p></p>","null","","","","","","","","","","","","","","","","","","","","","","",""
"","do_trial","148","805910","0.0-82.0-0.0","1123.3999999985099","","","","","","","","51","1,1,0","0","countryside","21","probe-81","0.57040190162579","0.2310884231293185","0.0762614896084431","0","","","","","","","",""
"","html-keyboard-response","149","806923","0.0-82.0-1.0","null","<p></p>","null","","","","","","","","","","","","","","","","","","","","","","",""
"","do_trial","150","812177","0.0-83.0-0.0","701.3999999985099","","","","","","","","51","1,1,0","0","countryside","22","probe-67","0.43014578288894856","0.39547029262498024","0.06099483149340845","0","","","","","","","",""
"","html-keyboard-response","151","813181","0.0-83.0-1.0","null","<p></p>","null","","","","","","","","","","","","","","","","","","","","","","",""
"","do_trial","152","819051","0.0-84.0-0.0","1293.5","","","","","","","","49","0,0,0","0","countryside","23","probe-141","0.5192306438337057","0.3560887208336029","0.17544464934403767","0","","","","","","","",""
"","html-keyboard-response","153","820066","0.0-84.0-1.0","null","<p></p>","null","","","","","","","","","","","","","","","","","","","","","","",""
"","do_trial","154","826164","0.0-85.0-0.0","1549.8999999985099","","","","","","","","50","0,0,0","0","countryside","24","probe-74","0.4856521763984199","0.43573825262477994","0.08215027070227432","0","","","","","","","",""
"","html-keyboard-response","155","827170","0.0-85.0-1.0","null","<p></p>","null","","","","","","","","","","","","","","","","","","","","","","",""
"","do_trial","156","832986","0.0-86.0-0.0","1237.6000000014901","","","","","","","","51","1,0,0","0","countryside","25","probe-116","0.4796759071927243","0.372011622347633","0.08103510312399939","0","","","","","","","",""
"","html-keyboard-response","157","834002","0.0-86.0-1.0","null","<p></p>","null","","","","","","","","","","","","","","","","","","","","","","",""
"","do_trial","158","840097","0.0-87.0-0.0","null","","","","","","","","null","1,0,0","0","countryside","26","probe-18","0.5879079076417822","0.4344808966323977","0.13611216589635347","","","","","","","","",""
"","html-keyboard-response","159","841113","0.0-87.0-1.0","null","<p></p>","null","","","","","","","","","","","","","","","","","","","","","","",""
"","do_trial","160","846009","0.0-88.0-0.0","350.80000000447035","","","","","","","","51","1,1,0","0","countryside","27","probe-178","0.6151589058964195","0.29247365168167877","0.1179363934691234","0","","","","","","","",""
"","html-keyboard-response","161","847025","0.0-88.0-1.0","null","<p></p>","null","","","","","","","","","","","","","","","","","","","","","","",""
"","do_trial","162","852502","0.0-89.0-0.0","897.1999999955297","","","","","","","","49","1,0,1","0","countryside","28","probe-132","0.5903018207221126","0.13808809552471624","0.13065055184285593","1","","","","","","","",""
"","html-keyboard-response","163","853505","0.0-89.0-1.0","null","<p></p>","null","","","","","","","","","","","","","","","","","","","","","","",""
"","do_trial","164","858982","0.0-90.0-0.0","919.1999999955297","","","","","","","","49","1,0,0","0","countryside","29","probe-66","0.575963206723502","0.3438568608153122","0.1833359910508996","1","","","","","","","",""
"","html-keyboard-response","165","859995","0.0-90.0-1.0","null","<p></p>","null","","","","","","","","","","","","","","","","","","","","","","",""
"","do_bye","166","861504","0.0-91.0-0.0","null","","","","","","","","null","","","","","","","","","","","","","","","","",""
"","break","167","981519","0.0-91.0-1.0","null","<div class='center'><p>Time to take a quick break! You have 2 minutes to rest, but you can move on sooner if you'd like.</p><p> Press the <b>space bar</b> to continue.</p></div>","null","","","","","","","","","","","","","","","","","","","","","","",""
"","do_travel","168","990529","0.0-92.0-0.0","null","","","","","","","","null","","","","","","","","","","","","","","","","",""
"","do_welcome","169","994539","0.0-92.0-1.0","null","","","","","","","","null","","","","","","","","","","","","","","","","",""
"","do_trial","170","1000579","0.0-93.0-0.0","null","","","","","","","","null","1,1,0","1","city","30","probe-157","1","0.49546996160792534","0.18226805600063806","","","","","","","","",""
"","html-keyboard-response","171","1001589","0.0-93.0-1.0","null","<p></p>","null","","","","","","","","","","","","","","","","","","","","","","",""
"","do_trial","172","1007375","0.0-94.0-0.0","1243.5","","","","","","","","51","1,0,0","1","city","31","probe-42","1","0.3819713462979766","0.1701086762415753","0","","","","","","","",""
"","html-keyboard-response","173","1008382","0.0-94.0-1.0","null","<p></p>","null","","","","","","","","","","","","","","","","","","","","","","",""
"","do_trial","174","1014938","0.0-95.0-0.0","2013.8000000044703","","","","","","","","49","1,0,0","1","city","32","probe-83","1","0.28200236802781264","0.10694615033107858","1","","","","","","","",""
"","html-keyboard-response","175","1015951","0.0-95.0-1.0","null","<p></p>","null","","","","","","","","","","","","","","","","","","","","","","",""
"","do_trial","176","1021374","0.0-96.0-0.0","884.3999999985099","","","","","","","","49","1,0,0","1","city","33","probe-101","0.7668046802013052","0.39058709655528134","0.17844886728845075","1","","","","","","","",""
"","html-keyboard-response","177","1022391","0.0-96.0-1.0","null","<p></p>","null","","","","","","","","","","","","","","","","","","","","","","",""
"","do_trial","178","1027668","0.0-97.0-0.0","696.7999999970198","","","","","","","","49","0,1,0","1","city","34","probe-134","0.7862098130855824","0.29839413770452966","0.12470054531738459","0","","","","","","","",""
"","html-keyboard-response","179","1028678","0.0-97.0-1.0","null","<p></p>","null","","","","","","","","","","","","","","","","","","","","","","",""
"","do_trial","180","1034183","0.0-98.0-0.0","955.7999999970198","","","","","","","","50","1,0,0","1","city","35","probe-38","0.813530085588077","0.3431695332304656","0.055111039331284674","0","","","","","","","",""
"","html-keyboard-response","181","1035195","0.0-98.0-1.0","null","<p></p>","null","","","","","","","","","","","","","","","","","","","","","","",""
"","do_trial","182","1039979","0.0-99.0-0.0","208.39999999850988","","","","","","","","49","0,0,1","1","city","36","probe-158","0.6996517508440419","0.3055196009236378","0.09730369055276353","0","","","","","","","",""
"","html-keyboard-response","183","1040995","0.0-99.0-1.0","null","<p></p>","null","","","","","","","","","","","","","","","","","","","","","","",""
"","do_trial","184","1045587","0.0-100.0-0.0","27.799999997019768","","","","","","","","51","0,1,0","1","city","37","probe-193","0.6224661043882889","0.32122047781042","0.05529976142503439","0","","","","","","","",""
"","html-keyboard-response","185","1046598","0.0-100.0-1.0","null","<p></p>","null","","","","","","","","","","","","","","","","","","","","","","",""
"","do_trial","186","1051620","0.0-101.0-0.0","440.59999999403954","","","","","","","","50","1,1,0","1","city","38","probe-119","0.694355648827527","0.39323320679993246","0.2292303892436744","1","","","","","","","",""
"","html-keyboard-response","187","1052637","0.0-101.0-1.0","null","<p></p>","null","","","","","","","","","","","","","","","","","","","","","","",""
"","do_trial","188","1059001","0.0-102.0-0.0","1800.1000000014901","","","","","","","","50","1,0,0","1","city","39","probe-128","0.576627488393437","0.3612703989918747","0.2589536062779428","0","","","","","","","",""
"","html-keyboard-response","189","1060018","0.0-102.0-1.0","null","<p></p>","null","","","","","","","","","","","","","","","","","","","","","","",""
"","do_trial","190","1066080","0.0-103.0-0.0","null","","","","","","","","null","0,0,0","1","city","40","probe-24","0.4360687237673173","0.2670646408526518","0.18201483323010453","","","","","","","","",""
"","html-keyboard-response","191","1067097","0.0-103.0-1.0","null","<p></p>","null","","","","","","","","","","","","","","","","","","","","","","",""
"","do_trial","192","1073158","0.0-104.0-0.0","null","","","","","","","","null","1,1,0","1","city","41","probe-150","0.4347740124798209","0.37744383853772023","0.14479501893424346","","","","","","","","",""
"","html-keyboard-response","193","1074175","0.0-104.0-1.0","null","<p></p>","null","","","","","","","","","","","","","","","","","","","","","","",""
"","do_trial","194","1079736","0.0-105.0-0.0","1018.9000000059605","","","","","","","","50","1,1,0","1","city","42","probe-169","0.40313255536964293","0.36826892417611345","0.08101780787361847","1","","","","","","","",""
"","html-keyboard-response","195","1080739","0.0-105.0-1.0","null","<p></p>","null","","","","","","","","","","","","","","","","","","","","","","",""
"","do_trial","196","1085837","0.0-106.0-0.0","509.6000000014901","","","","","","","","50","0,0,0","1","city","43","probe-71","0.3079098951135746","0.5647850833066188","0.18133127658388382","0","","","","","","","",""
"","html-keyboard-response","197","1086854","0.0-106.0-1.0","null","<p></p>","null","","","","","","","","","","","","","","","","","","","","","","",""
"","do_trial","198","1091886","0.0-107.0-0.0","460.30000000447035","","","","","","","","49","0,1,0","1","city","44","probe-177","0.3857260062510969","0.5493939555668773","0.07588974287308037","0","","","","","","","",""
"","html-keyboard-response","199","1092897","0.0-107.0-1.0","null","<p></p>","null","","","","","","","","","","","","","","","","","","","","","","",""
"","do_trial","200","1097924","0.0-108.0-0.0","484.70000000298023","","","","","","","","49","0,0,0","1","city","45","probe-189","0.2705013054771445","0.5671130126119567","0.08595823035717508","0","","","","","","","",""
"","html-keyboard-response","201","1098940","0.0-108.0-1.0","null","<p></p>","null","","","","","","","","","","","","","","","","","","","","","","",""
"","do_trial","202","1104818","0.0-109.0-0.0","1320.8999999985099","","","","","","","","49","0,0,0","1","city","46","probe-197","0.4039970787733113","0.6589498465721155","0.1859981681190986","0","","","","","","","",""
"","html-keyboard-response","203","1105829","0.0-109.0-1.0","null","<p></p>","null","","","","","","","","","","","","","","","","","","","","","","",""
"","do_trial","204","1111234","0.0-110.0-0.0","867","","","","","","","","49","1,1,0","1","city","47","probe-194","0.4821795604081974","0.7111171031836077","0.06447819174948956","1","","","","","","","",""
"","html-keyboard-response","205","1112243","0.0-110.0-1.0","null","<p></p>","null","","","","","","","","","","","","","","","","","","","","","","",""
"","do_trial","206","1118316","0.0-111.0-0.0","null","","","","","","","","null","0,1,0","1","city","48","probe-176","0.42300305847009023","0.6343299890967965","0.0734380416272026","","","","","","","","",""
"","html-keyboard-response","207","1119332","0.0-111.0-1.0","null","<p></p>","null","","","","","","","","","","","","","","","","","","","","","","",""
"","do_trial","208","1124881","0.0-112.0-0.0","1003.6999999955297","","","","","","","","49","1,1,0","1","city","49","probe-33","0.38474258956214136","0.6970911066093625","0.1319293592085497","1","","","","","","","",""
"","html-keyboard-response","209","1125890","0.0-112.0-1.0","null","<p></p>","null","","","","","","","","","","","","","","","","","","","","","","",""
"","do_trial","210","1131534","0.0-113.0-0.0","1099.1000000014901","","","","","","","","49","0,0,1","1","city","50","probe-192","0.46901183285625464","0.8347096618357577","0.09432165419750754","0","","","","","","","",""
"","html-keyboard-response","211","1132550","0.0-113.0-1.0","null","<p></p>","null","","","","","","","","","","","","","","","","","","","","","","",""
"","do_trial","212","1138631","0.0-114.0-0.0","null","","","","","","","","null","0,1,0","1","city","51","probe-212","0.4225546384676316","0.6578028244386904","0.07235944831003391","","","","","","","","",""
"","html-keyboard-response","213","1139641","0.0-114.0-1.0","null","<p></p>","null","","","","","","","","","","","","","","","","","","","","","","",""
"","do_trial","214","1145723","0.0-115.0-0.0","null","","","","","","","","null","0,1,0","1","city","52","probe-165","0.235171689280872","0.6377684145047722","0.11946934485871513","","","","","","","","",""
"","html-keyboard-response","215","1146740","0.0-115.0-1.0","null","<p></p>","null","","","","","","","","","","","","","","","","","","","","","","",""
"","do_trial","216","1152206","0.0-116.0-0.0","893.1000000014901","","","","","","","","50","0,0,0","1","city","53","probe-140","0.31137685907182083","0.5594234495618684","0.1820105988730657","0","","","","","","","",""
"","html-keyboard-response","217","1153220","0.0-116.0-1.0","null","<p></p>","null","","","","","","","","","","","","","","","","","","","","","","",""
"","do_trial","218","1159467","0.0-117.0-0.0","1665.6000000014901","","","","","","","","49","0,1,0","1","city","54","probe-174","0.2855804079092978","0.6436989635609395","0.10016919873461141","0","","","","","","","",""
"","html-keyboard-response","219","1160484","0.0-117.0-1.0","null","<p></p>","null","","","","","","","","","","","","","","","","","","","","","","",""
"","do_trial","220","1166535","0.0-118.0-0.0","null","","","","","","","","null","1,1,0","1","city","55","probe-32","0.20604254713087597","0.6348315236235285","0.08333294870346414","","","","","","","","",""
"","html-keyboard-response","221","1167552","0.0-118.0-1.0","null","<p></p>","null","","","","","","","","","","","","","","","","","","","","","","",""
"","do_trial","222","1173614","0.0-119.0-0.0","null","","","","","","","","null","0,0,0","1","city","56","probe-219","0.16838326991240515","0.6615066347130999","0.19995755291143272","","","","","","","","",""
"","html-keyboard-response","223","1174623","0.0-119.0-1.0","null","<p></p>","null","","","","","","","","","","","","","","","","","","","","","","",""
"","do_trial","224","1179228","0.0-120.0-0.0","53.30000000447035","","","","","","","","49","0,1,0","1","city","57","probe-48","0.2753076645528991","0.49693088227431065","0.0821450160921015","0","","","","","","","",""
"","html-keyboard-response","225","1180234","0.0-120.0-1.0","null","<p></p>","null","","","","","","","","","","","","","","","","","","","","","","",""
"","do_trial","226","1186601","0.0-121.0-0.0","1827.7999999970198","","","","","","","","50","1,1,0","1","city","58","probe-159","0.2605885010371209","0.487826308693379","0.08987356288084758","1","","","","","","","",""
"","html-keyboard-response","227","1187616","0.0-121.0-1.0","null","<p></p>","null","","","","","","","","","","","","","","","","","","","","","","",""
"","do_trial","228","1193146","0.0-122.0-0.0","956.0999999940395","","","","","","","","50","1,0,0","1","city","59","probe-205","0.25496646278015045","0.547572501250857","0.2381357577774801","0","","","","","","","",""
"","html-keyboard-response","229","1194159","0.0-122.0-1.0","null","<p></p>","null","","","","","","","","","","","","","","","","","","","","","","",""
"","do_trial","230","1199010","0.0-123.0-0.0","305.70000000298023","","","","","","","","49","0,1,0","1","city","60","probe-98","0.37315227227640235","0.5629941721838173","0.19205417782282158","0","","","","","","","",""
"","html-keyboard-response","231","1200022","0.0-123.0-1.0","null","<p></p>","null","","","","","","","","","","","","","","","","","","","","","","",""
"","do_trial","232","1205251","0.0-124.0-0.0","686.8000000044703","","","","","","","","51","0,1,0","1","city","61","probe-107","0.25026186633212477","0.5184021673680045","0.15804115481671585","0","","","","","","","",""
"","html-keyboard-response","233","1206263","0.0-124.0-1.0","null","<p></p>","null","","","","","","","","","","","","","","","","","","","","","","",""
"","do_trial","234","1210970","0.0-125.0-0.0","154.60000000149012","","","","","","","","51","0,0,0","1","city","62","probe-16","0.28331092190890206","0.4651165486417614","0.05368629513106859","0","","","","","","","",""
"","html-keyboard-response","235","1211974","0.0-125.0-1.0","null","<p></p>","null","","","","","","","","","","","","","","","","","","","","","","",""
"","do_trial","236","1218016","0.0-126.0-0.0","null","","","","","","","","null","0,1,0","1","city","63","probe-88","0.35018940634789647","0.48759800630229677","0.06390534919278973","","","","","","","","",""
"","html-keyboard-response","237","1219032","0.0-126.0-1.0","null","<p></p>","null","","","","","","","","","","","","","","","","","","","","","","",""
"","do_trial","238","1225116","0.0-127.0-0.0","null","","","","","","","","null","0,0,0","1","city","64","probe-137","0.3520622944367294","0.7128334158140299","0.12543955430466278","","","","","","","","",""
"","html-keyboard-response","239","1226124","0.0-127.0-1.0","null","<p></p>","null","","","","","","","","","","","","","","","","","","","","","","",""
"","do_trial","240","1232208","0.0-128.0-0.0","null","","","","","","","","null","1,1,1","1","city","65","probe-04","0.3989456009213831","0.7192964022880454","0.05217533335036555","","","","","","","","",""
"","html-keyboard-response","241","1233218","0.0-128.0-1.0","null","<p></p>","null","","","","","","","","","","","","","","","","","","","","","","",""
"","do_trial","242","1239273","0.0-129.0-0.0","null","","","","","","","","null","0,1,0","1","city","66","probe-30","0.2121098112648204","0.724544858892182","0.24654261307079808","","","","","","","","",""
"","html-keyboard-response","243","1240289","0.0-129.0-1.0","null","<p></p>","null","","","","","","","","","","","","","","","","","","","","","","",""
"","do_trial","244","1245020","0.0-130.0-0.0","186.20000000298023","","","","","","","","49","1,1,0","1","city","67","probe-223","0.2664327267062458","0.6519481868253192","0.18577306781692676","1","","","","","","","",""
"","html-keyboard-response","245","1246036","0.0-130.0-1.0","null","<p></p>","null","","","","","","","","","","","","","","","","","","","","","","",""
"","do_trial","246","1252201","0.0-131.0-0.0","1593.6000000014901","","","","","","","","49","0,1,1","1","city","68","probe-95","0.3517088295164835","0.721233814335519","0.3025465480283036","0","","","","","","","",""
"","html-keyboard-response","247","1253215","0.0-131.0-1.0","null","<p></p>","null","","","","","","","","","","","","","","","","","","","","","","",""
"","do_trial","248","1258759","0.0-132.0-0.0","962.7999999970198","","","","","","","","49","0,1,0","1","city","69","probe-183","0.3367847878279346","0.6854154825023946","0.2134844917547755","0","","","","","","","",""
"","html-keyboard-response","249","1259775","0.0-132.0-1.0","null","<p></p>","null","","","","","","","","","","","","","","","","","","","","","","",""
"","do_bye","250","1261290","0.0-133.0-0.0","null","","","","","","","","null","","","","","","","","","","","","","","","","",""
"","break","251","1381296","0.0-133.0-1.0","null","<div class='center'><p>Time to take a quick break! You have 2 minutes to rest, but you can move on sooner if you'd like.</p><p> Press the <b>space bar</b> to continue.</p></div>","null","","","","","","","","","","","","","","","","","","","","","","",""
"","do_travel","252","1390314","0.0-134.0-0.0","null","","","","","","","","null","","","","","","","","","","","","","","","","",""
"","do_welcome","253","1394325","0.0-134.0-1.0","null","","","","","","","","null","","","","","","","","","","","","","","","","",""
"","do_trial","254","1401071","0.0-135.0-0.0","2170.39999999851","","","","","","","","51","0,1,0","2","mountain","70","probe-129","0.23660093031442234","1","0.10184858384511991","0","","","","","","","",""
"","html-keyboard-response","255","1402084","0.0-135.0-1.0","null","<p></p>","null","","","","","","","","","","","","","","","","","","","","","","",""
"","do_trial","256","1408978","0.0-136.0-0.0","2339.39999999851","","","","","","","","51","0,1,1","2","mountain","71","probe-204","0.21999616343069295","1","0.07908742883894779","1","","","","","","","",""
"","html-keyboard-response","257","1409989","0.0-136.0-1.0","null","<p></p>","null","","","","","","","","","","","","","","","","","","","","","","",""
"","do_trial","258","1415230","0.0-137.0-0.0","669.7999999970198","","","","","","","","51","0,1,0","2","mountain","72","probe-22","0.34088677214908336","0.7075899373339597","0.14844928704601965","0","","","","","","","",""
"","html-keyboard-response","259","1416243","0.0-137.0-1.0","null","<p></p>","null","","","","","","","","","","","","","","","","","","","","","","",""
"","do_trial","260","1421337","0.0-138.0-0.0","522.8999999985099","","","","","","","","51","0,1,0","2","mountain","73","probe-180","0.47525382990086656","0.5996665056817614","0.2283445525870016","0","","","","","","","",""
"","html-keyboard-response","261","1422353","0.0-138.0-1.0","null","<p></p>","null","","","","","","","","","","","","","","","","","","","","","","",""
"","do_trial","262","1428501","0.0-139.0-0.0","1578.4000000059605","","","","","","","","51","0,1,0","2","mountain","74","probe-202","0.5705907105967423","0.6301553593391455","0.20071566975340735","0","","","","","","","",""
"","html-keyboard-response","263","1429517","0.0-139.0-1.0","null","<p></p>","null","","","","","","","","","","","","","","","","","","","","","","",""
"","do_trial","264","1435205","0.0-140.0-0.0","1138.7000000029802","","","","","","","","51","1,1,0","2","mountain","75","probe-02","0.5208109371712595","0.6318284703579335","0.10608414312578383","0","","","","","","","",""
"","html-keyboard-response","265","1436221","0.0-140.0-1.0","null","<p></p>","null","","","","","","","","","","","","","","","","","","","","","","",""
"","do_trial","266","1441468","0.0-141.0-0.0","668.0999999940395","","","","","","","","50","0,1,0","2","mountain","76","probe-207","0.4433228100667931","0.7512941806944083","0.08869118853196394","1","","","","","","","",""
"","html-keyboard-response","267","1442476","0.0-141.0-1.0","null","<p></p>","null","","","","","","","","","","","","","","","","","","","","","","",""
"","do_trial","268","1448398","0.0-142.0-0.0","1372.3000000044703","","","","","","","","50","0,0,1","2","mountain","77","probe-89","0.34996769592896004","0.8013934593613238","0.22666239793032714","0","","","","","","","",""
"","html-keyboard-response","269","1449414","0.0-142.0-1.0","null","<p></p>","null","","","","","","","","","","","","","","","","","","","","","","",""
"","do_trial","270","1455462","0.0-143.0-0.0","null","","","","","","","","null","1,1,0","2","mountain","78","probe-34","0.29325235206851474","0.7644054288197529","0.16361709035802868","","","","","","","","",""
"","html-keyboard-response","271","1456478","0.0-143.0-1.0","null","<p></p>","null","","","","","","","","","","","","","","","","","","","","","","",""
"","do_trial","272","1462015","0.0-144.0-0.0","968.1000000014901","","","","","","","","50","0,1,0","2","mountain","79","probe-117","0.2510793432263978","0.7217165388601131","0.18684681069177086","1","","","","","","","",""
"","html-keyboard-response","273","1463031","0.0-144.0-1.0","null","<p></p>","null","","","","","","","","","","","","","","","","","","","","","","",""
"","do_trial","274","1469095","0.0-145.0-0.0","null","","","","","","","","null","0,1,0","2","mountain","80","probe-182","0.3065990830972287","0.782766284768086","0.18427368511040257","","","","","","","","",""
"","html-keyboard-response","275","1470098","0.0-145.0-1.0","null","<p></p>","null","","","","","","","","","","","","","","","","","","","","","","",""
"","do_trial","276","1474791","0.0-146.0-0.0","157.10000000149012","","","","","","","","50","0,1,0","2","mountain","81","probe-199","0.22446198442692886","0.7187116485989935","0.24437495854214944","1","","","","","","","",""
"","html-keyboard-response","277","1475796","0.0-146.0-1.0","null","<p></p>","null","","","","","","","","","","","","","","","","","","","","","","",""
"","do_trial","278","1480865","0.0-147.0-0.0","510.80000000447035","","","","","","","","50","0,0,1","2","mountain","82","probe-28","0.3833358247257137","0.4924195295852396","0.3537045120093993","0","","","","","","","",""
"","html-keyboard-response","279","1481878","0.0-147.0-1.0","null","<p></p>","null","","","","","","","","","","","","","","","","","","","","","","",""
"","do_trial","280","1486549","0.0-148.0-0.0","132","","","","","","","","50","1,0,0","2","mountain","83","probe-120","0.613114421174698","0.36976766733232724","0.20200286470387208","0","","","","","","","",""
"","html-keyboard-response","281","1487560","0.0-148.0-1.0","null","<p></p>","null","","","","","","","","","","","","","","","","","","","","","","",""
"","do_trial","282","1492284","0.0-149.0-0.0","172.80000000447035","","","","","","","","50","1,1,1","2","mountain","84","probe-226","0.6663922257217567","0.47731722985188674","0.14457973192711757","1","","","","","","","",""
"","html-keyboard-response","283","1493289","0.0-149.0-1.0","null","<p></p>","null","","","","","","","","","","","","","","","","","","","","","","",""
"","do_trial","284","1499444","0.0-150.0-0.0","1614.5","","","","","","","","50","1,1,0","2","mountain","85","probe-184","0.5196268692530639","0.4865398640719091","0.056857600299740095","1","","","","","","","",""
"","html-keyboard-response","285","1500457","0.0-150.0-1.0","null","<p></p>","null","","","","","","","","","","","","","","","","","","","","","","",""
"","do_trial","286","1505035","0.0-151.0-0.0","7.299999997019768","","","","","","","","50","0,0,0","2","mountain","86","probe-79","0.531860639530582","0.2239611864471833","0.0660226512155574","0","","","","","","","",""
"","html-keyboard-response","287","1506038","0.0-151.0-1.0","null","<p></p>","null","","","","","","","","","","","","","","","","","","","","","","",""
"","do_trial","288","1510697","0.0-152.0-0.0","79.5","","","","","","","","50","0,0,0","2","mountain","87","probe-114","0.3920036007647472","0.31568651957649485","0.11509854088869888","0","","","","","","","",""
"","html-keyboard-response","289","1511713","0.0-152.0-1.0","null","<p></p>","null","","","","","","","","","","","","","","","","","","","","","","",""
"","do_trial","290","1516626","0.0-153.0-0.0","346","","","","","","","","50","1,1,0","2","mountain","88","probe-99","0.5270931476917802","0.2678861643371524","0.06846792338711305","1","","","","","","","",""
"","html-keyboard-response","291","1517640","0.0-153.0-1.0","null","<p></p>","null","","","","","","","","","","","","","","","","","","","","","","",""
"","do_trial","292","1522333","0.0-154.0-0.0","143.39999999850988","","","","","","","","50","1,0,0","2","mountain","89","probe-206","0.6077615805506237","0.31827895787763344","0.14681120903621345","0","","","","","","","",""
"","html-keyboard-response","293","1523341","0.0-154.0-1.0","null","<p></p>","null","","","","","","","","","","","","","","","","","","","","","","",""
"","do_trial","294","1528397","0.0-155.0-0.0","520.4000000059605","","","","","","","","50","1,0,1","2","mountain","90","probe-113","0.5762620698445661","0.37357253135047563","0.1545887812457608","0","","","","","","","",""
"","html-keyboard-response","295","1529401","0.0-155.0-1.0","null","<p></p>","null","","","","","","","","","","","","","","","","","","","","","","",""
"","do_trial","296","1535447","0.0-156.0-0.0","null","","","","","","","","null","0,0,0","2","mountain","91","probe-44","0.7332220317735358","0.31678226229229095","0.08402431023822012","","","","","","","","",""
"","html-keyboard-response","297","1536449","0.0-156.0-1.0","null","<p></p>","null","","","","","","","","","","","","","","","","","","","","","","",""
"","do_trial","298","1541628","0.0-157.0-0.0","596.7000000029802","","","","","","","","50","1,0,0","2","mountain","92","probe-138","0.7032441640702229","0.3472467436965076","0.05787125489246256","0","","","","","","","",""
"","html-keyboard-response","299","1542637","0.0-157.0-1.0","null","<p></p>","null","","","","","","","","","","","","","","","","","","","","","","",""
"","do_trial","300","1547215","0.0-158.0-0.0","0.10000000149011612","","","","","","","","50","0,0,0","2","mountain","93","probe-37","0.7433885528547642","0.34194418875803756","0.053225796041550776","0","","","","","","","",""
"","html-keyboard-response","301","1548219","0.0-158.0-1.0","null","<p></p>","null","","","","","","","","","","","","","","","","","","","","","","",""
"","do_trial","302","1552870","0.0-159.0-0.0","111.20000000298023","","","","","","","","50","1,1,0","2","mountain","94","probe-133","0.6272754172804494","0.2420147533350331","0.07226244197543391","1","","","","","","","",""
"","html-keyboard-response","303","1553885","0.0-159.0-1.0","null","<p></p>","null","","","","","","","","","","","","","","","","","","","","","","",""
"","do_trial","304","1559210","0.0-160.0-0.0","780.7999999970198","","","","","","","","50","1,0,0","2","mountain","95","probe-149","0.5638504049555596","0.2142506885179288","0.10283385587249594","0","","","","","","","",""
"","html-keyboard-response","305","1560212","0.0-160.0-1.0","null","<p></p>","null","","","","","","","","","","","","","","","","","","","","","","",""
"","do_trial","306","1565036","0.0-161.0-0.0","263.80000000447035","","","","","","","","50","0,1,0","2","mountain","96","probe-41","0.6133252954028938","0.3192104085700052","0.09323856221014708","1","","","","","","","",""
"","html-keyboard-response","307","1566050","0.0-161.0-1.0","null","<p></p>","null","","","","","","","","","","","","","","","","","","","","","","",""
"","do_trial","308","1572090","0.0-162.0-0.0","null","","","","","","","","null","1,0,0","2","mountain","97","probe-61","0.6509035541205824","0.3311413298358293","0.16580344470154887","","","","","","","","",""
"","html-keyboard-response","309","1573098","0.0-162.0-1.0","null","<p></p>","null","","","","","","","","","","","","","","","","","","","","","","",""
"","do_trial","310","1577860","0.0-163.0-0.0","219.70000000298023","","","","","","","","50","1,0,0","2","mountain","98","probe-118","0.5975550962369427","0.3333081874644152","0.10723741220240907","0","","","","","","","",""
"","html-keyboard-response","311","1578875","0.0-163.0-1.0","null","<p></p>","null","","","","","","","","","","","","","","","","","","","","","","",""
"","do_trial","312","1584925","0.0-164.0-0.0","null","","","","","","","","null","0,0,1","2","mountain","99","probe-224","0.614504665513198","0.40389700866636985","0.108730435221283","","","","","","","","",""
"","html-keyboard-response","313","1585927","0.0-164.0-1.0","null","<p></p>","null","","","","","","","","","","","","","","","","","","","","","","",""
"","do_trial","314","1591557","0.0-165.0-0.0","1094.7999999970198","","","","","","","","50","0,1,0","2","mountain","100","probe-211","0.49333306419549444","0.3338779566852969","0.05407163140646201","1","","","","","","","",""
"","html-keyboard-response","315","1592571","0.0-165.0-1.0","null","<p></p>","null","","","","","","","","","","","","","","","","","","","","","","",""
"","do_trial","316","1599350","0.0-166.0-0.0","2214.10000000149","","","","","","","","50","1,0,0","2","mountain","101","probe-186","0.524558008137741","0.2468240017162999","0.1300724270828731","0","","","","","","","",""
"","html-keyboard-response","317","1600356","0.0-166.0-1.0","null","<p></p>","null","","","","","","","","","","","","","","","","","","","","","","",""
"","do_trial","318","1606840","0.0-167.0-0.0","1933.1999999955297","","","","","","","","50","1,0,0","2","mountain","102","probe-127","0.7242329540377067","0.2822266547356427","0.12872598419163245","0","","","","","","","",""
"","html-keyboard-response","319","1607844","0.0-167.0-1.0","null","<p></p>","null","","","","","","","","","","","","","","","","","","","","","","",""
"","do_trial","320","1612469","0.0-168.0-0.0","77.69999999552965","","","","","","","","50","0,0,1","2","mountain","103","probe-148","0.5909063300122871","0.18804574105954025","0.09743671755092442","0","","","","","","","",""
"","html-keyboard-response","321","1613483","0.0-168.0-1.0","null","<p></p>","null","","","","","","","","","","","","","","","","","","","","","","",""
"","do_trial","322","1618089","0.0-169.0-0.0","55.20000000298023","","","","","","","","50","1,0,0","2","mountain","104","probe-53","0.5578122326534266","0.15979537214133147","0.06068152565963868","0","","","","","","","",""
"","html-keyboard-response","323","1619103","0.0-169.0-1.0","null","<p></p>","null","","","","","","","","","","","","","","","","","","","","","","",""
"","do_trial","324","1626429","0.0-170.0-0.0","2774.4000000059605","","","","","","","","50","0,0,0","2","mountain","105","probe-106","0.5737646012192019","0.206307001413258","0.10302850266050499","0","","","","","","","",""
"","html-keyboard-response","325","1627436","0.0-170.0-1.0","null","<p></p>","null","","","","","","","","","","","","","","","","","","","","","","",""
"","do_trial","326","1632444","0.0-171.0-0.0","462.6000000014901","","","","","","","","50","1,0,0","2","mountain","106","probe-06","0.6782467646720565","0.2485619587585271","0.12123593009330476","0","","","","","","","",""
"","html-keyboard-response","327","1633450","0.0-171.0-1.0","null","<p></p>","null","","","","","","","","","","","","","","","","","","","","","","",""
"","do_trial","328","1638478","0.0-172.0-0.0","492.5","","","","","","","","49","1,0,0","2","mountain","107","probe-46","0.6576029655188631","0.16848312532700122","0.11883007178081197","1","","","","","","","",""
"","html-keyboard-response","329","1639492","0.0-172.0-1.0","null","<p></p>","null","","","","","","","","","","","","","","","","","","","","","","",""
"","do_trial","330","1646602","0.0-173.0-0.0","2563","","","","","","","","49","1,1,1","2","mountain","108","probe-227","0.5127450254684598","0.2784735158757253","0.21519971682574665","1","","","","","","","",""
"","html-keyboard-response","331","1647605","0.0-173.0-1.0","null","<p></p>","null","","","","","","","","","","","","","","","","","","","","","","",""
"","do_trial","332","1653647","0.0-174.0-0.0","null","","","","","","","","null","1,1,1","2","mountain","109","probe-123","0.5894996497134612","0.43372563083466076","0.15395663421879852","","","","","","","","",""
"","html-keyboard-response","333","1654661","0.0-174.0-1.0","null","<p></p>","null","","","","","","","","","","","","","","","","","","","","","","",""
"","do_bye","334","1656173","0.0-175.0-0.0","null","","","","","","","","null","","","","","","","","","","","","","","","","",""
"","break","335","1776175","0.0-175.0-1.0","null","<div class='center'><p>Time to take a quick break! You have 2 minutes to rest, but you can move on sooner if you'd like.</p><p> Press the <b>space bar</b> to continue.</p></div>","null","","","","","","","","","","","","","","","","","","","","","","",""
"","do_travel","336","1785195","0.0-176.0-0.0","null","","","","","","","","null","","","","","","","","","","","","","","","","",""
"","do_welcome","337","1789206","0.0-176.0-1.0","null","","","","","","","","null","","","","","","","","","","","","","","","","",""
"","do_trial","338","1795535","0.0-177.0-0.0","1751.2000000029802","","","","","","","","51","1,0,0","3","coast","110","probe-65","1","0.19879564525899912","0.22074562873456163","0","","","","","","","",""
"","html-keyboard-response","339","1796555","0.0-177.0-1.0","null","<p></p>","null","","","","","","","","","","","","","","","","","","","","","","",""
"","do_trial","340","1801156","0.0-178.0-0.0","31.399999998509884","","","","","","","","51","1,0,1","3","coast","111","probe-122","1","0.3570940267120987","0.27331139403255245","1","","","","","","","",""
"","html-keyboard-response","341","1802173","0.0-178.0-1.0","null","<p></p>","null","","","","","","","","","","","","","","","","","","","","","","",""
"","do_trial","342","1808215","0.0-179.0-0.0","null","","","","","","","","null","1,1,0","3","coast","112","probe-51","0.8377368776853885","0.4230264718559971","0.14574900224373308","","","","","","","","",""
"","html-keyboard-response","343","1809227","0.0-179.0-1.0","null","<p></p>","null","","","","","","","","","","","","","","","","","","","","","","",""
"","do_trial","344","1813792","0.0-180.0-0.0","0.19999999552965164","","","","","","","","50","1,1,0","3","coast","113","probe-181","0.6440210606976623","0.2646385414614816","0.15653348877150677","1","","","","","","","",""
"","html-keyboard-response","345","1814793","0.0-180.0-1.0","null","<p></p>","null","","","","","","","","","","","","","","","","","","","","","","",""
"","do_trial","346","1819398","0.0-181.0-0.0","12.5","","","","","","","","50","1,0,0","3","coast","114","probe-05","0.5632097467371945","0.3275433729239767","0.07627167360024317","0","","","","","","","",""
"","html-keyboard-response","347","1820415","0.0-181.0-1.0","null","<p></p>","null","","","","","","","","","","","","","","","","","","","","","","",""
"","do_trial","348","1825100","0.0-182.0-0.0","105","","","","","","","","50","0,0,0","3","coast","115","probe-25","0.44357666664967677","0.11494078775115682","0.1850573879498571","0","","","","","","","",""
"","html-keyboard-response","349","1826112","0.0-182.0-1.0","null","<p></p>","null","","","","","","","","","","","","","","","","","","","","","","",""
"","do_trial","350","1830662","0.0-183.0-0.0","0.10000000149011612","","","","","","","","49","1,0,0","3","coast","116","probe-155","0.44566952796326703","0.15571043954877858","0.14745342220689048","1","","","","","","","",""
"","html-keyboard-response","351","1831678","0.0-183.0-1.0","null","<p></p>","null","","","","","","","","","","","","","","","","","","","","","","",""
"","do_trial","352","1836364","0.0-184.0-0.0","141","","","","","","","","49","1,1,0","3","coast","117","probe-86","0.5484956938840696","0.3123310468240241","0.11511229228091159","1","","","","","","","",""
"","html-keyboard-response","353","1837374","0.0-184.0-1.0","null","<p></p>","null","","","","","","","","","","","","","","","","","","","","","","",""
"","do_trial","354","1842780","0.0-185.0-0.0","869.3000000044703","","","","","","","","49","1,0,0","3","coast","118","probe-31","0.6255716730181957","0.3800021871567789","0.16986755920007565","1","","","","","","","",""
"","html-keyboard-response","355","1843784","0.0-185.0-1.0","null","<p></p>","null","","","","","","","","","","","","","","","","","","","","","","",""
"","do_trial","356","1850133","0.0-186.0-0.0","1805.5","","","","","","","","49","0,1,1","3","coast","119","probe-104","0.4677292831457362","0.3016739122090112","0.07798169207653109","0","","","","","","","",""
"","html-keyboard-response","357","1851144","0.0-186.0-1.0","null","<p></p>","null","","","","","","","","","","","","","","","","","","","","","","",""
"","do_trial","358","1855902","0.0-187.0-0.0","207.89999999850988","","","","","","","","49","0,0,1","3","coast","120","probe-92","0.5814798806190916","0.47393522850258973","0.17103818171819551","0","","","","","","","",""
"","html-keyboard-response","359","1856916","0.0-187.0-1.0","null","<p></p>","null","","","","","","","","","","","","","","","","","","","","","","",""
"","do_trial","360","1862146","0.0-188.0-0.0","661.3999999985099","","","","","","","","49","0,0,1","3","coast","121","probe-191","0.6395745849693314","0.6217322557680375","0.24136206015161193","0","","","","","","","",""
"","html-keyboard-response","361","1863163","0.0-188.0-1.0","null","<p></p>","null","","","","","","","","","","","","","","","","","","","","","","",""
"","do_trial","362","1869243","0.0-189.0-0.0","null","","","","","","","","null","0,1,0","3","coast","122","probe-217","0.5235121036031012","0.5595458141504962","0.3112253339330418","","","","","","","","",""
"","html-keyboard-response","363","1870250","0.0-189.0-1.0","null","<p></p>","null","","","","","","","","","","","","","","","","","","","","","","",""
"","do_trial","364","1876299","0.0-190.0-0.0","null","","","","","","","","null","1,1,0","3","coast","123","probe-19","0.34493330153757884","0.5381778827527669","0.29784584270796205","","","","","","","","",""
"","html-keyboard-response","365","1877315","0.0-190.0-1.0","null","<p></p>","null","","","","","","","","","","","","","","","","","","","","","","",""
"","do_trial","366","1883974","0.0-191.0-0.0","2115.89999999851","","","","","","","","51","0,1,0","3","coast","124","probe-40","0.3567223976716403","0.6448369464821461","0.18784619810411318","0","","","","","","","",""
"","html-keyboard-response","367","1884989","0.0-191.0-1.0","null","<p></p>","null","","","","","","","","","","","","","","","","","","","","","","",""
"","do_trial","368","1890556","0.0-192.0-0.0","1016.6000000014901","","","","","","","","50","1,0,1","3","coast","125","probe-135","0.245510687106437","0.6049204665356026","0.3180439720948624","0","","","","","","","",""
"","html-keyboard-response","369","1891560","0.0-192.0-1.0","null","<p></p>","null","","","","","","","","","","","","","","","","","","","","","","",""
"","do_trial","370","1896240","0.0-193.0-0.0","141.09999999403954","","","","","","","","49","0,0,0","3","coast","126","probe-100","0.24420609906083926","0.5546209278892968","0.1850343774455736","0","","","","","","","",""
"","html-keyboard-response","371","1897252","0.0-193.0-1.0","null","<p></p>","null","","","","","","","","","","","","","","","","","","","","","","",""
"","do_trial","372","1903267","0.0-194.0-0.0","1467","","","","","","","","50","0,1,1","3","coast","127","probe-139","0.12606366782110923","0.611288121580332","0.20633464065198698","1","","","","","","","",""
"","html-keyboard-response","373","1904283","0.0-194.0-1.0","null","<p></p>","null","","","","","","","","","","","","","","","","","","","","","","",""
"","do_trial","374","1908926","0.0-195.0-0.0","72.60000000149012","","","","","","","","50","0,1,0","3","coast","128","probe-152","0.05208160906843789","0.6437520841886611","0.20003156707029857","1","","","","","","","",""
"","html-keyboard-response","375","1909939","0.0-195.0-1.0","null","<p></p>","null","","","","","","","","","","","","","","","","","","","","","","",""
"","do_trial","376","1914809","0.0-196.0-0.0","329.5","","","","","","","","50","0,0,0","3","coast","129","probe-171","0.11221154983058806","0.6041607204421097","0.2664186798863207","0","","","","","","","",""
"","html-keyboard-response","377","1915825","0.0-196.0-1.0","null","<p></p>","null","","","","","","","","","","","","","","","","","","","","","","",""
"","do_trial","378","1922331","0.0-197.0-0.0","1925.1000000014901","","","","","","","","50","0,1,0","3","coast","130","probe-164","0.08497815085354196","0.6810809823523499","0.3139991772131264","1","","","","","","","",""
"","html-keyboard-response","379","1923343","0.0-197.0-1.0","null","<p></p>","null","","","","","","","","","","","","","","","","","","","","","","",""
"","do_trial","380","1927975","0.0-198.0-0.0","69.5","","","","","","","","51","0,1,0","3","coast","131","probe-209","0.12732375530638235","0.6028790392244266","0.2604876968591082","0","","","","","","","",""
"","html-keyboard-response","381","1928991","0.0-198.0-1.0","null","<p></p>","null","","","","","","","","","","","","","","","","","","","","","","",""
"","do_trial","382","1933548","0.0-199.0-0.0","0.10000000149011612","","","","","","","","50","0,0,1","3","coast","132","probe-175","0.22036398290262518","0.5875406066020828","0.3822902021195067","0","","","","","","","",""
"","html-keyboard-response","383","1934554","0.0-199.0-1.0","null","<p></p>","null","","","","","","","","","","","","","","","","","","","","","","",""
"","do_trial","384","1939275","0.0-200.0-0.0","147.5","","","","","","","","51","0,0,1","3","coast","133","probe-225","0.27791445861500275","0.5057471610303427","0.3413008365866864","1","","","","","","","",""
"","html-keyboard-response","385","1940283","0.0-200.0-1.0","null","<p></p>","null","","","","","","","","","","","","","","","","","","","","","","",""
"","do_trial","386","1944854","0.0-201.0-0.0","0.19999999552965164","","","","","","","","50","0,1,1","3","coast","134","probe-215","0.23932436783845987","0.6301152929661481","0.31975164693320896","1","","","","","","","",""
"","html-keyboard-response","387","1945860","0.0-201.0-1.0","null","<p></p>","null","","","","","","","","","","","","","","","","","","","","","","",""
"","do_trial","388","1952155","0.0-202.0-0.0","1759.3999999985099","","","","","","","","51","0,0,0","3","coast","135","probe-59","0.08938535630045585","0.5960444586656556","0.30680802083338493","0","","","","","","","",""
"","html-keyboard-response","389","1953161","0.0-202.0-1.0","null","<p></p>","null","","","","","","","","","","","","","","","","","","","","","","",""
"","do_trial","390","1958904","0.0-203.0-0.0","1197.6000000014901","","","","","","","","51","1,1,1","3","coast","136","probe-136","0.19112029888717863","0.5967715412032657","0.3196291227310139","1","","","","","","","",""
"","html-keyboard-response","391","1959917","0.0-203.0-1.0","null","<p></p>","null","","","","","","","","","","","","","","","","","","","","","","",""
"","do_trial","392","1964607","0.0-204.0-0.0","151.29999999701977","","","","","","","","51","0,0,0","3","coast","137","probe-229","0.1585165748240151","0.46204892088181054","0.24997604267952056","0","","","","","","","",""
"","html-keyboard-response","393","1965608","0.0-204.0-1.0","null","<p></p>","null","","","","","","","","","","","","","","","","","","","","","","",""
"","do_trial","394","1971413","0.0-205.0-0.0","1254.8000000044703","","","","","","","","50","0,1,0","3","coast","138","probe-12","0.15596882924637256","0.5921887621835393","0.23704182462787848","1","","","","","","","",""
"","html-keyboard-response","395","1972416","0.0-205.0-1.0","null","<p></p>","null","","","","","","","","","","","","","","","","","","","","","","",""
"","do_trial","396","1977787","0.0-206.0-0.0","835.2999999970198","","","","","","","","50","0,1,0","3","coast","139","probe-110","0.15494651548567437","0.6882344505500808","0.34060539143191015","1","","","","","","","",""
"","html-keyboard-response","397","1978789","0.0-206.0-1.0","null","<p></p>","null","","","","","","","","","","","","","","","","","","","","","","",""
"","do_trial","398","1983969","0.0-207.0-0.0","609.6000000014901","","","","","","","","50","1,1,0","3","coast","140","probe-64","0.21499720708311337","0.5762880901307755","0.32378419608359404","1","","","","","","","",""
"","html-keyboard-response","399","1984973","0.0-207.0-1.0","null","<p></p>","null","","","","","","","","","","","","","","","","","","","","","","",""
"","do_trial","400","1990169","0.0-208.0-0.0","650.6999999955297","","","","","","","","50","0,1,0","3","coast","141","probe-80","0.07219098444791626","0.7285784237837184","0.3334090246448069","1","","","","","","","",""
"","html-keyboard-response","401","1991186","0.0-208.0-1.0","null","<p></p>","null","","","","","","","","","","","","","","","","","","","","","","",""
"","do_trial","402","1996256","0.0-209.0-0.0","519.1000000014901","","","","","","","","50","1,0,0","3","coast","142","probe-76","0.11006313238540294","0.5723897099964631","0.3400998295961315","0","","","","","","","",""
"","html-keyboard-response","403","1997264","0.0-209.0-1.0","null","<p></p>","null","","","","","","","","","","","","","","","","","","","","","","",""
"","do_trial","404","2002439","0.0-210.0-0.0","628.2000000029802","","","","","","","","50","0,0,1","3","coast","143","probe-39","0.05068946628846688","0.5120719023872704","0.3460624457100155","0","","","","","","","",""
"","html-keyboard-response","405","2003455","0.0-210.0-1.0","null","<p></p>","null","","","","","","","","","","","","","","","","","","","","","","",""
"","do_trial","406","2008701","0.0-211.0-0.0","696.6000000014901","","","","","","","","50","0,0,0","3","coast","144","probe-82","0.08726394546481199","0.37327565685042385","0.24445800812532872","0","","","","","","","",""
"","html-keyboard-response","407","2009718","0.0-211.0-1.0","null","<p></p>","null","","","","","","","","","","","","","","","","","","","","","","",""
"","do_trial","408","2015100","0.0-212.0-0.0","831.4000000059605","","","","","","","","50","0,1,0","3","coast","145","probe-60","0.14056460695158754","0.5231423342543939","0.23209865069005134","1","","","","","","","",""
"","html-keyboard-response","409","2016115","0.0-212.0-1.0","null","<p></p>","null","","","","","","","","","","","","","","","","","","","","","","",""
"","do_trial","410","2022175","0.0-213.0-0.0","null","","","","","","","","null","0,1,0","3","coast","146","probe-108","0.18085943847085525","0.5559666373111949","0.25322529803183313","","","","","","","","",""
"","html-keyboard-response","411","2023185","0.0-213.0-1.0","null","<p></p>","null","","","","","","","","","","","","","","","","","","","","","","",""
"","do_trial","412","2028814","0.0-214.0-0.0","1061.1999999955297","","","","","","","","50","1,1,0","3","coast","147","probe-01","0.1373740567253254","0.6050335069089576","0.25060104251256493","1","","","","","","","",""
"","html-keyboard-response","413","2029830","0.0-214.0-1.0","null","<p></p>","null","","","","","","","","","","","","","","","","","","","","","","",""
"","do_trial","414","2035908","0.0-215.0-0.0","null","","","","","","","","null","1,1,0","3","coast","148","probe-10","0.14371495867352926","0.6576168742612876","0.3195105331652205","","","","","","","","",""
"","html-keyboard-response","415","2036925","0.0-215.0-1.0","null","<p></p>","null","","","","","","","","","","","","","","","","","","","","","","",""
"","do_trial","416","2042988","0.0-216.0-0.0","null","","","","","","","","null","0,1,0","3","coast","149","probe-188","0.17737433444337142","0.6830485222787661","0.29886309919210763","","","","","","","","",""
"","html-keyboard-response","417","2043999","0.0-216.0-1.0","null","<p></p>","null","","","","","","","","","","","","","","","","","","","","","","",""
"","do_bye","418","2045509","0.0-217.0-0.0","null","","","","","","","","null","","","","","","","","","","","","","","","","",""
"","break","419","2117051","0.0-217.0-1.0","71546.39999999851","<div class='center'><p>Time to take a quick break! You have 2 minutes to rest, but you can move on sooner if you'd like.</p><p> Press the <b>space bar</b> to continue.</p></div>","32","","","","","","","","","","","","","","","","","","","","","","",""
"","do_travel","420","2126060","0.0-218.0-0.0","null","","","","","","","","null","","","","","","","","","","","","","","","","",""
"","do_welcome","421","2130069","0.0-218.0-1.0","null","","","","","","","","null","","","","","","","","","","","","","","","","",""
"","do_trial","422","2136139","0.0-219.0-0.0","null","","","","","","","","null","0,1,0","4","highway","150","probe-56","0.13714084885365674","1","0.26074815404204676","","","","","","","","",""
"","html-keyboard-response","423","2137145","0.0-219.0-1.0","null","<p></p>","null","","","","","","","","","","","","","","","","","","","","","","",""
"","do_trial","424","2142092","0.0-220.0-0.0","373.3999999985099","","","","","","","","49","0,1,1","4","highway","151","probe-69","0.13889626295162244","1","0.2827958423918658","0","","","","","","","",""
"","html-keyboard-response","425","2143104","0.0-220.0-1.0","null","<p></p>","null","","","","","","","","","","","","","","","","","","","","","","",""
"","do_trial","426","2149660","0.0-221.0-0.0","1993.2000000029802","","","","","","","","50","1,1,1","4","highway","152","probe-94","0.07478640259585918","0.8040332012145923","0.3262116717181366","1","","","","","","","",""
"","html-keyboard-response","427","2150662","0.0-221.0-1.0","null","<p></p>","null","","","","","","","","","","","","","","","","","","","","","","",""
"","do_trial","428","2155962","0.0-222.0-0.0","749.5","","","","","","","","51","0,0,0","4","highway","153","probe-156","0.16271480143668218","0.7505454115124832","0.2499082873264999","0","","","","","","","",""
"","html-keyboard-response","429","2156977","0.0-222.0-1.0","null","<p></p>","null","","","","","","","","","","","","","","","","","","","","","","",""
"","do_trial","430","2162202","0.0-223.0-0.0","677.6999999955297","","","","","","","","49","0,1,1","4","highway","154","probe-21","0.17269520107520994","0.604600832921557","0.3927589983570037","0","","","","","","","",""
"","html-keyboard-response","431","2163203","0.0-223.0-1.0","null","<p></p>","null","","","","","","","","","","","","","","","","","","","","","","",""
"","do_trial","432","2168303","0.0-224.0-0.0","527.2999999970198","","","","","","","","50","0,1,1","4","highway","155","probe-11","0.1811919503165136","0.5752517369421827","0.4543899340557361","1","","","","","","","",""
"","html-keyboard-response","433","2169312","0.0-224.0-1.0","null","<p></p>","null","","","","","","","","","","","","","","","","","","","","","","",""
"","do_trial","434","2174802","0.0-225.0-0.0","945.2000000029802","","","","","","","","50","0,0,1","4","highway","156","probe-93","0.0663098531246812","0.5207352990803353","0.3194759302533039","0","","","","","","","",""
"","html-keyboard-response","435","2175806","0.0-225.0-1.0","null","<p></p>","null","","","","","","","","","","","","","","","","","","","","","","",""
"","do_trial","436","2181163","0.0-226.0-0.0","809.8999999985099","","","","","","","","51","0,1,1","4","highway","157","probe-58","0.18492588931166268","0.6324607523340944","0.23729537803603062","1","","","","","","","",""
"","html-keyboard-response","437","2182174","0.0-226.0-1.0","null","<p></p>","null","","","","","","","","","","","","","","","","","","","","","","",""
"","do_trial","438","2188664","0.0-227.0-0.0","1952.6999999955297","","","","","","","","49","0,0,0","4","highway","158","probe-08","0.11101780139280062","0.519926602790489","0.27101616627840847","0","","","","","","","",""
"","html-keyboard-response","439","2189672","0.0-227.0-1.0","null","<p></p>","null","","","","","","","","","","","","","","","","","","","","","","",""
"","do_trial","440","2194771","0.0-228.0-0.0","524.3999999985099","","","","","","","","50","0,0,1","4","highway","159","probe-45","0.12822713376489278","0.4845525958246002","0.2739697901590596","0","","","","","","","",""
"","html-keyboard-response","441","2195788","0.0-228.0-1.0","null","<p></p>","null","","","","","","","","","","","","","","","","","","","","","","",""
"","do_trial","442","2201004","0.0-229.0-0.0","635.3999999985099","","","","","","","","51","0,0,0","4","highway","160","probe-102","0.05539439059550769","0.3065826351046038","0.19139617300627293","0","","","","","","","",""
"","html-keyboard-response","443","2202015","0.0-229.0-1.0","null","<p></p>","null","","","","","","","","","","","","","","","","","","","","","","",""
"","do_trial","444","2207086","0.0-230.0-0.0","522.2999999970198","","","","","","","","50","0,1,0","4","highway","161","probe-84","0.12577612895372128","0.3723242424599201","0.14881444318800344","1","","","","","","","",""
"","html-keyboard-response","445","2208100","0.0-230.0-1.0","null","<p></p>","null","","","","","","","","","","","","","","","","","","","","","","",""
"","do_trial","446","2212989","0.0-231.0-0.0","342.70000000298023","","","","","","","","49","0,0,0","4","highway","162","probe-17","0.13301051742159375","0.16745984343528222","0.25386265733027297","0","","","","","","","",""
"","html-keyboard-response","447","2214004","0.0-231.0-1.0","null","<p></p>","null","","","","","","","","","","","","","","","","","","","","","","",""
"","do_trial","448","2218923","0.0-232.0-0.0","372.30000000447035","","","","","","","","50","0,0,0","4","highway","163","probe-195","0.1894578471803564","0.21410111889270236","0.4469362652838414","0","","","","","","","",""
"","html-keyboard-response","449","2219939","0.0-232.0-1.0","null","<p></p>","null","","","","","","","","","","","","","","","","","","","","","","",""
"","do_trial","450","2225015","0.0-233.0-0.0","537.3000000044703","","","","","","","","51","0,1,0","4","highway","164","probe-112","0.14266991927583772","0.3874999762343719","0.32863677648077355","0","","","","","","","",""
"","html-keyboard-response","451","2226031","0.0-233.0-1.0","null","<p></p>","null","","","","","","","","","","","","","","","","","","","","","","",""
"","do_trial","452","2231147","0.0-234.0-0.0","546.5","","","","","","","","49","0,0,0","4","highway","165","probe-52","0.174050331942136","0.4778753732503752","0.35803714611372905","0","","","","","","","",""
"","html-keyboard-response","453","2232151","0.0-234.0-1.0","null","<p></p>","null","","","","","","","","","","","","","","","","","","","","","","",""
"","do_trial","454","2237176","0.0-235.0-0.0","468.69999999552965","","","","","","","","50","1,1,0","4","highway","166","probe-151","0.08535521073202355","0.24620854972093745","0.3285644220452683","1","","","","","","","",""
"","html-keyboard-response","455","2238181","0.0-235.0-1.0","null","<p></p>","null","","","","","","","","","","","","","","","","","","","","","","",""
"","do_trial","456","2243556","0.0-236.0-0.0","833.7000000029802","","","","","","","","51","0,0,0","4","highway","167","probe-196","0.1635883193534417","0.2666980019341319","0.539487457127678","0","","","","","","","",""
"","html-keyboard-response","457","2244561","0.0-236.0-1.0","null","<p></p>","null","","","","","","","","","","","","","","","","","","","","","","",""
"","do_trial","458","2250140","0.0-237.0-0.0","1042.1000000014901","","","","","","","","50","0,0,1","4","highway","168","probe-09","0.05446205727290334","0.34700063496365424","0.5124111587240125","0","","","","","","","",""
"","html-keyboard-response","459","2251156","0.0-237.0-1.0","null","<p></p>","null","","","","","","","","","","","","","","","","","","","","","","",""
"","do_trial","460","2257517","0.0-238.0-0.0","1811.1000000014901","","","","","","","","49","1,0,0","4","highway","169","probe-03","0.2198529545241732","0.40977966815875927","0.3746600407863608","1","","","","","","","",""
"","html-keyboard-response","461","2258533","0.0-238.0-1.0","null","<p></p>","null","","","","","","","","","","","","","","","","","","","","","","",""
"","do_trial","462","2263519","0.0-239.0-0.0","436.1000000014901","","","","","","","","49","0,1,1","4","highway","170","probe-29","0.16744369848070542","0.34528493260021464","0.40766032985583756","0","","","","","","","",""
"","html-keyboard-response","463","2264524","0.0-239.0-1.0","null","<p></p>","null","","","","","","","","","","","","","","","","","","","","","","",""
"","do_trial","464","2269508","0.0-240.0-0.0","417","","","","","","","","51","0,0,1","4","highway","171","probe-220","0.22599423308825461","0.3182229720984369","0.42900651093562986","1","","","","","","","",""
"","html-keyboard-response","465","2270526","0.0-240.0-1.0","null","<p></p>","null","","","","","","","","","","","","","","","","","","","","","","",""
"","do_trial","466","2275471","0.0-241.0-0.0","377.59999999403954","","","","","","","","49","0,0,0","4","highway","172","probe-75","0.07879169952088773","0.3178803946132391","0.6360751581099189","0","","","","","","","",""
"","html-keyboard-response","467","2276476","0.0-241.0-1.0","null","<p></p>","null","","","","","","","","","","","","","","","","","","","","","","",""
"","do_trial","468","2281658","0.0-242.0-0.0","645.5999999940395","","","","","","","","50","0,0,0","4","highway","173","probe-43","0.05186342239559818","0.37762510251766324","0.663713444723373","0","","","","","","","",""
