"success","trial_type","trial_index","time_elapsed","internal_node_id","interactions","blur_events","focus_events","fullscreenenter_events","fullscreenexit_events","rt","stimulus","key_press","subject_id","participant_id","age","gender","prompt","response","choice_outcomes","context_n","context_img_id","trial_n","probe_img_id","pR_red","pR_white","pR_black","outcome","contextArray_ind","validImageProbes","invalidImageProbes","pRew_Red","pRew_White","pRew_Black","availableForMemProbe","choice_blocks"
"true","fullscreen","0","5410","0.0-0.0","""event"",""trial"",""time""
""fullscreenenter"",""0"",""4422""
","
","
","""event"",""trial"",""time""
""fullscreenenter"",""0"",""4422""
","
","","","","","","","","","","","","","","","","","","","","","","","","","",""
"","pavlovia","1","5415","0.0-1.0","""event"",""trial"",""time""
""fullscreenenter"",""0"",""4422""
","
","
","""event"",""trial"",""time""
""fullscreenenter"",""0"",""4422""
","
","","","","","","","","","","","","","","","","","","","","","","","","","",""
"","instruc1","2","50554","0.0-2.0","""event"",""trial"",""time""
""fullscreenenter"",""0"",""4422""
","
","
","""event"",""trial"",""time""
""fullscreenenter"",""0"",""4422""
","
","null","run_exp/static/audio/clip_1_welcome.m4a","null","1137","958","8","Female","<div class='center'><p>Welcome! This is the first part of the study. It will last ~30 minutes. In part 1 and part 2 of the study, you are the head captain of a pirate ship traveling around the world to different islands. You will play a few different games throughout these two parts. Here is an overview of them:</p><br><p>Part 1 (today)</p><p>1. Instructions, practice game, and quiz</p><p>2. Pick a pirate game on 6 different islands</p><br><p>Part 2 (tomorrow)</p><p>3. Pick a pirate game and memory game</p><p>4. Where did you see this ship? </p></div>","","","","","","","","","","","","","","","","","",""
"","html-keyboard-response","3","54021","0.0-3.0","""event"",""trial"",""time""
""fullscreenenter"",""0"",""4422""
","
","
","""event"",""trial"",""time""
""fullscreenenter"",""0"",""4422""
","
","3464.2000000029802","<div class='center'><p>Welcome! This is the first part of the study. It will last ~30 minutes. In part 1 and part 2 of the study, you are the head captain of a pirate ship traveling around the world to different islands. You will play a few different games throughout these two parts. Here is an overview of them:</p><br><p>Part 1 (today)</p><p>1. Instructions, practice game, and quiz</p><p>2. Pick a pirate game on 6 different islands</p><br><p>Part 2 (tomorrow)</p><p>3. Pick a pirate game and memory game</p><p>4. Where did you see this ship? </p><p><b>[Press the space bar to continue]</b></p></div>","32","","","","","","","","","","","","","","","","","","","","","","",""
"","instruc2","4","59343","0.0-4.0","""event"",""trial"",""time""
""fullscreenenter"",""0"",""4422""
","
","
","""event"",""trial"",""time""
""fullscreenenter"",""0"",""4422""
","
","null","run_exp/static/audio/clip_2_different_places.m4a","null","","","","","<div class='center'><p>Today, you’ll visit these 6 islands on your journey. You'll be able to see these islands from your ship.</p><p><img src='run_exp/static/images/contexts/all_contexts.png' height='500'></p></div>","","","","","","","","","","","","","","","","","",""
"","html-keyboard-response","5","61177","0.0-5.0","""event"",""trial"",""time""
""fullscreenenter"",""0"",""4422""
","
","
","""event"",""trial"",""time""
""fullscreenenter"",""0"",""4422""
","
","1825.1999999955297","<div class='center'><p>Today, you’ll visit these 6 islands on your journey. You'll be able to see these islands from your ship.</p><p><img src='run_exp/static/images/contexts/all_contexts.png' height='500'></p><p><b>[Press the space bar to continue]</b></p></div>","32","","","","","","","","","","","","","","","","","","","","","","",""
"","instruc3","6","70884","0.0-6.0","""event"",""trial"",""time""
""fullscreenenter"",""0"",""4422""
","
","
","""event"",""trial"",""time""
""fullscreenenter"",""0"",""4422""
","
","null","run_exp/static/audio/clip_3_goal_of_game_1.m4a","null","","","","","<div class='center'><p> The pirates on your ship will rob other ships as they leave the island.</p> These ships have just sold their goods to the islanders, so they will be filled with lots and lots of gold.</p><p><img src='run_exp/static/images/tutorial/ship_center.png' height='400'></p></div>","","","","","","","","","","","","","","","","","",""
"","html-keyboard-response","7","72085","0.0-7.0","""event"",""trial"",""time""
""fullscreenenter"",""0"",""4422""
","
","
","""event"",""trial"",""time""
""fullscreenenter"",""0"",""4422""
","
","1198.3000000044703","<div class='center'><p> The pirates on your ship will rob other ships as they leave the island.</p> These ships have just sold their goods to the islanders, so they will be filled with lots and lots of gold.</p><p><img src='run_exp/static/images/tutorial/ship_center.png' height='400'></p><p><b>[Press the space bar to continue]</b></p></div>","32","","","","","","","","","","","","","","","","","","","","","","",""
"","instruc4","8","100111","0.0-8.0","""event"",""trial"",""time""
""fullscreenenter"",""0"",""4422""
","
","
","""event"",""trial"",""time""
""fullscreenenter"",""0"",""4422""
","
","null","run_exp/static/audio/clip_4_goal_of_game_2.m4a","null","","","","","<div class='center'><p>As the head captain, you do not have to rob any ships yourself. Another pirate will be doing the robbing for you. First, you will choose a pirate to rob the next ship.</p><p><img src='run_exp/static/images/tutorial/pirates_all_crop.png' height='200'></p><p>Then, you'll see if the pirate successfully robbed the ship of their gold. If they were successful, then you'll get a stack of gold coins like this:</p><p><img src='run_exp/static/images/tutorial/reward.png' height='150'></p><p> If they were <b>not</b> successful, then you'll get no gold coins, and you'll see a big red x like this: </p><p><img src='run_exp/static/images/tutorial/reward_no.png' height='150'></p><p> How much bonus money you make is based on how many gold coins you collect.</p><div>","","","","","","","","","","","","","","","","","",""
"","html-keyboard-response","9","101293","0.0-9.0","""event"",""trial"",""time""
""fullscreenenter"",""0"",""4422""
","
","
","""event"",""trial"",""time""
""fullscreenenter"",""0"",""4422""
","
","1179.8000000044703","<div class='center'><p>As the head captain, you do not have to rob any ships yourself. Another pirate will be doing the robbing for you. First, you will choose a pirate to rob the next ship.</p><p><img src='run_exp/static/images/tutorial/pirates_all_crop.png' height='200'></p><p>Then, you'll see if the pirate successfully robbed the ship of their gold. If they were successful, then you'll get a stack of gold coins like this:</p><p><img src='run_exp/static/images/tutorial/reward.png' height='150'></p><p> If they were <b>not</b> successful, then you'll get no gold coins, and you'll see a big red x like this: </p><p><img src='run_exp/static/images/tutorial/reward_no.png' height='150'></p><p> How much bonus money you make is based on how many gold coins you collect.</p<p><b>[Press the space bar to continue]</b></p></div>","32","","","","","","","","","","","","","","","","","","","","","","",""
"","instruc5","10","125144","0.0-10.0","""event"",""trial"",""time""
""fullscreenenter"",""0"",""4422""
","
","
","""event"",""trial"",""time""
""fullscreenenter"",""0"",""4422""
","
","23848.89999999851","run_exp/static/audio/clip_5_probabilistic.m4a","49","","","","","<div class='center'><p>Even the most skilled pirate can not rob EVERY ship.</p><p> Some ships will have very strong protections against pirate attacks.</p><p> Blue beard, here, is very, very good at robbing ships, but he won't be successful every time he tries to rob one.</p><p> You can press the <b>‘1’</b> key on the keyboard to choose him.</p><p> Try choosing him 10 times to see how often he succeeds at robbing a ship. </p><p><img src='run_exp/static/images/tutorial/blue.png' height='500'></p></div>","","","","","","","","","","","","","","","","","",""
"","html-keyboard-response","11","126649","0.0-11.0","""event"",""trial"",""time""
""fullscreenenter"",""0"",""4422""
","
","
","""event"",""trial"",""time""
""fullscreenenter"",""0"",""4422""
","
","null","<div class='center'><p><img src='run_exp/static/images/tutorial/blue_win.png' height='500'></p></div>","null","","","","","","","","","","","","","","","","","","","","","","",""
"","html-keyboard-response","12","128237","0.0-12.0","""event"",""trial"",""time""
""fullscreenenter"",""0"",""4422""
","
","
","""event"",""trial"",""time""
""fullscreenenter"",""0"",""4422""
","
","1585.5999999940395","<div class='center'><img src='run_exp/static/images/tutorial/blue.png' height='500'></p></div>","49","","","","","","","","","","","","","","","","","","","","","","",""
"","html-keyboard-response","13","129740","0.0-13.0","""event"",""trial"",""time""
""fullscreenenter"",""0"",""4422""
","
","
","""event"",""trial"",""time""
""fullscreenenter"",""0"",""4422""
","
","null","<div class='center'><p><img src='run_exp/static/images/tutorial/blue_win.png' height='500'></p></div>","null","","","","","","","","","","","","","","","","","","","","","","",""
"","html-keyboard-response","14","129836","0.0-14.0","""event"",""trial"",""time""
""fullscreenenter"",""0"",""4422""
","
","
","""event"",""trial"",""time""
""fullscreenenter"",""0"",""4422""
","
","93.10000000149012","<div class='center'><img src='run_exp/static/images/tutorial/blue.png' height='500'></p></div>","49","","","","","","","","","","","","","","","","","","","","","","",""
"","html-keyboard-response","15","131343","0.0-15.0","""event"",""trial"",""time""
""fullscreenenter"",""0"",""4422""
","
","
","""event"",""trial"",""time""
""fullscreenenter"",""0"",""4422""
","
","null","<div class='center'><p><img src='run_exp/static/images/tutorial/blue_win.png' height='500'></p></div>","null","","","","","","","","","","","","","","","","","","","","","","",""
"","html-keyboard-response","16","131663","0.0-16.0","""event"",""trial"",""time""
""fullscreenenter"",""0"",""4422""
","
","
","""event"",""trial"",""time""
""fullscreenenter"",""0"",""4422""
","
","317.3999999985099","<div class='center'><img src='run_exp/static/images/tutorial/blue.png' height='500'></p></div>","49","","","","","","","","","","","","","","","","","","","","","","",""
"","html-keyboard-response","17","133166","0.0-17.0","""event"",""trial"",""time""
""fullscreenenter"",""0"",""4422""
","
","
","""event"",""trial"",""time""
""fullscreenenter"",""0"",""4422""
","
","null","<div class='center'><p><img src='run_exp/static/images/tutorial/blue_no_win.png' height='500'></p></div>","null","","","","","","","","","","","","","","","","","","","","","","",""
"","html-keyboard-response","18","133880","0.0-18.0","""event"",""trial"",""time""
""fullscreenenter"",""0"",""4422""
","
","
","""event"",""trial"",""time""
""fullscreenenter"",""0"",""4422""
","
","711.6000000014901","<div class='center'><img src='run_exp/static/images/tutorial/blue.png' height='500'></p></div>","49","","","","","","","","","","","","","","","","","","","","","","",""
"","html-keyboard-response","19","135385","0.0-19.0","""event"",""trial"",""time""
""fullscreenenter"",""0"",""4422""
","
","
","""event"",""trial"",""time""
""fullscreenenter"",""0"",""4422""
","
","null","<div class='center'><p><img src='run_exp/static/images/tutorial/blue_win.png' height='500'></p></div>","null","","","","","","","","","","","","","","","","","","","","","","",""
"","html-keyboard-response","20","137142","0.0-20.0","""event"",""trial"",""time""
""fullscreenenter"",""0"",""4422""
","
","
","""event"",""trial"",""time""
""fullscreenenter"",""0"",""4422""
","
","1754.5","<div class='center'><img src='run_exp/static/images/tutorial/blue.png' height='500'></p></div>","49","","","","","","","","","","","","","","","","","","","","","","",""
"","html-keyboard-response","21","138649","0.0-21.0","""event"",""trial"",""time""
""fullscreenenter"",""0"",""4422""
","
","
","""event"",""trial"",""time""
""fullscreenenter"",""0"",""4422""
","
","null","<div class='center'><p><img src='run_exp/static/images/tutorial/blue_win.png' height='500'></p></div>","null","","","","","","","","","","","","","","","","","","","","","","",""
"","html-keyboard-response","22","138690","0.0-22.0","""event"",""trial"",""time""
""fullscreenenter"",""0"",""4422""
","
","
","""event"",""trial"",""time""
""fullscreenenter"",""0"",""4422""
","
","39.600000001490116","<div class='center'><img src='run_exp/static/images/tutorial/blue.png' height='500'></p></div>","49","","","","","","","","","","","","","","","","","","","","","","",""
"","html-keyboard-response","23","140193","0.0-23.0","""event"",""trial"",""time""
""fullscreenenter"",""0"",""4422""
","
","
","""event"",""trial"",""time""
""fullscreenenter"",""0"",""4422""
","
","null","<div class='center'><p><img src='run_exp/static/images/tutorial/blue_win.png' height='500'></p></div>","null","","","","","","","","","","","","","","","","","","","","","","",""
"","html-keyboard-response","24","140519","0.0-24.0","""event"",""trial"",""time""
""fullscreenenter"",""0"",""4422""
","
","
","""event"",""trial"",""time""
""fullscreenenter"",""0"",""4422""
","
","324.70000000298023","<div class='center'><img src='run_exp/static/images/tutorial/blue.png' height='500'></p></div>","49","","","","","","","","","","","","","","","","","","","","","","",""
"","html-keyboard-response","25","142025","0.0-25.0","""event"",""trial"",""time""
""fullscreenenter"",""0"",""4422""
","
","
","""event"",""trial"",""time""
""fullscreenenter"",""0"",""4422""
","
","null","<div class='center'><p><img src='run_exp/static/images/tutorial/blue_no_win.png' height='500'></p></div>","null","","","","","","","","","","","","","","","","","","","","","","",""
"","html-keyboard-response","26","142559","0.0-26.0","""event"",""trial"",""time""
""fullscreenenter"",""0"",""4422""
","
","
","""event"",""trial"",""time""
""fullscreenenter"",""0"",""4422""
","
","532.4000000059605","<div class='center'><img src='run_exp/static/images/tutorial/blue.png' height='500'></p></div>","49","","","","","","","","","","","","","","","","","","","","","","",""
"","html-keyboard-response","27","144066","0.0-27.0","""event"",""trial"",""time""
""fullscreenenter"",""0"",""4422""
","
","
","""event"",""trial"",""time""
""fullscreenenter"",""0"",""4422""
","
","null","<div class='center'><p><img src='run_exp/static/images/tutorial/blue_win.png' height='500'></p></div>","null","","","","","","","","","","","","","","","","","","","","","","",""
"","html-keyboard-response","28","144100","0.0-28.0","""event"",""trial"",""time""
""fullscreenenter"",""0"",""4422""
","
","
","""event"",""trial"",""time""
""fullscreenenter"",""0"",""4422""
","
","32.600000001490116","<div class='center'><img src='run_exp/static/images/tutorial/blue.png' height='500'></p></div>","49","","","","","","","","","","","","","","","","","","","","","","",""
"","html-keyboard-response","29","145606","0.0-29.0","""event"",""trial"",""time""
""fullscreenenter"",""0"",""4422""
","
","
","""event"",""trial"",""time""
""fullscreenenter"",""0"",""4422""
","
","null","<div class='center'><p><img src='run_exp/static/images/tutorial/blue_win.png' height='500'></p></div>","null","","","","","","","","","","","","","","","","","","","","","","",""
"","instruc6","30","151027","0.0-30.0","""event"",""trial"",""time""
""fullscreenenter"",""0"",""4422""
","
","
","""event"",""trial"",""time""
""fullscreenenter"",""0"",""4422""
","
","null","run_exp/static/audio/clip_6_blue_beard_outcome.m4a","null","","","","","<div class='center'><p> See, he succeeded in robbing the ships most of the time but not every time. </p></div>","","","","","","","","","","","","","","","","","",""
"","html-keyboard-response","31","152224","0.0-31.0","""event"",""trial"",""time""
""fullscreenenter"",""0"",""4422""
","
","
","""event"",""trial"",""time""
""fullscreenenter"",""0"",""4422""
","
","1195.7000000029802","<div class='center'><p> See, he succeeded in robbing the ships most of the time but not every time. </p><p><b>[Press the space bar to continue]</b></p></div>","32","","","","","","","","","","","","","","","","","","","","","","",""
"","audio-keyboard-response","32","170691","0.0-32.0","""event"",""trial"",""time""
""fullscreenenter"",""0"",""4422""
","
","
","""event"",""trial"",""time""
""fullscreenenter"",""0"",""4422""
","
","18465.39999999851","run_exp/static/audio/clip_7_pick_pirate.m4a","49","","","","","","","","","","","","","","","","","","","","","","",""
"","audio-keyboard-response","33","175717","0.0-33.0-0.0","""event"",""trial"",""time""
""fullscreenenter"",""0"",""4422""
","
","
","""event"",""trial"",""time""
""fullscreenenter"",""0"",""4422""
","
","5023.10000000149","run_exp/static/audio/clip_8_chosen_pirate_win.m4a","32","","","","","","","","","","","","","","","","","","","","","","",""
"","audio-keyboard-response","34","179938","0.0-33.0-1.0","""event"",""trial"",""time""
""fullscreenenter"",""0"",""4422""
","
","
","""event"",""trial"",""time""
""fullscreenenter"",""0"",""4422""
","
","4218.69999999553","run_exp/static/audio/clip_9_pick_a_pirate_again.m4a","51","","","","","","","","","","","","","","","","","","","","","","",""
"","audio-keyboard-response","35","188282","0.0-34.0-0.0","""event"",""trial"",""time""
""fullscreenenter"",""0"",""4422""
","
","
","""event"",""trial"",""time""
""fullscreenenter"",""0"",""4422""
","
","8341.70000000298","run_exp/static/audio/clip_10_chosen_pirate_loss.m4a","32","","","","","","","","","","","","","","","","","","","","","","",""
"","instruc9","36","193779","0.0-35.0-0.0","""event"",""trial"",""time""
""fullscreenenter"",""0"",""4422""
","
","
","""event"",""trial"",""time""
""fullscreenenter"",""0"",""4422""
","
","null","run_exp/static/audio/clip_11_time_out.m4a","null","","","","","<div class='center'><p>If you don’t make your choice fast enough, you’ll have to wait a few seconds before you can make another one. </p><p><img src='run_exp/static/images/miscellaneous/hurry_up.png' height='500'></p></div>","","","","","","","","","","","","","","","","","",""
"","html-keyboard-response","37","196052","0.0-35.0-1.0","""event"",""trial"",""time""
""fullscreenenter"",""0"",""4422""
","
","
","""event"",""trial"",""time""
""fullscreenenter"",""0"",""4422""
","
","2270.39999999851","<div class='center'><p>If you don’t make your choice fast enough, you’ll have to wait a few seconds before you can make another one. </p><p><img src='run_exp/static/images/miscellaneous/hurry_up.png' height='500'></p><p><b>[Press the space bar to continue]</b></p></div>","32","","","","","","","","","","","","","","","","","","","","","","",""
"","instruc10","38","235145","0.0-35.0-2.0","""event"",""trial"",""time""
""fullscreenenter"",""0"",""4422""
","
","
","""event"",""trial"",""time""
""fullscreenenter"",""0"",""4422""
","
","null","run_exp/static/audio/clip_12_probe.m4a","null","","","","","<div class='center'><p>Once you've chosen a pirate, you’ll be shown the ship they are robbing. You will never rob the same ship twice. Ships can be told apart from one another by the image on them. These are the goods that they sell. See, this ship has a travel mug on it. </p><p> You’ll have to remember which island you saw each ship on. You will win more gold coins and hence more bonus money if you remember correctly! To help you remember, you can imagine a story. For example, here, you could imagine a mug full of water in the desert. Or, as another example, if on the forest island, your pirate robbed a ship with an apple on it, you could imagine an apple falling from a tree in the forest. </p><p><img src='run_exp/static/images/tutorial/example_probe.png' height='500'></p></div>","","","","","","","","","","","","","","","","","",""
"","html-keyboard-response","39","236396","0.0-35.0-3.0","""event"",""trial"",""time""
""fullscreenenter"",""0"",""4422""
","
","
","""event"",""trial"",""time""
""fullscreenenter"",""0"",""4422""
","
","1249.1000000014901","<div class='center'><p>Once you've chosen a pirate, you’ll be shown the ship they are robbing. You will never rob the same ship twice. Ships can be told apart from one another by the image on them. These are the goods that they sell. See, this ship has a travel mug on it. </p><p> You’ll have to remember which island you saw each ship on. You will win more gold coins and hence more bonus money if you remember correctly! To help you remember, you can imagine a story. For example, here, you could imagine a mug full of water in the desert. Or, as another example, if on the forest island, your pirate robbed a ship with an apple on it, you could imagine an apple falling from a tree in the forest. </p><p><img src='run_exp/static/images/tutorial/example_probe.png' height='500'></p><p><b>[Press the space bar to continue]</b></p></div>","32","","","","","","","","","","","","","","","","","","","","","","",""
"","instruc11","40","252809","0.0-35.0-4.0","""event"",""trial"",""time""
""fullscreenenter"",""0"",""4422""
","
","
","""event"",""trial"",""time""
""fullscreenenter"",""0"",""4422""
","
","null","run_exp/static/audio/clip_13_changepoint.m4a","null","","","","","<div class='center'><p>How successful a pirate is at robbing ships will depend on the island you’re on.</p><p> A pirate may have visited this island many times before and gained a lot of practice robbing ships there.</p><p>So, they’re more likely to be successful than a pirate who has never visited the island before.</p></div>","","","","","","","","","","","","","","","","","",""
"","html-keyboard-response","41","253363","0.0-35.0-5.0","""event"",""trial"",""time""
""fullscreenenter"",""0"",""4422""
","
","
","""event"",""trial"",""time""
""fullscreenenter"",""0"",""4422""
","
","552.8999999985099","<div class='center'><p>How successful a pirate is at robbing ships will depend on the island you’re on.</p><p> A pirate may have visited this island many times before and gained a lot of practice robbing ships there.</p><p>So, they’re more likely to be successful than a pirate who has never visited the island before.</p><p><b>[Press the space bar to continue]</b></p></div>","32","","","","","","","","","","","","","","","","","","","","","","",""
"","instruc12","42","294452","0.0-35.0-6.0","""event"",""trial"",""time""
""fullscreenenter"",""0"",""4422""
","
","
","""event"",""trial"",""time""
""fullscreenenter"",""0"",""4422""
","
","null","run_exp/static/audio/clip_14_drift.m4a","null","","","","","<div class='center'><p>How successful a pirate is at robbing ships can also change over the time spent on the island. </p><p> Ships may hear from islanders about the pirates coming and will improve their protections against the attack. This may make it harder to rob them.</p><p> Ships may also become lazy and weaken the strength of their protections. This may make it easier to rob them.</p><br><p>Things are always changing on the high seas! So, try your best to pay attention!</p><p><img src='run_exp/static/images/tutorial/contingency.png' height='500'></p></div>","","","","","","","","","","","","","","","","","",""
"","html-keyboard-response","43","294497","0.0-35.0-7.0","""event"",""trial"",""time""
""fullscreenenter"",""0"",""4422""
","
","
","""event"",""trial"",""time""
""fullscreenenter"",""0"",""4422""
","
","43.20000000298023","<div class='center'><p>How successful a pirate is at robbing ships can also change over the time spent on the island. </p><p> Ships may hear from islanders about the pirates coming and will improve their protections against the attack. This may make it harder to rob them.</p><p> Ships may also become lazy and weaken the strength of their protections. This may make it easier to rob them.</p><br><p>Things are always changing on the high seas! So, try your best to pay attention!</p><p><img src='run_exp/static/images/tutorial/contingency.png' height='500'></p><p><b>[Press the space bar to continue]</b></p></div>","32","","","","","","","","","","","","","","","","","","","","","","",""
"","instruc13","44","329695","0.0-35.0-8.0","""event"",""trial"",""time""
""fullscreenenter"",""0"",""4422""
","
","
","""event"",""trial"",""time""
""fullscreenenter"",""0"",""4422""
","
","null","run_exp/static/audio/clip_15_summary.m4a","null","","","","","<div class='center'><p>Let's go over the instructions quickly again. You have two important things to do: </p><b><p> 1. Pick the pirate who is the best at robbing ships on the current island. </p></b><b><p> 2. Remember on which island a ship was robbed.</p> </b><p>The amount of bonus money you can win depends on both.</p><p><br><p>Let’s try a practice game. The game will start by showing you the pirates. First, pick a pirate using the <b> 1, 2, 3 </b> keys on your keyboard. When you are shown a ship, try to remember which island you’re on by making up a story.</p><p>This is just a practice game, so you’re not playing for money. </p><p> Good luck! This game will be very difficult but try your best!</p></div>","","","","","","","","","","","","","","","","","",""
"","html-keyboard-response","45","331889","0.0-35.0-9.0","""event"",""trial"",""time""
""fullscreenenter"",""0"",""4422""
","
","
","""event"",""trial"",""time""
""fullscreenenter"",""0"",""4422""
","
","2192.5","<div class='center'><p>Let's go over the instructions quickly again. You have two important things to do: </p><b><p> 1. Pick the pirate who is the best at robbing ships on the current island. </p></b><b><p> 2. Remember on which island a ship was robbed.</p> </b><p>The amount of bonus money you can win depends on both.</p><p><br><p>Let’s try a practice game. The game will start by showing you the pirates. First, pick a pirate using the <b> 1, 2, 3 </b> keys on your keyboard. When you are shown a ship, try to remember which island you’re on by making up a story.</p><p>This is just a practice game, so you’re not playing for money. </p><p> Good luck! This game will be very difficult but try your best!</p><p><b>[Press the space bar to continue]</b></p></div>","32","","","","","","","","","","","","","","","","","","","","","","",""
"","do_welcome","46","335903","0.0-35.0-10.0","""event"",""trial"",""time""
""fullscreenenter"",""0"",""4422""
","
","
","""event"",""trial"",""time""
""fullscreenenter"",""0"",""4422""
","
","null","","","","","","","","null","","","","","","","","","","","","","","","","",""
"","do_trial","47","341920","0.0-35.0-11.0","""event"",""trial"",""time""
""fullscreenenter"",""0"",""4422""
","
","
","""event"",""trial"",""time""
""fullscreenenter"",""0"",""4422""
","
","null","","","","","","","","null","1,0,0","","","","","","","","","","","","","","","",""
"","html-keyboard-response","48","342927","0.0-36.0-0.0","""event"",""trial"",""time""
""fullscreenenter"",""0"",""4422""
","
","
","""event"",""trial"",""time""
""fullscreenenter"",""0"",""4422""
","
","null","<p></p>","null","","","","","","","","","","","","","","","","","","","","","","",""
"","do_trial","49","348586","0.0-36.0-1.0","""event"",""trial"",""time""
""fullscreenenter"",""0"",""4422""
","
","
","""event"",""trial"",""time""
""fullscreenenter"",""0"",""4422""
","
","1147.8999999985099","","","","","","","","50","1,0,0","","","","","","","","","","","","","","","",""
"","html-keyboard-response","50","349591","0.0-37.0-0.0","""event"",""trial"",""time""
""fullscreenenter"",""0"",""4422""
","
","
","""event"",""trial"",""time""
""fullscreenenter"",""0"",""4422""
","
","null","<p></p>","null","","","","","","","","","","","","","","","","","","","","","","",""
"","do_trial","51","355641","0.0-37.0-1.0","""event"",""trial"",""time""
""fullscreenenter"",""0"",""4422""
","
","
","""event"",""trial"",""time""
""fullscreenenter"",""0"",""4422""
","
","1537.8999999985099","","","","","","","","49","1,1,0","","","","","","","","","","","","","","","",""
"","html-keyboard-response","52","356649","0.0-38.0-0.0","""event"",""trial"",""time""
""fullscreenenter"",""0"",""4422""
","
","
","""event"",""trial"",""time""
""fullscreenenter"",""0"",""4422""
","
","null","<p></p>","null","","","","","","","","","","","","","","","","","","","","","","",""
"","do_trial","53","361592","0.0-38.0-1.0","""event"",""trial"",""time""
""fullscreenenter"",""0"",""4422""
","
","
","""event"",""trial"",""time""
""fullscreenenter"",""0"",""4422""
","
","428.70000000298023","","","","","","","","50","1,0,1","","","","","","","","","","","","","","","",""
"","html-keyboard-response","54","362600","0.0-39.0-0.0","""event"",""trial"",""time""
""fullscreenenter"",""0"",""4422""
","
","
","""event"",""trial"",""time""
""fullscreenenter"",""0"",""4422""
","
","null","<p></p>","null","","","","","","","","","","","","","","","","","","","","","","",""
"","do_trial","55","367565","0.0-39.0-1.0","""event"",""trial"",""time""
""fullscreenenter"",""0"",""4422""
","
","
","""event"",""trial"",""time""
""fullscreenenter"",""0"",""4422""
","
","451.8999999985099","","","","","","","","51","0,1,0","","","","","","","","","","","","","","","",""
"","html-keyboard-response","56","368572","0.0-40.0-0.0","""event"",""trial"",""time""
""fullscreenenter"",""0"",""4422""
","
","
","""event"",""trial"",""time""
""fullscreenenter"",""0"",""4422""
","
","null","<p></p>","null","","","","","","","","","","","","","","","","","","","","","","",""
"","do_trial","57","373840","0.0-40.0-1.0","""event"",""trial"",""time""
""fullscreenenter"",""0"",""4422""
","
","
","""event"",""trial"",""time""
""fullscreenenter"",""0"",""4422""
","
","755.3999999985099","","","","","","","","50","1,0,0","","","","","","","","","","","","","","","",""
"","do_bye","58","375352","0.0-41.0-0.0","""event"",""trial"",""time""
""fullscreenenter"",""0"",""4422""
","
","
","""event"",""trial"",""time""
""fullscreenenter"",""0"",""4422""
","
","null","","","","","","","","null","","","","","","","","","","","","","","","","",""
"","do_travel","59","384360","0.0-41.0-1.0","""event"",""trial"",""time""
""fullscreenenter"",""0"",""4422""
","
","
","""event"",""trial"",""time""
""fullscreenenter"",""0"",""4422""
","
","null","","","","","","","","null","","","","","","","","","","","","","","","","",""
"","do_welcome","60","388370","0.0-41.0-2.0","""event"",""trial"",""time""
""fullscreenenter"",""0"",""4422""
","
","
","""event"",""trial"",""time""
""fullscreenenter"",""0"",""4422""
","
","null","","","","","","","","null","","","","","","","","","","","","","","","","",""
"","do_trial","61","394360","0.0-41.0-3.0","""event"",""trial"",""time""
""fullscreenenter"",""0"",""4422""
","
","
","""event"",""trial"",""time""
""fullscreenenter"",""0"",""4422""
","
","1480.3999999985099","","","","","","","","49","1,0,0","","","","","","","","","","","","","","","",""
"","html-keyboard-response","62","395363","0.0-42.0-0.0","""event"",""trial"",""time""
""fullscreenenter"",""0"",""4422""
","
","
","""event"",""trial"",""time""
""fullscreenenter"",""0"",""4422""
","
","null","<p></p>","null","","","","","","","","","","","","","","","","","","","","","","",""
"","do_trial","63","400368","0.0-42.0-1.0","""event"",""trial"",""time""
""fullscreenenter"",""0"",""4422""
","
","
","""event"",""trial"",""time""
""fullscreenenter"",""0"",""4422""
","
","489.5","","","","","","","","49","1,0,1","","","","","","","","","","","","","","","",""
"","html-keyboard-response","64","401376","0.0-43.0-0.0","""event"",""trial"",""time""
""fullscreenenter"",""0"",""4422""
","
","
","""event"",""trial"",""time""
""fullscreenenter"",""0"",""4422""
","
","null","<p></p>","null","","","","","","","","","","","","","","","","","","","","","","",""
"","do_trial","65","406596","0.0-43.0-1.0","""event"",""trial"",""time""
""fullscreenenter"",""0"",""4422""
","
","
","""event"",""trial"",""time""
""fullscreenenter"",""0"",""4422""
","
","705.6000000014901","","","","","","","","49","1,1,0","","","","","","","","","","","","","","","",""
"","html-keyboard-response","66","407605","0.0-44.0-0.0","""event"",""trial"",""time""
""fullscreenenter"",""0"",""4422""
","
","
","""event"",""trial"",""time""
""fullscreenenter"",""0"",""4422""
","
","null","<p></p>","null","","","","","","","","","","","","","","","","","","","","","","",""
"","do_trial","67","412712","0.0-44.0-1.0","""event"",""trial"",""time""
""fullscreenenter"",""0"",""4422""
","
","
","""event"",""trial"",""time""
""fullscreenenter"",""0"",""4422""
","
","594.3000000044703","","","","","","","","49","0,0,1","","","","","","","","","","","","","","","",""
"","html-keyboard-response","68","413720","0.0-45.0-0.0","""event"",""trial"",""time""
""fullscreenenter"",""0"",""4422""
","
","
","""event"",""trial"",""time""
""fullscreenenter"",""0"",""4422""
","
","null","<p></p>","null","","","","","","","","","","","","","","","","","","","","","","",""
"","do_trial","69","418652","0.0-45.0-1.0","""event"",""trial"",""time""
""fullscreenenter"",""0"",""4422""
","
","
","""event"",""trial"",""time""
""fullscreenenter"",""0"",""4422""
","
","418.3999999985099","","","","","","","","50","1,0,1","","","","","","","","","","","","","","","",""
"","html-keyboard-response","70","422615","0.0-46.0-0.0","""event"",""trial"",""time""
""fullscreenenter"",""0"",""4422""
","
","
","""event"",""trial"",""time""
""fullscreenenter"",""0"",""4422""
","
","3958.2999999970198","<div class='center'><p><img src='run_exp/static/images/tutorial/prac_best_pirate.png'  height='500'></p></div>","49","","","","","","","","","","","","","","","","","","","","","","",""
"","html-keyboard-response","71","427348","0.0-47.0-0.0","""event"",""trial"",""time""
""fullscreenenter"",""0"",""4422""
","
","
","""event"",""trial"",""time""
""fullscreenenter"",""0"",""4422""
","
","4731","<div class='center'><p>That's correct! Red beard was the best.</p><p><b>[Press the space bar to continue]</b></p></div>","32","","","","","","","","","","","","","","","","","","","","","","",""
"","html-keyboard-response","72","433894","0.0-47.0-1.0","""event"",""trial"",""time""
""fullscreenenter"",""0"",""4422""
","
","
","""event"",""trial"",""time""
""fullscreenenter"",""0"",""4422""
","
","6544.60000000149","<div class='center'><p><img src='run_exp/static/images/tutorial/prac_source.png'  height='500'></p></div>","50","","","","","","","","","","","","","","","","","","","","","","",""
"","html-keyboard-response","73","438921","0.0-48.0-0.0","""event"",""trial"",""time""
""fullscreenenter"",""0"",""4422""
","
","
","""event"",""trial"",""time""
""fullscreenenter"",""0"",""4422""
","
","5024.5","<div class='center'><p>That's correct! You saw this ship on the cavern island.</p><p><b>[Press the space bar to continue]</b></p></div>","32","","","","","","","","","","","","","","","","","","","","","","",""
"","quiz_beginning","74","450164","0.0-48.0-1.0","""event"",""trial"",""time""
""fullscreenenter"",""0"",""4422""
","
","
","""event"",""trial"",""time""
""fullscreenenter"",""0"",""4422""
","
","null","run_exp/static/audio/clip_16_quiz_intro.m4a","null","","","","","<div class='center'><p>Good job on the practice game! Now, you will be asked some true or false questions to make sure you really understand the rules of the game.</p><p> Press <b>'1'</b> on the keyboard for true and press <b>'2'</b> for false.</p></div>","","","","","","","","","","","","","","","","","",""
"","audio-keyboard-response","75","469696","0.0-48.0-2.0","""event"",""trial"",""time""
""fullscreenenter"",""0"",""4422""
","
","
","""event"",""trial"",""time""
""fullscreenenter"",""0"",""4422""
","
","19530.39999999851","run_exp/static/audio/clip_17_q1.m4a","49","","","","","","","","","","","","","","","","","","","","","","",""
"","correct","76","472126","0.0-49.0-0.0","""event"",""trial"",""time""
""fullscreenenter"",""0"",""4422""
","
","
","""event"",""trial"",""time""
""fullscreenenter"",""0"",""4422""
","
","null","run_exp/static/audio/clip_18_correct.m4a","null","","","","","<div class='center'><p>That's correct!</p></div>","","","","","","","","","","","","","","","","","",""
"","html-keyboard-response","77","474143","0.0-49.0-1.0","""event"",""trial"",""time""
""fullscreenenter"",""0"",""4422""
","
","
","""event"",""trial"",""time""
""fullscreenenter"",""0"",""4422""
","
","2015.7000000029802","<div class='center'><p>That's correct!</p><p><b>[Press the space bar to continue]</b></p></div>","32","","","","","","","","","","","","","","","","","","","","","","",""
"","audio-keyboard-response","78","483057","0.0-49.0-2.0","""event"",""trial"",""time""
""fullscreenenter"",""0"",""4422""
","
","
","""event"",""trial"",""time""
""fullscreenenter"",""0"",""4422""
","
","8912.89999999851","run_exp/static/audio/clip_20_q2.m4a","50","","","","","","","","","","","","","","","","","","","","","","",""
"","correct","79","485459","0.0-50.0-0.0","""event"",""trial"",""time""
""fullscreenenter"",""0"",""4422""
","
","
","""event"",""trial"",""time""
""fullscreenenter"",""0"",""4422""
","
","null","run_exp/static/audio/clip_18_correct.m4a","null","","","","","<div class='center'><p>That's correct!</p></div>","","","","","","","","","","","","","","","","","",""
"","html-keyboard-response","80","486464","0.0-50.0-1.0","""event"",""trial"",""time""
""fullscreenenter"",""0"",""4422""
","
","
","""event"",""trial"",""time""
""fullscreenenter"",""0"",""4422""
","
","1003.1000000014901","<div class='center'><p>That's correct!</p><p><b>[Press the space bar to continue]</b></p></div>","32","","","","","","","","","","","","","","","","","","","","","","",""
"","audio-keyboard-response","81","493567","0.0-50.0-2.0","""event"",""trial"",""time""
""fullscreenenter"",""0"",""4422""
","
","
","""event"",""trial"",""time""
""fullscreenenter"",""0"",""4422""
","
","7102.5","run_exp/static/audio/clip_22_q3.m4a","50","","","","","","","","","","","","","","","","","","","","","","",""
"","correct","82","495977","0.0-51.0-0.0","""event"",""trial"",""time""
""fullscreenenter"",""0"",""4422""
","
","
","""event"",""trial"",""time""
""fullscreenenter"",""0"",""4422""
","
","null","run_exp/static/audio/clip_18_correct.m4a","null","","","","","<div class='center'><p>That's correct!</p></div>","","","","","","","","","","","","","","","","","",""
"","html-keyboard-response","83","496980","0.0-51.0-1.0","""event"",""trial"",""time""
""fullscreenenter"",""0"",""4422""
","
","
","""event"",""trial"",""time""
""fullscreenenter"",""0"",""4422""
","
","1002.6999999955297","<div class='center'><p>That's correct!</p><p><b>[Press the space bar to continue]</b></p></div>","32","","","","","","","","","","","","","","","","","","","","","","",""
"","audio-keyboard-response","84","501472","0.0-51.0-2.0","""event"",""trial"",""time""
""fullscreenenter"",""0"",""4422""
","
","
","""event"",""trial"",""time""
""fullscreenenter"",""0"",""4422""
","
","4490.29999999702","run_exp/static/audio/clip_24_q4.m4a","49","","","","","","","","","","","","","","","","","","","","","","",""
"","correct","85","503913","0.0-52.0-0.0","""event"",""trial"",""time""
""fullscreenenter"",""0"",""4422""
","
","
","""event"",""trial"",""time""
""fullscreenenter"",""0"",""4422""
","
","null","run_exp/static/audio/clip_18_correct.m4a","null","","","","","<div class='center'><p>That's correct!</p></div>","","","","","","","","","","","","","","","","","",""
"","html-keyboard-response","86","505112","0.0-52.0-1.0","""event"",""trial"",""time""
""fullscreenenter"",""0"",""4422""
","
","
","""event"",""trial"",""time""
""fullscreenenter"",""0"",""4422""
","
","1196.6000000014901","<div class='center'><p>That's correct!</p><p><b>[Press the space bar to continue]</b></p></div>","32","","","","","","","","","","","","","","","","","","","","","","",""
"","q_all_corr","87","513599","0.0-53.0-0.0","""event"",""trial"",""time""
""fullscreenenter"",""0"",""4422""
","
","
","""event"",""trial"",""time""
""fullscreenenter"",""0"",""4422""
","
","null","run_exp/static/audio/clip_27_quiz_all_correct.m4a","null","","","","","<div class='center'><p>Good job! You’re now ready to move on to the real game! Remember this game will be difficult but don't get discouraged and try your best!</p></div>","","","","","","","","","","","","","","","","","",""
"","html-keyboard-response","88","518208","0.0-53.0-1.0","""event"",""trial"",""time""
""fullscreenenter"",""0"",""4422""
","
","
","""event"",""trial"",""time""
""fullscreenenter"",""0"",""4422""
","
","4608","<div class='center'><p>Good job! You’re now ready to move on to the real game! Remember this game will be difficult but don't get discouraged and try your best!</p><p><b>[Press the space bar to continue]</b></p></div>","32","","","","","","","","","","","","","","","","","","","","","","",""
"","do_welcome","89","522220","0.0-54.0-0.0","""event"",""trial"",""time""
""fullscreenenter"",""0"",""4422""
","
","
","""event"",""trial"",""time""
""fullscreenenter"",""0"",""4422""
","
","null","","","","","","","","null","","","","","","","","","","","","","","","","",""
"","do_trial","90","528241","0.0-55.0-0.0","""event"",""trial"",""time""
""fullscreenenter"",""0"",""4422""
","
","
","""event"",""trial"",""time""
""fullscreenenter"",""0"",""4422""
","
","1465.8999999985099","","","","","","","","49","1,0,0","0","forest","0","probe-35","0.6","0.3","0.1","1","","","","","","","",""
"","html-keyboard-response","91","529249","0.0-55.0-1.0","""event"",""trial"",""time""
""fullscreenenter"",""0"",""4422""
","
","
","""event"",""trial"",""time""
""fullscreenenter"",""0"",""4422""
","
","null","<p></p>","null","","","","","","","","","","","","","","","","","","","","","","",""
"","do_trial","92","534412","0.0-56.0-0.0","""event"",""trial"",""time""
""fullscreenenter"",""0"",""4422""
","
","
","""event"",""trial"",""time""
""fullscreenenter"",""0"",""4422""
","
","608.6999999955297","","","","","","","","49","1,1,1","0","forest","1","probe-100","0.5662906091747685","0.17602737061741486","0.12613310062351288","1","","","","","","","",""
"","html-keyboard-response","93","535420","0.0-56.0-1.0","""event"",""trial"",""time""
""fullscreenenter"",""0"",""4422""
","
","
","""event"",""trial"",""time""
""fullscreenenter"",""0"",""4422""
","
","null","<p></p>","null","","","","","","","","","","","","","","","","","","","","","","",""
"","do_trial","94","540381","0.0-57.0-0.0","""event"",""trial"",""time""
""fullscreenenter"",""0"",""4422""
","
","
","""event"",""trial"",""time""
""fullscreenenter"",""0"",""4422""
","
","415.1000000014901","","","","","","","","50","0,1,1","0","forest","2","probe-127","0.5474087831850194","0.2631477285588837","0.07401491375594577","1","","","","","","","",""
"","html-keyboard-response","95","541388","0.0-57.0-1.0","""event"",""trial"",""time""
""fullscreenenter"",""0"",""4422""
","
","
","""event"",""trial"",""time""
""fullscreenenter"",""0"",""4422""
","
","null","<p></p>","null","","","","","","","","","","","","","","","","","","","","","","",""
"","do_trial","96","546384","0.0-58.0-0.0","""event"",""trial"",""time""
""fullscreenenter"",""0"",""4422""
","
","
","""event"",""trial"",""time""
""fullscreenenter"",""0"",""4422""
","
","442.1000000014901","","","","","","","","49","1,0,0","0","forest","3","probe-214","0.4284512970510592","0.3363130431928931","0.05883208176773793","1","","","","","","","",""
"","html-keyboard-response","97","547392","0.0-58.0-1.0","""event"",""trial"",""time""
""fullscreenenter"",""0"",""4422""
","
","
","""event"",""trial"",""time""
""fullscreenenter"",""0"",""4422""
","
","null","<p></p>","null","","","","","","","","","","","","","","","","","","","","","","",""
"","do_trial","98","553343","0.0-59.0-0.0","""event"",""trial"",""time""
""fullscreenenter"",""0"",""4422""
","
","
","""event"",""trial"",""time""
""fullscreenenter"",""0"",""4422""
","
","1394.1999999955297","","","","","","","","51","0,1,0","0","forest","4","probe-180","0.6135218035968637","0.40815623773456133","0.27827971497552056","0","","","","","","","",""
"","html-keyboard-response","99","554345","0.0-59.0-1.0","""event"",""trial"",""time""
""fullscreenenter"",""0"",""4422""
","
","
","""event"",""trial"",""time""
""fullscreenenter"",""0"",""4422""
","
","null","<p></p>","null","","","","","","","","","","","","","","","","","","","","","","",""
"","do_trial","100","559509","0.0-60.0-0.0","""event"",""trial"",""time""
""fullscreenenter"",""0"",""4422""
","
","
","""event"",""trial"",""time""
""fullscreenenter"",""0"",""4422""
","
","609.2999999970198","","","","","","","","49","0,0,0","0","forest","5","probe-32","0.33607394284997805","0.23804792725215054","0.14175571961365793","0","","","","","","","",""
"","html-keyboard-response","101","560513","0.0-60.0-1.0","""event"",""trial"",""time""
""fullscreenenter"",""0"",""4422""
","
","
","""event"",""trial"",""time""
""fullscreenenter"",""0"",""4422""
","
","null","<p></p>","null","","","","","","","","","","","","","","","","","","","","","","",""
"","do_trial","102","565500","0.0-61.0-0.0","""event"",""trial"",""time""
""fullscreenenter"",""0"",""4422""
","
","
","""event"",""trial"",""time""
""fullscreenenter"",""0"",""4422""
","
","435","","","","","","","","50","0,0,1","0","forest","6","probe-218","0.4437034502383211","0.3223016272517169","0.07303064011356847","0","","","","","","","",""
"","html-keyboard-response","103","566504","0.0-61.0-1.0","""event"",""trial"",""time""
""fullscreenenter"",""0"",""4422""
","
","
","""event"",""trial"",""time""
""fullscreenenter"",""0"",""4422""
","
","null","<p></p>","null","","","","","","","","","","","","","","","","","","","","","","",""
"","do_trial","104","572069","0.0-62.0-0.0","""event"",""trial"",""time""
""fullscreenenter"",""0"",""4422""
","
","
","""event"",""trial"",""time""
""fullscreenenter"",""0"",""4422""
","
","1012","","","","","","","","49","1,0,0","0","forest","7","probe-125","0.5210114411265468","0.2912106593686793","0.12764107961488375","1","","","","","","","",""
"","html-keyboard-response","105","573074","0.0-62.0-1.0","""event"",""trial"",""time""
""fullscreenenter"",""0"",""4422""
","
","
","""event"",""trial"",""time""
""fullscreenenter"",""0"",""4422""
","
","null","<p></p>","null","","","","","","","","","","","","","","","","","","","","","","",""
"","do_trial","106","578095","0.0-63.0-0.0","""event"",""trial"",""time""
""fullscreenenter"",""0"",""4422""
","
","
","""event"",""trial"",""time""
""fullscreenenter"",""0"",""4422""
","
","465.6000000014901","","","","","","","","49","0,1,0","0","forest","8","probe-229","0.5258967941300694","0.2718748136790073","0.12371638667791228","0","","","","","","","",""
"","html-keyboard-response","107","579101","0.0-63.0-1.0","""event"",""trial"",""time""
""fullscreenenter"",""0"",""4422""
","
","
","""event"",""trial"",""time""
""fullscreenenter"",""0"",""4422""
","
","null","<p></p>","null","","","","","","","","","","","","","","","","","","","","","","",""
"","do_trial","108","584213","0.0-64.0-0.0","""event"",""trial"",""time""
""fullscreenenter"",""0"",""4422""
","
","
","""event"",""trial"",""time""
""fullscreenenter"",""0"",""4422""
","
","553.6000000014901","","","","","","","","51","1,0,0","0","forest","9","probe-81","0.680643735611302","0.36386446322757066","0.08409395273878659","0","","","","","","","",""
"","html-keyboard-response","109","585218","0.0-64.0-1.0","""event"",""trial"",""time""
""fullscreenenter"",""0"",""4422""
","
","
","""event"",""trial"",""time""
""fullscreenenter"",""0"",""4422""
","
","null","<p></p>","null","","","","","","","","","","","","","","","","","","","","","","",""
"","do_trial","110","590401","0.0-65.0-0.0","""event"",""trial"",""time""
""fullscreenenter"",""0"",""4422""
","
","
","""event"",""trial"",""time""
""fullscreenenter"",""0"",""4422""
","
","629.8999999985099","","","","","","","","50","0,0,0","0","forest","10","probe-199","0.6024293684052403","0.2955653324437943","0.18495190347232723","0","","","","","","","",""
"","html-keyboard-response","111","591404","0.0-65.0-1.0","""event"",""trial"",""time""
""fullscreenenter"",""0"",""4422""
","
","
","""event"",""trial"",""time""
""fullscreenenter"",""0"",""4422""
","
","null","<p></p>","null","","","","","","","","","","","","","","","","","","","","","","",""
"","do_trial","112","596812","0.0-66.0-0.0","""event"",""trial"",""time""
""fullscreenenter"",""0"",""4422""
","
","
","""event"",""trial"",""time""
""fullscreenenter"",""0"",""4422""
","
","854.2999999970198","","","","","","","","50","1,1,0","0","forest","11","probe-25","0.6177217464494367","0.39254029771908494","0.16890592730551368","1","","","","","","","",""
"","html-keyboard-response","113","597820","0.0-66.0-1.0","""event"",""trial"",""time""
""fullscreenenter"",""0"",""4422""
","
","
","""event"",""trial"",""time""
""fullscreenenter"",""0"",""4422""
","
","null","<p></p>","null","","","","","","","","","","","","","","","","","","","","","","",""
"","do_trial","114","603019","0.0-67.0-0.0","""event"",""trial"",""time""
""fullscreenenter"",""0"",""4422""
","
","
","""event"",""trial"",""time""
""fullscreenenter"",""0"",""4422""
","
","639.7000000029802","","","","","","","","49","0,1,0","0","forest","12","probe-117","0.576838650137876","0.3632570340554703","0.1620243732806277","0","","","","","","","",""
"","html-keyboard-response","115","604024","0.0-67.0-1.0","""event"",""trial"",""time""
""fullscreenenter"",""0"",""4422""
","
","
","""event"",""trial"",""time""
""fullscreenenter"",""0"",""4422""
","
","null","<p></p>","null","","","","","","","","","","","","","","","","","","","","","","",""
"","do_trial","116","609052","0.0-68.0-0.0","""event"",""trial"",""time""
""fullscreenenter"",""0"",""4422""
","
","
","""event"",""trial"",""time""
""fullscreenenter"",""0"",""4422""
","
","472.5","","","","","","","","50","0,0,0","0","forest","13","probe-27","0.6038085125918652","0.4246805264587822","0.24349833245561833","0","","","","","","","",""
"","html-keyboard-response","117","610056","0.0-68.0-1.0","""event"",""trial"",""time""
""fullscreenenter"",""0"",""4422""
","
","
","""event"",""trial"",""time""
""fullscreenenter"",""0"",""4422""
","
","null","<p></p>","null","","","","","","","","","","","","","","","","","","","","","","",""
"","do_trial","118","615343","0.0-69.0-0.0","""event"",""trial"",""time""
""fullscreenenter"",""0"",""4422""
","
","
","""event"",""trial"",""time""
""fullscreenenter"",""0"",""4422""
","
","734.4000000059605","","","","","","","","51","1,0,1","0","forest","14","probe-29","0.5948133547444197","0.4003133790935376","0.21415365752499635","1","","","","","","","",""
"","html-keyboard-response","119","616346","0.0-69.0-1.0","""event"",""trial"",""time""
""fullscreenenter"",""0"",""4422""
","
","
","""event"",""trial"",""time""
""fullscreenenter"",""0"",""4422""
","
","null","<p></p>","null","","","","","","","","","","","","","","","","","","","","","","",""
"","do_trial","120","621587","0.0-70.0-0.0","""event"",""trial"",""time""
""fullscreenenter"",""0"",""4422""
","
","
","""event"",""trial"",""time""
""fullscreenenter"",""0"",""4422""
","
","689.2000000029802","","","","","","","","51","1,0,0","0","forest","15","probe-82","0.6108463153899969","0.29592775839432894","0.1756369085573213","0","","","","","","","",""
"","html-keyboard-response","121","622595","0.0-70.0-1.0","""event"",""trial"",""time""
""fullscreenenter"",""0"",""4422""
","
","
","""event"",""trial"",""time""
""fullscreenenter"",""0"",""4422""
","
","null","<p></p>","null","","","","","","","","","","","","","","","","","","","","","","",""
"","do_trial","122","627621","0.0-71.0-0.0","""event"",""trial"",""time""
""fullscreenenter"",""0"",""4422""
","
","
","""event"",""trial"",""time""
""fullscreenenter"",""0"",""4422""
","
","474.8999999985099","","","","","","","","49","0,0,0","0","forest","16","probe-12","0.609654608360036","0.2633422053836983","0.1474357562138011","0","","","","","","","",""
"","html-keyboard-response","123","628624","0.0-71.0-1.0","""event"",""trial"",""time""
""fullscreenenter"",""0"",""4422""
","
","
","""event"",""trial"",""time""
""fullscreenenter"",""0"",""4422""
","
","null","<p></p>","null","","","","","","","","","","","","","","","","","","","","","","",""
"","do_trial","124","634012","0.0-72.0-0.0","""event"",""trial"",""time""
""fullscreenenter"",""0"",""4422""
","
","
","""event"",""trial"",""time""
""fullscreenenter"",""0"",""4422""
","
","835.2000000029802","","","","","","","","50","1,0,0","0","forest","17","probe-97","0.5898429945744463","0.2713897710917274","0.08916161082530578","0","","","","","","","",""
"","html-keyboard-response","125","635019","0.0-72.0-1.0","""event"",""trial"",""time""
""fullscreenenter"",""0"",""4422""
","
","
","""event"",""trial"",""time""
""fullscreenenter"",""0"",""4422""
","
","null","<p></p>","null","","","","","","","","","","","","","","","","","","","","","","",""
"","do_trial","126","640073","0.0-73.0-0.0","""event"",""trial"",""time""
""fullscreenenter"",""0"",""4422""
","
","
","""event"",""trial"",""time""
""fullscreenenter"",""0"",""4422""
","
","496.1000000014901","","","","","","","","49","1,0,0","0","forest","18","probe-96","0.6247919165036726","0.28550217606786765","0.13351657427440333","1","","","","","","","",""
"","html-keyboard-response","127","641076","0.0-73.0-1.0","""event"",""trial"",""time""
""fullscreenenter"",""0"",""4422""
","
","
","""event"",""trial"",""time""
""fullscreenenter"",""0"",""4422""
","
","null","<p></p>","null","","","","","","","","","","","","","","","","","","","","","","",""
"","do_trial","128","646220","0.0-74.0-0.0","""event"",""trial"",""time""
""fullscreenenter"",""0"",""4422""
","
","
","""event"",""trial"",""time""
""fullscreenenter"",""0"",""4422""
","
","588","","","","","","","","49","1,0,0","0","forest","19","probe-57","0.4898789646111565","0.28227178375775","0.18781210979707358","1","","","","","","","",""
"","html-keyboard-response","129","647225","0.0-74.0-1.0","""event"",""trial"",""time""
""fullscreenenter"",""0"",""4422""
","
","
","""event"",""trial"",""time""
""fullscreenenter"",""0"",""4422""
","
","null","<p></p>","null","","","","","","","","","","","","","","","","","","","","","","",""
"","do_trial","130","652307","0.0-75.0-0.0","""event"",""trial"",""time""
""fullscreenenter"",""0"",""4422""
","
","
","""event"",""trial"",""time""
""fullscreenenter"",""0"",""4422""
","
","525.1000000014901","","","","","","","","51","0,1,0","0","forest","20","probe-164","0.44379037873055466","0.20784627034339365","0.1586927687645688","0","","","","","","","",""
"","html-keyboard-response","131","653315","0.0-75.0-1.0","""event"",""trial"",""time""
""fullscreenenter"",""0"",""4422""
","
","
","""event"",""trial"",""time""
""fullscreenenter"",""0"",""4422""
","
","null","<p></p>","null","","","","","","","","","","","","","","","","","","","","","","",""
"","do_trial","132","660063","0.0-76.0-0.0","""event"",""trial"",""time""
""fullscreenenter"",""0"",""4422""
","
","
","""event"",""trial"",""time""
""fullscreenenter"",""0"",""4422""
","
","2190.2000000029802","","","","","","","","49","0,0,0","0","forest","21","probe-134","0.43764754249707566","0.1754256911489221","0.20616979561357698","0","","","","","","","",""
"","html-keyboard-response","133","661071","0.0-76.0-1.0","""event"",""trial"",""time""
""fullscreenenter"",""0"",""4422""
","
","
","""event"",""trial"",""time""
""fullscreenenter"",""0"",""4422""
","
","null","<p></p>","null","","","","","","","","","","","","","","","","","","","","","","",""
"","do_trial","134","666063","0.0-77.0-0.0","""event"",""trial"",""time""
""fullscreenenter"",""0"",""4422""
","
","
","""event"",""trial"",""time""
""fullscreenenter"",""0"",""4422""
","
","448.30000000447035","","","","","","","","50","0,0,1","0","forest","22","probe-69","0.49247860013340927","0.20150527859532802","0.27529578376999597","0","","","","","","","",""
"","html-keyboard-response","135","667071","0.0-77.0-1.0","""event"",""trial"",""time""
""fullscreenenter"",""0"",""4422""
","
","
","""event"",""trial"",""time""
""fullscreenenter"",""0"",""4422""
","
","null","<p></p>","null","","","","","","","","","","","","","","","","","","","","","","",""
"","do_trial","136","672221","0.0-78.0-0.0","""event"",""trial"",""time""
""fullscreenenter"",""0"",""4422""
","
","
","""event"",""trial"",""time""
""fullscreenenter"",""0"",""4422""
","
","593.5","","","","","","","","49","0,1,0","0","forest","23","probe-56","0.6429631229153167","0.123833585926687","0.09947313947772309","0","","","","","","","",""
"","html-keyboard-response","137","673226","0.0-78.0-1.0","""event"",""trial"",""time""
""fullscreenenter"",""0"",""4422""
","
","
","""event"",""trial"",""time""
""fullscreenenter"",""0"",""4422""
","
","null","<p></p>","null","","","","","","","","","","","","","","","","","","","","","","",""
"","do_trial","138","678194","0.0-79.0-0.0","""event"",""trial"",""time""
""fullscreenenter"",""0"",""4422""
","
","
","""event"",""trial"",""time""
""fullscreenenter"",""0"",""4422""
","
","413.79999999701977","","","","","","","","51","1,0,0","0","forest","24","probe-09","0.7143991361747335","0.229443755377047","0.0753247296664307","0","","","","","","","",""
"","html-keyboard-response","139","679202","0.0-79.0-1.0","""event"",""trial"",""time""
""fullscreenenter"",""0"",""4422""
","
","
","""event"",""trial"",""time""
""fullscreenenter"",""0"",""4422""
","
","null","<p></p>","null","","","","","","","","","","","","","","","","","","","","","","",""
"","do_trial","140","684070","0.0-80.0-0.0","""event"",""trial"",""time""
""fullscreenenter"",""0"",""4422""
","
","
","""event"",""trial"",""time""
""fullscreenenter"",""0"",""4422""
","
","308.29999999701977","","","","","","","","50","1,0,0","0","forest","25","probe-13","0.6911164693726001","0.1343440602561226","0.08673760016374853","0","","","","","","","",""
"","html-keyboard-response","141","685078","0.0-80.0-1.0","""event"",""trial"",""time""
""fullscreenenter"",""0"",""4422""
","
","
","""event"",""trial"",""time""
""fullscreenenter"",""0"",""4422""
","
","null","<p></p>","null","","","","","","","","","","","","","","","","","","","","","","",""
"","do_trial","142","690129","0.0-81.0-0.0","""event"",""trial"",""time""
""fullscreenenter"",""0"",""4422""
","
","
","""event"",""trial"",""time""
""fullscreenenter"",""0"",""4422""
","
","496.6000000014901","","","","","","","","49","0,0,1","0","forest","26","probe-107","0.6622472446217679","0.05643829361984341","0.05508343279085385","0","","","","","","","",""
"","html-keyboard-response","143","691134","0.0-81.0-1.0","""event"",""trial"",""time""
""fullscreenenter"",""0"",""4422""
","
","
","""event"",""trial"",""time""
""fullscreenenter"",""0"",""4422""
","
","null","<p></p>","null","","","","","","","","","","","","","","","","","","","","","","",""
"","do_trial","144","696202","0.0-82.0-0.0","""event"",""trial"",""time""
""fullscreenenter"",""0"",""4422""
","
","
","""event"",""trial"",""time""
""fullscreenenter"",""0"",""4422""
","
","511.79999999701977","","","","","","","","49","1,1,0","0","forest","27","probe-110","0.6442368497469757","0.15479536137220698","0.28848468458480336","1","","","","","","","",""
"","html-keyboard-response","145","697205","0.0-82.0-1.0","""event"",""trial"",""time""
""fullscreenenter"",""0"",""4422""
","
","
","""event"",""trial"",""time""
""fullscreenenter"",""0"",""4422""
","
","null","<p></p>","null","","","","","","","","","","","","","","","","","","","","","","",""
"","do_trial","146","702295","0.0-83.0-0.0","""event"",""trial"",""time""
""fullscreenenter"",""0"",""4422""
","
","
","""event"",""trial"",""time""
""fullscreenenter"",""0"",""4422""
","
","534.5","","","","","","","","50","0,0,0","0","forest","28","probe-80","0.7401579251462548","0.1213303677337445","0.16718408497542342","0","","","","","","","",""
"","html-keyboard-response","147","703302","0.0-83.0-1.0","""event"",""trial"",""time""
""fullscreenenter"",""0"",""4422""
","
","
","""event"",""trial"",""time""
""fullscreenenter"",""0"",""4422""
","
","null","<p></p>","null","","","","","","","","","","","","","","","","","","","","","","",""
"","do_trial","148","708558","0.0-84.0-0.0","""event"",""trial"",""time""
""fullscreenenter"",""0"",""4422""
","
","
","""event"",""trial"",""time""
""fullscreenenter"",""0"",""4422""
","
","703.4000000059605","","","","","","","","49","0,0,0","0","forest","29","probe-95","0.6288999935454553","0.28781950492671415","0.21040443548540316","0","","","","","","","",""
"","html-keyboard-response","149","709566","0.0-84.0-1.0","""event"",""trial"",""time""
""fullscreenenter"",""0"",""4422""
","
","
","""event"",""trial"",""time""
""fullscreenenter"",""0"",""4422""
","
","null","<p></p>","null","","","","","","","","","","","","","","","","","","","","","","",""
"","do_bye","150","711075","0.0-85.0-0.0","""event"",""trial"",""time""
""fullscreenenter"",""0"",""4422""
","
","
","""event"",""trial"",""time""
""fullscreenenter"",""0"",""4422""
","
","null","","","","","","","","null","","","","","","","","","","","","","","","","",""
"","break","151","720911","0.0-85.0-1.0","""event"",""trial"",""time""
""fullscreenenter"",""0"",""4422""
","
","
","""event"",""trial"",""time""
""fullscreenenter"",""0"",""4422""
","
","9832.29999999702","<div class='center'><p>Time to take a quick break! You have 2 minutes to rest, but you can move on sooner if you'd like.</p><p> Press the <b>space bar</b> to continue.</p></div>","32","","","","","","","","","","","","","","","","","","","","","","",""
"","do_travel","152","729918","0.0-86.0-0.0","""event"",""trial"",""time""
""fullscreenenter"",""0"",""4422""
","
","
","""event"",""trial"",""time""
""fullscreenenter"",""0"",""4422""
","
","null","","","","","","","","null","","","","","","","","","","","","","","","","",""
"","do_welcome","153","733931","0.0-86.0-1.0","""event"",""trial"",""time""
""fullscreenenter"",""0"",""4422""
","
","
","""event"",""trial"",""time""
""fullscreenenter"",""0"",""4422""
","
","null","","","","","","","","null","","","","","","","","","","","","","","","","",""
"","do_trial","154","739752","0.0-87.0-0.0","""event"",""trial"",""time""
""fullscreenenter"",""0"",""4422""
","
","
","""event"",""trial"",""time""
""fullscreenenter"",""0"",""4422""
","
","1269.8999999985099","","","","","","","","49","1,0,0","1","countryside","30","probe-85","1","0.2567068075933088","0.3072498098974999","1","","","","","","","",""
"","html-keyboard-response","155","740755","0.0-87.0-1.0","""event"",""trial"",""time""
""fullscreenenter"",""0"",""4422""
","
","
","""event"",""trial"",""time""
""fullscreenenter"",""0"",""4422""
","
","null","<p></p>","null","","","","","","","","","","","","","","","","","","","","","","",""
"","do_trial","156","745764","0.0-88.0-0.0","""event"",""trial"",""time""
""fullscreenenter"",""0"",""4422""
","
","
","""event"",""trial"",""time""
""fullscreenenter"",""0"",""4422""
","
","451.3999999985099","","","","","","","","49","1,1,0","1","countryside","31","probe-115","1","0.2670779540041351","0.21341102347040555","1","","","","","","","",""
"","html-keyboard-response","157","746767","0.0-88.0-1.0","""event"",""trial"",""time""
""fullscreenenter"",""0"",""4422""
","
","
","""event"",""trial"",""time""
""fullscreenenter"",""0"",""4422""
","
","null","<p></p>","null","","","","","","","","","","","","","","","","","","","","","","",""
"","do_trial","158","751762","0.0-89.0-0.0","""event"",""trial"",""time""
""fullscreenenter"",""0"",""4422""
","
","
","""event"",""trial"",""time""
""fullscreenenter"",""0"",""4422""
","
","443","","","","","","","","49","1,0,0","1","countryside","32","probe-102","1","0.3402658697001412","0.31937032638894","1","","","","","","","",""
"","html-keyboard-response","159","752768","0.0-89.0-1.0","""event"",""trial"",""time""
""fullscreenenter"",""0"",""4422""
","
","
","""event"",""trial"",""time""
""fullscreenenter"",""0"",""4422""
","
","null","<p></p>","null","","","","","","","","","","","","","","","","","","","","","","",""
"","do_trial","160","758155","0.0-90.0-0.0","""event"",""trial"",""time""
""fullscreenenter"",""0"",""4422""
","
","
","""event"",""trial"",""time""
""fullscreenenter"",""0"",""4422""
","
","828.3000000044703","","","","","","","","50","1,0,1","1","countryside","33","probe-22","0.8343535180356207","0.29850866859243275","0.20174508029658278","0","","","","","","","",""
"","html-keyboard-response","161","759160","0.0-90.0-1.0","""event"",""trial"",""time""
""fullscreenenter"",""0"",""4422""
","
","
","""event"",""trial"",""time""
""fullscreenenter"",""0"",""4422""
","
","null","<p></p>","null","","","","","","","","","","","","","","","","","","","","","","",""
"","do_trial","162","764283","0.0-91.0-0.0","""event"",""trial"",""time""
""fullscreenenter"",""0"",""4422""
","
","
","""event"",""trial"",""time""
""fullscreenenter"",""0"",""4422""
","
","568.6999999955297","","","","","","","","49","1,0,1","1","countryside","34","probe-78","0.7382728966942742","0.3689801387633841","0.1907996674399164","1","","","","","","","",""
"","html-keyboard-response","163","765289","0.0-91.0-1.0","""event"",""trial"",""time""
""fullscreenenter"",""0"",""4422""
","
","
","""event"",""trial"",""time""
""fullscreenenter"",""0"",""4422""
","
","null","<p></p>","null","","","","","","","","","","","","","","","","","","","","","","",""
"","do_trial","164","770422","0.0-92.0-0.0","""event"",""trial"",""time""
""fullscreenenter"",""0"",""4422""
","
","
","""event"",""trial"",""time""
""fullscreenenter"",""0"",""4422""
","
","582.6000000014901","","","","","","","","49","1,0,1","1","countryside","35","probe-198","0.5597960881966277","0.4077799183124142","0.16736938450399158","1","","","","","","","",""
"","html-keyboard-response","165","771430","0.0-92.0-1.0","""event"",""trial"",""time""
""fullscreenenter"",""0"",""4422""
","
","
","""event"",""trial"",""time""
""fullscreenenter"",""0"",""4422""
","
","null","<p></p>","null","","","","","","","","","","","","","","","","","","","","","","",""
"","do_trial","166","776495","0.0-93.0-0.0","""event"",""trial"",""time""
""fullscreenenter"",""0"",""4422""
","
","
","""event"",""trial"",""time""
""fullscreenenter"",""0"",""4422""
","
","509","","","","","","","","49","1,0,0","1","countryside","36","probe-92","0.5960697998373634","0.4342446474031635","0.17897278945623948","1","","","","","","","",""
"","html-keyboard-response","167","777498","0.0-93.0-1.0","""event"",""trial"",""time""
""fullscreenenter"",""0"",""4422""
","
","
","""event"",""trial"",""time""
""fullscreenenter"",""0"",""4422""
","
","null","<p></p>","null","","","","","","","","","","","","","","","","","","","","","","",""
"","do_trial","168","782544","0.0-94.0-0.0","""event"",""trial"",""time""
""fullscreenenter"",""0"",""4422""
","
","
","""event"",""trial"",""time""
""fullscreenenter"",""0"",""4422""
","
","485.19999999552965","","","","","","","","49","1,0,0","1","countryside","37","probe-156","0.6509807574411741","0.3090853190864057","0.06077058247528262","1","","","","","","","",""
"","html-keyboard-response","169","783547","0.0-94.0-1.0","""event"",""trial"",""time""
""fullscreenenter"",""0"",""4422""
","
","
","""event"",""trial"",""time""
""fullscreenenter"",""0"",""4422""
","
","null","<p></p>","null","","","","","","","","","","","","","","","","","","","","","","",""
"","do_trial","170","788772","0.0-95.0-0.0","""event"",""trial"",""time""
""fullscreenenter"",""0"",""4422""
","
","
","""event"",""trial"",""time""
""fullscreenenter"",""0"",""4422""
","
","672.1000000014901","","","","","","","","49","0,1,0","1","countryside","38","probe-58","0.5133677229215539","0.1673656287592635","0.09122705644547346","0","","","","","","","",""
"","html-keyboard-response","171","789775","0.0-95.0-1.0","""event"",""trial"",""time""
""fullscreenenter"",""0"",""4422""
","
","
","""event"",""trial"",""time""
""fullscreenenter"",""0"",""4422""
","
","null","<p></p>","null","","","","","","","","","","","","","","","","","","","","","","",""
"","do_trial","172","795147","0.0-96.0-0.0","""event"",""trial"",""time""
""fullscreenenter"",""0"",""4422""
","
","
","""event"",""trial"",""time""
""fullscreenenter"",""0"",""4422""
","
","812.8999999985099","","","","","","","","49","1,0,1","1","countryside","39","probe-163","0.5008544151511785","0.2599138888469437","0.10882668072080652","1","","","","","","","",""
"","html-keyboard-response","173","796151","0.0-96.0-1.0","""event"",""trial"",""time""
""fullscreenenter"",""0"",""4422""
","
","
","""event"",""trial"",""time""
""fullscreenenter"",""0"",""4422""
","
","null","<p></p>","null","","","","","","","","","","","","","","","","","","","","","","",""
"","do_trial","174","801097","0.0-97.0-0.0","""event"",""trial"",""time""
""fullscreenenter"",""0"",""4422""
","
","
","""event"",""trial"",""time""
""fullscreenenter"",""0"",""4422""
","
","392.09999999403954","","","","","","","","49","1,0,0","1","countryside","40","probe-161","0.3649610281327905","0.27351662139578314","0.0632841159260592","1","","","","","","","",""
"","html-keyboard-response","175","802101","0.0-97.0-1.0","""event"",""trial"",""time""
""fullscreenenter"",""0"",""4422""
","
","
","""event"",""trial"",""time""
""fullscreenenter"",""0"",""4422""
","
","null","<p></p>","null","","","","","","","","","","","","","","","","","","","","","","",""
"","do_trial","176","807297","0.0-98.0-0.0","""event"",""trial"",""time""
""fullscreenenter"",""0"",""4422""
","
","
","""event"",""trial"",""time""
""fullscreenenter"",""0"",""4422""
","
","639.1000000014901","","","","","","","","49","0,0,0","1","countryside","41","probe-68","0.28599306537572333","0.3885073569057223","0.0590707838032837","0","","","","","","","",""
"","html-keyboard-response","177","808305","0.0-98.0-1.0","""event"",""trial"",""time""
""fullscreenenter"",""0"",""4422""
","
","
","""event"",""trial"",""time""
""fullscreenenter"",""0"",""4422""
","
","null","<p></p>","null","","","","","","","","","","","","","","","","","","","","","","",""
"","do_trial","178","813427","0.0-99.0-0.0","""event"",""trial"",""time""
""fullscreenenter"",""0"",""4422""
","
","
","""event"",""trial"",""time""
""fullscreenenter"",""0"",""4422""
","
","568","","","","","","","","50","0,0,0","1","countryside","42","probe-171","0.14391822615415983","0.3409862667605361","0.2853563389600238","0","","","","","","","",""
"","html-keyboard-response","179","814435","0.0-99.0-1.0","""event"",""trial"",""time""
""fullscreenenter"",""0"",""4422""
","
","
","""event"",""trial"",""time""
""fullscreenenter"",""0"",""4422""
","
","null","<p></p>","null","","","","","","","","","","","","","","","","","","","","","","",""
"","do_trial","180","819883","0.0-100.0-0.0","""event"",""trial"",""time""
""fullscreenenter"",""0"",""4422""
","
","
","""event"",""trial"",""time""
""fullscreenenter"",""0"",""4422""
","
","897.3999999985099","","","","","","","","49","0,0,1","1","countryside","43","probe-152","0.21722098924980507","0.29113113169495103","0.5000547360541833","0","","","","","","","",""
"","html-keyboard-response","181","820889","0.0-100.0-1.0","""event"",""trial"",""time""
""fullscreenenter"",""0"",""4422""
","
","
","""event"",""trial"",""time""
""fullscreenenter"",""0"",""4422""
","
","null","<p></p>","null","","","","","","","","","","","","","","","","","","","","","","",""
"","do_trial","182","825908","0.0-101.0-0.0","""event"",""trial"",""time""
""fullscreenenter"",""0"",""4422""
","
","
","""event"",""trial"",""time""
""fullscreenenter"",""0"",""4422""
","
","466.5","","","","","","","","51","0,0,1","1","countryside","44","probe-79","0.24295862441938315","0.2975417500916372","0.49249692873299084","1","","","","","","","",""
"","html-keyboard-response","183","826912","0.0-101.0-1.0","""event"",""trial"",""time""
""fullscreenenter"",""0"",""4422""
","
","
","""event"",""trial"",""time""
""fullscreenenter"",""0"",""4422""
","
","null","<p></p>","null","","","","","","","","","","","","","","","","","","","","","","",""
"","do_trial","184","831691","0.0-102.0-0.0","""event"",""trial"",""time""
""fullscreenenter"",""0"",""4422""
","
","
","""event"",""trial"",""time""
""fullscreenenter"",""0"",""4422""
","
","228.20000000298023","","","","","","","","50","0,0,1","1","countryside","45","probe-187","0.1461851494712919","0.27063632376653224","0.5864925810256107","0","","","","","","","",""
"","html-keyboard-response","185","832695","0.0-102.0-1.0","""event"",""trial"",""time""
""fullscreenenter"",""0"",""4422""
","
","
","""event"",""trial"",""time""
""fullscreenenter"",""0"",""4422""
","
","null","<p></p>","null","","","","","","","","","","","","","","","","","","","","","","",""
"","do_trial","186","837922","0.0-103.0-0.0","""event"",""trial"",""time""
""fullscreenenter"",""0"",""4422""
","
","
","""event"",""trial"",""time""
""fullscreenenter"",""0"",""4422""
","
","671.3999999985099","","","","","","","","51","0,0,1","1","countryside","46","probe-67","0.12451877620201987","0.18581579509079105","0.6730060574303002","1","","","","","","","",""
"","html-keyboard-response","187","838930","0.0-103.0-1.0","""event"",""trial"",""time""
""fullscreenenter"",""0"",""4422""
","
","
","""event"",""trial"",""time""
""fullscreenenter"",""0"",""4422""
","
","null","<p></p>","null","","","","","","","","","","","","","","","","","","","","","","",""
"","do_trial","188","843864","0.0-104.0-0.0","""event"",""trial"",""time""
""fullscreenenter"",""0"",""4422""
","
","
","""event"",""trial"",""time""
""fullscreenenter"",""0"",""4422""
","
","378.29999999701977","","","","","","","","51","0,0,0","1","countryside","47","probe-40","0.11216002370668766","0.21557987997768355","0.5500304485088057","0","","","","","","","",""
"","html-keyboard-response","189","844872","0.0-104.0-1.0","""event"",""trial"",""time""
""fullscreenenter"",""0"",""4422""
","
","
","""event"",""trial"",""time""
""fullscreenenter"",""0"",""4422""
","
","null","<p></p>","null","","","","","","","","","","","","","","","","","","","","","","",""
"","do_trial","190","850391","0.0-105.0-0.0","""event"",""trial"",""time""
""fullscreenenter"",""0"",""4422""
","
","
","""event"",""trial"",""time""
""fullscreenenter"",""0"",""4422""
","
","970.2000000029802","","","","","","","","49","0,0,0","1","countryside","48","probe-106","0.07801847886623528","0.2853585935905116","0.6115334134076486","0","","","","","","","",""
"","html-keyboard-response","191","851398","0.0-105.0-1.0","""event"",""trial"",""time""
""fullscreenenter"",""0"",""4422""
","
","
","""event"",""trial"",""time""
""fullscreenenter"",""0"",""4422""
","
","null","<p></p>","null","","","","","","","","","","","","","","","","","","","","","","",""
"","do_trial","192","856429","0.0-106.0-0.0","""event"",""trial"",""time""
""fullscreenenter"",""0"",""4422""
","
","
","""event"",""trial"",""time""
""fullscreenenter"",""0"",""4422""
","
","477.70000000298023","","","","","","","","51","0,0,0","1","countryside","49","probe-147","0.07317198538224688","0.3418228640246736","0.5351483536495458","0","","","","","","","",""
"","html-keyboard-response","193","857433","0.0-106.0-1.0","""event"",""trial"",""time""
""fullscreenenter"",""0"",""4422""
","
","
","""event"",""trial"",""time""
""fullscreenenter"",""0"",""4422""
","
","null","<p></p>","null","","","","","","","","","","","","","","","","","","","","","","",""
"","do_trial","194","862434","0.0-107.0-0.0","""event"",""trial"",""time""
""fullscreenenter"",""0"",""4422""
","
","
","""event"",""trial"",""time""
""fullscreenenter"",""0"",""4422""
","
","451.40000000596046","","","","","","","","50","0,1,1","1","countryside","50","probe-223","0.09143326263591606","0.30971992667004783","0.48796112129247726","1","","","","","","","",""
"","html-keyboard-response","195","863440","0.0-107.0-1.0","""event"",""trial"",""time""
""fullscreenenter"",""0"",""4422""
","
","
","""event"",""trial"",""time""
""fullscreenenter"",""0"",""4422""
","
","null","<p></p>","null","","","","","","","","","","","","","","","","","","","","","","",""
"","do_trial","196","869163","0.0-108.0-0.0","""event"",""trial"",""time""
""fullscreenenter"",""0"",""4422""
","
","
","""event"",""trial"",""time""
""fullscreenenter"",""0"",""4422""
","
","1162.7000000029802","","","","","","","","49","0,0,1","1","countryside","51","probe-137","0.11100229085930151","0.3387717618788444","0.5505573878587826","0","","","","","","","",""
"","html-keyboard-response","197","870172","0.0-108.0-1.0","""event"",""trial"",""time""
""fullscreenenter"",""0"",""4422""
","
","
","""event"",""trial"",""time""
""fullscreenenter"",""0"",""4422""
","
","null","<p></p>","null","","","","","","","","","","","","","","","","","","","","","","",""
"","do_trial","198","875178","0.0-109.0-0.0","""event"",""trial"",""time""
""fullscreenenter"",""0"",""4422""
","
","
","""event"",""trial"",""time""
""fullscreenenter"",""0"",""4422""
","
","454.6000000014901","","","","","","","","50","0,0,1","1","countryside","52","probe-37","0.12500177099400137","0.16814354730707273","0.5950027938672563","0","","","","","","","",""
"","html-keyboard-response","199","876187","0.0-109.0-1.0","""event"",""trial"",""time""
""fullscreenenter"",""0"",""4422""
","
","
","""event"",""trial"",""time""
""fullscreenenter"",""0"",""4422""
","
","null","<p></p>","null","","","","","","","","","","","","","","","","","","","","","","",""
"","do_trial","200","881246","0.0-110.0-0.0","""event"",""trial"",""time""
""fullscreenenter"",""0"",""4422""
","
","
","""event"",""trial"",""time""
""fullscreenenter"",""0"",""4422""
","
","500.8999999985099","","","","","","","","51","0,0,0","1","countryside","53","probe-146","0.07926571283801163","0.2343039103536451","0.5924080622554408","0","","","","","","","",""
"","html-keyboard-response","201","882255","0.0-110.0-1.0","""event"",""trial"",""time""
""fullscreenenter"",""0"",""4422""
","
","
","""event"",""trial"",""time""
""fullscreenenter"",""0"",""4422""
","
","null","<p></p>","null","","","","","","","","","","","","","","","","","","","","","","",""
"","do_trial","202","887297","0.0-111.0-0.0","""event"",""trial"",""time""
""fullscreenenter"",""0"",""4422""
","
","
","""event"",""trial"",""time""
""fullscreenenter"",""0"",""4422""
","
","491.29999999701977","","","","","","","","50","0,0,0","1","countryside","54","probe-104","0.08749194941732437","0.1822315332104779","0.40346873496593405","0","","","","","","","",""
"","html-keyboard-response","203","888305","0.0-111.0-1.0","""event"",""trial"",""time""
""fullscreenenter"",""0"",""4422""
","
","
","""event"",""trial"",""time""
""fullscreenenter"",""0"",""4422""
","
","null","<p></p>","null","","","","","","","","","","","","","","","","","","","","","","",""
"","do_trial","204","893737","0.0-112.0-0.0","""event"",""trial"",""time""
""fullscreenenter"",""0"",""4422""
","
","
","""event"",""trial"",""time""
""fullscreenenter"",""0"",""4422""
","
","885.2999999970198","","","","","","","","49","0,0,1","1","countryside","55","probe-94","0.06978795970604122","0.15136285320404305","0.66064915613786","0","","","","","","","",""
"","html-keyboard-response","205","894745","0.0-112.0-1.0","""event"",""trial"",""time""
""fullscreenenter"",""0"",""4422""
","
","
","""event"",""trial"",""time""
""fullscreenenter"",""0"",""4422""
","
","null","<p></p>","null","","","","","","","","","","","","","","","","","","","","","","",""
"","do_trial","206","899931","0.0-113.0-0.0","""event"",""trial"",""time""
""fullscreenenter"",""0"",""4422""
","
","
","""event"",""trial"",""time""
""fullscreenenter"",""0"",""4422""
","
","629.5","","","","","","","","49","0,0,1","1","countryside","56","probe-01","0.10323081581449012","0.2145049970919357","0.582668488292291","0","","","","","","","",""
"","html-keyboard-response","207","900939","0.0-113.0-1.0","""event"",""trial"",""time""
""fullscreenenter"",""0"",""4422""
","
","
","""event"",""trial"",""time""
""fullscreenenter"",""0"",""4422""
","
","null","<p></p>","null","","","","","","","","","","","","","","","","","","","","","","",""
"","do_trial","208","906083","0.0-114.0-0.0","""event"",""trial"",""time""
""fullscreenenter"",""0"",""4422""
","
","
","""event"",""trial"",""time""
""fullscreenenter"",""0"",""4422""
","
","599.6000000014901","","","","","","","","49","0,0,1","1","countryside","57","probe-181","0.06868393394574898","0.24683649792434104","0.5525541653619659","0","","","","","","","",""
"","html-keyboard-response","209","907090","0.0-114.0-1.0","""event"",""trial"",""time""
""fullscreenenter"",""0"",""4422""
","
","
","""event"",""trial"",""time""
""fullscreenenter"",""0"",""4422""
","
","null","<p></p>","null","","","","","","","","","","","","","","","","","","","","","","",""
"","do_trial","210","912178","0.0-115.0-0.0","""event"",""trial"",""time""
""fullscreenenter"",""0"",""4422""
","
","
","""event"",""trial"",""time""
""fullscreenenter"",""0"",""4422""
","
","531.2999999970198","","","","","","","","51","0,0,1","1","countryside","58","probe-204","0.1491539923519021","0.26440319950365676","0.5079461611443417","1","","","","","","","",""
"","html-keyboard-response","211","913185","0.0-115.0-1.0","""event"",""trial"",""time""
""fullscreenenter"",""0"",""4422""
","
","
","""event"",""trial"",""time""
""fullscreenenter"",""0"",""4422""
","
","null","<p></p>","null","","","","","","","","","","","","","","","","","","","","","","",""
"","do_trial","212","919314","0.0-116.0-0.0","""event"",""trial"",""time""
""fullscreenenter"",""0"",""4422""
","
","
","""event"",""trial"",""time""
""fullscreenenter"",""0"",""4422""
","
","1580.6999999955297","","","","","","","","50","0,0,0","1","countryside","59","probe-89","0.23117085986152686","0.27585758963246526","0.6507180879379969","0","","","","","","","",""
"","html-keyboard-response","213","920321","0.0-116.0-1.0","""event"",""trial"",""time""
""fullscreenenter"",""0"",""4422""
","
","
","""event"",""trial"",""time""
""fullscreenenter"",""0"",""4422""
","
","null","<p></p>","null","","","","","","","","","","","","","","","","","","","","","","",""
"","do_trial","214","925716","0.0-117.0-0.0","""event"",""trial"",""time""
""fullscreenenter"",""0"",""4422""
","
","
","""event"",""trial"",""time""
""fullscreenenter"",""0"",""4422""
","
","843.6999999955297","","","","","","","","51","1,1,0","1","countryside","60","probe-209","0.23887250832953236","0.4374952756869325","0.47537333408086624","0","","","","","","","",""
"","html-keyboard-response","215","926724","0.0-117.0-1.0","""event"",""trial"",""time""
""fullscreenenter"",""0"",""4422""
","
","
","""event"",""trial"",""time""
""fullscreenenter"",""0"",""4422""
","
","null","<p></p>","null","","","","","","","","","","","","","","","","","","","","","","",""
"","do_trial","216","931690","0.0-118.0-0.0","""event"",""trial"",""time""
""fullscreenenter"",""0"",""4422""
","
","
","""event"",""trial"",""time""
""fullscreenenter"",""0"",""4422""
","
","401.8999999985099","","","","","","","","49","0,0,0","1","countryside","61","probe-145","0.14412360782096728","0.49060923339921764","0.5222209178256061","0","","","","","","","",""
"","html-keyboard-response","217","932697","0.0-118.0-1.0","""event"",""trial"",""time""
""fullscreenenter"",""0"",""4422""
","
","
","""event"",""trial"",""time""
""fullscreenenter"",""0"",""4422""
","
","null","<p></p>","null","","","","","","","","","","","","","","","","","","","","","","",""
"","do_trial","218","939379","0.0-119.0-0.0","""event"",""trial"",""time""
""fullscreenenter"",""0"",""4422""
","
","
","""event"",""trial"",""time""
""fullscreenenter"",""0"",""4422""
","
","2124.2999999970198","","","","","","","","51","0,0,0","1","countryside","62","probe-194","0.09143702742267473","0.4264274752616447","0.5429164763670651","0","","","","","","","",""
"","html-keyboard-response","219","940383","0.0-119.0-1.0","""event"",""trial"",""time""
""fullscreenenter"",""0"",""4422""
","
","
","""event"",""trial"",""time""
""fullscreenenter"",""0"",""4422""
","
","null","<p></p>","null","","","","","","","","","","","","","","","","","","","","","","",""
"","do_trial","220","945472","0.0-120.0-0.0","""event"",""trial"",""time""
""fullscreenenter"",""0"",""4422""
","
","
","""event"",""trial"",""time""
""fullscreenenter"",""0"",""4422""
","
","541.2000000029802","","","","","","","","50","0,0,0","1","countryside","63","probe-28","0.08332214811874013","0.26257863633767053","0.5350086231302842","0","","","","","","","",""
"","html-keyboard-response","221","946476","0.0-120.0-1.0","""event"",""trial"",""time""
""fullscreenenter"",""0"",""4422""
","
","
","""event"",""trial"",""time""
""fullscreenenter"",""0"",""4422""
","
","null","<p></p>","null","","","","","","","","","","","","","","","","","","","","","","",""
"","do_trial","222","951578","0.0-121.0-0.0","""event"",""trial"",""time""
""fullscreenenter"",""0"",""4422""
","
","
","""event"",""trial"",""time""
""fullscreenenter"",""0"",""4422""
","
","546.5","","","","","","","","49","0,1,1","1","countryside","64","probe-227","0.06493238339435077","0.21130663022352594","0.46233592784087857","0","","","","","","","",""
"","html-keyboard-response","223","952585","0.0-121.0-1.0","""event"",""trial"",""time""
""fullscreenenter"",""0"",""4422""
","
","
","""event"",""trial"",""time""
""fullscreenenter"",""0"",""4422""
","
","null","<p></p>","null","","","","","","","","","","","","","","","","","","","","","","",""
"","do_trial","224","957605","0.0-122.0-0.0","""event"",""trial"",""time""
""fullscreenenter"",""0"",""4422""
","
","
","""event"",""trial"",""time""
""fullscreenenter"",""0"",""4422""
","
","464.29999999701977","","","","","","","","49","0,0,1","1","countryside","65","probe-93","0.1581807246697631","0.3823615665230936","0.5337663535526014","0","","","","","","","",""
"","html-keyboard-response","225","958613","0.0-122.0-1.0","""event"",""trial"",""time""
""fullscreenenter"",""0"",""4422""
","
","
","""event"",""trial"",""time""
""fullscreenenter"",""0"",""4422""
","
","null","<p></p>","null","","","","","","","","","","","","","","","","","","","","","","",""
"","do_trial","226","963565","0.0-123.0-0.0","""event"",""trial"",""time""
""fullscreenenter"",""0"",""4422""
","
","
","""event"",""trial"",""time""
""fullscreenenter"",""0"",""4422""
","
","396.29999999701977","","","","","","","","51","0,1,1","1","countryside","66","probe-172","0.08975979356869206","0.28045116744670684","0.5637898747137718","1","","","","","","","",""
"","html-keyboard-response","227","964571","0.0-123.0-1.0","""event"",""trial"",""time""
""fullscreenenter"",""0"",""4422""
","
","
","""event"",""trial"",""time""
""fullscreenenter"",""0"",""4422""
","
","null","<p></p>","null","","","","","","","","","","","","","","","","","","","","","","",""
"","do_trial","228","969724","0.0-124.0-0.0","""event"",""trial"",""time""
""fullscreenenter"",""0"",""4422""
","
","
","""event"",""trial"",""time""
""fullscreenenter"",""0"",""4422""
","
","606.1000000014901","","","","","","","","51","0,0,1","1","countryside","67","probe-46","0.1742222369140685","0.21938394264701003","0.600474878706164","1","","","","","","","",""
"","html-keyboard-response","229","970731","0.0-124.0-1.0","""event"",""trial"",""time""
""fullscreenenter"",""0"",""4422""
","
","
","""event"",""trial"",""time""
""fullscreenenter"",""0"",""4422""
","
","null","<p></p>","null","","","","","","","","","","","","","","","","","","","","","","",""
"","do_trial","230","975815","0.0-125.0-0.0","""event"",""trial"",""time""
""fullscreenenter"",""0"",""4422""
","
","
","""event"",""trial"",""time""
""fullscreenenter"",""0"",""4422""
","
","528.7000000029802","","","","","","","","51","1,1,1","1","countryside","68","probe-88","0.33003249871434576","0.23528001796085352","0.6473300031821461","1","","","","","","","",""
"","html-keyboard-response","231","976823","0.0-125.0-1.0","""event"",""trial"",""time""
""fullscreenenter"",""0"",""4422""
","
","
","""event"",""trial"",""time""
""fullscreenenter"",""0"",""4422""
","
","null","<p></p>","null","","","","","","","","","","","","","","","","","","","","","","",""
"","do_trial","232","981899","0.0-126.0-0.0","""event"",""trial"",""time""
""fullscreenenter"",""0"",""4422""
","
","
","""event"",""trial"",""time""
""fullscreenenter"",""0"",""4422""
","
","524.2000000029802","","","","","","","","51","0,0,1","1","countryside","69","probe-165","0.2459646497421191","0.3373853910930177","0.5063377657593534","1","","","","","","","",""
"","html-keyboard-response","233","982902","0.0-126.0-1.0","""event"",""trial"",""time""
""fullscreenenter"",""0"",""4422""
","
","
","""event"",""trial"",""time""
""fullscreenenter"",""0"",""4422""
","
","null","<p></p>","null","","","","","","","","","","","","","","","","","","","","","","",""
"","do_bye","234","984412","0.0-127.0-0.0","""event"",""trial"",""time""
""fullscreenenter"",""0"",""4422""
","
","
","""event"",""trial"",""time""
""fullscreenenter"",""0"",""4422""
","
","null","","","","","","","","null","","","","","","","","","","","","","","","","",""
"","break","235","987025","0.0-127.0-1.0","""event"",""trial"",""time""
""fullscreenenter"",""0"",""4422""
","
","
","""event"",""trial"",""time""
""fullscreenenter"",""0"",""4422""
","
","2610.10000000149","<div class='center'><p>Time to take a quick break! You have 2 minutes to rest, but you can move on sooner if you'd like.</p><p> Press the <b>space bar</b> to continue.</p></div>","32","","","","","","","","","","","","","","","","","","","","","","",""
"","do_travel","236","996036","0.0-128.0-0.0","""event"",""trial"",""time""
""fullscreenenter"",""0"",""4422""
","
","
","""event"",""trial"",""time""
""fullscreenenter"",""0"",""4422""
","
","null","","","","","","","","null","","","","","","","","","","","","","","","","",""
"","do_welcome","237","1000054","0.0-128.0-1.0","""event"",""trial"",""time""
""fullscreenenter"",""0"",""4422""
","
","
","""event"",""trial"",""time""
""fullscreenenter"",""0"",""4422""
","
","null","","","","","","","","null","","","","","","","","","","","","","","","","",""
"","do_trial","238","1006330","0.0-129.0-0.0","""event"",""trial"",""time""
""fullscreenenter"",""0"",""4422""
","
","
","""event"",""trial"",""time""
""fullscreenenter"",""0"",""4422""
","
","1728.7999999970198","","","","","","","","49","0,0,1","2","coast","70","probe-51","0.2990455569163783","0.31913738632435523","1","0","","","","","","","",""
"","html-keyboard-response","239","1007338","0.0-129.0-1.0","""event"",""trial"",""time""
""fullscreenenter"",""0"",""4422""
","
","
","""event"",""trial"",""time""
""fullscreenenter"",""0"",""4422""
","
","null","<p></p>","null","","","","","","","","","","","","","","","","","","","","","","",""
"","do_trial","240","1012438","0.0-130.0-0.0","""event"",""trial"",""time""
""fullscreenenter"",""0"",""4422""
","
","
","""event"",""trial"",""time""
""fullscreenenter"",""0"",""4422""
","
","544.7000000029802","","","","","","","","51","1,0,1","2","coast","71","probe-64","0.19391210230599082","0.45361166673430886","1","1","","","","","","","",""
"","html-keyboard-response","241","1013446","0.0-130.0-1.0","""event"",""trial"",""time""
""fullscreenenter"",""0"",""4422""
","
","
","""event"",""trial"",""time""
""fullscreenenter"",""0"",""4422""
","
","null","<p></p>","null","","","","","","","","","","","","","","","","","","","","","","",""
"","do_trial","242","1018505","0.0-131.0-0.0","""event"",""trial"",""time""
""fullscreenenter"",""0"",""4422""
","
","
","""event"",""trial"",""time""
""fullscreenenter"",""0"",""4422""
","
","507.79999999701977","","","","","","","","51","1,0,1","2","coast","72","probe-36","0.17729001480277032","0.6207765479096464","0.7876335667415973","1","","","","","","","",""
"","html-keyboard-response","243","1019513","0.0-131.0-1.0","""event"",""trial"",""time""
""fullscreenenter"",""0"",""4422""
","
","
","""event"",""trial"",""time""
""fullscreenenter"",""0"",""4422""
","
","null","<p></p>","null","","","","","","","","","","","","","","","","","","","","","","",""
"","do_trial","244","1024930","0.0-132.0-0.0","""event"",""trial"",""time""
""fullscreenenter"",""0"",""4422""
","
","
","""event"",""trial"",""time""
""fullscreenenter"",""0"",""4422""
","
","863.6999999955297","","","","","","","","51","0,1,1","2","coast","73","probe-135","0.11444185631583269","0.4335790569063289","0.7355240504887912","1","","","","","","","",""
"","html-keyboard-response","245","1025938","0.0-132.0-1.0","""event"",""trial"",""time""
""fullscreenenter"",""0"",""4422""
","
","
","""event"",""trial"",""time""
""fullscreenenter"",""0"",""4422""
","
","null","<p></p>","null","","","","","","","","","","","","","","","","","","","","","","",""
"","do_trial","246","1031580","0.0-133.0-0.0","""event"",""trial"",""time""
""fullscreenenter"",""0"",""4422""
","
","
","""event"",""trial"",""time""
""fullscreenenter"",""0"",""4422""
","
","1084.8999999985099","","","","","","","","51","1,0,1","2","coast","74","probe-222","0.16734921407802417","0.32408663483201117","0.7086086142279825","1","","","","","","","",""
"","html-keyboard-response","247","1032586","0.0-133.0-1.0","""event"",""trial"",""time""
""fullscreenenter"",""0"",""4422""
","
","
","""event"",""trial"",""time""
""fullscreenenter"",""0"",""4422""
","
","null","<p></p>","null","","","","","","","","","","","","","","","","","","","","","","",""
"","do_trial","248","1037936","0.0-134.0-0.0","""event"",""trial"",""time""
""fullscreenenter"",""0"",""4422""
","
","
","""event"",""trial"",""time""
""fullscreenenter"",""0"",""4422""
","
","794.8000000044703","","","","","","","","51","0,0,0","2","coast","75","probe-21","0.08094180893803561","0.43550685580541254","0.6679630015133003","0","","","","","","","",""
"","html-keyboard-response","249","1038944","0.0-134.0-1.0","""event"",""trial"",""time""
""fullscreenenter"",""0"",""4422""
","
","
","""event"",""trial"",""time""
""fullscreenenter"",""0"",""4422""
","
","null","<p></p>","null","","","","","","","","","","","","","","","","","","","","","","",""
"","do_trial","250","1044946","0.0-135.0-0.0","""event"",""trial"",""time""
""fullscreenenter"",""0"",""4422""
","
","
","""event"",""trial"",""time""
""fullscreenenter"",""0"",""4422""
","
","1448","","","","","","","","49","0,0,0","2","coast","76","probe-91","0.06924993295717896","0.40340855225524586","0.7203811147881986","0","","","","","","","",""
"","html-keyboard-response","251","1045954","0.0-135.0-1.0","""event"",""trial"",""time""
""fullscreenenter"",""0"",""4422""
","
","
","""event"",""trial"",""time""
""fullscreenenter"",""0"",""4422""
","
","null","<p></p>","null","","","","","","","","","","","","","","","","","","","","","","",""
"","do_trial","252","1051517","0.0-136.0-0.0","""event"",""trial"",""time""
""fullscreenenter"",""0"",""4422""
","
","
","""event"",""trial"",""time""
""fullscreenenter"",""0"",""4422""
","
","1012.1000000014901","","","","","","","","50","1,1,1","2","coast","77","probe-141","0.14555428429394","0.38711578370682004","0.6798466859484239","1","","","","","","","",""
"","html-keyboard-response","253","1052524","0.0-136.0-1.0","""event"",""trial"",""time""
""fullscreenenter"",""0"",""4422""
","
","
","""event"",""trial"",""time""
""fullscreenenter"",""0"",""4422""
","
","null","<p></p>","null","","","","","","","","","","","","","","","","","","","","","","",""
"","do_trial","254","1058313","0.0-137.0-0.0","""event"",""trial"",""time""
""fullscreenenter"",""0"",""4422""
","
","
","""event"",""trial"",""time""
""fullscreenenter"",""0"",""4422""
","
","1230.4000000059605","","","","","","","","50","0,1,1","2","coast","78","probe-155","0.10079638495398802","0.4069854723885383","0.6750709446958085","1","","","","","","","",""
"","html-keyboard-response","255","1059317","0.0-137.0-1.0","""event"",""trial"",""time""
""fullscreenenter"",""0"",""4422""
","
","
","""event"",""trial"",""time""
""fullscreenenter"",""0"",""4422""
","
","null","<p></p>","null","","","","","","","","","","","","","","","","","","","","","","",""
"","do_trial","256","1064375","0.0-138.0-0.0","""event"",""trial"",""time""
""fullscreenenter"",""0"",""4422""
","
","
","""event"",""trial"",""time""
""fullscreenenter"",""0"",""4422""
","
","506.69999999552965","","","","","","","","50","0,1,1","2","coast","79","probe-224","0.13671311457582472","0.4458403973650281","0.6391183564352535","1","","","","","","","",""
"","html-keyboard-response","257","1065378","0.0-138.0-1.0","""event"",""trial"",""time""
""fullscreenenter"",""0"",""4422""
","
","
","""event"",""trial"",""time""
""fullscreenenter"",""0"",""4422""
","
","null","<p></p>","null","","","","","","","","","","","","","","","","","","","","","","",""
"","do_trial","258","1070717","0.0-139.0-0.0","""event"",""trial"",""time""
""fullscreenenter"",""0"",""4422""
","
","
","""event"",""trial"",""time""
""fullscreenenter"",""0"",""4422""
","
","779.3999999985099","","","","","","","","50","0,0,1","2","coast","80","probe-112","0.18933221251637192","0.39462596641321723","0.7022522497537125","0","","","","","","","",""
"","html-keyboard-response","259","1071725","0.0-139.0-1.0","""event"",""trial"",""time""
""fullscreenenter"",""0"",""4422""
","
","
","""event"",""trial"",""time""
""fullscreenenter"",""0"",""4422""
","
","null","<p></p>","null","","","","","","","","","","","","","","","","","","","","","","",""
"","do_trial","260","1076864","0.0-140.0-0.0","""event"",""trial"",""time""
""fullscreenenter"",""0"",""4422""
","
","
","""event"",""trial"",""time""
""fullscreenenter"",""0"",""4422""
","
","581.7000000029802","","","","","","","","51","1,1,1","2","coast","81","probe-139","0.2591776001634231","0.3883028455423187","0.7130535718853674","1","","","","","","","",""
