"success","trial_type","trial_index","time_elapsed","internal_node_id","interactions","blur_events","focus_events","fullscreenenter_events","fullscreenexit_events","rt","stimulus","key_press","subject_id","participant_id","age","gender","prompt","response","choice_outcomes","context_n","context_img_id","trial_n","probe_img_id","pR_red","pR_white","pR_black","outcome","contextArray_ind","validImageProbes","invalidImageProbes","pRew_Red","pRew_White","pRew_Black","availableForMemProbe","choice_blocks"
"true","fullscreen","0","6847","0.0-0.0","""event"",""trial"",""time""
""blur"",""0"",""615""
""focus"",""0"",""1814""
""fullscreenenter"",""0"",""5860""
","""event"",""trial"",""time""
""blur"",""0"",""615""
","""event"",""trial"",""time""
""focus"",""0"",""1814""
","""event"",""trial"",""time""
""fullscreenenter"",""0"",""5860""
","
","","","","","","","","","","","","","","","","","","","","","","","","","",""
"","pavlovia","1","6855","0.0-1.0","""event"",""trial"",""time""
""blur"",""0"",""615""
""focus"",""0"",""1814""
""fullscreenenter"",""0"",""5860""
","""event"",""trial"",""time""
""blur"",""0"",""615""
","""event"",""trial"",""time""
""focus"",""0"",""1814""
","""event"",""trial"",""time""
""fullscreenenter"",""0"",""5860""
","
","","","","","","","","","","","","","","","","","","","","","","","","","",""
"","instruc1","2","52122","0.0-2.0","""event"",""trial"",""time""
""blur"",""0"",""615""
""focus"",""0"",""1814""
""fullscreenenter"",""0"",""5860""
","""event"",""trial"",""time""
""blur"",""0"",""615""
","""event"",""trial"",""time""
""focus"",""0"",""1814""
","""event"",""trial"",""time""
""fullscreenenter"",""0"",""5860""
","
","null","run_exp/static/audio/clip_1_welcome.m4a","null","917","965","16","Female","<div class='center'><p>Welcome! This is the first part of the study. It will last ~30 minutes. In part 1 and part 2 of the study, you are the head captain of a pirate ship traveling around the world to different islands. You will play a few different games throughout these two parts. Here is an overview of them:</p><br><p>Part 1 (today)</p><p>1. Instructions, practice game, and quiz</p><p>2. Pick a pirate game on 6 different islands</p><br><p>Part 2 (tomorrow)</p><p>3. Pick a pirate game and memory game</p><p>4. Where did you see this ship? </p></div>","","","","","","","","","","","","","","","","","",""
"","html-keyboard-response","3","53976","0.0-3.0","""event"",""trial"",""time""
""blur"",""0"",""615""
""focus"",""0"",""1814""
""fullscreenenter"",""0"",""5860""
","""event"",""trial"",""time""
""blur"",""0"",""615""
","""event"",""trial"",""time""
""focus"",""0"",""1814""
","""event"",""trial"",""time""
""fullscreenenter"",""0"",""5860""
","
","1847.4000000059605","<div class='center'><p>Welcome! This is the first part of the study. It will last ~30 minutes. In part 1 and part 2 of the study, you are the head captain of a pirate ship traveling around the world to different islands. You will play a few different games throughout these two parts. Here is an overview of them:</p><br><p>Part 1 (today)</p><p>1. Instructions, practice game, and quiz</p><p>2. Pick a pirate game on 6 different islands</p><br><p>Part 2 (tomorrow)</p><p>3. Pick a pirate game and memory game</p><p>4. Where did you see this ship? </p><p><b>[Press the space bar to continue]</b></p></div>","32","","","","","","","","","","","","","","","","","","","","","","",""
"","instruc2","4","59643","0.0-4.0","""event"",""trial"",""time""
""blur"",""0"",""615""
""focus"",""0"",""1814""
""fullscreenenter"",""0"",""5860""
","""event"",""trial"",""time""
""blur"",""0"",""615""
","""event"",""trial"",""time""
""focus"",""0"",""1814""
","""event"",""trial"",""time""
""fullscreenenter"",""0"",""5860""
","
","null","run_exp/static/audio/clip_2_different_places.m4a","null","","","","","<div class='center'><p>Today, you’ll visit these 6 islands on your journey. You'll be able to see these islands from your ship.</p><p><img src='run_exp/static/images/contexts/all_contexts.png' height='500'></p></div>","","","","","","","","","","","","","","","","","",""
"","html-keyboard-response","5","61327","0.0-5.0","""event"",""trial"",""time""
""blur"",""0"",""615""
""focus"",""0"",""1814""
""fullscreenenter"",""0"",""5860""
","""event"",""trial"",""time""
""blur"",""0"",""615""
","""event"",""trial"",""time""
""focus"",""0"",""1814""
","""event"",""trial"",""time""
""fullscreenenter"",""0"",""5860""
","
","1679.199999988079","<div class='center'><p>Today, you’ll visit these 6 islands on your journey. You'll be able to see these islands from your ship.</p><p><img src='run_exp/static/images/contexts/all_contexts.png' height='500'></p><p><b>[Press the space bar to continue]</b></p></div>","32","","","","","","","","","","","","","","","","","","","","","","",""
"","instruc3","6","71346","0.0-6.0","""event"",""trial"",""time""
""blur"",""0"",""615""
""focus"",""0"",""1814""
""fullscreenenter"",""0"",""5860""
","""event"",""trial"",""time""
""blur"",""0"",""615""
","""event"",""trial"",""time""
""focus"",""0"",""1814""
","""event"",""trial"",""time""
""fullscreenenter"",""0"",""5860""
","
","null","run_exp/static/audio/clip_3_goal_of_game_1.m4a","null","","","","","<div class='center'><p> The pirates on your ship will rob other ships as they leave the island.</p> These ships have just sold their goods to the islanders, so they will be filled with lots and lots of gold.</p><p><img src='run_exp/static/images/tutorial/ship_center.png' height='400'></p></div>","","","","","","","","","","","","","","","","","",""
"","html-keyboard-response","7","72544","0.0-7.0","""event"",""trial"",""time""
""blur"",""0"",""615""
""focus"",""0"",""1814""
""fullscreenenter"",""0"",""5860""
","""event"",""trial"",""time""
""blur"",""0"",""615""
","""event"",""trial"",""time""
""focus"",""0"",""1814""
","""event"",""trial"",""time""
""fullscreenenter"",""0"",""5860""
","
","1194.800000011921","<div class='center'><p> The pirates on your ship will rob other ships as they leave the island.</p> These ships have just sold their goods to the islanders, so they will be filled with lots and lots of gold.</p><p><img src='run_exp/static/images/tutorial/ship_center.png' height='400'></p><p><b>[Press the space bar to continue]</b></p></div>","32","","","","","","","","","","","","","","","","","","","","","","",""
"","instruc4","8","100789","0.0-8.0","""event"",""trial"",""time""
""blur"",""0"",""615""
""focus"",""0"",""1814""
""fullscreenenter"",""0"",""5860""
","""event"",""trial"",""time""
""blur"",""0"",""615""
","""event"",""trial"",""time""
""focus"",""0"",""1814""
","""event"",""trial"",""time""
""fullscreenenter"",""0"",""5860""
","
","null","run_exp/static/audio/clip_4_goal_of_game_2.m4a","null","","","","","<div class='center'><p>As the head captain, you do not have to rob any ships yourself. Another pirate will be doing the robbing for you. First, you will choose a pirate to rob the next ship.</p><p><img src='run_exp/static/images/tutorial/pirates_all_crop.png' height='200'></p><p>Then, you'll see if the pirate successfully robbed the ship of their gold. If they were successful, then you'll get a stack of gold coins like this:</p><p><img src='run_exp/static/images/tutorial/reward.png' height='150'></p><p> If they were <b>not</b> successful, then you'll get no gold coins, and you'll see a big red x like this: </p><p><img src='run_exp/static/images/tutorial/reward_no.png' height='150'></p><p> How much bonus money you make is based on how many gold coins you collect.</p><div>","","","","","","","","","","","","","","","","","",""
"","html-keyboard-response","9","105039","0.0-9.0","""event"",""trial"",""time""
""blur"",""0"",""615""
""focus"",""0"",""1814""
""fullscreenenter"",""0"",""5860""
","""event"",""trial"",""time""
""blur"",""0"",""615""
","""event"",""trial"",""time""
""focus"",""0"",""1814""
","""event"",""trial"",""time""
""fullscreenenter"",""0"",""5860""
","
","4244.5999999940395","<div class='center'><p>As the head captain, you do not have to rob any ships yourself. Another pirate will be doing the robbing for you. First, you will choose a pirate to rob the next ship.</p><p><img src='run_exp/static/images/tutorial/pirates_all_crop.png' height='200'></p><p>Then, you'll see if the pirate successfully robbed the ship of their gold. If they were successful, then you'll get a stack of gold coins like this:</p><p><img src='run_exp/static/images/tutorial/reward.png' height='150'></p><p> If they were <b>not</b> successful, then you'll get no gold coins, and you'll see a big red x like this: </p><p><img src='run_exp/static/images/tutorial/reward_no.png' height='150'></p><p> How much bonus money you make is based on how many gold coins you collect.</p<p><b>[Press the space bar to continue]</b></p></div>","32","","","","","","","","","","","","","","","","","","","","","","",""
"","instruc5","10","127937","0.0-10.0","""event"",""trial"",""time""
""blur"",""0"",""615""
""focus"",""0"",""1814""
""fullscreenenter"",""0"",""5860""
","""event"",""trial"",""time""
""blur"",""0"",""615""
","""event"",""trial"",""time""
""focus"",""0"",""1814""
","""event"",""trial"",""time""
""fullscreenenter"",""0"",""5860""
","
","22894.79999999702","run_exp/static/audio/clip_5_probabilistic.m4a","49","","","","","<div class='center'><p>Even the most skilled pirate can not rob EVERY ship.</p><p> Some ships will have very strong protections against pirate attacks.</p><p> Blue beard, here, is very, very good at robbing ships, but he won't be successful every time he tries to rob one.</p><p> You can press the <b>‘1’</b> key on the keyboard to choose him.</p><p> Try choosing him 10 times to see how often he succeeds at robbing a ship. </p><p><img src='run_exp/static/images/tutorial/blue.png' height='500'></p></div>","","","","","","","","","","","","","","","","","",""
"","html-keyboard-response","11","129440","0.0-11.0","""event"",""trial"",""time""
""blur"",""0"",""615""
""focus"",""0"",""1814""
""fullscreenenter"",""0"",""5860""
","""event"",""trial"",""time""
""blur"",""0"",""615""
","""event"",""trial"",""time""
""focus"",""0"",""1814""
","""event"",""trial"",""time""
""fullscreenenter"",""0"",""5860""
","
","null","<div class='center'><p><img src='run_exp/static/images/tutorial/blue_win.png' height='500'></p></div>","null","","","","","","","","","","","","","","","","","","","","","","",""
"","html-keyboard-response","12","131076","0.0-12.0","""event"",""trial"",""time""
""blur"",""0"",""615""
""focus"",""0"",""1814""
""fullscreenenter"",""0"",""5860""
","""event"",""trial"",""time""
""blur"",""0"",""615""
","""event"",""trial"",""time""
""focus"",""0"",""1814""
","""event"",""trial"",""time""
""fullscreenenter"",""0"",""5860""
","
","1632.2999999970198","<div class='center'><img src='run_exp/static/images/tutorial/blue.png' height='500'></p></div>","49","","","","","","","","","","","","","","","","","","","","","","",""
"","html-keyboard-response","13","132578","0.0-13.0","""event"",""trial"",""time""
""blur"",""0"",""615""
""focus"",""0"",""1814""
""fullscreenenter"",""0"",""5860""
","""event"",""trial"",""time""
""blur"",""0"",""615""
","""event"",""trial"",""time""
""focus"",""0"",""1814""
","""event"",""trial"",""time""
""fullscreenenter"",""0"",""5860""
","
","null","<div class='center'><p><img src='run_exp/static/images/tutorial/blue_win.png' height='500'></p></div>","null","","","","","","","","","","","","","","","","","","","","","","",""
"","html-keyboard-response","14","133390","0.0-14.0","""event"",""trial"",""time""
""blur"",""0"",""615""
""focus"",""0"",""1814""
""fullscreenenter"",""0"",""5860""
","""event"",""trial"",""time""
""blur"",""0"",""615""
","""event"",""trial"",""time""
""focus"",""0"",""1814""
","""event"",""trial"",""time""
""fullscreenenter"",""0"",""5860""
","
","807.0999999940395","<div class='center'><img src='run_exp/static/images/tutorial/blue.png' height='500'></p></div>","49","","","","","","","","","","","","","","","","","","","","","","",""
"","html-keyboard-response","15","134892","0.0-15.0","""event"",""trial"",""time""
""blur"",""0"",""615""
""focus"",""0"",""1814""
""fullscreenenter"",""0"",""5860""
","""event"",""trial"",""time""
""blur"",""0"",""615""
","""event"",""trial"",""time""
""focus"",""0"",""1814""
","""event"",""trial"",""time""
""fullscreenenter"",""0"",""5860""
","
","null","<div class='center'><p><img src='run_exp/static/images/tutorial/blue_win.png' height='500'></p></div>","null","","","","","","","","","","","","","","","","","","","","","","",""
"","html-keyboard-response","16","135310","0.0-16.0","""event"",""trial"",""time""
""blur"",""0"",""615""
""focus"",""0"",""1814""
""fullscreenenter"",""0"",""5860""
","""event"",""trial"",""time""
""blur"",""0"",""615""
","""event"",""trial"",""time""
""focus"",""0"",""1814""
","""event"",""trial"",""time""
""fullscreenenter"",""0"",""5860""
","
","415.5","<div class='center'><img src='run_exp/static/images/tutorial/blue.png' height='500'></p></div>","49","","","","","","","","","","","","","","","","","","","","","","",""
"","html-keyboard-response","17","136813","0.0-17.0","""event"",""trial"",""time""
""blur"",""0"",""615""
""focus"",""0"",""1814""
""fullscreenenter"",""0"",""5860""
","""event"",""trial"",""time""
""blur"",""0"",""615""
","""event"",""trial"",""time""
""focus"",""0"",""1814""
","""event"",""trial"",""time""
""fullscreenenter"",""0"",""5860""
","
","null","<div class='center'><p><img src='run_exp/static/images/tutorial/blue_no_win.png' height='500'></p></div>","null","","","","","","","","","","","","","","","","","","","","","","",""
"","html-keyboard-response","18","137352","0.0-18.0","""event"",""trial"",""time""
""blur"",""0"",""615""
""focus"",""0"",""1814""
""fullscreenenter"",""0"",""5860""
","""event"",""trial"",""time""
""blur"",""0"",""615""
","""event"",""trial"",""time""
""focus"",""0"",""1814""
","""event"",""trial"",""time""
""fullscreenenter"",""0"",""5860""
","
","536.1000000089407","<div class='center'><img src='run_exp/static/images/tutorial/blue.png' height='500'></p></div>","49","","","","","","","","","","","","","","","","","","","","","","",""
"","html-keyboard-response","19","138854","0.0-19.0","""event"",""trial"",""time""
""blur"",""0"",""615""
""focus"",""0"",""1814""
""fullscreenenter"",""0"",""5860""
","""event"",""trial"",""time""
""blur"",""0"",""615""
","""event"",""trial"",""time""
""focus"",""0"",""1814""
","""event"",""trial"",""time""
""fullscreenenter"",""0"",""5860""
","
","null","<div class='center'><p><img src='run_exp/static/images/tutorial/blue_win.png' height='500'></p></div>","null","","","","","","","","","","","","","","","","","","","","","","",""
"","html-keyboard-response","20","139103","0.0-20.0","""event"",""trial"",""time""
""blur"",""0"",""615""
""focus"",""0"",""1814""
""fullscreenenter"",""0"",""5860""
","""event"",""trial"",""time""
""blur"",""0"",""615""
","""event"",""trial"",""time""
""focus"",""0"",""1814""
","""event"",""trial"",""time""
""fullscreenenter"",""0"",""5860""
","
","245.90000000596046","<div class='center'><img src='run_exp/static/images/tutorial/blue.png' height='500'></p></div>","49","","","","","","","","","","","","","","","","","","","","","","",""
"","html-keyboard-response","21","140606","0.0-21.0","""event"",""trial"",""time""
""blur"",""0"",""615""
""focus"",""0"",""1814""
""fullscreenenter"",""0"",""5860""
","""event"",""trial"",""time""
""blur"",""0"",""615""
","""event"",""trial"",""time""
""focus"",""0"",""1814""
","""event"",""trial"",""time""
""fullscreenenter"",""0"",""5860""
","
","null","<div class='center'><p><img src='run_exp/static/images/tutorial/blue_win.png' height='500'></p></div>","null","","","","","","","","","","","","","","","","","","","","","","",""
"","html-keyboard-response","22","140767","0.0-22.0","""event"",""trial"",""time""
""blur"",""0"",""615""
""focus"",""0"",""1814""
""fullscreenenter"",""0"",""5860""
","""event"",""trial"",""time""
""blur"",""0"",""615""
","""event"",""trial"",""time""
""focus"",""0"",""1814""
","""event"",""trial"",""time""
""fullscreenenter"",""0"",""5860""
","
","158.3999999910593","<div class='center'><img src='run_exp/static/images/tutorial/blue.png' height='500'></p></div>","49","","","","","","","","","","","","","","","","","","","","","","",""
"","html-keyboard-response","23","142269","0.0-23.0","""event"",""trial"",""time""
""blur"",""0"",""615""
""focus"",""0"",""1814""
""fullscreenenter"",""0"",""5860""
","""event"",""trial"",""time""
""blur"",""0"",""615""
","""event"",""trial"",""time""
""focus"",""0"",""1814""
","""event"",""trial"",""time""
""fullscreenenter"",""0"",""5860""
","
","null","<div class='center'><p><img src='run_exp/static/images/tutorial/blue_win.png' height='500'></p></div>","null","","","","","","","","","","","","","","","","","","","","","","",""
"","html-keyboard-response","24","142562","0.0-24.0","""event"",""trial"",""time""
""blur"",""0"",""615""
""focus"",""0"",""1814""
""fullscreenenter"",""0"",""5860""
","""event"",""trial"",""time""
""blur"",""0"",""615""
","""event"",""trial"",""time""
""focus"",""0"",""1814""
","""event"",""trial"",""time""
""fullscreenenter"",""0"",""5860""
","
","290.19999998807907","<div class='center'><img src='run_exp/static/images/tutorial/blue.png' height='500'></p></div>","49","","","","","","","","","","","","","","","","","","","","","","",""
"","html-keyboard-response","25","144065","0.0-25.0","""event"",""trial"",""time""
""blur"",""0"",""615""
""focus"",""0"",""1814""
""fullscreenenter"",""0"",""5860""
","""event"",""trial"",""time""
""blur"",""0"",""615""
","""event"",""trial"",""time""
""focus"",""0"",""1814""
","""event"",""trial"",""time""
""fullscreenenter"",""0"",""5860""
","
","null","<div class='center'><p><img src='run_exp/static/images/tutorial/blue_no_win.png' height='500'></p></div>","null","","","","","","","","","","","","","","","","","","","","","","",""
"","html-keyboard-response","26","144309","0.0-26.0","""event"",""trial"",""time""
""blur"",""0"",""615""
""focus"",""0"",""1814""
""fullscreenenter"",""0"",""5860""
","""event"",""trial"",""time""
""blur"",""0"",""615""
","""event"",""trial"",""time""
""focus"",""0"",""1814""
","""event"",""trial"",""time""
""fullscreenenter"",""0"",""5860""
","
","241.59999999403954","<div class='center'><img src='run_exp/static/images/tutorial/blue.png' height='500'></p></div>","49","","","","","","","","","","","","","","","","","","","","","","",""
"","html-keyboard-response","27","145812","0.0-27.0","""event"",""trial"",""time""
""blur"",""0"",""615""
""focus"",""0"",""1814""
""fullscreenenter"",""0"",""5860""
","""event"",""trial"",""time""
""blur"",""0"",""615""
","""event"",""trial"",""time""
""focus"",""0"",""1814""
","""event"",""trial"",""time""
""fullscreenenter"",""0"",""5860""
","
","null","<div class='center'><p><img src='run_exp/static/images/tutorial/blue_win.png' height='500'></p></div>","null","","","","","","","","","","","","","","","","","","","","","","",""
"","html-keyboard-response","28","146055","0.0-28.0","""event"",""trial"",""time""
""blur"",""0"",""615""
""focus"",""0"",""1814""
""fullscreenenter"",""0"",""5860""
","""event"",""trial"",""time""
""blur"",""0"",""615""
","""event"",""trial"",""time""
""focus"",""0"",""1814""
","""event"",""trial"",""time""
""fullscreenenter"",""0"",""5860""
","
","239.90000000596046","<div class='center'><img src='run_exp/static/images/tutorial/blue.png' height='500'></p></div>","49","","","","","","","","","","","","","","","","","","","","","","",""
"","html-keyboard-response","29","147557","0.0-29.0","""event"",""trial"",""time""
""blur"",""0"",""615""
""focus"",""0"",""1814""
""fullscreenenter"",""0"",""5860""
","""event"",""trial"",""time""
""blur"",""0"",""615""
","""event"",""trial"",""time""
""focus"",""0"",""1814""
","""event"",""trial"",""time""
""fullscreenenter"",""0"",""5860""
","
","null","<div class='center'><p><img src='run_exp/static/images/tutorial/blue_win.png' height='500'></p></div>","null","","","","","","","","","","","","","","","","","","","","","","",""
"","instruc6","30","153224","0.0-30.0","""event"",""trial"",""time""
""blur"",""0"",""615""
""focus"",""0"",""1814""
""fullscreenenter"",""0"",""5860""
","""event"",""trial"",""time""
""blur"",""0"",""615""
","""event"",""trial"",""time""
""focus"",""0"",""1814""
","""event"",""trial"",""time""
""fullscreenenter"",""0"",""5860""
","
","null","run_exp/static/audio/clip_6_blue_beard_outcome.m4a","null","","","","","<div class='center'><p> See, he succeeded in robbing the ships most of the time but not every time. </p></div>","","","","","","","","","","","","","","","","","",""
"","html-keyboard-response","31","154576","0.0-31.0","""event"",""trial"",""time""
""blur"",""0"",""615""
""focus"",""0"",""1814""
""fullscreenenter"",""0"",""5860""
","""event"",""trial"",""time""
""blur"",""0"",""615""
","""event"",""trial"",""time""
""focus"",""0"",""1814""
","""event"",""trial"",""time""
""fullscreenenter"",""0"",""5860""
","
","1349.3999999910593","<div class='center'><p> See, he succeeded in robbing the ships most of the time but not every time. </p><p><b>[Press the space bar to continue]</b></p></div>","32","","","","","","","","","","","","","","","","","","","","","","",""
"","audio-keyboard-response","32","172180","0.0-32.0","""event"",""trial"",""time""
""blur"",""0"",""615""
""focus"",""0"",""1814""
""fullscreenenter"",""0"",""5860""
","""event"",""trial"",""time""
""blur"",""0"",""615""
","""event"",""trial"",""time""
""focus"",""0"",""1814""
","""event"",""trial"",""time""
""fullscreenenter"",""0"",""5860""
","
","17598.69999998808","run_exp/static/audio/clip_7_pick_pirate.m4a","51","","","","","","","","","","","","","","","","","","","","","","",""
"","audio-keyboard-response","33","177148","0.0-33.0-0.0","""event"",""trial"",""time""
""blur"",""0"",""615""
""focus"",""0"",""1814""
""fullscreenenter"",""0"",""5860""
","""event"",""trial"",""time""
""blur"",""0"",""615""
","""event"",""trial"",""time""
""focus"",""0"",""1814""
","""event"",""trial"",""time""
""fullscreenenter"",""0"",""5860""
","
","4962.5","run_exp/static/audio/clip_8_chosen_pirate_win.m4a","32","","","","","","","","","","","","","","","","","","","","","","",""
"","audio-keyboard-response","34","180881","0.0-33.0-1.0","""event"",""trial"",""time""
""blur"",""0"",""615""
""focus"",""0"",""1814""
""fullscreenenter"",""0"",""5860""
","""event"",""trial"",""time""
""blur"",""0"",""615""
","""event"",""trial"",""time""
""focus"",""0"",""1814""
","""event"",""trial"",""time""
""fullscreenenter"",""0"",""5860""
","
","3729","run_exp/static/audio/clip_9_pick_a_pirate_again.m4a","50","","","","","","","","","","","","","","","","","","","","","","",""
"","audio-keyboard-response","35","186806","0.0-34.0-0.0","""event"",""trial"",""time""
""blur"",""0"",""615""
""focus"",""0"",""1814""
""fullscreenenter"",""0"",""5860""
","""event"",""trial"",""time""
""blur"",""0"",""615""
","""event"",""trial"",""time""
""focus"",""0"",""1814""
","""event"",""trial"",""time""
""fullscreenenter"",""0"",""5860""
","
","5919.79999999702","run_exp/static/audio/clip_10_chosen_pirate_loss.m4a","32","","","","","","","","","","","","","","","","","","","","","","",""
"","instruc9","36","192603","0.0-35.0-0.0","""event"",""trial"",""time""
""blur"",""0"",""615""
""focus"",""0"",""1814""
""fullscreenenter"",""0"",""5860""
","""event"",""trial"",""time""
""blur"",""0"",""615""
","""event"",""trial"",""time""
""focus"",""0"",""1814""
","""event"",""trial"",""time""
""fullscreenenter"",""0"",""5860""
","
","null","run_exp/static/audio/clip_11_time_out.m4a","null","","","","","<div class='center'><p>If you don’t make your choice fast enough, you’ll have to wait a few seconds before you can make another one. </p><p><img src='run_exp/static/images/miscellaneous/hurry_up.png' height='500'></p></div>","","","","","","","","","","","","","","","","","",""
"","html-keyboard-response","37","195004","0.0-35.0-1.0","""event"",""trial"",""time""
""blur"",""0"",""615""
""focus"",""0"",""1814""
""fullscreenenter"",""0"",""5860""
","""event"",""trial"",""time""
""blur"",""0"",""615""
","""event"",""trial"",""time""
""focus"",""0"",""1814""
","""event"",""trial"",""time""
""fullscreenenter"",""0"",""5860""
","
","2398.5","<div class='center'><p>If you don’t make your choice fast enough, you’ll have to wait a few seconds before you can make another one. </p><p><img src='run_exp/static/images/miscellaneous/hurry_up.png' height='500'></p><p><b>[Press the space bar to continue]</b></p></div>","32","","","","","","","","","","","","","","","","","","","","","","",""
"","instruc10","38","234401","0.0-35.0-2.0","""event"",""trial"",""time""
""blur"",""0"",""615""
""focus"",""0"",""1814""
""fullscreenenter"",""0"",""5860""
","""event"",""trial"",""time""
""blur"",""0"",""615""
","""event"",""trial"",""time""
""focus"",""0"",""1814""
","""event"",""trial"",""time""
""fullscreenenter"",""0"",""5860""
","
","null","run_exp/static/audio/clip_12_probe.m4a","null","","","","","<div class='center'><p>Once you've chosen a pirate, you’ll be shown the ship they are robbing. You will never rob the same ship twice. Ships can be told apart from one another by the image on them. These are the goods that they sell. See, this ship has a travel mug on it. </p><p> You’ll have to remember which island you saw each ship on. You will win more gold coins and hence more bonus money if you remember correctly! To help you remember, you can imagine a story. For example, here, you could imagine a mug full of water in the desert. Or, as another example, if on the forest island, your pirate robbed a ship with an apple on it, you could imagine an apple falling from a tree in the forest. </p><p><img src='run_exp/static/images/tutorial/example_probe.png' height='500'></p></div>","","","","","","","","","","","","","","","","","",""
"","html-keyboard-response","39","238649","0.0-35.0-3.0","""event"",""trial"",""time""
""blur"",""0"",""615""
""focus"",""0"",""1814""
""fullscreenenter"",""0"",""5860""
","""event"",""trial"",""time""
""blur"",""0"",""615""
","""event"",""trial"",""time""
""focus"",""0"",""1814""
","""event"",""trial"",""time""
""fullscreenenter"",""0"",""5860""
","
","4244.5999999940395","<div class='center'><p>Once you've chosen a pirate, you’ll be shown the ship they are robbing. You will never rob the same ship twice. Ships can be told apart from one another by the image on them. These are the goods that they sell. See, this ship has a travel mug on it. </p><p> You’ll have to remember which island you saw each ship on. You will win more gold coins and hence more bonus money if you remember correctly! To help you remember, you can imagine a story. For example, here, you could imagine a mug full of water in the desert. Or, as another example, if on the forest island, your pirate robbed a ship with an apple on it, you could imagine an apple falling from a tree in the forest. </p><p><img src='run_exp/static/images/tutorial/example_probe.png' height='500'></p><p><b>[Press the space bar to continue]</b></p></div>","32","","","","","","","","","","","","","","","","","","","","","","",""
"","instruc11","40","255298","0.0-35.0-4.0","""event"",""trial"",""time""
""blur"",""0"",""615""
""focus"",""0"",""1814""
""fullscreenenter"",""0"",""5860""
","""event"",""trial"",""time""
""blur"",""0"",""615""
","""event"",""trial"",""time""
""focus"",""0"",""1814""
","""event"",""trial"",""time""
""fullscreenenter"",""0"",""5860""
","
","null","run_exp/static/audio/clip_13_changepoint.m4a","null","","","","","<div class='center'><p>How successful a pirate is at robbing ships will depend on the island you’re on.</p><p> A pirate may have visited this island many times before and gained a lot of practice robbing ships there.</p><p>So, they’re more likely to be successful than a pirate who has never visited the island before.</p></div>","","","","","","","","","","","","","","","","","",""
"","html-keyboard-response","41","256643","0.0-35.0-5.0","""event"",""trial"",""time""
""blur"",""0"",""615""
""focus"",""0"",""1814""
""fullscreenenter"",""0"",""5860""
","""event"",""trial"",""time""
""blur"",""0"",""615""
","""event"",""trial"",""time""
""focus"",""0"",""1814""
","""event"",""trial"",""time""
""fullscreenenter"",""0"",""5860""
","
","1341.7999999970198","<div class='center'><p>How successful a pirate is at robbing ships will depend on the island you’re on.</p><p> A pirate may have visited this island many times before and gained a lot of practice robbing ships there.</p><p>So, they’re more likely to be successful than a pirate who has never visited the island before.</p><p><b>[Press the space bar to continue]</b></p></div>","32","","","","","","","","","","","","","","","","","","","","","","",""
"","instruc12","42","298024","0.0-35.0-6.0","""event"",""trial"",""time""
""blur"",""0"",""615""
""focus"",""0"",""1814""
""fullscreenenter"",""0"",""5860""
","""event"",""trial"",""time""
""blur"",""0"",""615""
","""event"",""trial"",""time""
""focus"",""0"",""1814""
","""event"",""trial"",""time""
""fullscreenenter"",""0"",""5860""
","
","null","run_exp/static/audio/clip_14_drift.m4a","null","","","","","<div class='center'><p>How successful a pirate is at robbing ships can also change over the time spent on the island. </p><p> Ships may hear from islanders about the pirates coming and will improve their protections against the attack. This may make it harder to rob them.</p><p> Ships may also become lazy and weaken the strength of their protections. This may make it easier to rob them.</p><br><p>Things are always changing on the high seas! So, try your best to pay attention!</p><p><img src='run_exp/static/images/tutorial/contingency.png' height='500'></p></div>","","","","","","","","","","","","","","","","","",""
"","html-keyboard-response","43","336583","0.0-35.0-7.0","""event"",""trial"",""time""
""blur"",""0"",""615""
""focus"",""0"",""1814""
""fullscreenenter"",""0"",""5860""
","""event"",""trial"",""time""
""blur"",""0"",""615""
","""event"",""trial"",""time""
""focus"",""0"",""1814""
","""event"",""trial"",""time""
""fullscreenenter"",""0"",""5860""
","
","38553.70000000298","<div class='center'><p>How successful a pirate is at robbing ships can also change over the time spent on the island. </p><p> Ships may hear from islanders about the pirates coming and will improve their protections against the attack. This may make it harder to rob them.</p><p> Ships may also become lazy and weaken the strength of their protections. This may make it easier to rob them.</p><br><p>Things are always changing on the high seas! So, try your best to pay attention!</p><p><img src='run_exp/static/images/tutorial/contingency.png' height='500'></p><p><b>[Press the space bar to continue]</b></p></div>","32","","","","","","","","","","","","","","","","","","","","","","",""
"","instruc13","44","372505","0.0-35.0-8.0","""event"",""trial"",""time""
""blur"",""0"",""615""
""focus"",""0"",""1814""
""fullscreenenter"",""0"",""5860""
","""event"",""trial"",""time""
""blur"",""0"",""615""
","""event"",""trial"",""time""
""focus"",""0"",""1814""
","""event"",""trial"",""time""
""fullscreenenter"",""0"",""5860""
","
","null","run_exp/static/audio/clip_15_summary.m4a","null","","","","","<div class='center'><p>Let's go over the instructions quickly again. You have two important things to do: </p><b><p> 1. Pick the pirate who is the best at robbing ships on the current island. </p></b><b><p> 2. Remember on which island a ship was robbed.</p> </b><p>The amount of bonus money you can win depends on both.</p><p><br><p>Let’s try a practice game. The game will start by showing you the pirates. First, pick a pirate using the <b> 1, 2, 3 </b> keys on your keyboard. When you are shown a ship, try to remember which island you’re on by making up a story.</p><p>This is just a practice game, so you’re not playing for money. </p><p> Good luck! This game will be very difficult but try your best!</p></div>","","","","","","","","","","","","","","","","","",""
"","html-keyboard-response","45","375036","0.0-35.0-9.0","""event"",""trial"",""time""
""blur"",""0"",""615""
""focus"",""0"",""1814""
""fullscreenenter"",""0"",""5860""
","""event"",""trial"",""time""
""blur"",""0"",""615""
","""event"",""trial"",""time""
""focus"",""0"",""1814""
","""event"",""trial"",""time""
""fullscreenenter"",""0"",""5860""
","
","2528.2999999970198","<div class='center'><p>Let's go over the instructions quickly again. You have two important things to do: </p><b><p> 1. Pick the pirate who is the best at robbing ships on the current island. </p></b><b><p> 2. Remember on which island a ship was robbed.</p> </b><p>The amount of bonus money you can win depends on both.</p><p><br><p>Let’s try a practice game. The game will start by showing you the pirates. First, pick a pirate using the <b> 1, 2, 3 </b> keys on your keyboard. When you are shown a ship, try to remember which island you’re on by making up a story.</p><p>This is just a practice game, so you’re not playing for money. </p><p> Good luck! This game will be very difficult but try your best!</p><p><b>[Press the space bar to continue]</b></p></div>","32","","","","","","","","","","","","","","","","","","","","","","",""
"","do_welcome","46","379066","0.0-35.0-10.0","""event"",""trial"",""time""
""blur"",""0"",""615""
""focus"",""0"",""1814""
""fullscreenenter"",""0"",""5860""
","""event"",""trial"",""time""
""blur"",""0"",""615""
","""event"",""trial"",""time""
""focus"",""0"",""1814""
","""event"",""trial"",""time""
""fullscreenenter"",""0"",""5860""
","
","null","","","","","","","","null","","","","","","","","","","","","","","","","",""
"","do_trial","47","385838","0.0-35.0-11.0","""event"",""trial"",""time""
""blur"",""0"",""615""
""focus"",""0"",""1814""
""fullscreenenter"",""0"",""5860""
","""event"",""trial"",""time""
""blur"",""0"",""615""
","""event"",""trial"",""time""
""focus"",""0"",""1814""
","""event"",""trial"",""time""
""fullscreenenter"",""0"",""5860""
","
","2260.7999999970198","","","","","","","","50","1,0,0","","","","","","","","","","","","","","","",""
"","html-keyboard-response","48","386841","0.0-36.0-0.0","""event"",""trial"",""time""
""blur"",""0"",""615""
""focus"",""0"",""1814""
""fullscreenenter"",""0"",""5860""
","""event"",""trial"",""time""
""blur"",""0"",""615""
","""event"",""trial"",""time""
""focus"",""0"",""1814""
","""event"",""trial"",""time""
""fullscreenenter"",""0"",""5860""
","
","null","<p></p>","null","","","","","","","","","","","","","","","","","","","","","","",""
"","do_trial","49","392851","0.0-36.0-1.0","""event"",""trial"",""time""
""blur"",""0"",""615""
""focus"",""0"",""1814""
""fullscreenenter"",""0"",""5860""
","""event"",""trial"",""time""
""blur"",""0"",""615""
","""event"",""trial"",""time""
""focus"",""0"",""1814""
","""event"",""trial"",""time""
""fullscreenenter"",""0"",""5860""
","
","null","","","","","","","","null","1,1,0","","","","","","","","","","","","","","","",""
"","html-keyboard-response","50","393856","0.0-37.0-0.0","""event"",""trial"",""time""
""blur"",""0"",""615""
""focus"",""0"",""1814""
""fullscreenenter"",""0"",""5860""
","""event"",""trial"",""time""
""blur"",""0"",""615""
","""event"",""trial"",""time""
""focus"",""0"",""1814""
","""event"",""trial"",""time""
""fullscreenenter"",""0"",""5860""
","
","null","<p></p>","null","","","","","","","","","","","","","","","","","","","","","","",""
"","do_trial","51","399269","0.0-37.0-1.0","""event"",""trial"",""time""
""blur"",""0"",""615""
""focus"",""0"",""1814""
""fullscreenenter"",""0"",""5860""
","""event"",""trial"",""time""
""blur"",""0"",""615""
","""event"",""trial"",""time""
""focus"",""0"",""1814""
","""event"",""trial"",""time""
""fullscreenenter"",""0"",""5860""
","
","903.3999999910593","","","","","","","","50","1,1,0","","","","","","","","","","","","","","","",""
"","html-keyboard-response","52","400271","0.0-38.0-0.0","""event"",""trial"",""time""
""blur"",""0"",""615""
""focus"",""0"",""1814""
""fullscreenenter"",""0"",""5860""
","""event"",""trial"",""time""
""blur"",""0"",""615""
","""event"",""trial"",""time""
""focus"",""0"",""1814""
","""event"",""trial"",""time""
""fullscreenenter"",""0"",""5860""
","
","null","<p></p>","null","","","","","","","","","","","","","","","","","","","","","","",""
"","do_trial","53","407023","0.0-38.0-1.0","""event"",""trial"",""time""
""blur"",""0"",""615""
""focus"",""0"",""1814""
""fullscreenenter"",""0"",""5860""
","""event"",""trial"",""time""
""blur"",""0"",""615""
","""event"",""trial"",""time""
""focus"",""0"",""1814""
","""event"",""trial"",""time""
""fullscreenenter"",""0"",""5860""
","
","2242","","","","","","","","50","1,0,1","","","","","","","","","","","","","","","",""
"","html-keyboard-response","54","408026","0.0-39.0-0.0","""event"",""trial"",""time""
""blur"",""0"",""615""
""focus"",""0"",""1814""
""fullscreenenter"",""0"",""5860""
","""event"",""trial"",""time""
""blur"",""0"",""615""
","""event"",""trial"",""time""
""focus"",""0"",""1814""
","""event"",""trial"",""time""
""fullscreenenter"",""0"",""5860""
","
","null","<p></p>","null","","","","","","","","","","","","","","","","","","","","","","",""
"","do_trial","55","413447","0.0-39.0-1.0","""event"",""trial"",""time""
""blur"",""0"",""615""
""focus"",""0"",""1814""
""fullscreenenter"",""0"",""5860""
","""event"",""trial"",""time""
""blur"",""0"",""615""
","""event"",""trial"",""time""
""focus"",""0"",""1814""
","""event"",""trial"",""time""
""fullscreenenter"",""0"",""5860""
","
","909.7000000029802","","","","","","","","49","0,1,0","","","","","","","","","","","","","","","",""
"","html-keyboard-response","56","414450","0.0-40.0-0.0","""event"",""trial"",""time""
""blur"",""0"",""615""
""focus"",""0"",""1814""
""fullscreenenter"",""0"",""5860""
","""event"",""trial"",""time""
""blur"",""0"",""615""
","""event"",""trial"",""time""
""focus"",""0"",""1814""
","""event"",""trial"",""time""
""fullscreenenter"",""0"",""5860""
","
","null","<p></p>","null","","","","","","","","","","","","","","","","","","","","","","",""
"","do_trial","57","420707","0.0-40.0-1.0","""event"",""trial"",""time""
""blur"",""0"",""615""
""focus"",""0"",""1814""
""fullscreenenter"",""0"",""5860""
","""event"",""trial"",""time""
""blur"",""0"",""615""
","""event"",""trial"",""time""
""focus"",""0"",""1814""
","""event"",""trial"",""time""
""fullscreenenter"",""0"",""5860""
","
","1747.699999988079","","","","","","","","51","1,0,0","","","","","","","","","","","","","","","",""
"","do_bye","58","422214","0.0-41.0-0.0","""event"",""trial"",""time""
""blur"",""0"",""615""
""focus"",""0"",""1814""
""fullscreenenter"",""0"",""5860""
","""event"",""trial"",""time""
""blur"",""0"",""615""
","""event"",""trial"",""time""
""focus"",""0"",""1814""
","""event"",""trial"",""time""
""fullscreenenter"",""0"",""5860""
","
","null","","","","","","","","null","","","","","","","","","","","","","","","","",""
"","do_travel","59","431221","0.0-41.0-1.0","""event"",""trial"",""time""
""blur"",""0"",""615""
""focus"",""0"",""1814""
""fullscreenenter"",""0"",""5860""
","""event"",""trial"",""time""
""blur"",""0"",""615""
","""event"",""trial"",""time""
""focus"",""0"",""1814""
","""event"",""trial"",""time""
""fullscreenenter"",""0"",""5860""
","
","null","","","","","","","","null","","","","","","","","","","","","","","","","",""
"","do_welcome","60","435236","0.0-41.0-2.0","""event"",""trial"",""time""
""blur"",""0"",""615""
""focus"",""0"",""1814""
""fullscreenenter"",""0"",""5860""
","""event"",""trial"",""time""
""blur"",""0"",""615""
","""event"",""trial"",""time""
""focus"",""0"",""1814""
","""event"",""trial"",""time""
""fullscreenenter"",""0"",""5860""
","
","null","","","","","","","","null","","","","","","","","","","","","","","","","",""
"","do_trial","61","442658","0.0-41.0-3.0","""event"",""trial"",""time""
""blur"",""0"",""615""
""focus"",""0"",""1814""
""fullscreenenter"",""0"",""5860""
","""event"",""trial"",""time""
""blur"",""0"",""615""
","""event"",""trial"",""time""
""focus"",""0"",""1814""
","""event"",""trial"",""time""
""fullscreenenter"",""0"",""5860""
","
","2913.2999999970198","","","","","","","","50","1,0,0","","","","","","","","","","","","","","","",""
"","html-keyboard-response","62","443663","0.0-42.0-0.0","""event"",""trial"",""time""
""blur"",""0"",""615""
""focus"",""0"",""1814""
""fullscreenenter"",""0"",""5860""
","""event"",""trial"",""time""
""blur"",""0"",""615""
","""event"",""trial"",""time""
""focus"",""0"",""1814""
","""event"",""trial"",""time""
""fullscreenenter"",""0"",""5860""
","
","null","<p></p>","null","","","","","","","","","","","","","","","","","","","","","","",""
"","do_trial","63","449912","0.0-42.0-1.0","""event"",""trial"",""time""
""blur"",""0"",""615""
""focus"",""0"",""1814""
""fullscreenenter"",""0"",""5860""
","""event"",""trial"",""time""
""blur"",""0"",""615""
","""event"",""trial"",""time""
""focus"",""0"",""1814""
","""event"",""trial"",""time""
""fullscreenenter"",""0"",""5860""
","
","1738.8999999910593","","","","","","","","49","1,0,1","","","","","","","","","","","","","","","",""
"","html-keyboard-response","64","450915","0.0-43.0-0.0","""event"",""trial"",""time""
""blur"",""0"",""615""
""focus"",""0"",""1814""
""fullscreenenter"",""0"",""5860""
","""event"",""trial"",""time""
""blur"",""0"",""615""
","""event"",""trial"",""time""
""focus"",""0"",""1814""
","""event"",""trial"",""time""
""fullscreenenter"",""0"",""5860""
","
","null","<p></p>","null","","","","","","","","","","","","","","","","","","","","","","",""
"","do_trial","65","456062","0.0-43.0-1.0","""event"",""trial"",""time""
""blur"",""0"",""615""
""focus"",""0"",""1814""
""fullscreenenter"",""0"",""5860""
","""event"",""trial"",""time""
""blur"",""0"",""615""
","""event"",""trial"",""time""
""focus"",""0"",""1814""
","""event"",""trial"",""time""
""fullscreenenter"",""0"",""5860""
","
","637.2000000029802","","","","","","","","49","1,1,0","","","","","","","","","","","","","","","",""
"","html-keyboard-response","66","457065","0.0-44.0-0.0","""event"",""trial"",""time""
""blur"",""0"",""615""
""focus"",""0"",""1814""
""fullscreenenter"",""0"",""5860""
","""event"",""trial"",""time""
""blur"",""0"",""615""
","""event"",""trial"",""time""
""focus"",""0"",""1814""
","""event"",""trial"",""time""
""fullscreenenter"",""0"",""5860""
","
","null","<p></p>","null","","","","","","","","","","","","","","","","","","","","","","",""
"","do_trial","67","464107","0.0-44.0-1.0","""event"",""trial"",""time""
""blur"",""0"",""615""
""focus"",""0"",""1814""
""fullscreenenter"",""0"",""5860""
","""event"",""trial"",""time""
""blur"",""0"",""615""
","""event"",""trial"",""time""
""focus"",""0"",""1814""
","""event"",""trial"",""time""
""fullscreenenter"",""0"",""5860""
","
","2531","","","","","","","","51","0,0,1","","","","","","","","","","","","","","","",""
"","html-keyboard-response","68","465110","0.0-45.0-0.0","""event"",""trial"",""time""
""blur"",""0"",""615""
""focus"",""0"",""1814""
""fullscreenenter"",""0"",""5860""
","""event"",""trial"",""time""
""blur"",""0"",""615""
","""event"",""trial"",""time""
""focus"",""0"",""1814""
","""event"",""trial"",""time""
""fullscreenenter"",""0"",""5860""
","
","null","<p></p>","null","","","","","","","","","","","","","","","","","","","","","","",""
"","do_trial","69","470694","0.0-45.0-1.0","""event"",""trial"",""time""
""blur"",""0"",""615""
""focus"",""0"",""1814""
""fullscreenenter"",""0"",""5860""
","""event"",""trial"",""time""
""blur"",""0"",""615""
","""event"",""trial"",""time""
""focus"",""0"",""1814""
","""event"",""trial"",""time""
""fullscreenenter"",""0"",""5860""
","
","1075.2000000029802","","","","","","","","49","1,0,1","","","","","","","","","","","","","","","",""
"","html-keyboard-response","70","477177","0.0-46.0-0.0","""event"",""trial"",""time""
""blur"",""0"",""615""
""focus"",""0"",""1814""
""fullscreenenter"",""0"",""5860""
","""event"",""trial"",""time""
""blur"",""0"",""615""
","""event"",""trial"",""time""
""focus"",""0"",""1814""
","""event"",""trial"",""time""
""fullscreenenter"",""0"",""5860""
","
","6479.899999991059","<div class='center'><p><img src='run_exp/static/images/tutorial/prac_best_pirate.png'  height='500'></p></div>","50","","","","","","","","","","","","","","","","","","","","","","",""
"","html-keyboard-response","71","479683","0.0-47.0-0.0","""event"",""trial"",""time""
""blur"",""0"",""615""
""focus"",""0"",""1814""
""fullscreenenter"",""0"",""5860""
","""event"",""trial"",""time""
""blur"",""0"",""615""
","""event"",""trial"",""time""
""focus"",""0"",""1814""
","""event"",""trial"",""time""
""fullscreenenter"",""0"",""5860""
","
","2502.8999999910593","<div class='center'><p>That's incorrect! Red beard was the best.</p><p><b>[Press the space bar to continue]</b></p></div>","32","","","","","","","","","","","","","","","","","","","","","","",""
"","html-keyboard-response","72","484558","0.0-47.0-1.0","""event"",""trial"",""time""
""blur"",""0"",""615""
""focus"",""0"",""1814""
""fullscreenenter"",""0"",""5860""
","""event"",""trial"",""time""
""blur"",""0"",""615""
","""event"",""trial"",""time""
""focus"",""0"",""1814""
","""event"",""trial"",""time""
""fullscreenenter"",""0"",""5860""
","
","4871.699999988079","<div class='center'><p><img src='run_exp/static/images/tutorial/prac_source.png'  height='500'></p></div>","50","","","","","","","","","","","","","","","","","","","","","","",""
"","html-keyboard-response","73","488631","0.0-48.0-0.0","""event"",""trial"",""time""
""blur"",""0"",""615""
""focus"",""0"",""1814""
""fullscreenenter"",""0"",""5860""
","""event"",""trial"",""time""
""blur"",""0"",""615""
","""event"",""trial"",""time""
""focus"",""0"",""1814""
","""event"",""trial"",""time""
""fullscreenenter"",""0"",""5860""
","
","4070.7999999970198","<div class='center'><p>That's correct! You saw this ship on the cavern island.</p><p><b>[Press the space bar to continue]</b></p></div>","32","","","","","","","","","","","","","","","","","","","","","","",""
"","quiz_beginning","74","500467","0.0-48.0-1.0","""event"",""trial"",""time""
""blur"",""0"",""615""
""focus"",""0"",""1814""
""fullscreenenter"",""0"",""5860""
","""event"",""trial"",""time""
""blur"",""0"",""615""
","""event"",""trial"",""time""
""focus"",""0"",""1814""
","""event"",""trial"",""time""
""fullscreenenter"",""0"",""5860""
","
","null","run_exp/static/audio/clip_16_quiz_intro.m4a","null","","","","","<div class='center'><p>Good job on the practice game! Now, you will be asked some true or false questions to make sure you really understand the rules of the game.</p><p> Press <b>'1'</b> on the keyboard for true and press <b>'2'</b> for false.</p></div>","","","","","","","","","","","","","","","","","",""
"","audio-keyboard-response","75","504521","0.0-48.0-2.0","""event"",""trial"",""time""
""blur"",""0"",""615""
""focus"",""0"",""1814""
""fullscreenenter"",""0"",""5860""
","""event"",""trial"",""time""
""blur"",""0"",""615""
","""event"",""trial"",""time""
""focus"",""0"",""1814""
","""event"",""trial"",""time""
""fullscreenenter"",""0"",""5860""
","
","4049","run_exp/static/audio/clip_17_q1.m4a","49","","","","","","","","","","","","","","","","","","","","","","",""
"","correct","76","507247","0.0-49.0-0.0","""event"",""trial"",""time""
""blur"",""0"",""615""
""focus"",""0"",""1814""
""fullscreenenter"",""0"",""5860""
","""event"",""trial"",""time""
""blur"",""0"",""615""
","""event"",""trial"",""time""
""focus"",""0"",""1814""
","""event"",""trial"",""time""
""fullscreenenter"",""0"",""5860""
","
","null","run_exp/static/audio/clip_18_correct.m4a","null","","","","","<div class='center'><p>That's correct!</p></div>","","","","","","","","","","","","","","","","","",""
"","html-keyboard-response","77","508687","0.0-49.0-1.0","""event"",""trial"",""time""
""blur"",""0"",""615""
""focus"",""0"",""1814""
""fullscreenenter"",""0"",""5860""
","""event"",""trial"",""time""
""blur"",""0"",""615""
","""event"",""trial"",""time""
""focus"",""0"",""1814""
","""event"",""trial"",""time""
""fullscreenenter"",""0"",""5860""
","
","1438.5999999940395","<div class='center'><p>That's correct!</p><p><b>[Press the space bar to continue]</b></p></div>","32","","","","","","","","","","","","","","","","","","","","","","",""
"","audio-keyboard-response","78","517246","0.0-49.0-2.0","""event"",""trial"",""time""
""blur"",""0"",""615""
""focus"",""0"",""1814""
""fullscreenenter"",""0"",""5860""
","""event"",""trial"",""time""
""blur"",""0"",""615""
","""event"",""trial"",""time""
""focus"",""0"",""1814""
","""event"",""trial"",""time""
""fullscreenenter"",""0"",""5860""
","
","8556.29999999702","run_exp/static/audio/clip_20_q2.m4a","50","","","","","","","","","","","","","","","","","","","","","","",""
"","correct","79","519972","0.0-50.0-0.0","""event"",""trial"",""time""
""blur"",""0"",""615""
""focus"",""0"",""1814""
""fullscreenenter"",""0"",""5860""
","""event"",""trial"",""time""
""blur"",""0"",""615""
","""event"",""trial"",""time""
""focus"",""0"",""1814""
","""event"",""trial"",""time""
""fullscreenenter"",""0"",""5860""
","
","null","run_exp/static/audio/clip_18_correct.m4a","null","","","","","<div class='center'><p>That's correct!</p></div>","","","","","","","","","","","","","","","","","",""
"","html-keyboard-response","80","521238","0.0-50.0-1.0","""event"",""trial"",""time""
""blur"",""0"",""615""
""focus"",""0"",""1814""
""fullscreenenter"",""0"",""5860""
","""event"",""trial"",""time""
""blur"",""0"",""615""
","""event"",""trial"",""time""
""focus"",""0"",""1814""
","""event"",""trial"",""time""
""fullscreenenter"",""0"",""5860""
","
","1263.5999999940395","<div class='center'><p>That's correct!</p><p><b>[Press the space bar to continue]</b></p></div>","32","","","","","","","","","","","","","","","","","","","","","","",""
"","audio-keyboard-response","81","529848","0.0-50.0-2.0","""event"",""trial"",""time""
""blur"",""0"",""615""
""focus"",""0"",""1814""
""fullscreenenter"",""0"",""5860""
","""event"",""trial"",""time""
""blur"",""0"",""615""
","""event"",""trial"",""time""
""focus"",""0"",""1814""
","""event"",""trial"",""time""
""fullscreenenter"",""0"",""5860""
","
","8606.70000000298","run_exp/static/audio/clip_22_q3.m4a","50","","","","","","","","","","","","","","","","","","","","","","",""
"","correct","82","532603","0.0-51.0-0.0","""event"",""trial"",""time""
""blur"",""0"",""615""
""focus"",""0"",""1814""
""fullscreenenter"",""0"",""5860""
","""event"",""trial"",""time""
""blur"",""0"",""615""
","""event"",""trial"",""time""
""focus"",""0"",""1814""
","""event"",""trial"",""time""
""fullscreenenter"",""0"",""5860""
","
","null","run_exp/static/audio/clip_18_correct.m4a","null","","","","","<div class='center'><p>That's correct!</p></div>","","","","","","","","","","","","","","","","","",""
"","html-keyboard-response","83","533850","0.0-51.0-1.0","""event"",""trial"",""time""
""blur"",""0"",""615""
""focus"",""0"",""1814""
""fullscreenenter"",""0"",""5860""
","""event"",""trial"",""time""
""blur"",""0"",""615""
","""event"",""trial"",""time""
""focus"",""0"",""1814""
","""event"",""trial"",""time""
""fullscreenenter"",""0"",""5860""
","
","1245.1000000089407","<div class='center'><p>That's correct!</p><p><b>[Press the space bar to continue]</b></p></div>","32","","","","","","","","","","","","","","","","","","","","","","",""
"","audio-keyboard-response","84","538786","0.0-51.0-2.0","""event"",""trial"",""time""
""blur"",""0"",""615""
""focus"",""0"",""1814""
""fullscreenenter"",""0"",""5860""
","""event"",""trial"",""time""
""blur"",""0"",""615""
","""event"",""trial"",""time""
""focus"",""0"",""1814""
","""event"",""trial"",""time""
""fullscreenenter"",""0"",""5860""
","
","4932.9000000059605","run_exp/static/audio/clip_24_q4.m4a","49","","","","","","","","","","","","","","","","","","","","","","",""
"","correct","85","541613","0.0-52.0-0.0","""event"",""trial"",""time""
""blur"",""0"",""615""
""focus"",""0"",""1814""
""fullscreenenter"",""0"",""5860""
","""event"",""trial"",""time""
""blur"",""0"",""615""
","""event"",""trial"",""time""
""focus"",""0"",""1814""
","""event"",""trial"",""time""
""fullscreenenter"",""0"",""5860""
","
","null","run_exp/static/audio/clip_18_correct.m4a","null","","","","","<div class='center'><p>That's correct!</p></div>","","","","","","","","","","","","","","","","","",""
"","html-keyboard-response","86","543411","0.0-52.0-1.0","""event"",""trial"",""time""
""blur"",""0"",""615""
""focus"",""0"",""1814""
""fullscreenenter"",""0"",""5860""
","""event"",""trial"",""time""
""blur"",""0"",""615""
","""event"",""trial"",""time""
""focus"",""0"",""1814""
","""event"",""trial"",""time""
""fullscreenenter"",""0"",""5860""
","
","1795.4000000059605","<div class='center'><p>That's correct!</p><p><b>[Press the space bar to continue]</b></p></div>","32","","","","","","","","","","","","","","","","","","","","","","",""
"","q_all_corr","87","552202","0.0-53.0-0.0","""event"",""trial"",""time""
""blur"",""0"",""615""
""focus"",""0"",""1814""
""fullscreenenter"",""0"",""5860""
","""event"",""trial"",""time""
""blur"",""0"",""615""
","""event"",""trial"",""time""
""focus"",""0"",""1814""
","""event"",""trial"",""time""
""fullscreenenter"",""0"",""5860""
","
","null","run_exp/static/audio/clip_27_quiz_all_correct.m4a","null","","","","","<div class='center'><p>Good job! You’re now ready to move on to the real game! Remember this game will be difficult but don't get discouraged and try your best!</p></div>","","","","","","","","","","","","","","","","","",""
"","html-keyboard-response","88","554474","0.0-53.0-1.0","""event"",""trial"",""time""
""blur"",""0"",""615""
""focus"",""0"",""1814""
""fullscreenenter"",""0"",""5860""
","""event"",""trial"",""time""
""blur"",""0"",""615""
","""event"",""trial"",""time""
""focus"",""0"",""1814""
","""event"",""trial"",""time""
""fullscreenenter"",""0"",""5860""
","
","2269.2999999970198","<div class='center'><p>Good job! You’re now ready to move on to the real game! Remember this game will be difficult but don't get discouraged and try your best!</p><p><b>[Press the space bar to continue]</b></p></div>","32","","","","","","","","","","","","","","","","","","","","","","",""
"","do_welcome","89","558484","0.0-54.0-0.0","""event"",""trial"",""time""
""blur"",""0"",""615""
""focus"",""0"",""1814""
""fullscreenenter"",""0"",""5860""
","""event"",""trial"",""time""
""blur"",""0"",""615""
","""event"",""trial"",""time""
""focus"",""0"",""1814""
","""event"",""trial"",""time""
""fullscreenenter"",""0"",""5860""
","
","null","","","","","","","","null","","","","","","","","","","","","","","","","",""
"","do_trial","90","565630","0.0-55.0-0.0","""event"",""trial"",""time""
""blur"",""0"",""615""
""focus"",""0"",""1814""
""fullscreenenter"",""0"",""5860""
","""event"",""trial"",""time""
""blur"",""0"",""615""
","""event"",""trial"",""time""
""focus"",""0"",""1814""
","""event"",""trial"",""time""
""fullscreenenter"",""0"",""5860""
","
","2584.800000011921","","","","","","","","49","1,0,0","0","highway","0","probe-181","0.6","0.3","0.1","1","","","","","","","",""
"","html-keyboard-response","91","566633","0.0-55.0-1.0","""event"",""trial"",""time""
""blur"",""0"",""615""
""focus"",""0"",""1814""
""fullscreenenter"",""0"",""5860""
","""event"",""trial"",""time""
""blur"",""0"",""615""
","""event"",""trial"",""time""
""focus"",""0"",""1814""
","""event"",""trial"",""time""
""fullscreenenter"",""0"",""5860""
","
","null","<p></p>","null","","","","","","","","","","","","","","","","","","","","","","",""
"","do_trial","92","573919","0.0-56.0-0.0","""event"",""trial"",""time""
""blur"",""0"",""615""
""focus"",""0"",""1814""
""fullscreenenter"",""0"",""5860""
","""event"",""trial"",""time""
""blur"",""0"",""615""
","""event"",""trial"",""time""
""focus"",""0"",""1814""
","""event"",""trial"",""time""
""fullscreenenter"",""0"",""5860""
","
","2726.6000000089407","","","","","","","","49","0,0,0","0","highway","1","probe-86","0.5039174546332055","0.2706213189721605","0.12780587339969693","0","","","","","","","",""
"","html-keyboard-response","93","574921","0.0-56.0-1.0","""event"",""trial"",""time""
""blur"",""0"",""615""
""focus"",""0"",""1814""
""fullscreenenter"",""0"",""5860""
","""event"",""trial"",""time""
""blur"",""0"",""615""
","""event"",""trial"",""time""
""focus"",""0"",""1814""
","""event"",""trial"",""time""
""fullscreenenter"",""0"",""5860""
","
","null","<p></p>","null","","","","","","","","","","","","","","","","","","","","","","",""
"","do_trial","94","581322","0.0-57.0-0.0","""event"",""trial"",""time""
""blur"",""0"",""615""
""focus"",""0"",""1814""
""fullscreenenter"",""0"",""5860""
","""event"",""trial"",""time""
""blur"",""0"",""615""
","""event"",""trial"",""time""
""focus"",""0"",""1814""
","""event"",""trial"",""time""
""fullscreenenter"",""0"",""5860""
","
","1837.2999999970198","","","","","","","","50","0,0,0","0","highway","2","probe-46","0.5041239120058171","0.29252891224522126","0.19827096281170334","0","","","","","","","",""
"","html-keyboard-response","95","582324","0.0-57.0-1.0","""event"",""trial"",""time""
""blur"",""0"",""615""
""focus"",""0"",""1814""
""fullscreenenter"",""0"",""5860""
","""event"",""trial"",""time""
""blur"",""0"",""615""
","""event"",""trial"",""time""
""focus"",""0"",""1814""
","""event"",""trial"",""time""
""fullscreenenter"",""0"",""5860""
","
","null","<p></p>","null","","","","","","","","","","","","","","","","","","","","","","",""
"","do_trial","96","588127","0.0-58.0-0.0","""event"",""trial"",""time""
""blur"",""0"",""615""
""focus"",""0"",""1814""
""fullscreenenter"",""0"",""5860""
","""event"",""trial"",""time""
""blur"",""0"",""615""
","""event"",""trial"",""time""
""focus"",""0"",""1814""
","""event"",""trial"",""time""
""fullscreenenter"",""0"",""5860""
","
","1243.5","","","","","","","","51","1,1,0","0","highway","3","probe-106","0.5443348979376635","0.2775599048570829","0.25539000707300374","0","","","","","","","",""
"","html-keyboard-response","97","589129","0.0-58.0-1.0","""event"",""trial"",""time""
""blur"",""0"",""615""
""focus"",""0"",""1814""
""fullscreenenter"",""0"",""5860""
","""event"",""trial"",""time""
""blur"",""0"",""615""
","""event"",""trial"",""time""
""focus"",""0"",""1814""
","""event"",""trial"",""time""
""fullscreenenter"",""0"",""5860""
","
","null","<p></p>","null","","","","","","","","","","","","","","","","","","","","","","",""
"","do_trial","98","594999","0.0-59.0-0.0","""event"",""trial"",""time""
""blur"",""0"",""615""
""focus"",""0"",""1814""
""fullscreenenter"",""0"",""5860""
","""event"",""trial"",""time""
""blur"",""0"",""615""
","""event"",""trial"",""time""
""focus"",""0"",""1814""
","""event"",""trial"",""time""
""fullscreenenter"",""0"",""5860""
","
","1310.2000000029802","","","","","","","","49","1,1,0","0","highway","4","probe-138","0.5716113018172202","0.29203960055853534","0.18948457736846827","1","","","","","","","",""
"","html-keyboard-response","99","596001","0.0-59.0-1.0","""event"",""trial"",""time""
""blur"",""0"",""615""
""focus"",""0"",""1814""
""fullscreenenter"",""0"",""5860""
","""event"",""trial"",""time""
""blur"",""0"",""615""
","""event"",""trial"",""time""
""focus"",""0"",""1814""
","""event"",""trial"",""time""
""fullscreenenter"",""0"",""5860""
","
","null","<p></p>","null","","","","","","","","","","","","","","","","","","","","","","",""
"","do_trial","100","602494","0.0-60.0-0.0","""event"",""trial"",""time""
""blur"",""0"",""615""
""focus"",""0"",""1814""
""fullscreenenter"",""0"",""5860""
","""event"",""trial"",""time""
""blur"",""0"",""615""
","""event"",""trial"",""time""
""focus"",""0"",""1814""
","""event"",""trial"",""time""
""fullscreenenter"",""0"",""5860""
","
","1932.4000000059605","","","","","","","","50","1,0,1","0","highway","5","probe-28","0.7912316960133988","0.13912811494766536","0.2502021076493764","0","","","","","","","",""
"","html-keyboard-response","101","603497","0.0-60.0-1.0","""event"",""trial"",""time""
""blur"",""0"",""615""
""focus"",""0"",""1814""
""fullscreenenter"",""0"",""5860""
","""event"",""trial"",""time""
""blur"",""0"",""615""
","""event"",""trial"",""time""
""focus"",""0"",""1814""
","""event"",""trial"",""time""
""fullscreenenter"",""0"",""5860""
","
","null","<p></p>","null","","","","","","","","","","","","","","","","","","","","","","",""
"","do_trial","102","608871","0.0-61.0-0.0","""event"",""trial"",""time""
""blur"",""0"",""615""
""focus"",""0"",""1814""
""fullscreenenter"",""0"",""5860""
","""event"",""trial"",""time""
""blur"",""0"",""615""
","""event"",""trial"",""time""
""focus"",""0"",""1814""
","""event"",""trial"",""time""
""fullscreenenter"",""0"",""5860""
","
","815.4000000059605","","","","","","","","51","1,0,1","0","highway","6","probe-97","0.8748371343576165","0.15971662781531445","0.24751894829841184","1","","","","","","","",""
"","html-keyboard-response","103","609873","0.0-61.0-1.0","""event"",""trial"",""time""
""blur"",""0"",""615""
""focus"",""0"",""1814""
""fullscreenenter"",""0"",""5860""
","""event"",""trial"",""time""
""blur"",""0"",""615""
","""event"",""trial"",""time""
""focus"",""0"",""1814""
","""event"",""trial"",""time""
""fullscreenenter"",""0"",""5860""
","
","null","<p></p>","null","","","","","","","","","","","","","","","","","","","","","","",""
"","do_trial","104","615373","0.0-62.0-0.0","""event"",""trial"",""time""
""blur"",""0"",""615""
""focus"",""0"",""1814""
""fullscreenenter"",""0"",""5860""
","""event"",""trial"",""time""
""blur"",""0"",""615""
","""event"",""trial"",""time""
""focus"",""0"",""1814""
","""event"",""trial"",""time""
""fullscreenenter"",""0"",""5860""
","
","942.5","","","","","","","","49","1,0,0","0","highway","7","probe-27","0.8737667995759302","0.16336588035373636","0.18916519349055058","1","","","","","","","",""
"","html-keyboard-response","105","616375","0.0-62.0-1.0","""event"",""trial"",""time""
""blur"",""0"",""615""
""focus"",""0"",""1814""
""fullscreenenter"",""0"",""5860""
","""event"",""trial"",""time""
""blur"",""0"",""615""
","""event"",""trial"",""time""
""focus"",""0"",""1814""
","""event"",""trial"",""time""
""fullscreenenter"",""0"",""5860""
","
","null","<p></p>","null","","","","","","","","","","","","","","","","","","","","","","",""
"","do_trial","106","621954","0.0-63.0-0.0","""event"",""trial"",""time""
""blur"",""0"",""615""
""focus"",""0"",""1814""
""fullscreenenter"",""0"",""5860""
","""event"",""trial"",""time""
""blur"",""0"",""615""
","""event"",""trial"",""time""
""focus"",""0"",""1814""
","""event"",""trial"",""time""
""fullscreenenter"",""0"",""5860""
","
","1020.6999999880791","","","","","","","","50","0,1,0","0","highway","8","probe-32","0.6835303223086848","0.18098748677648807","0.1714314788466423","1","","","","","","","",""
"","html-keyboard-response","107","622957","0.0-63.0-1.0","""event"",""trial"",""time""
""blur"",""0"",""615""
""focus"",""0"",""1814""
""fullscreenenter"",""0"",""5860""
","""event"",""trial"",""time""
""blur"",""0"",""615""
","""event"",""trial"",""time""
""focus"",""0"",""1814""
","""event"",""trial"",""time""
""fullscreenenter"",""0"",""5860""
","
","null","<p></p>","null","","","","","","","","","","","","","","","","","","","","","","",""
"","do_trial","108","628395","0.0-64.0-0.0","""event"",""trial"",""time""
""blur"",""0"",""615""
""focus"",""0"",""1814""
""fullscreenenter"",""0"",""5860""
","""event"",""trial"",""time""
""blur"",""0"",""615""
","""event"",""trial"",""time""
""focus"",""0"",""1814""
","""event"",""trial"",""time""
""fullscreenenter"",""0"",""5860""
","
","878.5999999940395","","","","","","","","51","1,1,0","0","highway","9","probe-131","0.6222003891995702","0.3318479431021197","0.19887657136890355","0","","","","","","","",""
"","html-keyboard-response","109","629397","0.0-64.0-1.0","""event"",""trial"",""time""
""blur"",""0"",""615""
""focus"",""0"",""1814""
""fullscreenenter"",""0"",""5860""
","""event"",""trial"",""time""
""blur"",""0"",""615""
","""event"",""trial"",""time""
""focus"",""0"",""1814""
","""event"",""trial"",""time""
""fullscreenenter"",""0"",""5860""
","
","null","<p></p>","null","","","","","","","","","","","","","","","","","","","","","","",""
"","do_trial","110","634627","0.0-65.0-0.0","""event"",""trial"",""time""
""blur"",""0"",""615""
""focus"",""0"",""1814""
""fullscreenenter"",""0"",""5860""
","""event"",""trial"",""time""
""blur"",""0"",""615""
","""event"",""trial"",""time""
""focus"",""0"",""1814""
","""event"",""trial"",""time""
""fullscreenenter"",""0"",""5860""
","
","670.5","","","","","","","","49","1,1,0","0","highway","10","probe-67","0.6234997347565064","0.3703462918960024","0.11221744116896058","1","","","","","","","",""
"","html-keyboard-response","111","635629","0.0-65.0-1.0","""event"",""trial"",""time""
""blur"",""0"",""615""
""focus"",""0"",""1814""
""fullscreenenter"",""0"",""5860""
","""event"",""trial"",""time""
""blur"",""0"",""615""
","""event"",""trial"",""time""
""focus"",""0"",""1814""
","""event"",""trial"",""time""
""fullscreenenter"",""0"",""5860""
","
","null","<p></p>","null","","","","","","","","","","","","","","","","","","","","","","",""
"","do_trial","112","642211","0.0-66.0-0.0","""event"",""trial"",""time""
""blur"",""0"",""615""
""focus"",""0"",""1814""
""fullscreenenter"",""0"",""5860""
","""event"",""trial"",""time""
""blur"",""0"",""615""
","""event"",""trial"",""time""
""focus"",""0"",""1814""
","""event"",""trial"",""time""
""fullscreenenter"",""0"",""5860""
","
","2024.2999999970198","","","","","","","","50","1,0,0","0","highway","11","probe-177","0.8122386681811012","0.28779812389811144","0.18678784799359466","0","","","","","","","",""
"","html-keyboard-response","113","643213","0.0-66.0-1.0","""event"",""trial"",""time""
""blur"",""0"",""615""
""focus"",""0"",""1814""
""fullscreenenter"",""0"",""5860""
","""event"",""trial"",""time""
""blur"",""0"",""615""
","""event"",""trial"",""time""
""focus"",""0"",""1814""
","""event"",""trial"",""time""
""fullscreenenter"",""0"",""5860""
","
","null","<p></p>","null","","","","","","","","","","","","","","","","","","","","","","",""
"","do_trial","114","648434","0.0-67.0-0.0","""event"",""trial"",""time""
""blur"",""0"",""615""
""focus"",""0"",""1814""
""fullscreenenter"",""0"",""5860""
","""event"",""trial"",""time""
""blur"",""0"",""615""
","""event"",""trial"",""time""
""focus"",""0"",""1814""
","""event"",""trial"",""time""
""fullscreenenter"",""0"",""5860""
","
","661.0999999940395","","","","","","","","51","1,1,0","0","highway","12","probe-214","0.8401253850503835","0.30088410344028294","0.1512187508989272","0","","","","","","","",""
"","html-keyboard-response","115","649436","0.0-67.0-1.0","""event"",""trial"",""time""
""blur"",""0"",""615""
""focus"",""0"",""1814""
""fullscreenenter"",""0"",""5860""
","""event"",""trial"",""time""
""blur"",""0"",""615""
","""event"",""trial"",""time""
""focus"",""0"",""1814""
","""event"",""trial"",""time""
""fullscreenenter"",""0"",""5860""
","
","null","<p></p>","null","","","","","","","","","","","","","","","","","","","","","","",""
"","do_trial","116","654443","0.0-68.0-0.0","""event"",""trial"",""time""
""blur"",""0"",""615""
""focus"",""0"",""1814""
""fullscreenenter"",""0"",""5860""
","""event"",""trial"",""time""
""blur"",""0"",""615""
","""event"",""trial"",""time""
""focus"",""0"",""1814""
","""event"",""trial"",""time""
""fullscreenenter"",""0"",""5860""
","
","450.70000000298023","","","","","","","","49","1,0,0","0","highway","13","probe-196","0.8034656887830662","0.22741161176939778","0.10187710041029935","1","","","","","","","",""
"","html-keyboard-response","117","655445","0.0-68.0-1.0","""event"",""trial"",""time""
""blur"",""0"",""615""
""focus"",""0"",""1814""
""fullscreenenter"",""0"",""5860""
","""event"",""trial"",""time""
""blur"",""0"",""615""
","""event"",""trial"",""time""
""focus"",""0"",""1814""
","""event"",""trial"",""time""
""fullscreenenter"",""0"",""5860""
","
","null","<p></p>","null","","","","","","","","","","","","","","","","","","","","","","",""
"","do_trial","118","660899","0.0-69.0-0.0","""event"",""trial"",""time""
""blur"",""0"",""615""
""focus"",""0"",""1814""
""fullscreenenter"",""0"",""5860""
","""event"",""trial"",""time""
""blur"",""0"",""615""
","""event"",""trial"",""time""
""focus"",""0"",""1814""
","""event"",""trial"",""time""
""fullscreenenter"",""0"",""5860""
","
","896.7999999970198","","","","","","","","50","1,0,1","0","highway","14","probe-91","0.8853365346851794","0.4079815865101435","0.11855165513910201","0","","","","","","","",""
"","html-keyboard-response","119","661901","0.0-69.0-1.0","""event"",""trial"",""time""
""blur"",""0"",""615""
""focus"",""0"",""1814""
""fullscreenenter"",""0"",""5860""
","""event"",""trial"",""time""
""blur"",""0"",""615""
","""event"",""trial"",""time""
""focus"",""0"",""1814""
","""event"",""trial"",""time""
""fullscreenenter"",""0"",""5860""
","
","null","<p></p>","null","","","","","","","","","","","","","","","","","","","","","","",""
"","do_trial","120","667376","0.0-70.0-0.0","""event"",""trial"",""time""
""blur"",""0"",""615""
""focus"",""0"",""1814""
""fullscreenenter"",""0"",""5860""
","""event"",""trial"",""time""
""blur"",""0"",""615""
","""event"",""trial"",""time""
""focus"",""0"",""1814""
","""event"",""trial"",""time""
""fullscreenenter"",""0"",""5860""
","
","915.5","","","","","","","","51","1,0,1","0","highway","15","probe-68","0.7835674654296204","0.36087195644058395","0.301826506538871","1","","","","","","","",""
"","html-keyboard-response","121","668378","0.0-70.0-1.0","""event"",""trial"",""time""
""blur"",""0"",""615""
""focus"",""0"",""1814""
""fullscreenenter"",""0"",""5860""
","""event"",""trial"",""time""
""blur"",""0"",""615""
","""event"",""trial"",""time""
""focus"",""0"",""1814""
","""event"",""trial"",""time""
""fullscreenenter"",""0"",""5860""
","
","null","<p></p>","null","","","","","","","","","","","","","","","","","","","","","","",""
"","do_trial","122","674583","0.0-71.0-0.0","""event"",""trial"",""time""
""blur"",""0"",""615""
""focus"",""0"",""1814""
""fullscreenenter"",""0"",""5860""
","""event"",""trial"",""time""
""blur"",""0"",""615""
","""event"",""trial"",""time""
""focus"",""0"",""1814""
","""event"",""trial"",""time""
""fullscreenenter"",""0"",""5860""
","
","1648.0999999940395","","","","","","","","49","1,0,0","0","highway","16","probe-216","0.7936311453138416","0.43186844133686675","0.22855960738012787","1","","","","","","","",""
"","html-keyboard-response","123","675586","0.0-71.0-1.0","""event"",""trial"",""time""
""blur"",""0"",""615""
""focus"",""0"",""1814""
""fullscreenenter"",""0"",""5860""
","""event"",""trial"",""time""
""blur"",""0"",""615""
","""event"",""trial"",""time""
""focus"",""0"",""1814""
","""event"",""trial"",""time""
""fullscreenenter"",""0"",""5860""
","
","null","<p></p>","null","","","","","","","","","","","","","","","","","","","","","","",""
"","do_trial","124","680877","0.0-72.0-0.0","""event"",""trial"",""time""
""blur"",""0"",""615""
""focus"",""0"",""1814""
""fullscreenenter"",""0"",""5860""
","""event"",""trial"",""time""
""blur"",""0"",""615""
","""event"",""trial"",""time""
""focus"",""0"",""1814""
","""event"",""trial"",""time""
""fullscreenenter"",""0"",""5860""
","
","732.8000000119209","","","","","","","","50","1,1,0","0","highway","17","probe-64","0.772642496222721","0.4003105779869299","0.12904740750721708","1","","","","","","","",""
"","html-keyboard-response","125","681879","0.0-72.0-1.0","""event"",""trial"",""time""
""blur"",""0"",""615""
""focus"",""0"",""1814""
""fullscreenenter"",""0"",""5860""
","""event"",""trial"",""time""
""blur"",""0"",""615""
","""event"",""trial"",""time""
""focus"",""0"",""1814""
","""event"",""trial"",""time""
""fullscreenenter"",""0"",""5860""
","
","null","<p></p>","null","","","","","","","","","","","","","","","","","","","","","","",""
"","do_trial","126","687121","0.0-73.0-0.0","""event"",""trial"",""time""
""blur"",""0"",""615""
""focus"",""0"",""1814""
""fullscreenenter"",""0"",""5860""
","""event"",""trial"",""time""
""blur"",""0"",""615""
","""event"",""trial"",""time""
""focus"",""0"",""1814""
","""event"",""trial"",""time""
""fullscreenenter"",""0"",""5860""
","
","685.5999999940395","","","","","","","","51","1,1,0","0","highway","18","probe-159","0.6503050006014683","0.3727657793484294","0.1577961762691475","0","","","","","","","",""
"","html-keyboard-response","127","688123","0.0-73.0-1.0","""event"",""trial"",""time""
""blur"",""0"",""615""
""focus"",""0"",""1814""
""fullscreenenter"",""0"",""5860""
","""event"",""trial"",""time""
""blur"",""0"",""615""
","""event"",""trial"",""time""
""focus"",""0"",""1814""
","""event"",""trial"",""time""
""fullscreenenter"",""0"",""5860""
","
","null","<p></p>","null","","","","","","","","","","","","","","","","","","","","","","",""
"","do_trial","128","693384","0.0-74.0-0.0","""event"",""trial"",""time""
""blur"",""0"",""615""
""focus"",""0"",""1814""
""fullscreenenter"",""0"",""5860""
","""event"",""trial"",""time""
""blur"",""0"",""615""
","""event"",""trial"",""time""
""focus"",""0"",""1814""
","""event"",""trial"",""time""
""fullscreenenter"",""0"",""5860""
","
","703.3999999910593","","","","","","","","49","1,1,0","0","highway","19","probe-161","0.608672827952525","0.4076319085366143","0.2026792502149188","1","","","","","","","",""
"","html-keyboard-response","129","694387","0.0-74.0-1.0","""event"",""trial"",""time""
""blur"",""0"",""615""
""focus"",""0"",""1814""
""fullscreenenter"",""0"",""5860""
","""event"",""trial"",""time""
""blur"",""0"",""615""
","""event"",""trial"",""time""
""focus"",""0"",""1814""
","""event"",""trial"",""time""
""fullscreenenter"",""0"",""5860""
","
","null","<p></p>","null","","","","","","","","","","","","","","","","","","","","","","",""
"","do_trial","130","699565","0.0-75.0-0.0","""event"",""trial"",""time""
""blur"",""0"",""615""
""focus"",""0"",""1814""
""fullscreenenter"",""0"",""5860""
","""event"",""trial"",""time""
""blur"",""0"",""615""
","""event"",""trial"",""time""
""focus"",""0"",""1814""
","""event"",""trial"",""time""
""fullscreenenter"",""0"",""5860""
","
","619","","","","","","","","50","1,0,0","0","highway","20","probe-173","0.6975710225653277","0.3269148482834976","0.11403817551509499","0","","","","","","","",""
"","html-keyboard-response","131","700567","0.0-75.0-1.0","""event"",""trial"",""time""
""blur"",""0"",""615""
""focus"",""0"",""1814""
""fullscreenenter"",""0"",""5860""
","""event"",""trial"",""time""
""blur"",""0"",""615""
","""event"",""trial"",""time""
""focus"",""0"",""1814""
","""event"",""trial"",""time""
""fullscreenenter"",""0"",""5860""
","
","null","<p></p>","null","","","","","","","","","","","","","","","","","","","","","","",""
"","do_trial","132","706167","0.0-76.0-0.0","""event"",""trial"",""time""
""blur"",""0"",""615""
""focus"",""0"",""1814""
""fullscreenenter"",""0"",""5860""
","""event"",""trial"",""time""
""blur"",""0"",""615""
","""event"",""trial"",""time""
""focus"",""0"",""1814""
","""event"",""trial"",""time""
""fullscreenenter"",""0"",""5860""
","
","1040","","","","","","","","51","0,0,0","0","highway","21","probe-176","0.6141750194253076","0.20744913292576989","0.16772347872232707","0","","","","","","","",""
"","html-keyboard-response","133","707169","0.0-76.0-1.0","""event"",""trial"",""time""
""blur"",""0"",""615""
""focus"",""0"",""1814""
""fullscreenenter"",""0"",""5860""
","""event"",""trial"",""time""
""blur"",""0"",""615""
","""event"",""trial"",""time""
""focus"",""0"",""1814""
","""event"",""trial"",""time""
""fullscreenenter"",""0"",""5860""
","
","null","<p></p>","null","","","","","","","","","","","","","","","","","","","","","","",""
"","do_trial","134","713367","0.0-77.0-0.0","""event"",""trial"",""time""
""blur"",""0"",""615""
""focus"",""0"",""1814""
""fullscreenenter"",""0"",""5860""
","""event"",""trial"",""time""
""blur"",""0"",""615""
","""event"",""trial"",""time""
""focus"",""0"",""1814""
","""event"",""trial"",""time""
""fullscreenenter"",""0"",""5860""
","
","1638.6000000089407","","","","","","","","49","0,0,1","0","highway","22","probe-154","0.6543713899216097","0.21495020465859874","0.14982528148376473","0","","","","","","","",""
"","html-keyboard-response","135","714369","0.0-77.0-1.0","""event"",""trial"",""time""
""blur"",""0"",""615""
""focus"",""0"",""1814""
""fullscreenenter"",""0"",""5860""
","""event"",""trial"",""time""
""blur"",""0"",""615""
","""event"",""trial"",""time""
""focus"",""0"",""1814""
","""event"",""trial"",""time""
""fullscreenenter"",""0"",""5860""
","
","null","<p></p>","null","","","","","","","","","","","","","","","","","","","","","","",""
"","do_trial","136","720213","0.0-78.0-0.0","""event"",""trial"",""time""
""blur"",""0"",""615""
""focus"",""0"",""1814""
""fullscreenenter"",""0"",""5860""
","""event"",""trial"",""time""
""blur"",""0"",""615""
","""event"",""trial"",""time""
""focus"",""0"",""1814""
","""event"",""trial"",""time""
""fullscreenenter"",""0"",""5860""
","
","1286.2999999970198","","","","","","","","50","1,0,0","0","highway","23","probe-99","0.5804768935672526","0.1139272091245772","0.14894768627066335","0","","","","","","","",""
"","html-keyboard-response","137","721215","0.0-78.0-1.0","""event"",""trial"",""time""
""blur"",""0"",""615""
""focus"",""0"",""1814""
""fullscreenenter"",""0"",""5860""
","""event"",""trial"",""time""
""blur"",""0"",""615""
","""event"",""trial"",""time""
""focus"",""0"",""1814""
","""event"",""trial"",""time""
""fullscreenenter"",""0"",""5860""
","
","null","<p></p>","null","","","","","","","","","","","","","","","","","","","","","","",""
"","do_trial","138","726360","0.0-79.0-0.0","""event"",""trial"",""time""
""blur"",""0"",""615""
""focus"",""0"",""1814""
""fullscreenenter"",""0"",""5860""
","""event"",""trial"",""time""
""blur"",""0"",""615""
","""event"",""trial"",""time""
""focus"",""0"",""1814""
","""event"",""trial"",""time""
""fullscreenenter"",""0"",""5860""
","
","587.0999999940395","","","","","","","","51","0,0,0","0","highway","24","probe-114","0.515617802888364","0.129764822355517","0.0640161365492096","0","","","","","","","",""
"","html-keyboard-response","139","727363","0.0-79.0-1.0","""event"",""trial"",""time""
""blur"",""0"",""615""
""focus"",""0"",""1814""
""fullscreenenter"",""0"",""5860""
","""event"",""trial"",""time""
""blur"",""0"",""615""
","""event"",""trial"",""time""
""focus"",""0"",""1814""
","""event"",""trial"",""time""
""fullscreenenter"",""0"",""5860""
","
","null","<p></p>","null","","","","","","","","","","","","","","","","","","","","","","",""
"","do_trial","140","732669","0.0-80.0-0.0","""event"",""trial"",""time""
""blur"",""0"",""615""
""focus"",""0"",""1814""
""fullscreenenter"",""0"",""5860""
","""event"",""trial"",""time""
""blur"",""0"",""615""
","""event"",""trial"",""time""
""focus"",""0"",""1814""
","""event"",""trial"",""time""
""fullscreenenter"",""0"",""5860""
","
","747.5","","","","","","","","49","0,1,0","0","highway","25","probe-03","0.560588670327519","0.25261706311424886","0.10580040410593375","0","","","","","","","",""
"","html-keyboard-response","141","733671","0.0-80.0-1.0","""event"",""trial"",""time""
""blur"",""0"",""615""
""focus"",""0"",""1814""
""fullscreenenter"",""0"",""5860""
","""event"",""trial"",""time""
""blur"",""0"",""615""
","""event"",""trial"",""time""
""focus"",""0"",""1814""
","""event"",""trial"",""time""
""fullscreenenter"",""0"",""5860""
","
","null","<p></p>","null","","","","","","","","","","","","","","","","","","","","","","",""
"","do_trial","142","739099","0.0-81.0-0.0","""event"",""trial"",""time""
""blur"",""0"",""615""
""focus"",""0"",""1814""
""fullscreenenter"",""0"",""5860""
","""event"",""trial"",""time""
""blur"",""0"",""615""
","""event"",""trial"",""time""
""focus"",""0"",""1814""
","""event"",""trial"",""time""
""fullscreenenter"",""0"",""5860""
","
","870.0999999940395","","","","","","","","50","1,0,0","0","highway","26","probe-40","0.554518186502767","0.07768663341002142","0.10171675929547243","0","","","","","","","",""
"","html-keyboard-response","143","740101","0.0-81.0-1.0","""event"",""trial"",""time""
""blur"",""0"",""615""
""focus"",""0"",""1814""
""fullscreenenter"",""0"",""5860""
","""event"",""trial"",""time""
""blur"",""0"",""615""
","""event"",""trial"",""time""
""focus"",""0"",""1814""
","""event"",""trial"",""time""
""fullscreenenter"",""0"",""5860""
","
","null","<p></p>","null","","","","","","","","","","","","","","","","","","","","","","",""
"","do_trial","144","745800","0.0-82.0-0.0","""event"",""trial"",""time""
""blur"",""0"",""615""
""focus"",""0"",""1814""
""fullscreenenter"",""0"",""5860""
","""event"",""trial"",""time""
""blur"",""0"",""615""
","""event"",""trial"",""time""
""focus"",""0"",""1814""
","""event"",""trial"",""time""
""fullscreenenter"",""0"",""5860""
","
","1141.7000000029802","","","","","","","","51","0,0,1","0","highway","27","probe-126","0.49316439948180835","0.10910750050763106","0.12381523347963379","1","","","","","","","",""
"","html-keyboard-response","145","746803","0.0-82.0-1.0","""event"",""trial"",""time""
""blur"",""0"",""615""
""focus"",""0"",""1814""
""fullscreenenter"",""0"",""5860""
","""event"",""trial"",""time""
""blur"",""0"",""615""
","""event"",""trial"",""time""
""focus"",""0"",""1814""
","""event"",""trial"",""time""
""fullscreenenter"",""0"",""5860""
","
","null","<p></p>","null","","","","","","","","","","","","","","","","","","","","","","",""
"","do_trial","146","752837","0.0-83.0-0.0","""event"",""trial"",""time""
""blur"",""0"",""615""
""focus"",""0"",""1814""
""fullscreenenter"",""0"",""5860""
","""event"",""trial"",""time""
""blur"",""0"",""615""
","""event"",""trial"",""time""
""focus"",""0"",""1814""
","""event"",""trial"",""time""
""fullscreenenter"",""0"",""5860""
","
","1475.8999999910593","","","","","","","","49","1,1,0","0","highway","28","probe-192","0.528369017475436","0.2601920848449087","0.1360101907430837","1","","","","","","","",""
"","html-keyboard-response","147","753839","0.0-83.0-1.0","""event"",""trial"",""time""
""blur"",""0"",""615""
""focus"",""0"",""1814""
""fullscreenenter"",""0"",""5860""
","""event"",""trial"",""time""
""blur"",""0"",""615""
","""event"",""trial"",""time""
""focus"",""0"",""1814""
","""event"",""trial"",""time""
""fullscreenenter"",""0"",""5860""
","
","null","<p></p>","null","","","","","","","","","","","","","","","","","","","","","","",""
"","do_trial","148","759572","0.0-84.0-0.0","""event"",""trial"",""time""
""blur"",""0"",""615""
""focus"",""0"",""1814""
""fullscreenenter"",""0"",""5860""
","""event"",""trial"",""time""
""blur"",""0"",""615""
","""event"",""trial"",""time""
""focus"",""0"",""1814""
","""event"",""trial"",""time""
""fullscreenenter"",""0"",""5860""
","
","1173.9000000059605","","","","","","","","50","1,1,0","0","highway","29","probe-63","0.4599888492005698","0.3471756164541599","0.11631193299129232","1","","","","","","","",""
"","html-keyboard-response","149","760574","0.0-84.0-1.0","""event"",""trial"",""time""
""blur"",""0"",""615""
""focus"",""0"",""1814""
""fullscreenenter"",""0"",""5860""
","""event"",""trial"",""time""
""blur"",""0"",""615""
","""event"",""trial"",""time""
""focus"",""0"",""1814""
","""event"",""trial"",""time""
""fullscreenenter"",""0"",""5860""
","
","null","<p></p>","null","","","","","","","","","","","","","","","","","","","","","","",""
"","do_bye","150","762082","0.0-85.0-0.0","""event"",""trial"",""time""
""blur"",""0"",""615""
""focus"",""0"",""1814""
""fullscreenenter"",""0"",""5860""
","""event"",""trial"",""time""
""blur"",""0"",""615""
","""event"",""trial"",""time""
""focus"",""0"",""1814""
","""event"",""trial"",""time""
""fullscreenenter"",""0"",""5860""
","
","null","","","","","","","","null","","","","","","","","","","","","","","","","",""
"","break","151","776506","0.0-85.0-1.0","""event"",""trial"",""time""
""blur"",""0"",""615""
""focus"",""0"",""1814""
""fullscreenenter"",""0"",""5860""
","""event"",""trial"",""time""
""blur"",""0"",""615""
","""event"",""trial"",""time""
""focus"",""0"",""1814""
","""event"",""trial"",""time""
""fullscreenenter"",""0"",""5860""
","
","14421.800000011921","<div class='center'><p>Time to take a quick break! You have 2 minutes to rest, but you can move on sooner if you'd like.</p><p> Press the <b>space bar</b> to continue.</p></div>","32","","","","","","","","","","","","","","","","","","","","","","",""
"","do_travel","152","785511","0.0-86.0-0.0","""event"",""trial"",""time""
""blur"",""0"",""615""
""focus"",""0"",""1814""
""fullscreenenter"",""0"",""5860""
","""event"",""trial"",""time""
""blur"",""0"",""615""
","""event"",""trial"",""time""
""focus"",""0"",""1814""
","""event"",""trial"",""time""
""fullscreenenter"",""0"",""5860""
","
","null","","","","","","","","null","","","","","","","","","","","","","","","","",""
"","do_welcome","153","789521","0.0-86.0-1.0","""event"",""trial"",""time""
""blur"",""0"",""615""
""focus"",""0"",""1814""
""fullscreenenter"",""0"",""5860""
","""event"",""trial"",""time""
""blur"",""0"",""615""
","""event"",""trial"",""time""
""focus"",""0"",""1814""
","""event"",""trial"",""time""
""fullscreenenter"",""0"",""5860""
","
","null","","","","","","","","null","","","","","","","","","","","","","","","","",""
"","do_trial","154","796223","0.0-87.0-0.0","""event"",""trial"",""time""
""blur"",""0"",""615""
""focus"",""0"",""1814""
""fullscreenenter"",""0"",""5860""
","""event"",""trial"",""time""
""blur"",""0"",""615""
","""event"",""trial"",""time""
""focus"",""0"",""1814""
","""event"",""trial"",""time""
""fullscreenenter"",""0"",""5860""
","
","2141.7000000029802","","","","","","","","49","1,0,0","1","countryside","30","probe-125","1","0.2539356405467362","0.1930211082219571","1","","","","","","","",""
"","html-keyboard-response","155","797226","0.0-87.0-1.0","""event"",""trial"",""time""
""blur"",""0"",""615""
""focus"",""0"",""1814""
""fullscreenenter"",""0"",""5860""
","""event"",""trial"",""time""
""blur"",""0"",""615""
","""event"",""trial"",""time""
""focus"",""0"",""1814""
","""event"",""trial"",""time""
""fullscreenenter"",""0"",""5860""
","
","null","<p></p>","null","","","","","","","","","","","","","","","","","","","","","","",""
"","do_trial","156","803220","0.0-88.0-0.0","""event"",""trial"",""time""
""blur"",""0"",""615""
""focus"",""0"",""1814""
""fullscreenenter"",""0"",""5860""
","""event"",""trial"",""time""
""blur"",""0"",""615""
","""event"",""trial"",""time""
""focus"",""0"",""1814""
","""event"",""trial"",""time""
""fullscreenenter"",""0"",""5860""
","
","1424.5","","","","","","","","49","1,0,1","1","countryside","31","probe-225","1","0.23972699381983564","0.1982746080339821","1","","","","","","","",""
"","html-keyboard-response","157","804223","0.0-88.0-1.0","""event"",""trial"",""time""
""blur"",""0"",""615""
""focus"",""0"",""1814""
""fullscreenenter"",""0"",""5860""
","""event"",""trial"",""time""
""blur"",""0"",""615""
","""event"",""trial"",""time""
""focus"",""0"",""1814""
","""event"",""trial"",""time""
""fullscreenenter"",""0"",""5860""
","
","null","<p></p>","null","","","","","","","","","","","","","","","","","","","","","","",""
"","do_trial","158","810785","0.0-89.0-0.0","""event"",""trial"",""time""
""blur"",""0"",""615""
""focus"",""0"",""1814""
""fullscreenenter"",""0"",""5860""
","""event"",""trial"",""time""
""blur"",""0"",""615""
","""event"",""trial"",""time""
""focus"",""0"",""1814""
","""event"",""trial"",""time""
""fullscreenenter"",""0"",""5860""
","
","2001.2999999970198","","","","","","","","50","1,0,1","1","countryside","32","probe-65","1","0.1530055425830015","0.18066909855441396","0","","","","","","","",""
"","html-keyboard-response","159","811787","0.0-89.0-1.0","""event"",""trial"",""time""
""blur"",""0"",""615""
""focus"",""0"",""1814""
""fullscreenenter"",""0"",""5860""
","""event"",""trial"",""time""
""blur"",""0"",""615""
","""event"",""trial"",""time""
""focus"",""0"",""1814""
","""event"",""trial"",""time""
""fullscreenenter"",""0"",""5860""
","
","null","<p></p>","null","","","","","","","","","","","","","","","","","","","","","","",""
"","do_trial","160","817526","0.0-90.0-0.0","""event"",""trial"",""time""
""blur"",""0"",""615""
""focus"",""0"",""1814""
""fullscreenenter"",""0"",""5860""
","""event"",""trial"",""time""
""blur"",""0"",""615""
","""event"",""trial"",""time""
""focus"",""0"",""1814""
","""event"",""trial"",""time""
""fullscreenenter"",""0"",""5860""
","
","1180.5","","","","","","","","51","1,0,1","1","countryside","33","probe-83","0.8608151468363802","0.18896825678438467","0.3100935561636529","1","","","","","","","",""
"","html-keyboard-response","161","818528","0.0-90.0-1.0","""event"",""trial"",""time""
""blur"",""0"",""615""
""focus"",""0"",""1814""
""fullscreenenter"",""0"",""5860""
","""event"",""trial"",""time""
""blur"",""0"",""615""
","""event"",""trial"",""time""
""focus"",""0"",""1814""
","""event"",""trial"",""time""
""fullscreenenter"",""0"",""5860""
","
","null","<p></p>","null","","","","","","","","","","","","","","","","","","","","","","",""
"","do_trial","162","823443","0.0-91.0-0.0","""event"",""trial"",""time""
""blur"",""0"",""615""
""focus"",""0"",""1814""
""fullscreenenter"",""0"",""5860""
","""event"",""trial"",""time""
""blur"",""0"",""615""
","""event"",""trial"",""time""
""focus"",""0"",""1814""
","""event"",""trial"",""time""
""fullscreenenter"",""0"",""5860""
","
","358.6000000089407","","","","","","","","49","1,1,0","1","countryside","34","probe-211","0.807689986985978","0.2891611374358913","0.21636597553148598","1","","","","","","","",""
"","html-keyboard-response","163","824446","0.0-91.0-1.0","""event"",""trial"",""time""
""blur"",""0"",""615""
""focus"",""0"",""1814""
""fullscreenenter"",""0"",""5860""
","""event"",""trial"",""time""
""blur"",""0"",""615""
","""event"",""trial"",""time""
""focus"",""0"",""1814""
","""event"",""trial"",""time""
""fullscreenenter"",""0"",""5860""
","
","null","<p></p>","null","","","","","","","","","","","","","","","","","","","","","","",""
"","do_trial","164","829703","0.0-92.0-0.0","""event"",""trial"",""time""
""blur"",""0"",""615""
""focus"",""0"",""1814""
""fullscreenenter"",""0"",""5860""
","""event"",""trial"",""time""
""blur"",""0"",""615""
","""event"",""trial"",""time""
""focus"",""0"",""1814""
","""event"",""trial"",""time""
""fullscreenenter"",""0"",""5860""
","
","701.0999999940395","","","","","","","","50","1,0,1","1","countryside","35","probe-10","0.7993372335886271","0.5009358427177664","0.2989101898783455","0","","","","","","","",""
"","html-keyboard-response","165","830705","0.0-92.0-1.0","""event"",""trial"",""time""
""blur"",""0"",""615""
""focus"",""0"",""1814""
""fullscreenenter"",""0"",""5860""
","""event"",""trial"",""time""
""blur"",""0"",""615""
","""event"",""trial"",""time""
""focus"",""0"",""1814""
","""event"",""trial"",""time""
""fullscreenenter"",""0"",""5860""
","
","null","<p></p>","null","","","","","","","","","","","","","","","","","","","","","","",""
"","do_trial","166","836193","0.0-93.0-0.0","""event"",""trial"",""time""
""blur"",""0"",""615""
""focus"",""0"",""1814""
""fullscreenenter"",""0"",""5860""
","""event"",""trial"",""time""
""blur"",""0"",""615""
","""event"",""trial"",""time""
""focus"",""0"",""1814""
","""event"",""trial"",""time""
""fullscreenenter"",""0"",""5860""
","
","929.4000000059605","","","","","","","","51","1,1,0","1","countryside","36","probe-01","0.6643992168580485","0.42184487837844914","0.1705786612105942","0","","","","","","","",""
"","html-keyboard-response","167","837195","0.0-93.0-1.0","""event"",""trial"",""time""
""blur"",""0"",""615""
""focus"",""0"",""1814""
""fullscreenenter"",""0"",""5860""
","""event"",""trial"",""time""
""blur"",""0"",""615""
","""event"",""trial"",""time""
""focus"",""0"",""1814""
","""event"",""trial"",""time""
""fullscreenenter"",""0"",""5860""
","
","null","<p></p>","null","","","","","","","","","","","","","","","","","","","","","","",""
"","do_trial","168","843161","0.0-94.0-0.0","""event"",""trial"",""time""
""blur"",""0"",""615""
""focus"",""0"",""1814""
""fullscreenenter"",""0"",""5860""
","""event"",""trial"",""time""
""blur"",""0"",""615""
","""event"",""trial"",""time""
""focus"",""0"",""1814""
","""event"",""trial"",""time""
""fullscreenenter"",""0"",""5860""
","
","1405.7999999970198","","","","","","","","50","1,1,0","1","countryside","37","probe-75","0.6066309751024354","0.3794740423657399","0.16332674420747395","1","","","","","","","",""
"","html-keyboard-response","169","844163","0.0-94.0-1.0","""event"",""trial"",""time""
""blur"",""0"",""615""
""focus"",""0"",""1814""
""fullscreenenter"",""0"",""5860""
","""event"",""trial"",""time""
""blur"",""0"",""615""
","""event"",""trial"",""time""
""focus"",""0"",""1814""
","""event"",""trial"",""time""
""fullscreenenter"",""0"",""5860""
","
","null","<p></p>","null","","","","","","","","","","","","","","","","","","","","","","",""
"","do_trial","170","849526","0.0-95.0-0.0","""event"",""trial"",""time""
""blur"",""0"",""615""
""focus"",""0"",""1814""
""fullscreenenter"",""0"",""5860""
","""event"",""trial"",""time""
""blur"",""0"",""615""
","""event"",""trial"",""time""
""focus"",""0"",""1814""
","""event"",""trial"",""time""
""fullscreenenter"",""0"",""5860""
","
","803.2999999970198","","","","","","","","49","1,1,0","1","countryside","38","probe-85","0.5404906241343516","0.39342025971228667","0.23197063720397054","1","","","","","","","",""
"","html-keyboard-response","171","850529","0.0-95.0-1.0","""event"",""trial"",""time""
""blur"",""0"",""615""
""focus"",""0"",""1814""
""fullscreenenter"",""0"",""5860""
","""event"",""trial"",""time""
""blur"",""0"",""615""
","""event"",""trial"",""time""
""focus"",""0"",""1814""
","""event"",""trial"",""time""
""fullscreenenter"",""0"",""5860""
","
","null","<p></p>","null","","","","","","","","","","","","","","","","","","","","","","",""
"","do_trial","172","855881","0.0-96.0-0.0","""event"",""trial"",""time""
""blur"",""0"",""615""
""focus"",""0"",""1814""
""fullscreenenter"",""0"",""5860""
","""event"",""trial"",""time""
""blur"",""0"",""615""
","""event"",""trial"",""time""
""focus"",""0"",""1814""
","""event"",""trial"",""time""
""fullscreenenter"",""0"",""5860""
","
","789.1000000089407","","","","","","","","50","0,1,0","1","countryside","39","probe-43","0.49262581496975677","0.3846446750622986","0.06601333284171357","1","","","","","","","",""
"","html-keyboard-response","173","856883","0.0-96.0-1.0","""event"",""trial"",""time""
""blur"",""0"",""615""
""focus"",""0"",""1814""
""fullscreenenter"",""0"",""5860""
","""event"",""trial"",""time""
""blur"",""0"",""615""
","""event"",""trial"",""time""
""focus"",""0"",""1814""
","""event"",""trial"",""time""
""fullscreenenter"",""0"",""5860""
","
","null","<p></p>","null","","","","","","","","","","","","","","","","","","","","","","",""
"","do_trial","174","862768","0.0-97.0-0.0","""event"",""trial"",""time""
""blur"",""0"",""615""
""focus"",""0"",""1814""
""fullscreenenter"",""0"",""5860""
","""event"",""trial"",""time""
""blur"",""0"",""615""
","""event"",""trial"",""time""
""focus"",""0"",""1814""
","""event"",""trial"",""time""
""fullscreenenter"",""0"",""5860""
","
","1325.7000000029802","","","","","","","","51","1,0,0","1","countryside","40","probe-199","0.6233883100681813","0.28489533809707873","0.06640548427597183","0","","","","","","","",""
"","html-keyboard-response","175","863770","0.0-97.0-1.0","""event"",""trial"",""time""
""blur"",""0"",""615""
""focus"",""0"",""1814""
""fullscreenenter"",""0"",""5860""
","""event"",""trial"",""time""
""blur"",""0"",""615""
","""event"",""trial"",""time""
""focus"",""0"",""1814""
","""event"",""trial"",""time""
""fullscreenenter"",""0"",""5860""
","
","null","<p></p>","null","","","","","","","","","","","","","","","","","","","","","","",""
"","do_trial","176","869235","0.0-98.0-0.0","""event"",""trial"",""time""
""blur"",""0"",""615""
""focus"",""0"",""1814""
""fullscreenenter"",""0"",""5860""
","""event"",""trial"",""time""
""blur"",""0"",""615""
","""event"",""trial"",""time""
""focus"",""0"",""1814""
","""event"",""trial"",""time""
""fullscreenenter"",""0"",""5860""
","
","907.1999999880791","","","","","","","","49","1,1,0","1","countryside","41","probe-132","0.6290490632622054","0.2876434714533729","0.07216903887781718","1","","","","","","","",""
"","html-keyboard-response","177","870237","0.0-98.0-1.0","""event"",""trial"",""time""
""blur"",""0"",""615""
""focus"",""0"",""1814""
""fullscreenenter"",""0"",""5860""
","""event"",""trial"",""time""
""blur"",""0"",""615""
","""event"",""trial"",""time""
""focus"",""0"",""1814""
","""event"",""trial"",""time""
""fullscreenenter"",""0"",""5860""
","
","null","<p></p>","null","","","","","","","","","","","","","","","","","","","","","","",""
"","do_trial","178","876431","0.0-99.0-0.0","""event"",""trial"",""time""
""blur"",""0"",""615""
""focus"",""0"",""1814""
""fullscreenenter"",""0"",""5860""
","""event"",""trial"",""time""
""blur"",""0"",""615""
","""event"",""trial"",""time""
""focus"",""0"",""1814""
","""event"",""trial"",""time""
""fullscreenenter"",""0"",""5860""
","
","1633.0999999940395","","","","","","","","50","1,0,0","1","countryside","42","probe-103","0.4171266100832546","0.25352908372226896","0.2484776185046269","0","","","","","","","",""
