"success","trial_type","trial_index","time_elapsed","internal_node_id","rt","stimulus","key_press","subject_id","response","choice_outcomes","context_n","context_img_id","trial_n","probe_img_id","pR_red","pR_white","pR_black","outcome","contextArray_ind","validImageProbes","invalidImageProbes","pRew_Red","pRew_White","pRew_Black","availableForMemProbe","choice_blocks"
"true","fullscreen","0","3248","0.0-0.0","","","","","","","","","","","","","","","","","","","","","",""
"","pavlovia","1","3254","0.0-1.0","","","","","","","","","","","","","","","","","","","","","",""
"","html-keyboard-response","2","18434","0.0-2.0","15179.099999964237","<div class='center'><p>Welcome! This is the first day of the experiment which will last ~30 minutes. In this experiment, you are the head captain of a pirate ship traveling around the world to different places. You will complete several different tasks during this experiment. Here is an overview of these tasks:</p><br><p>Day 1</p><p>1. Tutorial and quiz</p><p>2. Pick a pirate game in 6 different places</p><br><p>Day 2</p><p>3. Pick a pirate game and memory game</p><p>4. Final questions and payment</p><br><p>If you complete the entire experiment, you will receive $15 and a possible bonus payment.</p><p><b>[Press the space bar to begin the tutorial]</b></p></div>","32","613feae27a56b757ef8527bb","","","","","","","","","","","","","","","","","",""
"","html-keyboard-response","3","37147","0.0-3.0","18711.599999964237","<div class='center'><p>You are the head captain of a pirate ship.</p><p> Your pirates rob other ships as they leave the marketplace port.</p> These ships have just sold all their goods at the marketplace, so they have lots and lots of gold on them.</p><p><img src='run_exp/static/images/ship_center.png' height='400'></p><p><b>[Press the space bar to continue]</b></p></div>","32","","","","","","","","","","","","","","","","","","",""
"","html-keyboard-response","4","50099","0.0-4.0","12950.099999964237","<div class='center'><p>As the head captain, you do not have to rob any ships yourself.</p><p>You get to choose which pirate you want to rob the next ship. </p><p>If they are successful at robbing the ship, then you will get gold coins.</p><p> If they are not successful, then you will get no gold coins.</p><p> The more coins you collect, the more bonus money you will win. So, choose your pirate wisely.</p><p><img src='run_exp/static/images/goal.png' height='400'></p><p><b>[Press the space bar to continue]</b></p><div>","32","","","","","","","","","","","","","","","","","","",""
"","html-keyboard-response","5","64843","0.0-5.0","14742.5","<div class='center'><p>Even the most skilled pirate will not be able to rob EVERY ship.</p><p> Some ships will have very strong defenses against attacks.</p><p> For example, blue beard, here,  is very good at robbing ships.</p><p> You can press the <b>‘1’</b> button on the keyboard to choose him.</p><p> Try choosing him 10 times to see how often he is successful at robbing ships. </p><p><img src='run_exp/static/images/blue.png' height='500'></p></div>","49","","","","","","","","","","","","","","","","","","",""
"","html-keyboard-response","6","66349","0.0-6.0","null","<br><br><br><br><p><img src='run_exp/static/images/blue_win.png' height='500'></p>","null","","","","","","","","","","","","","","","","","","",""
"","html-keyboard-response","7","67934","0.0-7.0","1583.300000011921","<br><br><br><br><p><img src='run_exp/static/images/blue.png' height='500'></p>","49","","","","","","","","","","","","","","","","","","",""
"","html-keyboard-response","8","69438","0.0-8.0","null","<br><br><br><br><p><img src='run_exp/static/images/blue_win.png' height='500'></p>","null","","","","","","","","","","","","","","","","","","",""
"","html-keyboard-response","9","69614","0.0-9.0","175.30000001192093","<br><br><br><br><p><img src='run_exp/static/images/blue.png' height='500'></p>","49","","","","","","","","","","","","","","","","","","",""
"","html-keyboard-response","10","71117","0.0-10.0","null","<br><br><br><br><p><img src='run_exp/static/images/blue_win.png' height='500'></p>","null","","","","","","","","","","","","","","","","","","",""
"","html-keyboard-response","11","71532","0.0-11.0","413.19999998807907","<br><br><br><br><p><img src='run_exp/static/images/blue.png' height='500'></p>","49","","","","","","","","","","","","","","","","","","",""
"","html-keyboard-response","12","73036","0.0-12.0","null","<br><br><br><br><p><img src='run_exp/static/images/blue_no_win.png' height='500'></p>","null","","","","","","","","","","","","","","","","","","",""
"","html-keyboard-response","13","73347","0.0-13.0","308.9000000357628","<br><br><br><br><p><img src='run_exp/static/images/blue.png' height='500'></p>","49","","","","","","","","","","","","","","","","","","",""
"","html-keyboard-response","14","74853","0.0-14.0","null","<br><br><br><br><p><img src='run_exp/static/images/blue_win.png' height='500'></p>","null","","","","","","","","","","","","","","","","","","",""
"","html-keyboard-response","15","75162","0.0-15.0","307.89999997615814","<br><br><br><br><p><img src='run_exp/static/images/blue.png' height='500'></p>","49","","","","","","","","","","","","","","","","","","",""
"","html-keyboard-response","16","76668","0.0-16.0","null","<br><br><br><br><p><img src='run_exp/static/images/blue_win.png' height='500'></p>","null","","","","","","","","","","","","","","","","","","",""
"","html-keyboard-response","17","77010","0.0-17.0","340.69999998807907","<br><br><br><br><p><img src='run_exp/static/images/blue.png' height='500'></p>","49","","","","","","","","","","","","","","","","","","",""
"","html-keyboard-response","18","78516","0.0-18.0","null","<br><br><br><br><p><img src='run_exp/static/images/blue_win.png' height='500'></p>","null","","","","","","","","","","","","","","","","","","",""
"","html-keyboard-response","19","78790","0.0-19.0","272.39999997615814","<br><br><br><br><p><img src='run_exp/static/images/blue.png' height='500'></p>","49","","","","","","","","","","","","","","","","","","",""
"","html-keyboard-response","20","80291","0.0-20.0","null","<br><br><br><br><p><img src='run_exp/static/images/blue_no_win.png' height='500'></p>","null","","","","","","","","","","","","","","","","","","",""
"","html-keyboard-response","21","80433","0.0-21.0","140.79999995231628","<br><br><br><br><p><img src='run_exp/static/images/blue.png' height='500'></p>","49","","","","","","","","","","","","","","","","","","",""
"","html-keyboard-response","22","81940","0.0-22.0","null","<br><br><br><br><p><img src='run_exp/static/images/blue_win.png' height='500'></p>","null","","","","","","","","","","","","","","","","","","",""
"","html-keyboard-response","23","82564","0.0-23.0","623.1000000238419","<br><br><br><br><p><img src='run_exp/static/images/blue.png' height='500'></p>","49","","","","","","","","","","","","","","","","","","",""
"","html-keyboard-response","24","84070","0.0-24.0","null","<br><br><br><br><p><img src='run_exp/static/images/blue_win.png' height='500'></p>","null","","","","","","","","","","","","","","","","","","",""
"","html-keyboard-response","25","86545","0.0-25.0","2474","<div class='center'><p> See, he was successful at robbing the ships most of the time but not every time. </p><p><b>[Press the space bar to continue]</b></p></div>","32","","","","","","","","","","","","","","","","","","",""
"","html-keyboard-response","26","91678","0.0-26.0","5131.5","<div class='center'><p>In the game, you will get to choose which of three pirates you want to rob the next ship. <p>Press the <b>‘1’</b> button on your keyboard to pick the pirate with the red beard.</p><p> Press <b>‘2’</b> to pick the pirate with the white beard.</p><p> Press <b>‘3’</b> to pick the pirate with the black beard.</p><p>Try picking a pirate now!</p><p><img src='run_exp/static/images/all_pirates.png' height='500'></p></div>","51","","","","","","","","","","","","","","","","","","",""
"","html-keyboard-response","27","94499","0.0-27.0-0.0","2818","<div class='center'><p>This pirate was successful at robbing the ship!</p><p><img src='run_exp/static/images/black_win.png' height='500'></p><p><b>[Press the space bar to continue]</b></p></div>","32","","","","","","","","","","","","","","","","","","",""
"","html-keyboard-response","28","96148","0.0-27.0-1.0","1648.0999999642372","<div class='center'><p>Now try choosing another</p><p><img src='run_exp/static/images/all_pirates.png' height='500'></p></div>","50","","","","","","","","","","","","","","","","","","",""
"","html-keyboard-response","29","98654","0.0-28.0-0.0","2503.899999976158","<div class='center'><p>This pirate was not successful at robbing the ship!</p><p><img src='run_exp/static/images/white_no_win.png' height='500'></p><p><b>[Press the space bar to continue]</b></p></div>","32","","","","","","","","","","","","","","","","","","",""
"","html-keyboard-response","30","103617","0.0-29.0-0.0","4962.299999952316","<div class='center'><p>You’ll stop at these 6 places on your journey.</p><p><img src='run_exp/static/images/all_contexts.png' height='500'></p><p><b>[Press the space bar to continue]</b></p></div>","32","","","","","","","","","","","","","","","","","","",""
"","html-keyboard-response","31","109814","0.0-29.0-1.0","6196.299999952316","<div class='center'><p>How good a pirate is at robbing ships will depend on the current place.</p><p> Some pirates will have been to the place before, and will have more experience robbing ships there.</p><p>So, they will be more successful at stealing gold and bringing it back to you.</p><p><b>[Press the space bar to continue]</b></p></div>","32","","","","","","","","","","","","","","","","","","",""
"","html-keyboard-response","32","122277","0.0-29.0-2.0","12461.899999976158","<div class='center'><p>How successful a pirate is at robbing ships can also change in a place.<p> Ships may hear about the pirates coming and will improve their defenses. This may make it more difficult to rob them.</p><p> Ships may also grow lazy and lower their defenses. This may make it easier to rob them.</p><br><p>Things are always changing on the high seas! So, try your best to pay attention!</p><p><img src='run_exp/static/images/contingency.png' height='500'></p><p><b>[Press the space bar to continue]</b></p></div>","32","","","","","","","","","","","","","","","","","","",""
"","html-keyboard-response","33","149836","0.0-29.0-3.0","27557.399999976158","<div class='center'><p>Once you choose a pirate to rob a ship, you’ll be shown the ship they are robbing.</p><p>The ship will have a picture of the item they sold at the marketplace.</p><p> Try your best to remember the ship and where you saw the ship.</p><p> You’ll have to remember this for later, and remembering this correctly will help you win more bonus money!</p><p>You can remember the ship by remembering the item they sold at the marketplace</p><p>A helpful strategy is to try to come up with a story of the chosen pirate and ship’s item interacting with the scene.</p><p> For example, a ship might have sold travel mugs and you could imagine red beard walking through the city with a travel mug. </p><p>Or imagine an apple falling from a tree into white beard's hands in the forest.</p><p><img src='run_exp/static/images/example_probe.png' height='500'></p><p><b>[Press the space bar to continue]</b></p></div>","32","","","","","","","","","","","","","","","","","","",""
"","html-keyboard-response","34","162739","0.0-29.0-4.0","12902.599999964237","<div class='center'><p>If you don’t make your choice fast enough, you’ll have to wait a few seconds before you can make another one. </p><p>You can’t win more gold. You just have to sit and wait.</p><p><img src='run_exp/static/images/hurry_up.png' height='500'></p><p><b>[Press the space bar to continue]</b></p></div>","32","","","","","","","","","","","","","","","","","","",""
"","html-keyboard-response","35","185089","0.0-29.0-5.0","22348.5","<div class='center'><p>Again, you have two important things to do: </p><b><p> 1. Pick the pirate who you think will be most successful at robbing the next ship.</p></b><b><p> 2. Remember where a pirate robbed a ship.</p> </b><p>Both are important in determining how much bonus money you’ll win.</p><br><p>Let’s try a practice game. The game will start by showing you the pirates. First pick a pirate using the <b> 1, 2, 3 </b> buttons on your keyboard. When you are shown a ship, try to remember the place you’re in by making up a story.</p><p> You only have 3 seconds to pick a pirate, so please make a choice quickly! If you are too slow, you’ll have to wait a bit during the time out.</p><p> Don’t feel rushed, but please do try to make a choice every time.</p><p>How good a pirate is at robbing a ship will change depending on the place they are in and how good the defenses are of the ship.</p> <p>This is just a practice game, so you’re not playing for money. </p><p>You’ll receive a bag which may or may not contain gold coins.</p><p> In the real game, though, you’ll be able to see whether or not you received the gold coins.</p><p> Good luck, remember press <b>'1'</b> to choose red beard, <b>'2'</b> to choose white beard, and <b>'3'</b> to choose black beard</p><p><b>[Press the space bar to begin the practice game]</b></p></div>","32","","","","","","","","","","","","","","","","","","",""
"","do_trial_prac","36","190610","0.0-29.0-6.0","1006.8999999761581","","","","51","","","","","","","","","","","","","","","","",""
"","do_trial_prac","37","195585","0.0-29.0-7.0","463.9000000357628","","","","50","","","","","","","","","","","","","","","","",""
"","do_trial_prac","38","200578","0.0-29.0-8.0","481.4000000357628","","","","49","","","","","","","","","","","","","","","","",""
"","do_trial_prac","39","205679","0.0-29.0-9.0","589.8999999761581","","","","51","","","","","","","","","","","","","","","","",""
"","do_trial_prac","40","210576","0.0-29.0-10.0","385.19999998807907","","","","50","","","","","","","","","","","","","","","","",""
"","html-keyboard-response","41","215512","0.0-29.0-11.0","4934.900000035763","<div class='center'><p>Great job on the practice game!</p><p> Now, you will be asked you some true or false questions to make sure you really understand the rules of the game.</p><p> Press <b>'1'</b> on the keyboard for true and press <b>'2'</b> for false.</p><p><b>[Press the space bar to begin the quiz]</b></p></div>","32","","","","","","","","","","","","","","","","","","",""
"","html-keyboard-response","42","220136","0.0-29.0-12.0","4622.399999976158","<div class='center'><p>You win bonus money by making choices as fast as possible.</p><p>Press 1 for true and press  2 for false.</p></div>","50","","","","","","","","","","","","","","","","","","",""
"","html-keyboard-response","43","221403","0.0-30.0-0.0","1265.8999999761581","<br><br><br><br><p>That's correct!</p> <p><b>[press the space bar to continue with the quiz]</b></p>","32","","","","","","","","","","","","","","","","","","",""
"","html-keyboard-response","44","231485","0.0-30.0-1.0","10081.800000011921","<div class='center'><p>You press the <b>‘3’</b> button on the keyboard to choose the red bearded pirate? </p><p>Press 1 for true and press  2 for false.</p></div>","50","","","","","","","","","","","","","","","","","","",""
"","html-keyboard-response","45","232498","0.0-31.0-0.0","1011.8000000119209","<br><br><br><br><p>That's correct!</p> <p><b>[press the space bar to continue with the quiz]</b></p>","32","","","","","","","","","","","","","","","","","","",""
"","html-keyboard-response","46","236713","0.0-31.0-1.0","4214","<div class='center'><p>A pirate will always be equally successful at robbing ships in each place</p><p>Press 1 for true and press  2 for false.</p></div>","49","","","","","","","","","","","","","","","","","","",""
"","html-keyboard-response","47","238880","0.0-32.0-0.0","2165.800000011921","<br><br><br><br><p>That’s incorrect! Pirates will be successful in different places.!</p><p><b>[press the space bar to continue with the quiz]</b></p>","32","","","","","","","","","","","","","","","","","","",""
"","html-keyboard-response","48","243523","0.0-32.0-1.0","4642.5","<div class='center'><p>You should remember the place where a pirate robbed a ship.</p><p>Press 1 for true and press  2 for false.</p></div>","49","","","","","","","","","","","","","","","","","","",""
"","html-keyboard-response","49","244576","0.0-33.0-0.0","1051.7000000476837","<br><br><br><br><p>That's correct!</p> <p><b>[press the space bar to continue with the quiz]</b></p>","32","","","","","","","","","","","","","","","","","","",""
"","html-keyboard-response","50","251078","0.0-34.0-0.0","6501.5","<br><br><br><br><p>Oops, you missed some questions. Now that you’ve heard the correct answers. Try the quiz again! If you fail the quiz too many times, you won’t be able to do the experiment. </p> <p><br>[press the space bar to repeat the quiz]</br></p>","32","","","","","","","","","","","","","","","","","","",""
"","html-keyboard-response","51","253697","0.0-34.0-1.0","2618.199999988079","<div class='center'><p>You win bonus money by making choices as fast as possible.</p><p>Press 1 for true and press  2 for false.</p></div>","50","","","","","","","","","","","","","","","","","","",""
"","html-keyboard-response","52","255754","0.0-35.0-0.0","2055.100000023842","<br><br><br><br><p>That's correct!</p> <p><b>[press the space bar to continue with the quiz]</b></p>","32","","","","","","","","","","","","","","","","","","",""
"","html-keyboard-response","53","257361","0.0-35.0-1.0","1606.199999988079","<div class='center'><p>You press the <b>‘3’</b> button on the keyboard to choose the red bearded pirate? </p><p>Press 1 for true and press  2 for false.</p></div>","50","","","","","","","","","","","","","","","","","","",""
"","html-keyboard-response","54","257955","0.0-36.0-0.0","593.6000000238419","<br><br><br><br><p>That's correct!</p> <p><b>[press the space bar to continue with the quiz]</b></p>","32","","","","","","","","","","","","","","","","","","",""
"","html-keyboard-response","55","259571","0.0-36.0-1.0","1614.7000000476837","<div class='center'><p>A pirate will always be equally successful at robbing ships in each place</p><p>Press 1 for true and press  2 for false.</p></div>","50","","","","","","","","","","","","","","","","","","",""
"","html-keyboard-response","56","260034","0.0-37.0-0.0","462.10000002384186","<br><br><br><br><p>That's correct!</p> <p><b>[press the space bar to continue with the quiz]</b></p>","32","","","","","","","","","","","","","","","","","","",""
"","html-keyboard-response","57","262140","0.0-37.0-1.0","2105.800000011921","<div class='center'><p>You should remember the place where a pirate robbed a ship.</p><p>Press 1 for true and press  2 for false.</p></div>","49","","","","","","","","","","","","","","","","","","",""
"","html-keyboard-response","58","262532","0.0-38.0-0.0","382.4000000357628","<br><br><br><br><p>That's correct!</p> <p><b>[press the space bar to continue with the quiz]</b></p>","32","","","","","","","","","","","","","","","","","","",""
"","html-keyboard-response","59","263214","0.0-39.0-0.0","681.3000000119209","<br><br><br><br><p>Good job! You’re now ready to move on to the real game!</p> <p><br>[press the space bar to begin!]</br></p>","32","","","","","","","","","","","","","","","","","","",""
"","do_welcome","60","264723","0.0-40.0-0.0","null","","","","null","","","","","","","","","","","","","","","","",""
"","do_trial","61","270821","0.0-41.0-0.0","1547.199999988079","","","","50","1,1,0","0","mountain","0","probe-89","1","0.4","0.1","1","","","","","","","",""
"","do_trial","62","275881","0.0-42.0-0.0","505.89999997615814","","","","49","1,0,0","0","mountain","1","probe-208","1","0.4492839214791337","0.0960635113532117","1","","","","","","","",""
"","do_trial","63","280887","0.0-43.0-0.0","453.7999999523163","","","","51","1,0,0","0","mountain","2","probe-192","1","0.4052010647806615","0.08688479768566092","0","","","","","","","",""
"","do_trial","64","285886","0.0-44.0-0.0","444.0999999642372","","","","51","1,0,1","0","mountain","3","probe-232","1","0.3433731591278857","0.144827015873947","1","","","","","","","",""
"","do_trial","65","291036","0.0-45.0-0.0","596.8000000119209","","","","50","1,0,0","0","mountain","4","probe-148","0.926204873286493","0.21170869469067213","0.16463341007910193","0","","","","","","","",""
"","do_trial","66","295954","0.0-46.0-0.0","363.10000002384186","","","","50","0,0,0","0","mountain","5","probe-13","0.9111798850612206","0.3900141086513262","0.055336961279245894","0","","","","","","","",""
"","do_trial","67","300835","0.0-47.0-0.0","328.30000001192093","","","","49","1,0,1","0","mountain","6","probe-179","0.872653131425928","0.42483805870414537","0.2808107320280163","1","","","","","","","",""
"","do_trial","68","305847","0.0-48.0-0.0","457.80000001192093","","","","51","1,1,1","0","mountain","7","probe-49","0.742472588304525","0.4103690489538682","0.33870907132713257","1","","","","","","","",""
"","do_trial","69","310665","0.0-49.0-0.0","269.60000002384186","","","","51","0,0,1","0","mountain","8","probe-51","0.790492464984077","0.28798717908176563","0.2618767010861612","1","","","","","","","",""
"","do_trial","70","315897","0.0-50.0-0.0","679.1000000238419","","","","49","1,0,0","0","mountain","9","probe-60","0.7327383378995694","0.3807356064819218","0.2787368422351177","1","","","","","","","",""
"","do_trial","71","320748","0.0-51.0-0.0","302.69999998807907","","","","51","1,1,0","0","mountain","10","probe-06","0.5128973227533155","0.6792190657508629","0.2623019661012239","0","","","","","","","",""
"","do_trial","72","325716","0.0-52.0-0.0","414.4000000357628","","","","49","1,1,0","0","mountain","11","probe-139","0.5794870830642808","0.8012377053585524","0.20006472299613395","1","","","","","","","",""
"","do_trial","73","330878","0.0-53.0-0.0","613","","","","49","1,0,0","0","mountain","12","probe-188","0.3407154974253792","0.7522978604070376","0.21872592720738943","1","","","","","","","",""
"","do_trial","74","335779","0.0-54.0-0.0","347","","","","51","1,0,0","0","mountain","13","probe-114","0.27488069492443795","0.7437823860005713","0.20192530606227366","0","","","","","","","",""
"","do_trial","75","340687","0.0-55.0-0.0","355.60000002384186","","","","51","0,1,0","0","mountain","14","probe-156","0.2715160610432797","0.7438116948810287","0.11844170581815683","0","","","","","","","",""
"","do_trial","76","345481","0.0-56.0-0.0","239","","","","50","0,0,0","0","mountain","15","probe-143","0.3371773061888851","0.8497374787383508","0.09463360328157105","0","","","","","","","",""
"","do_trial","77","350425","0.0-57.0-0.0","391.19999998807907","","","","49","0,1,0","0","mountain","16","probe-187","0.438797210116222","0.8300337839186196","0.09821098686189444","0","","","","","","","",""
"","do_trial","78","355301","0.0-58.0-0.0","320.5","","","","49","0,1,0","0","mountain","17","probe-21","0.36633103824472485","0.8940678849172925","0.10942751987109661","0","","","","","","","",""
"","do_trial","79","360133","0.0-59.0-0.0","278.9000000357628","","","","51","0,1,1","0","mountain","18","probe-75","0.30535666416383334","0.90309110421694","0.13549797146097148","1","","","","","","","",""
"","do_trial","80","365017","0.0-60.0-0.0","330.4000000357628","","","","51","1,1,0","0","mountain","19","probe-107","0.4002050853288103","0.9281834489753763","0.13127379882063575","0","","","","","","","",""
"","do_trial","81","369571","0.0-61.0-0.0","0","","","","51","1,1,0","0","mountain","20","probe-120","0.4058658929528213","0.9425513982973829","0.27743802915991167","0","","","","","","","",""
"","do_trial","82","374498","0.0-62.0-0.0","372.30000001192093","","","","49","1,1,1","0","mountain","21","probe-191","0.3773019666587622","0.9424467850800403","0.26563993071738007","1","","","","","","","",""
"","do_trial","83","380143","0.0-63.0-0.0","1092.2999999523163","","","","49","1,1,0","0","mountain","22","probe-132","0.3506275415585688","0.783350793967583","0.21856781379064327","1","","","","","","","",""
"","do_trial","84","385551","0.0-64.0-0.0","854.5","","","","49","0,1,0","0","mountain","23","probe-27","0.3555233498572143","0.772205614212455","0.3742985112131869","0","","","","","","","",""
"","do_trial","85","390501","0.0-65.0-0.0","396.5999999642372","","","","51","1,1,0","0","mountain","24","probe-181","0.33931593272304306","0.825744315309787","0.30444017780592675","0","","","","","","","",""
"","do_trial","86","395506","0.0-66.0-0.0","450.39999997615814","","","","50","0,1,0","0","mountain","25","probe-76","0.4394202432746964","0.842422155313002","0.28165822235430377","1","","","","","","","",""
"","do_trial","87","400562","0.0-67.0-0.0","502.69999998807907","","","","50","0,1,0","0","mountain","26","probe-12","0.39010912627510586","0.8798014409344033","0.08528881616338191","1","","","","","","","",""
"","do_trial","88","405488","0.0-68.0-0.0","374.2999999523163","","","","50","0,1,0","0","mountain","27","probe-233","0.5133096745000195","0.9364548396683678","0.08616628419589045","1","","","","","","","",""
"","do_trial","89","410348","0.0-69.0-0.0","306.89999997615814","","","","49","0,1,0","0","mountain","28","probe-97","0.5684787003987865","0.9057777093893773","0.195002665646542","0","","","","","","","",""
"","do_trial","90","415255","0.0-70.0-0.0","355.89999997615814","","","","50","1,0,1","0","mountain","29","probe-35","0.6093916487724661","0.8311445702775252","0.19001417598287734","0","","","","","","","",""
"","do_trial","91","420255","0.0-71.0-0.0","446.5999999642372","","","","51","1,1,0","0","mountain","30","probe-26","0.5481419740060439","0.8471844506288635","0.19364387101475283","0","","","","","","","",""
"","do_trial","92","425305","0.0-72.0-0.0","495.9000000357628","","","","51","0,1,0","0","mountain","31","probe-239","0.4325710340521948","0.7093119092824348","0.0685101310859452","0","","","","","","","",""
"","do_trial","93","430032","0.0-73.0-0.0","173.60000002384186","","","","51","0,1,0","0","mountain","32","probe-195","0.47771484499981987","0.7561012575014228","0.07242183617269458","0","","","","","","","",""
"","do_trial","94","435052","0.0-74.0-0.0","464.0999999642372","","","","51","1,1,1","0","mountain","33","probe-88","0.37213529302985765","0.7355232159935085","0.0717551150244717","1","","","","","","","",""
"","do_trial","95","440185","0.0-75.0-0.0","580.1000000238419","","","","49","0,0,0","0","mountain","34","probe-82","0.30493915554278234","0.6459688271715891","0.10258636868515504","0","","","","","","","",""
"","do_trial","96","445104","0.0-76.0-0.0","364.69999998807907","","","","51","0,1,0","0","mountain","35","probe-29","0.3368597886174625","0.6581753692508879","0.11656450680794153","0","","","","","","","",""
"","do_trial","97","449740","0.0-77.0-0.0","82.30000001192093","","","","50","0,1,0","0","mountain","36","probe-14","0.42880163523412324","0.5363248357644069","0.07316810283095602","1","","","","","","","",""
"","do_trial","98","454867","0.0-78.0-0.0","573.6000000238419","","","","50","0,1,0","0","mountain","37","probe-85","0.32221407578409483","0.7691656168796428","0.053825579104906554","1","","","","","","","",""
"","do_trial","99","460066","0.0-79.0-0.0","648","","","","50","1,1,0","0","mountain","38","probe-17","0.4056867665292402","0.8439149116911598","0.10205716050334344","1","","","","","","","",""
"","do_trial","100","464874","0.0-80.0-0.0","256.4000000357628","","","","49","0,0,0","0","mountain","39","probe-119","0.3646958426021437","0.7949441270887567","0.12751847510619743","0","","","","","","","",""
"","do_bye","101","466385","0.0-81.0-0.0","null","","","","null","","","","","","","","","","","","","","","","",""
"","do_travel","102","472389","0.0-82.0-0.0","null","","","","null","","","","","","","","","","","","","","","","",""
"","do_welcome","103","473895","0.0-82.0-1.0","null","","","","null","","","","","","","","","","","","","","","","",""
"","do_trial","104","479585","0.0-83.0-0.0","1143.8999999761581","","","","51","0,1,0","1","highway","40","probe-168","0.43032342316660305","1","0.20944288127207297","0","","","","","","","",""
"","do_trial","105","484628","0.0-84.0-0.0","489.89999997615814","","","","50","0,1,0","1","highway","41","probe-157","0.5071417398921341","1","0.17350393212549223","1","","","","","","","",""
"","do_trial","106","489545","0.0-85.0-0.0","363.30000001192093","","","","49","0,1,0","1","highway","42","probe-58","0.39673650609154953","1","0.1573271197369123","0","","","","","","","",""
"","do_trial","107","494432","0.0-86.0-0.0","332.80000001192093","","","","49","1,1,1","1","highway","43","probe-18","0.4701749055320269","1","0.2002337644927959","1","","","","","","","",""
"","do_trial","108","499287","0.0-87.0-0.0","301.80000001192093","","","","51","1,1,0","1","highway","44","probe-166","0.36009496437559263","0.8883315235605995","0.14416225951798373","0","","","","","","","",""
"","do_trial","109","504185","0.0-88.0-0.0","343.89999997615814","","","","51","0,0,0","1","highway","45","probe-228","0.528231212006028","0.8638199709558245","0.14965080677183795","0","","","","","","","",""
"","do_trial","110","509155","0.0-89.0-0.0","417.0999999642372","","","","50","0,1,0","1","highway","46","probe-57","0.5222501350526294","0.7925027612360304","0.09067368044591076","1","","","","","","","",""
"","do_trial","111","513769","0.0-90.0-0.0","59.69999998807907","","","","50","0,1,1","1","highway","47","probe-170","0.5303540254706982","0.7641574100409093","0.17314871901260964","1","","","","","","","",""
"","do_trial","112","518415","0.0-91.0-0.0","93","","","","49","0,1,0","1","highway","48","probe-33","0.4088100746230965","0.8249011507340942","0.1592725248772131","0","","","","","","","",""
"","do_trial","113","523362","0.0-92.0-0.0","392.10000002384186","","","","49","0,0,0","1","highway","49","probe-172","0.22637125301602803","0.7326353563585337","0.26116111135171693","0","","","","","","","",""
"","do_trial","114","527953","0.0-93.0-0.0","38.09999996423721","","","","49","0,1,1","1","highway","50","probe-34","0.17892053370020336","0.2575018222327036","0.46738890974269476","0","","","","","","","",""
"","do_trial","115","532852","0.0-94.0-0.0","345.5","","","","51","1,0,0","1","highway","51","probe-91","0.4476104570405275","0.1393261814441001","0.5852873059163016","0","","","","","","","",""
"","do_trial","116","537693","0.0-95.0-0.0","290.39999997615814","","","","50","1,0,1","1","highway","52","probe-141","0.4915976054921932","0.12474006567601853","0.674007199578816","0","","","","","","","",""
"","do_trial","117","543203","0.0-96.0-0.0","955.9000000357628","","","","50","0,1,0","1","highway","53","probe-125","0.39419277089269245","0.10970003544343988","0.6611362459421346","1","","","","","","","",""
"","do_trial","118","548114","0.0-97.0-0.0","357.7999999523163","","","","50","0,0,1","1","highway","54","probe-52","0.4961544197128995","0.12033564880527693","0.811465274646233","0","","","","","","","",""
"","do_trial","119","553004","0.0-98.0-0.0","334.9000000357628","","","","49","1,0,1","1","highway","55","probe-66","0.41933004626146464","0.07813412235198545","0.8263780011181834","1","","","","","","","",""
"","do_trial","120","557942","0.0-99.0-0.0","384.39999997615814","","","","49","1,0,1","1","highway","56","probe-205","0.4311509257553775","0.07743949827476478","0.9257498432021567","1","","","","","","","",""
"","do_trial","121","562900","0.0-100.0-0.0","409.10000002384186","","","","49","0,1,0","1","highway","57","probe-193","0.3835244277550261","0.12818932295842125","0.8154223605912609","0","","","","","","","",""
"","do_trial","122","567454","0.0-101.0-0.0","0","","","","50","1,0,1","1","highway","58","probe-32","0.3599186053754339","0.05650070674272006","0.9395785039807504","0","","","","","","","",""
"","do_trial","123","572279","0.0-102.0-0.0","272","","","","49","0,0,1","1","highway","59","probe-174","0.38219167570191903","0.0859512940336433","0.8694869036081521","0","","","","","","","",""
"","do_trial","124","577267","0.0-103.0-0.0","434.10000002384186","","","","50","1,0,1","1","highway","60","probe-145","0.4631350548812567","0.10654449852053201","0.8245756435761814","0","","","","","","","",""
"","do_trial","125","582104","0.0-104.0-0.0","283.30000001192093","","","","50","0,0,1","1","highway","61","probe-40","0.4564396830498767","0.09272432322077774","0.8231870557418459","0","","","","","","","",""
"","do_trial","126","586943","0.0-105.0-0.0","284.4000000357628","","","","51","0,0,1","1","highway","62","probe-02","0.46005083008559783","0.10591613173026675","0.7858041177459516","1","","","","","","","",""
"","do_trial","127","592422","0.0-106.0-0.0","926.5999999642372","","","","51","0,0,1","1","highway","63","probe-201","0.49485971740647744","0.1302342001941383","0.8442168178745602","1","","","","","","","",""
"","do_trial","128","597777","0.0-107.0-0.0","801.3000000119209","","","","51","0,0,0","1","highway","64","probe-106","0.5703312214036397","0.15019459328311716","0.735448862942883","0","","","","","","","",""
"","do_trial","129","602810","0.0-108.0-0.0","480","","","","49","1,0,1","1","highway","65","probe-183","0.5461929795836388","0.16967128090029804","0.7344515788774507","1","","","","","","","",""
"","do_trial","130","608024","0.0-109.0-0.0","660.3000000119209","","","","51","0,0,0","1","highway","66","probe-28","0.48940717288266095","0.10665015874262344","0.7217316496510904","0","","","","","","","",""
"","do_trial","131","613034","0.0-110.0-0.0","456.19999998807907","","","","49","1,1,1","1","highway","67","probe-176","0.4851447798833056","0.17810280700077263","0.8457068405146694","1","","","","","","","",""
"","do_trial","132","617989","0.0-111.0-0.0","399.80000001192093","","","","49","1,0,0","1","highway","68","probe-63","0.5202523115631708","0.06861395233726957","0.7603776905419116","1","","","","","","","",""
"","do_trial","133","623003","0.0-112.0-0.0","460.60000002384186","","","","50","0,1,1","1","highway","69","probe-108","0.5663859709345841","0.10494580028476101","0.835736621049885","1","","","","","","","",""
"","do_trial","134","627914","0.0-113.0-0.0","357.9000000357628","","","","50","1,0,1","1","highway","70","probe-38","0.4785800143290519","0.06849780594979636","0.8830204000667408","0","","","","","","","",""
"","do_trial","135","632715","0.0-114.0-0.0","247.5","","","","51","1,0,1","1","highway","71","probe-123","0.44837647810449793","0.11864150833228569","0.9212230163920546","1","","","","","","","",""
"","do_trial","136","637595","0.0-115.0-0.0","329","","","","49","0,0,1","1","highway","72","probe-61","0.3857824354235328","0.13737166246082944","0.9379888981063229","0","","","","","","","",""
"","do_trial","137","643800","0.0-116.0-0.0","1655.8999999761581","","","","50","0,0,1","1","highway","73","probe-150","0.5015240342908913","0.26393558333875405","0.8425819243087475","0","","","","","","","",""
"","do_trial","138","648840","0.0-117.0-0.0","491.4000000357628","","","","49","0,0,1","1","highway","74","probe-169","0.2748252237498106","0.27673663907752605","0.8079379096179088","0","","","","","","","",""
"","do_trial","139","653906","0.0-118.0-0.0","511","","","","51","1,0,1","1","highway","75","probe-220","0.4488548523099835","0.208440956806847","0.8485683174448708","1","","","","","","","",""
"","do_trial","140","658968","0.0-119.0-0.0","508.2000000476837","","","","51","0,0,1","1","highway","76","probe-203","0.3184002213497223","0.1699052270107223","0.7872091780653143","1","","","","","","","",""
"","do_trial","141","663876","0.0-120.0-0.0","359.19999998807907","","","","51","1,0,1","1","highway","77","probe-154","0.36861844044655934","0.3361270809181965","0.7983241036918782","1","","","","","","","",""
"","do_trial","142","668992","0.0-121.0-0.0","560.6000000238419","","","","51","0,0,1","1","highway","78","probe-227","0.38267127820753816","0.14112021773884714","0.7744110126974095","1","","","","","","","",""
"","do_trial","143","673547","0.0-122.0-0.0","0.10000002384185791","","","","51","0,0,0","1","highway","79","probe-93","0.5652823336988024","0.1999517769552106","0.6753575804014587","0","","","","","","","",""
"","do_bye","144","675053","0.0-123.0-0.0","null","","","","null","","","","","","","","","","","","","","","","",""
"","do_travel","145","681060","0.0-124.0-0.0","null","","","","null","","","","","","","","","","","","","","","","",""
"","do_welcome","146","682572","0.0-124.0-1.0","null","","","","null","","","","","","","","","","","","","","","","",""
"","do_trial","147","688349","0.0-125.0-0.0","1223.9000000357628","","","","51","1,0,1","2","city","80","probe-81","0.6982288449575947","0.148760433182272","1","1","","","","","","","",""
"","do_trial","148","693472","0.0-126.0-0.0","569.0999999642372","","","","50","1,0,1","2","city","81","probe-164","0.7365249985756313","0.07830534720912626","1","0","","","","","","","",""
"","do_trial","149","698489","0.0-127.0-0.0","466.5","","","","49","0,0,1","2","city","82","probe-86","0.5481363391202075","0.08737681778307664","1","0","","","","","","","",""
"","do_trial","150","703503","0.0-128.0-0.0","460.19999998807907","","","","51","0,0,1","2","city","83","probe-185","0.5273401331119889","0.08471843792255081","1","1","","","","","","","",""
"","do_trial","151","708860","0.0-129.0-0.0","803.3000000119209","","","","49","0,1,1","2","city","84","probe-211","0.4818438732955338","0.13845816891963775","0.9045769663375761","0","","","","","","","",""
"","do_trial","152","713665","0.0-130.0-0.0","252.89999997615814","","","","50","0,0,1","2","city","85","probe-221","0.5103821870538824","0.07558612239952543","0.8908171756566112","0","","","","","","","",""
"","do_trial","153","718774","0.0-131.0-0.0","557.6000000238419","","","","51","1,0,1","2","city","86","probe-19","0.5450744498841799","0.09864488441226024","0.8736654970095061","1","","","","","","","",""
"","do_trial","154","723646","0.0-132.0-0.0","318.60000002384186","","","","50","1,0,1","2","city","87","probe-20","0.5893092780868985","0.11014975430198103","0.7663821594538125","0","","","","","","","",""
"","do_trial","155","728644","0.0-133.0-0.0","444.39999997615814","","","","51","1,0,1","2","city","88","probe-53","0.6374862123794597","0.17347472132412464","0.7427934765916624","1","","","","","","","",""
"","do_trial","156","733811","0.0-134.0-0.0","613.1999999880791","","","","51","0,0,1","2","city","89","probe-69","0.4441627723043884","0.17582201353003818","0.6770384855461636","1","","","","","","","",""
"","do_trial","157","739321","0.0-135.0-0.0","956.3999999761581","","","","51","1,1,0","2","city","90","probe-230","0.41211981767138534","0.3867848757021212","0.48548080593193627","0","","","","","","","",""
"","do_trial","158","744512","0.0-136.0-0.0","637.5","","","","50","1,0,0","2","city","91","probe-229","0.45590078583810856","0.5251922898649027","0.43528833282167284","0","","","","","","","",""
"","do_trial","159","749099","0.0-137.0-0.0","37.200000047683716","","","","49","0,1,0","2","city","92","probe-100","0.43088786032920195","0.5794834067808635","0.23704693018038783","0","","","","","","","",""
"","do_trial","160","754086","0.0-138.0-0.0","432.60000002384186","","","","51","0,0,0","2","city","93","probe-10","0.6172446508059473","0.7057863765019236","0.14288333086360744","0","","","","","","","",""
"","do_trial","161","758969","0.0-139.0-0.0","332.69999998807907","","","","50","1,1,0","2","city","94","probe-30","0.5845214414022383","0.7230035435260471","0.1662028834835811","1","","","","","","","",""
"","do_trial","162","763745","0.0-140.0-0.0","220.9000000357628","","","","51","1,1,0","2","city","95","probe-50","0.5437554910357906","0.7917130362319496","0.13460839531997087","0","","","","","","","",""
"","do_trial","163","768731","0.0-141.0-0.0","432","","","","50","0,1,0","2","city","96","probe-155","0.5603314638776223","0.9190910939070076","0.20734754965663182","1","","","","","","","",""
"","do_trial","164","773605","0.0-142.0-0.0","320.19999998807907","","","","49","1,1,0","2","city","97","probe-222","0.6023484123216608","0.9376423108256703","0.16994748560228676","1","","","","","","","",""
"","do_trial","165","778214","0.0-143.0-0.0","55.5","","","","49","1,1,0","2","city","98","probe-11","0.7072970141421119","0.7792503727212834","0.07511611257803892","1","","","","","","","",""
"","do_trial","166","783110","0.0-144.0-0.0","342.9000000357628","","","","49","1,1,0","2","city","99","probe-127","0.572797027102564","0.738019933034163","0.07633719329410583","1","","","","","","","",""
"","do_trial","167","787846","0.0-145.0-0.0","182.70000004768372","","","","50","0,1,0","2","city","100","probe-224","0.6182670737096861","0.7943340625876663","0.1042318933749722","1","","","","","","","",""
"","do_trial","168","792716","0.0-146.0-0.0","316.30000001192093","","","","49","0,1,0","2","city","101","probe-223","0.49237315696979295","0.7437302916107953","0.09938323965149788","0","","","","","","","",""
"","do_trial","169","797469","0.0-147.0-0.0","198.69999998807907","","","","49","0,1,0","2","city","102","probe-238","0.27835823993970066","0.6980833416306647","0.21641863482837384","0","","","","","","","",""
"","do_trial","170","802431","0.0-148.0-0.0","407.80000001192093","","","","50","0,0,0","2","city","103","probe-219","0.3436543178095483","0.6330415432780552","0.1799861527076676","0","","","","","","","",""
"","do_trial","171","807025","0.0-149.0-0.0","40.60000002384186","","","","51","1,0,0","2","city","104","probe-178","0.4497276686916778","0.6627407604131588","0.06663710089595376","0","","","","","","","",""
"","do_trial","172","812029","0.0-150.0-0.0","450.30000001192093","","","","50","1,1,0","2","city","105","probe-65","0.386445522280559","0.7229118020471147","0.22590499473079714","1","","","","","","","",""
"","do_trial","173","816934","0.0-151.0-0.0","351.10000002384186","","","","51","0,1,0","2","city","106","probe-74","0.41615771171858945","0.711472849309005","0.23972162756083942","0","","","","","","","",""
"","do_trial","174","821836","0.0-152.0-0.0","348.80000001192093","","","","49","1,1,1","2","city","107","probe-39","0.4091410117324398","0.7733275286922873","0.243927744746209","1","","","","","","","",""
"","do_trial","175","826707","0.0-153.0-0.0","319.19999998807907","","","","50","0,1,0","2","city","108","probe-42","0.41618115582552917","0.7616359861610205","0.13143071499453501","1","","","","","","","",""
"","do_trial","176","831828","0.0-154.0-0.0","572.5","","","","50","0,0,1","2","city","109","probe-207","0.4023012137333386","0.7418483295525016","0.34659928149280733","0","","","","","","","",""
"","do_trial","177","836689","0.0-155.0-0.0","307.30000001192093","","","","50","1,1,1","2","city","110","probe-99","0.4356600671202955","0.7642960639278356","0.40781546040254596","1","","","","","","","",""
"","do_trial","178","841586","0.0-156.0-0.0","343.9000000357628","","","","51","1,1,0","2","city","111","probe-101","0.4005787947271686","0.9085504185629256","0.3076046596875561","0","","","","","","","",""
"","do_trial","179","846622","0.0-157.0-0.0","482.4000000357628","","","","50","1,0,1","2","city","112","probe-98","0.4131650441244935","0.7934775053636922","0.23939115488299256","0","","","","","","","",""
"","do_trial","180","851747","0.0-158.0-0.0","570.3999999761581","","","","49","1,1,0","2","city","113","probe-213","0.4903406315189848","0.8172326800168322","0.16306895537439353","1","","","","","","","",""
"","do_trial","181","857944","0.0-159.0-0.0","1643.8999999761581","","","","49","1,0,0","2","city","114","probe-231","0.48743132659823246","0.8767454098464389","0.1923860912978779","1","","","","","","","",""
"","do_trial","182","862556","0.0-160.0-0.0","58","","","","50","0,1,0","2","city","115","probe-25","0.3651730882970046","0.8006864360254089","0.08520528209623315","1","","","","","","","",""
"","do_trial","183","868197","0.0-161.0-0.0","1087.800000011921","","","","50","0,1,0","2","city","116","probe-190","0.30279425826663414","0.8374252485319186","0.1146565153082862","1","","","","","","","",""
"","do_trial","184","873366","0.0-162.0-0.0","615.2999999523163","","","","51","1,1,0","2","city","117","probe-217","0.3245667834434331","0.8032049628682326","0.05303019716732318","0","","","","","","","",""
"","do_trial","185","879423","0.0-163.0-0.0","null","","","","null","0,1,0","2","city","118","probe-160","0.33504803318782045","0.7826106379411535","0.23921632771007256","","","","","","","","",""
"","do_trial","186","885478","0.0-164.0-0.0","null","","","","null","0,0,0","2","city","119","probe-77","0.4078047728080682","0.7944733991939639","0.14349134455688187","","","","","","","","",""
"","do_bye","187","886989","0.0-165.0-0.0","null","","","","null","","","","","","","","","","","","","","","","",""
"","do_travel","188","892997","0.0-166.0-0.0","null","","","","null","","","","","","","","","","","","","","","","",""
"","do_welcome","189","894508","0.0-166.0-1.0","null","","","","null","","","","","","","","","","","","","","","","",""
"","do_trial","190","900561","0.0-167.0-0.0","null","","","","null","0,1,0","3","forest","120","probe-158","0.36984931107375446","1","0.08392680369712434","","","","","","","","",""
"","do_trial","191","906620","0.0-168.0-0.0","null","","","","null","0,1,0","3","forest","121","probe-116","0.49013425805068744","1","0.0902837969064734","","","","","","","","",""
"","do_trial","192","911956","0.0-169.0-0.0","781.6999999880791","","","","50","0,1,0","3","forest","122","probe-24","0.46872584041160287","1","0.10910732794678923","1","","","","","","","",""
"","do_trial","193","918015","0.0-170.0-0.0","1507.7999999523163","","","","51","0,1,0","3","forest","123","probe-204","0.4900959497537696","1","0.0971356912960915","0","","","","","","","",""
"","do_trial","194","922974","0.0-171.0-0.0","405.5","","","","49","1,1,0","3","forest","124","probe-151","0.44291078936635525","0.7960701129184463","0.10817698609325767","1","","","","","","","",""
"","do_trial","195","928905","0.0-172.0-0.0","1381.2000000476837","","","","49","1,1,0","3","forest","125","probe-111","0.40210188347198883","0.8325263594980872","0.09113960174593609","1","","","","","","","",""
"","do_trial","196","934966","0.0-173.0-0.0","null","","","","null","0,1,0","3","forest","126","probe-105","0.39289385702372054","0.8341142045755701","0.079184979273443","","","","","","","","",""
"","do_trial","197","939970","0.0-174.0-0.0","450.7000000476837","","","","51","1,1,0","3","forest","127","probe-48","0.42996573989493897","0.892698948275843","0.09942956067757786","0","","","","","","","",""
"","do_trial","198","946833","0.0-175.0-0.0","2313","","","","49","0,1,0","3","forest","128","probe-138","0.3750703394440386","0.7634858569842118","0.10406130562042368","0","","","","","","","",""
"","do_trial","199","951705","0.0-176.0-0.0","318.5","","","","50","1,1,1","3","forest","129","probe-202","0.42615955684774376","0.8366838429913428","0.167856019823302","1","","","","","","","",""
"","do_trial","200","956627","0.0-177.0-0.0","368","","","","51","0,1,1","3","forest","130","probe-182","0.681766933168089","0.5919428493924425","0.34167336131333215","1","","","","","","","",""
"","do_trial","201","961491","0.0-178.0-0.0","311.80000001192093","","","","50","0,1,1","3","forest","131","probe-146","0.8143255101548071","0.4708476726354707","0.3944266716152944","1","","","","","","","",""
"","do_trial","202","966611","0.0-179.0-0.0","566.3000000119209","","","","49","1,0,1","3","forest","132","probe-186","0.8264894655033836","0.390898675081622","0.4003969198151232","1","","","","","","","",""
"","do_trial","203","971593","0.0-180.0-0.0","432.30000001192093","","","","50","1,0,0","3","forest","133","probe-112","0.812295759210075","0.3119057422507481","0.4683694352911486","0","","","","","","","",""
"","do_trial","204","976589","0.0-181.0-0.0","442.19999998807907","","","","51","1,0,1","3","forest","134","probe-161","0.9375689017475213","0.16323086607057669","0.4861455603550345","1","","","","","","","",""
"","do_trial","205","981735","0.0-182.0-0.0","592.2000000476837","","","","49","1,0,0","3","forest","135","probe-129","0.9037059048593789","0.27360674405589097","0.4115398122302461","1","","","","","","","",""
"","do_trial","206","986869","0.0-183.0-0.0","580.6000000238419","","","","51","0,0,0","3","forest","136","probe-102","0.8891267449936896","0.20006188119885845","0.44575877484808807","0","","","","","","","",""
"","do_trial","207","991646","0.0-184.0-0.0","225.79999995231628","","","","51","1,0,0","3","forest","137","probe-73","0.8996361613086167","0.06674529522893892","0.47263560666037835","0","","","","","","","",""
"","do_trial","208","996200","0.0-185.0-0.0","0.19999998807907104","","","","49","1,0,0","3","forest","138","probe-131","0.865492224756175","0.43611625487207323","0.5236978516543422","1","","","","","","","",""
"","do_trial","209","1001209","0.0-186.0-0.0","457.30000001192093","","","","50","1,0,1","3","forest","139","probe-159","0.8169709932545093","0.4349746854833403","0.5889980165397367","0","","","","","","","",""
"","do_trial","210","1006167","0.0-187.0-0.0","403.89999997615814","","","","51","1,0,1","3","forest","140","probe-47","0.753526883649746","0.27718421457919834","0.38477004131947423","1","","","","","","","",""
"","do_trial","211","1010994","0.0-188.0-0.0","273.5","","","","51","0,0,1","3","forest","141","probe-177","0.7941768108905993","0.09572540279788803","0.46558164151296694","1","","","","","","","",""
"","do_trial","212","1016778","0.0-189.0-0.0","1230.5","","","","50","0,0,0","3","forest","142","probe-103","0.7129467972356466","0.06618676000126382","0.2883448123744403","0","","","","","","","",""
"","do_trial","213","1021594","0.0-190.0-0.0","264","","","","51","1,0,0","3","forest","143","probe-36","0.6730347905789301","0.09320681416129578","0.27164083194937677","0","","","","","","","",""
"","do_trial","214","1026291","0.0-191.0-0.0","143.30000001192093","","","","49","1,0,0","3","forest","144","probe-45","0.6703109679279778","0.13769455863196953","0.25075141349606256","1","","","","","","","",""
"","do_trial","215","1031316","0.0-192.0-0.0","470.69999998807907","","","","50","1,0,0","3","forest","145","probe-87","0.7097214749179296","0.10807311713576401","0.3640761923585083","0","","","","","","","",""
"","do_trial","216","1036327","0.0-193.0-0.0","457.7999999523163","","","","51","0,1,0","3","forest","146","probe-152","0.7478451867271778","0.23457934179551554","0.40014541718830005","0","","","","","","","",""
"","do_trial","217","1041314","0.0-194.0-0.0","433.80000001192093","","","","50","1,0,0","3","forest","147","probe-163","0.8383457543119073","0.16304325092042135","0.5195777770030025","0","","","","","","","",""
"","do_trial","218","1046203","0.0-195.0-0.0","333.89999997615814","","","","49","1,0,0","3","forest","148","probe-121","0.7768432566187717","0.2608290068815438","0.5573881896184786","1","","","","","","","",""
"","do_trial","219","1051990","0.0-196.0-0.0","1234.199999988079","","","","50","0,1,0","3","forest","149","probe-113","0.7926090037673914","0.1503177169403036","0.5466766261550935","1","","","","","","","",""
"","do_trial","220","1056893","0.0-197.0-0.0","348.9000000357628","","","","49","0,0,1","3","forest","150","probe-83","0.7430784950734888","0.2777021296883027","0.5305286437856076","0","","","","","","","",""
"","do_trial","221","1061669","0.0-198.0-0.0","222.5","","","","49","1,0,1","3","forest","151","probe-37","0.8263461692499474","0.2714164378254377","0.4433922467824226","1","","","","","","","",""
"","do_trial","222","1066547","0.0-199.0-0.0","326.19999998807907","","","","51","1,0,1","3","forest","152","probe-118","0.774431090986418","0.14332078942336293","0.4376844248942471","1","","","","","","","",""
"","do_trial","223","1071672","0.0-200.0-0.0","574.5999999642372","","","","50","1,0,1","3","forest","153","probe-92","0.8257540272675701","0.2193441326840582","0.41801051849074083","0","","","","","","","",""
"","do_trial","224","1076442","0.0-201.0-0.0","215.19999998807907","","","","49","1,0,0","3","forest","154","probe-41","0.8895714996622053","0.11010551206342648","0.4512589794050761","1","","","","","","","",""
"","do_trial","225","1081499","0.0-202.0-0.0","504.69999998807907","","","","51","1,0,1","3","forest","155","probe-236","0.8313216846164658","0.05805793604013225","0.4202395186242402","1","","","","","","","",""
"","do_trial","226","1086138","0.0-203.0-0.0","85.09999996423721","","","","49","1,0,0","3","forest","156","probe-110","0.6778586420135351","0.07843863569642906","0.322429927317848","1","","","","","","","",""
"","do_trial","227","1090833","0.0-204.0-0.0","140.89999997615814","","","","50","1,0,1","3","forest","157","probe-209","0.6451362883139625","0.26547011172884444","0.37659011362207007","0","","","","","","","",""
"","do_trial","228","1096731","0.0-205.0-0.0","1344.3999999761581","","","","50","0,0,0","3","forest","158","probe-234","0.5248571929159676","0.0732085538945018","0.4201299767890921","0","","","","","","","",""
"","do_trial","229","1101746","0.0-206.0-0.0","461.19999998807907","","","","51","0,0,1","3","forest","159","probe-80","0.7023859914830056","0.14109075802572524","0.45940356535832017","1","","","","","","","",""
"","do_bye","230","1103258","0.0-207.0-0.0","null","","","","null","","","","","","","","","","","","","","","","",""
"","do_travel","231","1109265","0.0-208.0-0.0","null","","","","null","","","","","","","","","","","","","","","","",""
"","do_welcome","232","1110776","0.0-208.0-1.0","null","","","","null","","","","","","","","","","","","","","","","",""
"","do_trial","233","1116257","0.0-209.0-0.0","926","","","","50","1,1,0","4","countryside","160","probe-15","1","0.2079914356864627","0.3648346679723515","1","","","","","","","",""
"","do_trial","234","1121278","0.0-210.0-0.0","467.4000000357628","","","","49","1,0,0","4","countryside","161","probe-79","1","0.1666012630509623","0.44389488624805395","1","","","","","","","",""
"","do_trial","235","1126314","0.0-211.0-0.0","482.30000001192093","","","","51","1,0,0","4","countryside","162","probe-43","1","0.21908337927855534","0.36264425930148014","0","","","","","","","",""
"","do_trial","236","1131183","0.0-212.0-0.0","315.80000001192093","","","","50","1,0,1","4","countryside","163","probe-44","1","0.19646311225578092","0.3546308816540911","0","","","","","","","",""
"","do_trial","237","1135927","0.0-213.0-0.0","189.39999997615814","","","","49","1,0,1","4","countryside","164","probe-210","0.8640307782297617","0.30278142559423865","0.3789642765243739","1","","","","","","","",""
"","do_trial","238","1140763","0.0-214.0-0.0","287.89999997615814","","","","51","1,0,0","4","countryside","165","probe-05","0.7828178643115724","0.1335619940931978","0.44632086307671087","0","","","","","","","",""
"","do_trial","239","1145479","0.0-215.0-0.0","162.10000002384186","","","","50","1,0,0","4","countryside","166","probe-96","0.7018735142023558","0.10597587058531996","0.4940771104782612","0","","","","","","","",""
"","do_trial","240","1150217","0.0-216.0-0.0","184.79999995231628","","","","50","1,1,1","4","countryside","167","probe-194","0.9207266754602402","0.18834046660865802","0.5320375041952206","1","","","","","","","",""
"","do_trial","241","1155338","0.0-217.0-0.0","566.5999999642372","","","","50","1,0,1","4","countryside","168","probe-104","0.7516014943300436","0.16758250249344298","0.5754400164283461","0","","","","","","","",""
"","do_trial","242","1160403","0.0-218.0-0.0","513.2999999523163","","","","50","1,0,0","4","countryside","169","probe-135","0.9377312385329546","0.22115138977996193","0.4293916796456944","0","","","","","","","",""
"","do_trial","243","1165516","0.0-219.0-0.0","559.1999999880791","","","","50","0,1,1","4","countryside","170","probe-133","0.5637385883844848","0.2233081579763197","0.6564473195701315","1","","","","","","","",""
"","do_trial","244","1170484","0.0-220.0-0.0","414.39999997615814","","","","49","0,0,1","4","countryside","171","probe-162","0.531680728383944","0.12472751494614169","0.7061561166205346","0","","","","","","","",""
"","do_trial","245","1175396","0.0-221.0-0.0","357.80000001192093","","","","49","1,0,0","4","countryside","172","probe-216","0.41542277017069473","0.07270602837263472","0.7381625069968994","1","","","","","","","",""
"","do_trial","246","1181267","0.0-222.0-0.0","1317.199999988079","","","","50","1,0,1","4","countryside","173","probe-149","0.5339452546778255","0.07317956141207624","0.7885123550415224","0","","","","","","","",""
"","do_trial","247","1186418","0.0-223.0-0.0","597.0999999642372","","","","51","1,0,0","4","countryside","174","probe-198","0.533714803126838","0.10387566198556822","0.7791659131481898","0","","","","","","","",""
"","do_trial","248","1191372","0.0-224.0-0.0","399.89999997615814","","","","49","1,0,1","4","countryside","175","probe-109","0.5111395678070837","0.16474572644727048","0.8278272940092782","1","","","","","","","",""
"","do_trial","249","1196258","0.0-225.0-0.0","332.4000000357628","","","","51","0,0,0","4","countryside","176","probe-117","0.374983227635576","0.08549217882233345","0.8408275515842314","0","","","","","","","",""
"","do_trial","250","1201180","0.0-226.0-0.0","382","","","","50","1,1,1","4","countryside","177","probe-134","0.5036023588323234","0.17642076837087037","0.7533892048067165","1","","","","","","","",""
"","do_trial","251","1205984","0.0-227.0-0.0","250.19999998807907","","","","49","1,0,1","4","countryside","178","probe-206","0.5209766365387563","0.12915299380602854","0.7500117404221358","1","","","","","","","",""
"","do_trial","252","1211022","0.0-228.0-0.0","484.10000002384186","","","","51","1,0,1","4","countryside","179","probe-167","0.49149626603107666","0.14694980079515005","0.7370034586680996","1","","","","","","","",""
"","do_trial","253","1215572","0.0-229.0-0.0","0","","","","50","0,0,1","4","countryside","180","probe-237","0.4752781592085236","0.06053694238236794","0.8122795031049904","0","","","","","","","",""
"","do_trial","254","1220658","0.0-230.0-0.0","531.8000000119209","","","","51","0,0,1","4","countryside","181","probe-140","0.4186292788218304","0.14461990886574705","0.8805079046267907","1","","","","","","","",""
"","do_trial","255","1225832","0.0-231.0-0.0","620.8999999761581","","","","51","0,0,1","4","countryside","182","probe-56","0.4815199122731256","0.2165586558247912","0.9123829934020751","1","","","","","","","",""
"","do_trial","256","1230914","0.0-232.0-0.0","531.1000000238419","","","","51","1,0,0","4","countryside","183","probe-122","0.5392823241657629","0.21169247432325178","0.7952585391303376","0","","","","","","","",""
"","do_trial","257","1235906","0.0-233.0-0.0","443.60000002384186","","","","51","0,0,0","4","countryside","184","probe-22","0.46180352834552224","0.14153422574800434","0.9049592053505043","0","","","","","","","",""
"","do_trial","258","1240715","0.0-234.0-0.0","257.60000002384186","","","","51","1,0,1","4","countryside","185","probe-08","0.43636214184228095","0.20254434986734424","0.8869745099490319","1","","","","","","","",""
"","do_trial","259","1245529","0.0-235.0-0.0","263.39999997615814","","","","51","1,0,1","4","countryside","186","probe-70","0.4031784824566971","0.13933275619916802","0.8220835547133143","1","","","","","","","",""
"","do_trial","260","1250344","0.0-236.0-0.0","261.80000001192093","","","","51","1,1,0","4","countryside","187","probe-171","0.35439069003824464","0.10311960408998416","0.8186174888490169","0","","","","","","","",""
"","do_trial","261","1255201","0.0-237.0-0.0","306.2000000476837","","","","51","0,0,1","4","countryside","188","probe-46","0.34075731071432974","0.057071976547420446","0.8752241291744229","1","","","","","","","",""
"","do_trial","262","1260067","0.0-238.0-0.0","316.5","","","","51","0,0,0","4","countryside","189","probe-165","0.35091339874292066","0.07923841579599626","0.8674301729893427","0","","","","","","","",""
"","do_trial","263","1264999","0.0-239.0-0.0","378.5","","","","51","0,1,1","4","countryside","190","probe-215","0.3722259436569234","0.20444174417165628","0.8673231953212525","1","","","","","","","",""
"","do_trial","264","1270819","0.0-240.0-0.0","1266.6000000238419","","","","49","1,0,1","4","countryside","191","probe-218","0.4109837670488483","0.07537900046517983","0.8760818287161446","1","","","","","","","",""
"","do_trial","265","1276482","0.0-241.0-0.0","1109.300000011921","","","","50","1,0,0","4","countryside","192","probe-67","0.32046499381172333","0.20488218169855682","0.7628378448733344","0","","","","","","","",""
"","do_trial","266","1281633","0.0-242.0-0.0","597.2000000476837","","","","49","1,0,0","4","countryside","193","probe-142","0.3641958133040115","0.051134859389101735","0.829237611520747","1","","","","","","","",""
"","do_trial","267","1286641","0.0-243.0-0.0","454.39999997615814","","","","51","1,0,1","4","countryside","194","probe-180","0.29485749227404934","0.09960923966820598","0.7610640286209095","1","","","","","","","",""
"","do_trial","268","1291685","0.0-244.0-0.0","489.9000000357628","","","","51","0,0,1","4","countryside","195","probe-94","0.3174659649472888","0.12098844481912054","0.7779121188165252","1","","","","","","","",""
"","do_trial","269","1297136","0.0-245.0-0.0","901.8000000119209","","","","51","0,0,1","4","countryside","196","probe-226","0.36876266222611015","0.12415469490590642","0.8126489617539053","1","","","","","","","",""
"","do_trial","270","1302330","0.0-246.0-0.0","640.2000000476837","","","","51","1,0,1","4","countryside","197","probe-184","0.46291446243443474","0.14179844125935293","0.9125591081633914","1","","","","","","","",""
"","do_trial","271","1307210","0.0-247.0-0.0","329.9000000357628","","","","49","0,1,1","4","countryside","198","probe-62","0.44789027788179153","0.21938053897753945","0.9496744842902177","0","","","","","","","",""
"","do_trial","272","1312066","0.0-248.0-0.0","301.80000001192093","","","","49","1,0,1","4","countryside","199","probe-153","0.5202443201241","0.1827262078772308","0.8597881359964566","1","","","","","","","",""
"","do_bye","273","1313575","0.0-249.0-0.0","null","","","","null","","","","","","","","","","","","","","","","",""
"","do_travel","274","1319580","0.0-250.0-0.0","null","","","","null","","","","","","","","","","","","","","","","",""
"","do_welcome","275","1321091","0.0-250.0-1.0","null","","","","null","","","","","","","","","","","","","","","","",""
"","do_trial","276","1326417","0.0-251.0-0.0","772.5999999642372","","","","51","0,1,1","5","coast","200","probe-136","0.5254833660860624","0.2971289455455375","1","1","","","","","","","",""
"","do_trial","277","1331283","0.0-252.0-0.0","312.5","","","","49","0,0,1","5","coast","201","probe-72","0.5977595823026255","0.35693359700043076","1","0","","","","","","","",""
"","do_trial","278","1336145","0.0-253.0-0.0","312.5","","","","50","1,0,1","5","coast","202","probe-130","0.4887431940905736","0.3108798482770099","1","0","","","","","","","",""
"","do_trial","279","1340985","0.0-254.0-0.0","288.60000002384186","","","","51","1,1,1","5","coast","203","probe-55","0.38445009355502413","0.11267800603738319","1","1","","","","","","","",""
"","do_trial","280","1346010","0.0-255.0-0.0","471.5999999642372","","","","49","0,1,1","5","coast","204","probe-03","0.33805820179220974","0.07773616739724201","0.9389771974208447","0","","","","","","","",""
"","do_trial","281","1351054","0.0-256.0-0.0","491.5","","","","50","0,0,1","5","coast","205","probe-128","0.3245938775802884","0.07862988240818643","0.8709366894176281","0","","","","","","","",""
"","do_trial","282","1355828","0.0-257.0-0.0","219.60000002384186","","","","50","0,1,1","5","coast","206","probe-147","0.3937130493446798","0.10112341070114717","0.9112493609652624","1","","","","","","","",""
"","do_trial","283","1360650","0.0-258.0-0.0","271.19999998807907","","","","50","0,0,0","5","coast","207","probe-196","0.38195679056703474","0.17196486240968958","0.8424477057511252","0","","","","","","","",""
"","do_trial","284","1365348","0.0-259.0-0.0","144.69999998807907","","","","51","0,1,1","5","coast","208","probe-214","0.4263019608291888","0.10986280194967886","0.7748342305672813","1","","","","","","","",""
"","do_trial","285","1370252","0.0-260.0-0.0","349.60000002384186","","","","49","0,0,1","5","coast","209","probe-84","0.29712910166355094","0.14662370791611856","0.8425462527805754","0","","","","","","","",""
"","do_trial","286","1375195","0.0-261.0-0.0","392.80000001192093","","","","51","0,0,0","5","coast","210","probe-54","0.3932506044544883","0.1813529167142659","0.5935824271282977","0","","","","","","","",""
"","do_trial","287","1381239","0.0-262.0-0.0","1490.300000011921","","","","51","1,1,1","5","coast","211","probe-240","0.5225597751093772","0.13427225044522528","0.41783715675705924","1","","","","","","","",""
"","do_trial","288","1386558","0.0-263.0-0.0","764.3999999761581","","","","51","0,0,1","5","coast","212","probe-59","0.592544175192877","0.2158009043631789","0.21898839896075925","1","","","","","","","",""
"","do_trial","289","1391990","0.0-264.0-0.0","878.3000000119209","","","","51","0,0,0","5","coast","213","probe-126","0.5722067121615529","0.3362893257018246","0.07670744956657796","0","","","","","","","",""
"","do_trial","290","1396802","0.0-265.0-0.0","260.5","","","","49","1,1,0","5","coast","214","probe-115","0.6387505533417709","0.3335888444103779","0.11541048410228029","1","","","","","","","",""
"","do_trial","291","1402179","0.0-266.0-0.0","822.8000000119209","","","","49","1,1,0","5","coast","215","probe-16","0.6806828811218297","0.38785706110284357","0.05241591283922209","1","","","","","","","",""
"","do_trial","292","1407146","0.0-267.0-0.0","418.4000000357628","","","","49","1,0,0","5","coast","216","probe-124","0.5685976333599958","0.2825409725210502","0.1716194552892035","1","","","","","","","",""
"","do_trial","293","1411942","0.0-268.0-0.0","241.79999995231628","","","","49","1,0,0","5","coast","217","probe-23","0.7272932816479017","0.4735407820678566","0.08847848104330307","1","","","","","","","",""
"","do_trial","294","1416707","0.0-269.0-0.0","211.30000001192093","","","","51","1,1,0","5","coast","218","probe-68","0.7978502956472816","0.45473321404623485","0.08821592344203712","0","","","","","","","",""
"","do_trial","295","1421605","0.0-270.0-0.0","344.9000000357628","","","","49","1,1,0","5","coast","219","probe-90","0.8304865712007091","0.5468104425003735","0.06344692980991169","1","","","","","","","",""
"","do_trial","296","1426341","0.0-271.0-0.0","181.80000001192093","","","","49","1,0,0","5","coast","220","probe-95","0.8333739678803018","0.3904418233667905","0.12382033514091392","1","","","","","","","",""
"","do_trial","297","1431190","0.0-272.0-0.0","295.0999999642372","","","","51","1,0,0","5","coast","221","probe-197","0.7836495514404951","0.3800632559610344","0.14888636349745046","0","","","","","","","",""
"","do_trial","298","1436032","0.0-273.0-0.0","289.10000002384186","","","","49","0,1,1","5","coast","222","probe-235","0.8487968229997191","0.3641861896730771","0.12778791779780022","0","","","","","","","",""
"","do_trial","299","1441011","0.0-274.0-0.0","435.39999997615814","","","","49","0,0,0","5","coast","223","probe-189","0.8630822701693923","0.3161517321306797","0.17962648732068787","0","","","","","","","",""
"","do_trial","300","1445716","0.0-275.0-0.0","151","","","","51","1,0,0","5","coast","224","probe-173","0.9339017896565082","0.2370476135360697","0.17055775498170841","0","","","","","","","",""
"","do_trial","301","1451055","0.0-276.0-0.0","789.5","","","","51","0,0,0","5","coast","225","probe-09","0.7121560175616528","0.23573594225933645","0.30260224928506513","0","","","","","","","",""
"","do_trial","302","1456032","0.0-277.0-0.0","423.5999999642372","","","","49","1,0,0","5","coast","226","probe-64","0.8102259225635392","0.392646776955473","0.18790318233769823","1","","","","","","","",""
"","do_trial","303","1461279","0.0-278.0-0.0","692.6000000238419","","","","51","1,0,0","5","coast","227","probe-200","0.857834497212651","0.44473955209178156","0.24266425549268697","0","","","","","","","",""
"","do_trial","304","1465833","0.0-279.0-0.0","0.10000002384185791","","","","49","1,0,0","5","coast","228","probe-175","0.9107754968365228","0.5031940411927295","0.2118733132935865","1","","","","","","","",""
"","do_trial","305","1470820","0.0-280.0-0.0","433.10000002384186","","","","49","1,0,0","5","coast","229","probe-01","0.9386747236103813","0.30782752533165325","0.20643432821577495","1","","","","","","","",""
"","do_trial","306","1475400","0.0-281.0-0.0","29.600000023841858","","","","50","0,1,0","5","coast","230","probe-225","0.8820651902180976","0.38009875860001324","0.28755965280211604","1","","","","","","","",""
"","do_trial","307","1480332","0.0-282.0-0.0","378","","","","50","0,1,0","5","coast","231","probe-212","0.7479282192711376","0.5313103069365243","0.22028044311424866","1","","","","","","","",""
"","do_trial","308","1485295","0.0-283.0-0.0","413.69999998807907","","","","49","1,1,0","5","coast","232","probe-144","0.7565812734184019","0.5424349516957985","0.22613005771477127","1","","","","","","","",""
"","do_trial","309","1490409","0.0-284.0-0.0","560.8000000119209","","","","50","1,0,0","5","coast","233","probe-137","0.8729521415618183","0.4696033194919158","0.20975112862556297","0","","","","","","","",""
"","do_trial","310","1495254","0.0-285.0-0.0","291.5","","","","49","1,0,0","5","coast","234","probe-78","0.7804869884168693","0.38977468391372433","0.19663110872157608","1","","","","","","","",""
"","do_trial","311","1500869","0.0-286.0-0.0","1060.800000011921","","","","49","1,1,1","5","coast","235","probe-71","0.7673600709638081","0.3564067030572046","0.18996399331794994","1","","","","","","","",""
"","do_trial","312","1506204","0.0-287.0-0.0","781.0999999642372","","","","49","1,0,0","5","coast","236","probe-31","0.6927779061652182","0.47198288283177375","0.19762835482862515","1","","","","","","","",""
"","do_trial","313","1511082","0.0-288.0-0.0","328.80000001192093","","","","49","0,1,0","5","coast","237","probe-04","0.696818007048424","0.5422229352340677","0.20054182658204395","0","","","","","","","",""
"","do_trial","314","1515677","0.0-289.0-0.0","42.10000002384186","","","","50","1,0,0","5","coast","238","probe-07","0.616719772039475","0.46461022962322907","0.24322057447416412","0","","","","","","","",""
"","do_trial","315","1520231","0.0-290.0-0.0","0.20000004768371582","","","","51","0,0,0","5","coast","239","probe-199","0.6238650579556569","0.509483773579114","0.18016180283700903","0","","","","","","","",""
"","do_bye","316","1521742","0.0-291.0-0.0","null","","","","null","","","","","","","","","","","","","","","","",""
"","html-keyboard-response","317","1526120","0.0-291.0-1.0","4376.900000035763","<div class='center'>You are all done with the first part of the experiment! Thank you for participating. Tomorrow, you will recieve an invite to participate in the next phase of the experiment which you must complete by the end of the day. <p><b>[Press the space bar to end the experiment]</b></p></div>","32","","","","","","","","","","","","2,4,5,3,1,0","88,207,191,231,147,12,178,48,50,59,5,138,187,113,155,142,186,20,74,106,119,190,131,26,180,75,11,232,96,34,25,238,194,87,81,28,13,84,16,118,167,156,57,17,165,227,56,169,32,171,33,90,140,124,51,65,204,192,31,173,144,39,1,200,105,182,27,175,62,107,37,122,60,149,168,219,202,153,226,92,80,163,85,184,210,220,18,19,52,68,229,228,99,9,29,49,154,221,10,126,223,222,237,218,177,64,73,38,41,206,98,100,97,212,230,24,189,216,159,76,157,115,23,203,150,110,104,47,137,201,181,145,185,111,160,128,101,72,130,158,46,176,102,35,44,86,151,162,120,112,82,36,117,91,40,235,109,208,233,79,14,78,42,43,209,4,95,193,103,134,132,161,215,148,197,108,116,133,205,166,236,139,55,121,21,7,69,170,45,164,214,217,66,141,179,93,225,183,61,152,135,71,129,54,2,127,146,195,213,83,53,239,58,125,114,15,123,22,67,89,94,196,234,188,172,8,63,199,174,0,224,211,143,136,77,70,30,3,6,198","3,16,5,7,10,18,14,15,1,9,4,13,11,17,8,12,0,2,6","1,0.8855925725120386,0.865181765014934,0.6966705631083702,0.8773290030828669,0.9088605363088934,0.9143585786305313,0.8222658549256916,0.7560352836984481,0.7551438022177128,0.6535266113926627,0.7526166004473646,0.6662271873978375,0.6723676802107086,0.6493271376520212,0.4258257111175624,0.4854314793808666,0.47663392206431504,0.5069034325691093,0.5260924687108278,0.3778959590158755,0.35820623225765447,0.47966554096374153,0.3975350593056781,0.33957147517517405,0.3203949691507964,0.37641650516197867,0.36533794390275537,0.4407327907667187,0.4077639252628044,0.44832862812778773,0.4170893952404039,0.3940886122503303,0.2790374884492478,0.2640763186740442,0.29705963363090204,0.4592199476092222,0.43375171345663954,0.49786357421755406,0.4927376044003643,0.6029035483148374,0.6886438227103657,0.5580525093365243,0.6074665839906664,0.37786051408647225,0.3905361280654795,0.4527847345244518,0.38877850303079714,0.5161426069497196,0.4951309199197024,0.3950111721572867,0.364407801108195,0.5092252587887177,0.40807576061041645,0.4828120250022396,0.5723914683237252,0.49472163782165085,0.48491330390745285,0.40020934028362204,0.43534996272905646,0.35751437972561273,0.18409506212955815,0.270367683570985,0.44571688181344327,0.4260990352700015,0.6205336521545575,0.5221873853664194,0.5318051568936776,0.5832392851607208,0.48325780751282693,0.6600504462849872,0.7690339955832454,0.8203104851543712,0.7753983381307481,0.9171933146158723,0.9130023676480924,0.9165479752942439,0.7641453334818007,0.7941537724699778,0.6691315022913366,0.6233693908905142,0.5449618531294951,0.6260246005414141,0.6128816332017077,0.6829455823771664,0.7026931734599932,0.8175967582164188,0.740254794188544,0.9240612675184654,0.7275285692884346,1,0.9347728276240436,0.8300198163582069,0.7774233602262354,0.8187158894039988,0.8457351345083128,0.7434174838605355,0.6729969919454449,0.7637908455895014,0.946661497967768,0.7412639500461304,0.6185540889095491,0.5931289869208276,0.5222265704386682,0.5075260503783783,0.40158667723513913,0.3151723009662922,0.29035320179234647,0.2656826436069079,0.3497522301394537,0.5768690656980171,0.4925232671282172,0.45106379436286786,0.47367967976285924,0.3695425755283083,0.32267175641140705,0.21416960300010737,0.3328327746901863,0.40552602457321757,0.45604046313351104,0.4971128084731458,0.4895473748230439,0.5653629784506542,0.5711647394562895,0.43731136570240836,0.464598018859895,0.6187779833562942,0.618240143716147,0.48509649077424605,0.4621400943135794,0.32141581041547473,0.4161207939195557,0.37482705201655625,0.3484459371986905,0.4971080168547623,0.3942864038634986,0.49178092530355844,0.32410347742900164,0.41607878872107057,0.4653005224255384,0.44794218635648003,0.48316525790557024,0.44565231961879576,0.32827725237704447,0.5458889282870201,0.5321821782024159,0.4111106622602007,0.43425335308520124,0.29577513784812115,0.25387014157172677,0.30925574718888565,0.46349249894716166,0.47067513684712503,0.47407726288396346,0.4806243665917901,0.4978950317183983,0.4008410670470376,0.34186524667060925,0.38309151196737595,0.29583526389731524,0.4500551630405866,0.47529429547211827,0.48441059574835527,0.5856262640133558,0.7302160510934457,0.6251255710935805,0.780804174683297,0.9256299156603064,0.9125438404237638,0.9076063316611571,0.7962867266860724,0.9306270199824972,0.8299082062072768,0.8560797593126855,0.7744847101152257,0.7908261118551563,0.8859487436288034,0.6830982763645753,0.73126422426926,0.631834158748034","0.47441421441972914,0.33156118136616625,0.36385784883918426,0.5019142761982152,0.42054988954373174,0.4028143489555739,0.43982092989552385,0.4469932399418079,0.5134047547663652,0.277452108981853,0.232715209222829,0.10359598046640564,0.21741661046706212,0.26357442475923054,0.0792846905639281,0.14906574169399753,0.10999373087349852,0.1706857729658781,0.26899144677256903,0.21297079436133434,0.1847564782912531,0.12594195754395243,0.13208163791232416,0.0944653005112187,0.15977656880444865,0.24632280598769238,0.18782495291010326,0.07907512217899244,0.13163451089112174,0.13084004932183638,0.053525316212378986,0.05331473513135039,0.12255487514878625,0.19174270867345172,0.11310069645137041,0.07790128785131392,0.08446730571197449,0.08212063423962877,0.10544684882928473,0.10246186633489753,0.07964518689204594,0.16272031944298626,0.442166209717328,0.6852484996993137,0.8903343275312224,0.9127816910388853,0.9178171307968798,0.7577546780937663,0.7154483227915523,0.6317392803794857,0.7440322225060214,0.8374049967183195,0.8556575111677021,0.8925884517747206,0.9356926515418086,0.7663864758447209,0.7330335010872725,0.7348413908012508,0.5975530680083536,0.6154921248854063,1,0.8460037703970972,0.7819074320056457,0.8471777864346709,0.9292398376747517,0.7744419133761096,0.6956581269554165,0.7289131552018108,0.6295449515488114,0.7732733791856232,0.5327969179569594,0.44610943437524136,0.3135432346403349,0.2684723452148557,0.27353911799171055,0.11998982879201046,0.2879635376459254,0.1907285844539142,0.13812487341524965,0.06645369804044457,0.3452838140208288,0.280499125588358,0.21446520729084373,0.08660394934283724,0.10712677133157923,0.22361218692179174,0.26870430335665524,0.24148884566798487,0.2050203012752944,0.12918634845403063,0.1281054168937481,0.06882578068985097,0.12695046678232969,0.11094714625409385,0.12081469157672968,0.1268585062931592,0.09943113884912835,0.21430334243221194,0.13318462036196285,0.2687097209309624,0.42976927767777573,0.6131162728028493,0.8339874527762257,0.8722948864890908,0.9252837305679534,0.8906283452704491,0.9184700282079614,0.7882455258131803,0.8683246473730206,0.6439151934948287,0.8421337699462537,0.8611231947605055,0.8640906173453943,0.7687316220782071,0.8160746298180371,0.8175547861019878,0.8264535656832847,0.9321088714047552,0.928809732598478,0.8463968835396476,1,0.8813565856216576,0.8662881935436495,0.8825642954509766,0.8011994499210603,0.8023974417962273,0.7946723236949198,0.8906873445552427,0.7404792684304645,0.6882084121155151,0.741053839344084,0.8174983948540032,0.7704218123220116,0.8266663176947457,0.839210139365588,0.8213509285931474,0.8257258563123554,0.8381260997721961,0.8638842429203797,0.6379039722622915,0.47359806177858377,0.32699444253677973,0.25883254780219567,0.18221506222761139,0.2434359575090965,0.1633331518254364,0.10204976285039066,0.13094504905482554,0.20789698126761966,0.12378226519358766,0.15326371082600132,0.11408930888189062,0.08532778575108273,0.11771201851408904,0.20949423630132694,0.05135864515451338,0.06217577784124277,0.12798513363607258,0.20052286886358356,0.23859906753584548,0.19765615902190178,0.09058350251411276,0.1956636617346802,0.08957053684515351,0.23910723162433103,0.23221250933685164,0.19230268968578465,0.07948899481282105,0.07005406040456898,0.16664484228609028,0.18444600821120546,0.2683753691286976,0.13228137930735887,0.08421430262934253,0.07460811427287191,0.08963430472112213,0.21040057710210222,0.18438735189174751,0.1638404626056014,0.1608454986612565","0.3222973589680885,0.2408824366457919,0.0982504030065552,0.1946197665583469,0.0629179677818261,0.1009892123434512,0.08673979124543976,0.0712875721576724,0.09890133789089149,0.05779671673782499,0.4446998847911745,0.5817412709616151,0.6245724833780176,0.6136084704686526,0.7012282153980749,0.7725928924379984,0.7505778478940431,0.7334405599632237,0.7778495150717021,0.7923711758090332,0.7601644237816477,0.8449069823829056,0.8332241340291671,0.8728883653508152,0.928834400332304,0.8399639338445389,0.9132383093926246,0.8661065421764278,0.8585219174516963,0.8604456449414423,1,0.9081051806661242,0.8956036466480594,0.8255574556827137,0.7249564042006962,0.7008654263821315,0.7168636864790735,0.7220279634495429,0.6219767772630237,0.7166224559907304,0.7299469807726076,0.6614369867616491,0.4500258113513707,0.28740353653926926,0.19871589046437352,0.07690785522893938,0.080699936581284,0.22137253337598467,0.10766495896096828,0.1645135637816723,0.15077934620774544,0.07257843509132801,0.060482142480558165,0.15704936713890483,0.0638094572043437,0.10038656475598585,0.13849866772287003,0.1522351570359863,0.08075622757689964,0.0556039593900182,0.06571277289083127,0.1917931888195815,0.11632842926170169,0.07518385731422252,0.2463699285455768,0.22551397102062987,0.11482282296580039,0.1609993860511719,0.05415251618541682,0.20189115662829327,0.3123153711718478,0.24649104533681615,0.37200587173891864,0.37704942537081265,0.464807128715475,0.42891765771794016,0.36392885549320947,0.3048051569579486,0.3426724905279383,0.5142500149298195,0.547072224636951,0.6826994696122273,0.5346461206816312,0.44269509804727813,0.4241562125010862,0.5431960694147258,0.5956325635539264,0.5810123051930343,0.4568868613248289,0.3982462624987918,0.4553606816673952,0.213427631403718,0.3499402678761783,0.3934675695882386,0.5867762188805508,0.4648657454174308,0.469661937188155,0.5157374481759172,0.40954381523253475,0.4111788627822427,0.4511597368969605,0.2710166458559641,0.18336913508147654,0.1521713578717011,0.08994873900570266,0.12994420086292674,0.13676708078844244,0.14206458005957578,0.12425692015665718,0.11998929003222593,0.0771556267523316,0.0709317506019736,0.08494368248196354,0.17737001494490912,0.21333517306811003,0.07768150276963151,0.09149140839208011,0.23480700131943727,0.08563196787980797,0.1926228846669398,0.24801890703331048,0.23482366717747777,0.258014753099964,0.2281042799032679,0.1969185026648838,0.32351822993247153,0.26627756065464314,0.2731599097805883,0.25572245076705963,0.14407956858093912,0.11583721325856104,0.12799087779625784,0.11286846655553859,0.17748912900208574,0.07937546795362381,0.17097671557961783,0.21289848564750333,0.19657809182850472,0.08162163342225058,0.4255488937210542,0.5015959514043533,0.6661970594564932,0.6757621180856319,0.6501419428677291,0.6492550867483051,0.8139371867297055,0.6913805213763693,0.7011421461756089,0.8628488310463532,0.9179521396234663,1,0.9366683951236506,0.8362361927205262,0.8357663173604958,0.7083958940839182,0.692344695810609,0.743121294878614,0.6775040996224455,0.7442359421686726,0.6612422602732997,0.5397763982183804,0.671222162417118,0.4311189213700907,0.43219920886665386,0.5044711077392543,0.39787482939605023,0.38841315267918974,0.37100722007254655,0.49538889002242237,0.4465847777572145,0.4719334397187058,0.2793709936181967,0.10476160308057544,0.20790806966905376,0.3314465797153522,0.3875836832910862,0.36862596283796656,0.2684360058887933,0.3960955329700465,0.3152156757451513","43,168,165,83,84,81,88,125,85,41,200,207,86,161,80,162,208,163,204,166,123,201,122,205,206,47,164,202,128,49,160,44,40,46,124,167,82,127,169,209,89,48,42,203,129,87,45","1,1,4,1,1,1,2,1,5,1,1,6,1,1,1,3,1,5,2,1,1,1,4,2,1,1,1,1,1,1,2,4,1,4,7,1,1,2,3,5,1,4,1,1,1,1,3,1,4,1,2,1,1,6,1,3,1,1,1,1"
