"success","trial_type","trial_index","time_elapsed","internal_node_id","interactions","blur_events","focus_events","fullscreenenter_events","fullscreenexit_events","rt","stimulus","key_press","subject_id","participant_id","age","gender","prompt","response","choice_outcomes","context_n","context_img_id","trial_n","probe_img_id","pR_red","pR_white","pR_black","outcome","contextArray_ind","validImageProbes","invalidImageProbes","pRew_Red","pRew_White","pRew_Black","availableForMemProbe","choice_blocks"
"true","fullscreen","0","10028","0.0-0.0","""event"",""trial"",""time""
""fullscreenenter"",""0"",""9067""
","
","
","""event"",""trial"",""time""
""fullscreenenter"",""0"",""9067""
","
","","","","","","","","","","","","","","","","","","","","","","","","","",""
"","pavlovia","1","10034","0.0-1.0","""event"",""trial"",""time""
""fullscreenenter"",""0"",""9067""
","
","
","""event"",""trial"",""time""
""fullscreenenter"",""0"",""9067""
","
","","","","","","","","","","","","","","","","","","","","","","","","","",""
"","instruc1","2","55235","0.0-2.0","""event"",""trial"",""time""
""fullscreenenter"",""0"",""9067""
","
","
","""event"",""trial"",""time""
""fullscreenenter"",""0"",""9067""
","
","null","run_exp/static/audio/clip_1_welcome.m4a","null","217","171","8","Male","<div class='center'><p>Welcome! This is the first part of the study. It will last ~30 minutes. In part 1 and part 2 of the study, you are the head captain of a pirate ship traveling around the world to different islands. You will play a few different games throughout these two parts. Here is an overview of them:</p><br><p>Part 1 (today)</p><p>1. Instructions, practice game, and quiz</p><p>2. Pick a pirate game on 6 different islands</p><br><p>Part 2 (tomorrow)</p><p>3. Pick a pirate game and memory game</p><p>4. Where did you see this ship? </p></div>","","","","","","","","","","","","","","","","","",""
"","html-keyboard-response","3","58944","0.0-3.0","""event"",""trial"",""time""
""fullscreenenter"",""0"",""9067""
","
","
","""event"",""trial"",""time""
""fullscreenenter"",""0"",""9067""
","
","3707.2000000476837","<div class='center'><p>Welcome! This is the first part of the study. It will last ~30 minutes. In part 1 and part 2 of the study, you are the head captain of a pirate ship traveling around the world to different islands. You will play a few different games throughout these two parts. Here is an overview of them:</p><br><p>Part 1 (today)</p><p>1. Instructions, practice game, and quiz</p><p>2. Pick a pirate game on 6 different islands</p><br><p>Part 2 (tomorrow)</p><p>3. Pick a pirate game and memory game</p><p>4. Where did you see this ship? </p><p><b>[Press the space bar to continue]</b></p></div>","32","","","","","","","","","","","","","","","","","","","","","","",""
"","instruc2","4","64253","0.0-4.0","""event"",""trial"",""time""
""fullscreenenter"",""0"",""9067""
","
","
","""event"",""trial"",""time""
""fullscreenenter"",""0"",""9067""
","
","null","run_exp/static/audio/clip_2_different_places.m4a","null","","","","","<div class='center'><p>Today, you’ll visit these 6 islands on your journey. You'll be able to see these islands from your ship.</p><p><img src='run_exp/static/images/contexts/all_contexts.png' height='500'></p></div>","","","","","","","","","","","","","","","","","",""
"","html-keyboard-response","5","66365","0.0-5.0","""event"",""trial"",""time""
""fullscreenenter"",""0"",""9067""
","
","
","""event"",""trial"",""time""
""fullscreenenter"",""0"",""9067""
","
","2111.399999976158","<div class='center'><p>Today, you’ll visit these 6 islands on your journey. You'll be able to see these islands from your ship.</p><p><img src='run_exp/static/images/contexts/all_contexts.png' height='500'></p><p><b>[Press the space bar to continue]</b></p></div>","32","","","","","","","","","","","","","","","","","","","","","","",""
"","instruc3","6","76053","0.0-6.0","""event"",""trial"",""time""
""fullscreenenter"",""0"",""9067""
","
","
","""event"",""trial"",""time""
""fullscreenenter"",""0"",""9067""
","
","null","run_exp/static/audio/clip_3_goal_of_game_1.m4a","null","","","","","<div class='center'><p> The pirates on your ship will rob other ships as they leave the island.</p> These ships have just sold their goods to the islanders, so they will be filled with lots and lots of gold.</p><p><img src='run_exp/static/images/tutorial/ship_center.png' height='400'></p></div>","","","","","","","","","","","","","","","","","",""
"","html-keyboard-response","7","88198","0.0-7.0","""event"",""trial"",""time""
""fullscreenenter"",""0"",""9067""
","
","
","""event"",""trial"",""time""
""fullscreenenter"",""0"",""9067""
","
","12143.399999976158","<div class='center'><p> The pirates on your ship will rob other ships as they leave the island.</p> These ships have just sold their goods to the islanders, so they will be filled with lots and lots of gold.</p><p><img src='run_exp/static/images/tutorial/ship_center.png' height='400'></p><p><b>[Press the space bar to continue]</b></p></div>","32","","","","","","","","","","","","","","","","","","","","","","",""
"","instruc4","8","116161","0.0-8.0","""event"",""trial"",""time""
""fullscreenenter"",""0"",""9067""
","
","
","""event"",""trial"",""time""
""fullscreenenter"",""0"",""9067""
","
","null","run_exp/static/audio/clip_4_goal_of_game_2.m4a","null","","","","","<div class='center'><p>As the head captain, you do not have to rob any ships yourself. Another pirate will be doing the robbing for you. First, you will choose a pirate to rob the next ship.</p><p><img src='run_exp/static/images/tutorial/pirates_all_crop.png' height='200'></p><p>Then, you'll see if the pirate successfully robbed the ship of their gold. If they were successful, then you'll get a stack of gold coins like this:</p><p><img src='run_exp/static/images/tutorial/reward.png' height='150'></p><p> If they were <b>not</b> successful, then you'll get no gold coins, and you'll see a big red x like this: </p><p><img src='run_exp/static/images/tutorial/reward_no.png' height='150'></p><p> How much bonus money you make is based on how many gold coins you collect.</p><div>","","","","","","","","","","","","","","","","","",""
"","html-keyboard-response","9","119814","0.0-9.0","""event"",""trial"",""time""
""fullscreenenter"",""0"",""9067""
","
","
","""event"",""trial"",""time""
""fullscreenenter"",""0"",""9067""
","
","3650.8000000715256","<div class='center'><p>As the head captain, you do not have to rob any ships yourself. Another pirate will be doing the robbing for you. First, you will choose a pirate to rob the next ship.</p><p><img src='run_exp/static/images/tutorial/pirates_all_crop.png' height='200'></p><p>Then, you'll see if the pirate successfully robbed the ship of their gold. If they were successful, then you'll get a stack of gold coins like this:</p><p><img src='run_exp/static/images/tutorial/reward.png' height='150'></p><p> If they were <b>not</b> successful, then you'll get no gold coins, and you'll see a big red x like this: </p><p><img src='run_exp/static/images/tutorial/reward_no.png' height='150'></p><p> How much bonus money you make is based on how many gold coins you collect.</p<p><b>[Press the space bar to continue]</b></p></div>","32","","","","","","","","","","","","","","","","","","","","","","",""
"","instruc5","10","141408","0.0-10.0","""event"",""trial"",""time""
""fullscreenenter"",""0"",""9067""
","
","
","""event"",""trial"",""time""
""fullscreenenter"",""0"",""9067""
","
","21592.799999952316","run_exp/static/audio/clip_5_probabilistic.m4a","49","","","","","<div class='center'><p>Even the most skilled pirate can not rob EVERY ship.</p><p> Some ships will have very strong protections against pirate attacks.</p><p> Blue beard, here, is very, very good at robbing ships, but he won't be successful every time he tries to rob one.</p><p> You can press the <b>‘1’</b> key on the keyboard to choose him.</p><p> Try choosing him 10 times to see how often he succeeds at robbing a ship. </p><p><img src='run_exp/static/images/tutorial/blue.png' height='500'></p></div>","","","","","","","","","","","","","","","","","",""
"","html-keyboard-response","11","142910","0.0-11.0","""event"",""trial"",""time""
""fullscreenenter"",""0"",""9067""
","
","
","""event"",""trial"",""time""
""fullscreenenter"",""0"",""9067""
","
","null","<div class='center'><p><img src='run_exp/static/images/tutorial/blue_win.png' height='500'></p></div>","null","","","","","","","","","","","","","","","","","","","","","","",""
"","html-keyboard-response","12","147274","0.0-12.0","""event"",""trial"",""time""
""fullscreenenter"",""0"",""9067""
","
","
","""event"",""trial"",""time""
""fullscreenenter"",""0"",""9067""
","
","4362.200000047684","<div class='center'><img src='run_exp/static/images/tutorial/blue.png' height='500'></p></div>","49","","","","","","","","","","","","","","","","","","","","","","",""
"","html-keyboard-response","13","148790","0.0-13.0","""event"",""trial"",""time""
""fullscreenenter"",""0"",""9067""
","
","
","""event"",""trial"",""time""
""fullscreenenter"",""0"",""9067""
","
","null","<div class='center'><p><img src='run_exp/static/images/tutorial/blue_win.png' height='500'></p></div>","null","","","","","","","","","","","","","","","","","","","","","","",""
"","html-keyboard-response","14","150233","0.0-14.0","""event"",""trial"",""time""
""fullscreenenter"",""0"",""9067""
","
","
","""event"",""trial"",""time""
""fullscreenenter"",""0"",""9067""
","
","1442.7999999523163","<div class='center'><img src='run_exp/static/images/tutorial/blue.png' height='500'></p></div>","49","","","","","","","","","","","","","","","","","","","","","","",""
"","html-keyboard-response","15","151753","0.0-15.0","""event"",""trial"",""time""
""fullscreenenter"",""0"",""9067""
","
","
","""event"",""trial"",""time""
""fullscreenenter"",""0"",""9067""
","
","null","<div class='center'><p><img src='run_exp/static/images/tutorial/blue_win.png' height='500'></p></div>","null","","","","","","","","","","","","","","","","","","","","","","",""
"","html-keyboard-response","16","152159","0.0-16.0","""event"",""trial"",""time""
""fullscreenenter"",""0"",""9067""
","
","
","""event"",""trial"",""time""
""fullscreenenter"",""0"",""9067""
","
","404.2999999523163","<div class='center'><img src='run_exp/static/images/tutorial/blue.png' height='500'></p></div>","49","","","","","","","","","","","","","","","","","","","","","","",""
"","html-keyboard-response","17","153671","0.0-17.0","""event"",""trial"",""time""
""fullscreenenter"",""0"",""9067""
","
","
","""event"",""trial"",""time""
""fullscreenenter"",""0"",""9067""
","
","null","<div class='center'><p><img src='run_exp/static/images/tutorial/blue_no_win.png' height='500'></p></div>","null","","","","","","","","","","","","","","","","","","","","","","",""
"","html-keyboard-response","18","154887","0.0-18.0","""event"",""trial"",""time""
""fullscreenenter"",""0"",""9067""
","
","
","""event"",""trial"",""time""
""fullscreenenter"",""0"",""9067""
","
","1215.1000000238419","<div class='center'><img src='run_exp/static/images/tutorial/blue.png' height='500'></p></div>","49","","","","","","","","","","","","","","","","","","","","","","",""
"","html-keyboard-response","19","156392","0.0-19.0","""event"",""trial"",""time""
""fullscreenenter"",""0"",""9067""
","
","
","""event"",""trial"",""time""
""fullscreenenter"",""0"",""9067""
","
","null","<div class='center'><p><img src='run_exp/static/images/tutorial/blue_win.png' height='500'></p></div>","null","","","","","","","","","","","","","","","","","","","","","","",""
"","html-keyboard-response","20","157221","0.0-20.0","""event"",""trial"",""time""
""fullscreenenter"",""0"",""9067""
","
","
","""event"",""trial"",""time""
""fullscreenenter"",""0"",""9067""
","
","827.7000000476837","<div class='center'><img src='run_exp/static/images/tutorial/blue.png' height='500'></p></div>","49","","","","","","","","","","","","","","","","","","","","","","",""
"","html-keyboard-response","21","158729","0.0-21.0","""event"",""trial"",""time""
""fullscreenenter"",""0"",""9067""
","
","
","""event"",""trial"",""time""
""fullscreenenter"",""0"",""9067""
","
","null","<div class='center'><p><img src='run_exp/static/images/tutorial/blue_win.png' height='500'></p></div>","null","","","","","","","","","","","","","","","","","","","","","","",""
"","html-keyboard-response","22","159721","0.0-22.0","""event"",""trial"",""time""
""fullscreenenter"",""0"",""9067""
","
","
","""event"",""trial"",""time""
""fullscreenenter"",""0"",""9067""
","
","991","<div class='center'><img src='run_exp/static/images/tutorial/blue.png' height='500'></p></div>","49","","","","","","","","","","","","","","","","","","","","","","",""
"","html-keyboard-response","23","161238","0.0-23.0","""event"",""trial"",""time""
""fullscreenenter"",""0"",""9067""
","
","
","""event"",""trial"",""time""
""fullscreenenter"",""0"",""9067""
","
","null","<div class='center'><p><img src='run_exp/static/images/tutorial/blue_win.png' height='500'></p></div>","null","","","","","","","","","","","","","","","","","","","","","","",""
"","html-keyboard-response","24","161863","0.0-24.0","""event"",""trial"",""time""
""fullscreenenter"",""0"",""9067""
","
","
","""event"",""trial"",""time""
""fullscreenenter"",""0"",""9067""
","
","624","<div class='center'><img src='run_exp/static/images/tutorial/blue.png' height='500'></p></div>","49","","","","","","","","","","","","","","","","","","","","","","",""
"","html-keyboard-response","25","163373","0.0-25.0","""event"",""trial"",""time""
""fullscreenenter"",""0"",""9067""
","
","
","""event"",""trial"",""time""
""fullscreenenter"",""0"",""9067""
","
","null","<div class='center'><p><img src='run_exp/static/images/tutorial/blue_no_win.png' height='500'></p></div>","null","","","","","","","","","","","","","","","","","","","","","","",""
"","html-keyboard-response","26","164462","0.0-26.0","""event"",""trial"",""time""
""fullscreenenter"",""0"",""9067""
","
","
","""event"",""trial"",""time""
""fullscreenenter"",""0"",""9067""
","
","1087","<div class='center'><img src='run_exp/static/images/tutorial/blue.png' height='500'></p></div>","49","","","","","","","","","","","","","","","","","","","","","","",""
"","html-keyboard-response","27","165969","0.0-27.0","""event"",""trial"",""time""
""fullscreenenter"",""0"",""9067""
","
","
","""event"",""trial"",""time""
""fullscreenenter"",""0"",""9067""
","
","null","<div class='center'><p><img src='run_exp/static/images/tutorial/blue_win.png' height='500'></p></div>","null","","","","","","","","","","","","","","","","","","","","","","",""
"","html-keyboard-response","28","167315","0.0-28.0","""event"",""trial"",""time""
""fullscreenenter"",""0"",""9067""
","
","
","""event"",""trial"",""time""
""fullscreenenter"",""0"",""9067""
","
","1344.8999999761581","<div class='center'><img src='run_exp/static/images/tutorial/blue.png' height='500'></p></div>","49","","","","","","","","","","","","","","","","","","","","","","",""
"","html-keyboard-response","29","168828","0.0-29.0","""event"",""trial"",""time""
""fullscreenenter"",""0"",""9067""
","
","
","""event"",""trial"",""time""
""fullscreenenter"",""0"",""9067""
","
","null","<div class='center'><p><img src='run_exp/static/images/tutorial/blue_win.png' height='500'></p></div>","null","","","","","","","","","","","","","","","","","","","","","","",""
"","instruc6","30","174440","0.0-30.0","""event"",""trial"",""time""
""fullscreenenter"",""0"",""9067""
","
","
","""event"",""trial"",""time""
""fullscreenenter"",""0"",""9067""
","
","null","run_exp/static/audio/clip_6_blue_beard_outcome.m4a","null","","","","","<div class='center'><p> See, he succeeded in robbing the ships most of the time but not every time. </p></div>","","","","","","","","","","","","","","","","","",""
"","html-keyboard-response","31","176101","0.0-31.0","""event"",""trial"",""time""
""fullscreenenter"",""0"",""9067""
","
","
","""event"",""trial"",""time""
""fullscreenenter"",""0"",""9067""
","
","1659.8999999761581","<div class='center'><p> See, he succeeded in robbing the ships most of the time but not every time. </p><p><b>[Press the space bar to continue]</b></p></div>","32","","","","","","","","","","","","","","","","","","","","","","",""
"","audio-keyboard-response","32","195882","0.0-32.0","""event"",""trial"",""time""
""fullscreenenter"",""0"",""9067""
","
","
","""event"",""trial"",""time""
""fullscreenenter"",""0"",""9067""
","
","19780.599999904633","run_exp/static/audio/clip_7_pick_pirate.m4a","50","","","","","","","","","","","","","","","","","","","","","","",""
"","audio-keyboard-response","33","200511","0.0-33.0-0.0","""event"",""trial"",""time""
""fullscreenenter"",""0"",""9067""
","
","
","""event"",""trial"",""time""
""fullscreenenter"",""0"",""9067""
","
","4626.5","run_exp/static/audio/clip_8_chosen_pirate_win.m4a","32","","","","","","","","","","","","","","","","","","","","","","",""
"","audio-keyboard-response","34","204321","0.0-33.0-1.0","""event"",""trial"",""time""
""fullscreenenter"",""0"",""9067""
","
","
","""event"",""trial"",""time""
""fullscreenenter"",""0"",""9067""
","
","3809","run_exp/static/audio/clip_9_pick_a_pirate_again.m4a","49","","","","","","","","","","","","","","","","","","","","","","",""
"","audio-keyboard-response","35","209779","0.0-34.0-0.0","""event"",""trial"",""time""
""fullscreenenter"",""0"",""9067""
","
","
","""event"",""trial"",""time""
""fullscreenenter"",""0"",""9067""
","
","5455.799999952316","run_exp/static/audio/clip_10_chosen_pirate_loss.m4a","32","","","","","","","","","","","","","","","","","","","","","","",""
"","instruc9","36","215260","0.0-35.0-0.0","""event"",""trial"",""time""
""fullscreenenter"",""0"",""9067""
","
","
","""event"",""trial"",""time""
""fullscreenenter"",""0"",""9067""
","
","null","run_exp/static/audio/clip_11_time_out.m4a","null","","","","","<div class='center'><p>If you don’t make your choice fast enough, you’ll have to wait a few seconds before you can make another one. </p><p><img src='run_exp/static/images/miscellaneous/hurry_up.png' height='500'></p></div>","","","","","","","","","","","","","","","","","",""
"","html-keyboard-response","37","217489","0.0-35.0-1.0","""event"",""trial"",""time""
""fullscreenenter"",""0"",""9067""
","
","
","""event"",""trial"",""time""
""fullscreenenter"",""0"",""9067""
","
","2227","<div class='center'><p>If you don’t make your choice fast enough, you’ll have to wait a few seconds before you can make another one. </p><p><img src='run_exp/static/images/miscellaneous/hurry_up.png' height='500'></p><p><b>[Press the space bar to continue]</b></p></div>","32","","","","","","","","","","","","","","","","","","","","","","",""
"","instruc10","38","256580","0.0-35.0-2.0","""event"",""trial"",""time""
""fullscreenenter"",""0"",""9067""
","
","
","""event"",""trial"",""time""
""fullscreenenter"",""0"",""9067""
","
","null","run_exp/static/audio/clip_12_probe.m4a","null","","","","","<div class='center'><p>Once you've chosen a pirate, you’ll be shown the ship they are robbing. You will never rob the same ship twice. Ships can be told apart from one another by the image on them. These are the goods that they sell. See, this ship has a travel mug on it. </p><p> You’ll have to remember which island you saw each ship on. You will win more gold coins and hence more bonus money if you remember correctly! To help you remember, you can imagine a story. For example, here, you could imagine a mug full of water in the desert. Or, as another example, if on the forest island, your pirate robbed a ship with an apple on it, you could imagine an apple falling from a tree in the forest. </p><p><img src='run_exp/static/images/tutorial/example_probe.png' height='500'></p></div>","","","","","","","","","","","","","","","","","",""
"","html-keyboard-response","39","283554","0.0-35.0-3.0","""event"",""trial"",""time""
""fullscreenenter"",""0"",""9067""
","
","
","""event"",""trial"",""time""
""fullscreenenter"",""0"",""9067""
","
","26971.700000047684","<div class='center'><p>Once you've chosen a pirate, you’ll be shown the ship they are robbing. You will never rob the same ship twice. Ships can be told apart from one another by the image on them. These are the goods that they sell. See, this ship has a travel mug on it. </p><p> You’ll have to remember which island you saw each ship on. You will win more gold coins and hence more bonus money if you remember correctly! To help you remember, you can imagine a story. For example, here, you could imagine a mug full of water in the desert. Or, as another example, if on the forest island, your pirate robbed a ship with an apple on it, you could imagine an apple falling from a tree in the forest. </p><p><img src='run_exp/static/images/tutorial/example_probe.png' height='500'></p><p><b>[Press the space bar to continue]</b></p></div>","32","","","","","","","","","","","","","","","","","","","","","","",""
"","instruc11","40","300157","0.0-35.0-4.0","""event"",""trial"",""time""
""fullscreenenter"",""0"",""9067""
","
","
","""event"",""trial"",""time""
""fullscreenenter"",""0"",""9067""
","
","null","run_exp/static/audio/clip_13_changepoint.m4a","null","","","","","<div class='center'><p>How successful a pirate is at robbing ships will depend on the island you’re on.</p><p> A pirate may have visited this island many times before and gained a lot of practice robbing ships there.</p><p>So, they’re more likely to be successful than a pirate who has never visited the island before.</p></div>","","","","","","","","","","","","","","","","","",""
"","html-keyboard-response","41","314964","0.0-35.0-5.0","""event"",""trial"",""time""
""fullscreenenter"",""0"",""9067""
","
","
","""event"",""trial"",""time""
""fullscreenenter"",""0"",""9067""
","
","14805.5","<div class='center'><p>How successful a pirate is at robbing ships will depend on the island you’re on.</p><p> A pirate may have visited this island many times before and gained a lot of practice robbing ships there.</p><p>So, they’re more likely to be successful than a pirate who has never visited the island before.</p><p><b>[Press the space bar to continue]</b></p></div>","32","","","","","","","","","","","","","","","","","","","","","","",""
"","instruc12","42","356027","0.0-35.0-6.0","""event"",""trial"",""time""
""fullscreenenter"",""0"",""9067""
","
","
","""event"",""trial"",""time""
""fullscreenenter"",""0"",""9067""
","
","null","run_exp/static/audio/clip_14_drift.m4a","null","","","","","<div class='center'><p>How successful a pirate is at robbing ships can also change over the time spent on the island. </p><p> Ships may hear from islanders about the pirates coming and will improve their protections against the attack. This may make it harder to rob them.</p><p> Ships may also become lazy and weaken the strength of their protections. This may make it easier to rob them.</p><br><p>Things are always changing on the high seas! So, try your best to pay attention!</p><p><img src='run_exp/static/images/tutorial/contingency.png' height='500'></p></div>","","","","","","","","","","","","","","","","","",""
"","html-keyboard-response","43","359156","0.0-35.0-7.0","""event"",""trial"",""time""
""fullscreenenter"",""0"",""9067""
","
","
","""event"",""trial"",""time""
""fullscreenenter"",""0"",""9067""
","
","3127.100000023842","<div class='center'><p>How successful a pirate is at robbing ships can also change over the time spent on the island. </p><p> Ships may hear from islanders about the pirates coming and will improve their protections against the attack. This may make it harder to rob them.</p><p> Ships may also become lazy and weaken the strength of their protections. This may make it easier to rob them.</p><br><p>Things are always changing on the high seas! So, try your best to pay attention!</p><p><img src='run_exp/static/images/tutorial/contingency.png' height='500'></p><p><b>[Press the space bar to continue]</b></p></div>","32","","","","","","","","","","","","","","","","","","","","","","",""
"","instruc13","44","394330","0.0-35.0-8.0","""event"",""trial"",""time""
""fullscreenenter"",""0"",""9067""
","
","
","""event"",""trial"",""time""
""fullscreenenter"",""0"",""9067""
","
","null","run_exp/static/audio/clip_15_summary.m4a","null","","","","","<div class='center'><p>Let's go over the instructions quickly again. You have two important things to do: </p><b><p> 1. Pick the pirate who is the best at robbing ships on the current island. </p></b><b><p> 2. Remember on which island a ship was robbed.</p> </b><p>The amount of bonus money you can win depends on both.</p><p><br><p>Let’s try a practice game. The game will start by showing you the pirates. First, pick a pirate using the <b> 1, 2, 3 </b> keys on your keyboard. When you are shown a ship, try to remember which island you’re on by making up a story.</p><p>This is just a practice game, so you’re not playing for money. </p><p> Good luck! This game will be very difficult but try your best!</p></div>","","","","","","","","","","","","","","","","","",""
"","html-keyboard-response","45","395452","0.0-35.0-9.0","""event"",""trial"",""time""
""fullscreenenter"",""0"",""9067""
","
","
","""event"",""trial"",""time""
""fullscreenenter"",""0"",""9067""
","
","1121","<div class='center'><p>Let's go over the instructions quickly again. You have two important things to do: </p><b><p> 1. Pick the pirate who is the best at robbing ships on the current island. </p></b><b><p> 2. Remember on which island a ship was robbed.</p> </b><p>The amount of bonus money you can win depends on both.</p><p><br><p>Let’s try a practice game. The game will start by showing you the pirates. First, pick a pirate using the <b> 1, 2, 3 </b> keys on your keyboard. When you are shown a ship, try to remember which island you’re on by making up a story.</p><p>This is just a practice game, so you’re not playing for money. </p><p> Good luck! This game will be very difficult but try your best!</p><p><b>[Press the space bar to continue]</b></p></div>","32","","","","","","","","","","","","","","","","","","","","","","",""
"","do_welcome","46","399476","0.0-35.0-10.0","""event"",""trial"",""time""
""fullscreenenter"",""0"",""9067""
","
","
","""event"",""trial"",""time""
""fullscreenenter"",""0"",""9067""
","
","null","","","","","","","","null","","","","","","","","","","","","","","","","",""
"","do_trial","47","405506","0.0-35.0-11.0","""event"",""trial"",""time""
""fullscreenenter"",""0"",""9067""
","
","
","""event"",""trial"",""time""
""fullscreenenter"",""0"",""9067""
","
","null","","","","","","","","null","1,0,0","","","","","","","","","","","","","","","",""
"","html-keyboard-response","48","406515","0.0-36.0-0.0","""event"",""trial"",""time""
""fullscreenenter"",""0"",""9067""
","
","
","""event"",""trial"",""time""
""fullscreenenter"",""0"",""9067""
","
","null","<p></p>","null","","","","","","","","","","","","","","","","","","","","","","",""
"","do_trial","49","412424","0.0-36.0-1.0","""event"",""trial"",""time""
""fullscreenenter"",""0"",""9067""
","
","
","""event"",""trial"",""time""
""fullscreenenter"",""0"",""9067""
","
","1386.6999999284744","","","","","","","","51","1,0,0","","","","","","","","","","","","","","","",""
"","html-keyboard-response","50","413430","0.0-37.0-0.0","""event"",""trial"",""time""
""fullscreenenter"",""0"",""9067""
","
","
","""event"",""trial"",""time""
""fullscreenenter"",""0"",""9067""
","
","null","<p></p>","null","","","","","","","","","","","","","","","","","","","","","","",""
"","do_trial","51","419445","0.0-37.0-1.0","""event"",""trial"",""time""
""fullscreenenter"",""0"",""9067""
","
","
","""event"",""trial"",""time""
""fullscreenenter"",""0"",""9067""
","
","null","","","","","","","","null","1,1,0","","","","","","","","","","","","","","","",""
"","html-keyboard-response","52","420459","0.0-38.0-0.0","""event"",""trial"",""time""
""fullscreenenter"",""0"",""9067""
","
","
","""event"",""trial"",""time""
""fullscreenenter"",""0"",""9067""
","
","null","<p></p>","null","","","","","","","","","","","","","","","","","","","","","","",""
"","do_trial","53","425961","0.0-38.0-1.0","""event"",""trial"",""time""
""fullscreenenter"",""0"",""9067""
","
","
","""event"",""trial"",""time""
""fullscreenenter"",""0"",""9067""
","
","982.2000000476837","","","","","","","","50","1,1,0","","","","","","","","","","","","","","","",""
"","html-keyboard-response","54","426963","0.0-39.0-0.0","""event"",""trial"",""time""
""fullscreenenter"",""0"",""9067""
","
","
","""event"",""trial"",""time""
""fullscreenenter"",""0"",""9067""
","
","null","<p></p>","null","","","","","","","","","","","","","","","","","","","","","","",""
"","do_trial","55","434158","0.0-39.0-1.0","""event"",""trial"",""time""
""fullscreenenter"",""0"",""9067""
","
","
","""event"",""trial"",""time""
""fullscreenenter"",""0"",""9067""
","
","2683.100000023842","","","","","","","","49","1,0,1","","","","","","","","","","","","","","","",""
"","html-keyboard-response","56","435167","0.0-40.0-0.0","""event"",""trial"",""time""
""fullscreenenter"",""0"",""9067""
","
","
","""event"",""trial"",""time""
""fullscreenenter"",""0"",""9067""
","
","null","<p></p>","null","","","","","","","","","","","","","","","","","","","","","","",""
"","do_trial","57","442044","0.0-40.0-1.0","""event"",""trial"",""time""
""fullscreenenter"",""0"",""9067""
","
","
","""event"",""trial"",""time""
""fullscreenenter"",""0"",""9067""
","
","2365.399999976158","","","","","","","","50","0,1,0","","","","","","","","","","","","","","","",""
"","html-keyboard-response","58","443055","0.0-41.0-0.0","""event"",""trial"",""time""
""fullscreenenter"",""0"",""9067""
","
","
","""event"",""trial"",""time""
""fullscreenenter"",""0"",""9067""
","
","null","<p></p>","null","","","","","","","","","","","","","","","","","","","","","","",""
"","do_trial","59","448229","0.0-41.0-1.0","""event"",""trial"",""time""
""fullscreenenter"",""0"",""9067""
","
","
","""event"",""trial"",""time""
""fullscreenenter"",""0"",""9067""
","
","656.6999999284744","","","","","","","","51","1,0,0","","","","","","","","","","","","","","","",""
"","do_bye","60","449739","0.0-42.0-0.0","""event"",""trial"",""time""
""fullscreenenter"",""0"",""9067""
","
","
","""event"",""trial"",""time""
""fullscreenenter"",""0"",""9067""
","
","null","","","","","","","","null","","","","","","","","","","","","","","","","",""
"","do_travel","61","458759","0.0-42.0-1.0","""event"",""trial"",""time""
""fullscreenenter"",""0"",""9067""
","
","
","""event"",""trial"",""time""
""fullscreenenter"",""0"",""9067""
","
","null","","","","","","","","null","","","","","","","","","","","","","","","","",""
"","do_welcome","62","462779","0.0-42.0-2.0","""event"",""trial"",""time""
""fullscreenenter"",""0"",""9067""
","
","
","""event"",""trial"",""time""
""fullscreenenter"",""0"",""9067""
","
","null","","","","","","","","null","","","","","","","","","","","","","","","","",""
"","do_trial","63","468819","0.0-42.0-3.0","""event"",""trial"",""time""
""fullscreenenter"",""0"",""9067""
","
","
","""event"",""trial"",""time""
""fullscreenenter"",""0"",""9067""
","
","null","","","","","","","","null","1,0,0","","","","","","","","","","","","","","","",""
"","do_bye","64","470329","0.0-43.0-0.0","""event"",""trial"",""time""
""fullscreenenter"",""0"",""9067""
","
","
","""event"",""trial"",""time""
""fullscreenenter"",""0"",""9067""
","
","null","","","","","","","","null","","","","","","","","","","","","","","","","",""
"","do_travel","65","479347","0.0-43.0-1.0","""event"",""trial"",""time""
""fullscreenenter"",""0"",""9067""
","
","
","""event"",""trial"",""time""
""fullscreenenter"",""0"",""9067""
","
","null","","","","","","","","null","","","","","","","","","","","","","","","","",""
"","do_welcome","66","483369","0.0-43.0-2.0","""event"",""trial"",""time""
""fullscreenenter"",""0"",""9067""
","
","
","""event"",""trial"",""time""
""fullscreenenter"",""0"",""9067""
","
","null","","","","","","","","null","","","","","","","","","","","","","","","","",""
"","do_trial","67","488939","0.0-43.0-3.0","""event"",""trial"",""time""
""fullscreenenter"",""0"",""9067""
","
","
","""event"",""trial"",""time""
""fullscreenenter"",""0"",""9067""
","
","1054.5","","","","","","","","51","1,0,0","","","","","","","","","","","","","","","",""
"","html-keyboard-response","68","489959","0.0-44.0-0.0","""event"",""trial"",""time""
""fullscreenenter"",""0"",""9067""
","
","
","""event"",""trial"",""time""
""fullscreenenter"",""0"",""9067""
","
","null","<p></p>","null","","","","","","","","","","","","","","","","","","","","","","",""
"","do_trial","69","495989","0.0-44.0-1.0","""event"",""trial"",""time""
""fullscreenenter"",""0"",""9067""
","
","
","""event"",""trial"",""time""
""fullscreenenter"",""0"",""9067""
","
","1518.8999999761581","","","","","","","","50","1,0,1","","","","","","","","","","","","","","","",""
"","html-keyboard-response","70","496991","0.0-45.0-0.0","""event"",""trial"",""time""
""fullscreenenter"",""0"",""9067""
","
","
","""event"",""trial"",""time""
""fullscreenenter"",""0"",""9067""
","
","null","<p></p>","null","","","","","","","","","","","","","","","","","","","","","","",""
"","do_trial","71","502102","0.0-45.0-1.0","""event"",""trial"",""time""
""fullscreenenter"",""0"",""9067""
","
","
","""event"",""trial"",""time""
""fullscreenenter"",""0"",""9067""
","
","596.6999999284744","","","","","","","","49","1,1,0","","","","","","","","","","","","","","","",""
"","html-keyboard-response","72","503109","0.0-46.0-0.0","""event"",""trial"",""time""
""fullscreenenter"",""0"",""9067""
","
","
","""event"",""trial"",""time""
""fullscreenenter"",""0"",""9067""
","
","null","<p></p>","null","","","","","","","","","","","","","","","","","","","","","","",""
"","do_trial","73","509661","0.0-46.0-1.0","""event"",""trial"",""time""
""fullscreenenter"",""0"",""9067""
","
","
","""event"",""trial"",""time""
""fullscreenenter"",""0"",""9067""
","
","2044","","","","","","","","51","0,0,1","","","","","","","","","","","","","","","",""
"","html-keyboard-response","74","510668","0.0-47.0-0.0","""event"",""trial"",""time""
""fullscreenenter"",""0"",""9067""
","
","
","""event"",""trial"",""time""
""fullscreenenter"",""0"",""9067""
","
","null","<p></p>","null","","","","","","","","","","","","","","","","","","","","","","",""
"","do_trial","75","516241","0.0-47.0-1.0","""event"",""trial"",""time""
""fullscreenenter"",""0"",""9067""
","
","
","""event"",""trial"",""time""
""fullscreenenter"",""0"",""9067""
","
","1059","","","","","","","","50","1,0,1","","","","","","","","","","","","","","","",""
"","html-keyboard-response","76","523294","0.0-48.0-0.0","""event"",""trial"",""time""
""fullscreenenter"",""0"",""9067""
","
","
","""event"",""trial"",""time""
""fullscreenenter"",""0"",""9067""
","
","7050.799999952316","<div class='center'><p><img src='run_exp/static/images/tutorial/prac_best_pirate.png'  height='500'></p></div>","50","","","","","","","","","","","","","","","","","","","","","","",""
"","html-keyboard-response","77","527643","0.0-49.0-0.0","""event"",""trial"",""time""
""fullscreenenter"",""0"",""9067""
","
","
","""event"",""trial"",""time""
""fullscreenenter"",""0"",""9067""
","
","4347.199999928474","<div class='center'><p>That's incorrect! Red beard was the best.</p><p><b>[Press the space bar to continue]</b></p></div>","32","","","","","","","","","","","","","","","","","","","","","","",""
"","html-keyboard-response","78","539770","0.0-49.0-1.0","""event"",""trial"",""time""
""fullscreenenter"",""0"",""9067""
","
","
","""event"",""trial"",""time""
""fullscreenenter"",""0"",""9067""
","
","12130.899999976158","<div class='center'><p><img src='run_exp/static/images/tutorial/prac_source.png'  height='500'></p></div>","50","","","","","","","","","","","","","","","","","","","","","","",""
"","html-keyboard-response","79","541957","0.0-50.0-0.0","""event"",""trial"",""time""
""fullscreenenter"",""0"",""9067""
","
","
","""event"",""trial"",""time""
""fullscreenenter"",""0"",""9067""
","
","2185.600000023842","<div class='center'><p>That's correct! You saw this ship on the cavern island.</p><p><b>[Press the space bar to continue]</b></p></div>","32","","","","","","","","","","","","","","","","","","","","","","",""
"","quiz_beginning","80","553360","0.0-50.0-1.0","""event"",""trial"",""time""
""fullscreenenter"",""0"",""9067""
","
","
","""event"",""trial"",""time""
""fullscreenenter"",""0"",""9067""
","
","null","run_exp/static/audio/clip_16_quiz_intro.m4a","null","","","","","<div class='center'><p>Good job on the practice game! Now, you will be asked some true or false questions to make sure you really understand the rules of the game.</p><p> Press <b>'1'</b> on the keyboard for true and press <b>'2'</b> for false.</p></div>","","","","","","","","","","","","","","","","","",""
"","audio-keyboard-response","81","570062","0.0-50.0-2.0","""event"",""trial"",""time""
""fullscreenenter"",""0"",""9067""
","
","
","""event"",""trial"",""time""
""fullscreenenter"",""0"",""9067""
","
","16699.899999976158","run_exp/static/audio/clip_17_q1.m4a","49","","","","","","","","","","","","","","","","","","","","","","",""
"","correct","82","572442","0.0-51.0-0.0","""event"",""trial"",""time""
""fullscreenenter"",""0"",""9067""
","
","
","""event"",""trial"",""time""
""fullscreenenter"",""0"",""9067""
","
","null","run_exp/static/audio/clip_18_correct.m4a","null","","","","","<div class='center'><p>That's correct!</p></div>","","","","","","","","","","","","","","","","","",""
"","html-keyboard-response","83","574838","0.0-51.0-1.0","""event"",""trial"",""time""
""fullscreenenter"",""0"",""9067""
","
","
","""event"",""trial"",""time""
""fullscreenenter"",""0"",""9067""
","
","2394.899999976158","<div class='center'><p>That's correct!</p><p><b>[Press the space bar to continue]</b></p></div>","32","","","","","","","","","","","","","","","","","","","","","","",""
"","audio-keyboard-response","84","582855","0.0-51.0-2.0","""event"",""trial"",""time""
""fullscreenenter"",""0"",""9067""
","
","
","""event"",""trial"",""time""
""fullscreenenter"",""0"",""9067""
","
","8016.5","run_exp/static/audio/clip_20_q2.m4a","50","","","","","","","","","","","","","","","","","","","","","","",""
"","correct","85","585242","0.0-52.0-0.0","""event"",""trial"",""time""
""fullscreenenter"",""0"",""9067""
","
","
","""event"",""trial"",""time""
""fullscreenenter"",""0"",""9067""
","
","null","run_exp/static/audio/clip_18_correct.m4a","null","","","","","<div class='center'><p>That's correct!</p></div>","","","","","","","","","","","","","","","","","",""
"","html-keyboard-response","86","586714","0.0-52.0-1.0","""event"",""trial"",""time""
""fullscreenenter"",""0"",""9067""
","
","
","""event"",""trial"",""time""
""fullscreenenter"",""0"",""9067""
","
","1471","<div class='center'><p>That's correct!</p><p><b>[Press the space bar to continue]</b></p></div>","32","","","","","","","","","","","","","","","","","","","","","","",""
"","audio-keyboard-response","87","593197","0.0-52.0-2.0","""event"",""trial"",""time""
""fullscreenenter"",""0"",""9067""
","
","
","""event"",""trial"",""time""
""fullscreenenter"",""0"",""9067""
","
","6482.299999952316","run_exp/static/audio/clip_22_q3.m4a","50","","","","","","","","","","","","","","","","","","","","","","",""
"","correct","88","595582","0.0-53.0-0.0","""event"",""trial"",""time""
""fullscreenenter"",""0"",""9067""
","
","
","""event"",""trial"",""time""
""fullscreenenter"",""0"",""9067""
","
","null","run_exp/static/audio/clip_18_correct.m4a","null","","","","","<div class='center'><p>That's correct!</p></div>","","","","","","","","","","","","","","","","","",""
"","html-keyboard-response","89","596636","0.0-53.0-1.0","""event"",""trial"",""time""
""fullscreenenter"",""0"",""9067""
","
","
","""event"",""trial"",""time""
""fullscreenenter"",""0"",""9067""
","
","1053.5","<div class='center'><p>That's correct!</p><p><b>[Press the space bar to continue]</b></p></div>","32","","","","","","","","","","","","","","","","","","","","","","",""
"","audio-keyboard-response","90","602068","0.0-53.0-2.0","""event"",""trial"",""time""
""fullscreenenter"",""0"",""9067""
","
","
","""event"",""trial"",""time""
""fullscreenenter"",""0"",""9067""
","
","5426.799999952316","run_exp/static/audio/clip_24_q4.m4a","49","","","","","","","","","","","","","","","","","","","","","","",""
"","correct","91","604487","0.0-54.0-0.0","""event"",""trial"",""time""
""fullscreenenter"",""0"",""9067""
","
","
","""event"",""trial"",""time""
""fullscreenenter"",""0"",""9067""
","
","null","run_exp/static/audio/clip_18_correct.m4a","null","","","","","<div class='center'><p>That's correct!</p></div>","","","","","","","","","","","","","","","","","",""
"","html-keyboard-response","92","605387","0.0-54.0-1.0","""event"",""trial"",""time""
""fullscreenenter"",""0"",""9067""
","
","
","""event"",""trial"",""time""
""fullscreenenter"",""0"",""9067""
","
","899.3000000715256","<div class='center'><p>That's correct!</p><p><b>[Press the space bar to continue]</b></p></div>","32","","","","","","","","","","","","","","","","","","","","","","",""
"","q_all_corr","93","613866","0.0-55.0-0.0","""event"",""trial"",""time""
""fullscreenenter"",""0"",""9067""
","
","
","""event"",""trial"",""time""
""fullscreenenter"",""0"",""9067""
","
","null","run_exp/static/audio/clip_27_quiz_all_correct.m4a","null","","","","","<div class='center'><p>Good job! You’re now ready to move on to the real game! Remember this game will be difficult but don't get discouraged and try your best!</p></div>","","","","","","","","","","","","","","","","","",""
"","html-keyboard-response","94","614652","0.0-55.0-1.0","""event"",""trial"",""time""
""fullscreenenter"",""0"",""9067""
","
","
","""event"",""trial"",""time""
""fullscreenenter"",""0"",""9067""
","
","784.3999999761581","<div class='center'><p>Good job! You’re now ready to move on to the real game! Remember this game will be difficult but don't get discouraged and try your best!</p><p><b>[Press the space bar to continue]</b></p></div>","32","","","","","","","","","","","","","","","","","","","","","","",""
"","do_welcome","95","618672","0.0-56.0-0.0","""event"",""trial"",""time""
""fullscreenenter"",""0"",""9067""
","
","
","""event"",""trial"",""time""
""fullscreenenter"",""0"",""9067""
","
","null","","","","","","","","null","","","","","","","","","","","","","","","","",""
"","do_trial","96","624605","0.0-57.0-0.0","""event"",""trial"",""time""
""fullscreenenter"",""0"",""9067""
","
","
","""event"",""trial"",""time""
""fullscreenenter"",""0"",""9067""
","
","1387.8000000715256","","","","","","","","51","1,0,0","0","city","0","probe-182","0.6","0.3","0.1","0","","","","","","","",""
"","html-keyboard-response","97","625614","0.0-57.0-1.0","""event"",""trial"",""time""
""fullscreenenter"",""0"",""9067""
","
","
","""event"",""trial"",""time""
""fullscreenenter"",""0"",""9067""
","
","null","<p></p>","null","","","","","","","","","","","","","","","","","","","","","","",""
"","do_trial","98","631173","0.0-58.0-0.0","""event"",""trial"",""time""
""fullscreenenter"",""0"",""9067""
","
","
","""event"",""trial"",""time""
""fullscreenenter"",""0"",""9067""
","
","1007.7999999523163","","","","","","","","50","1,0,1","0","city","1","probe-177","0.6312771171809448","0.364867325199467","0.1243507217600206","0","","","","","","","",""
"","html-keyboard-response","99","632178","0.0-58.0-1.0","""event"",""trial"",""time""
""fullscreenenter"",""0"",""9067""
","
","
","""event"",""trial"",""time""
""fullscreenenter"",""0"",""9067""
","
","null","<p></p>","null","","","","","","","","","","","","","","","","","","","","","","",""
"","do_trial","100","637118","0.0-59.0-0.0","""event"",""trial"",""time""
""fullscreenenter"",""0"",""9067""
","
","
","""event"",""trial"",""time""
""fullscreenenter"",""0"",""9067""
","
","401.59999990463257","","","","","","","","49","0,1,0","0","city","2","probe-05","0.46263230099063285","0.2465792170411578","0.09976331047582163","0","","","","","","","",""
"","html-keyboard-response","101","638123","0.0-59.0-1.0","""event"",""trial"",""time""
""fullscreenenter"",""0"",""9067""
","
","
","""event"",""trial"",""time""
""fullscreenenter"",""0"",""9067""
","
","null","<p></p>","null","","","","","","","","","","","","","","","","","","","","","","",""
"","do_trial","102","642995","0.0-60.0-0.0","""event"",""trial"",""time""
""fullscreenenter"",""0"",""9067""
","
","
","""event"",""trial"",""time""
""fullscreenenter"",""0"",""9067""
","
","323.60000002384186","","","","","","","","50","0,0,0","0","city","3","probe-170","0.5287075851434657","0.24550614379892938","0.26331530629349026","0","","","","","","","",""
"","html-keyboard-response","103","644001","0.0-60.0-1.0","""event"",""trial"",""time""
""fullscreenenter"",""0"",""9067""
","
","
","""event"",""trial"",""time""
""fullscreenenter"",""0"",""9067""
","
","null","<p></p>","null","","","","","","","","","","","","","","","","","","","","","","",""
"","do_trial","104","648842","0.0-61.0-0.0","""event"",""trial"",""time""
""fullscreenenter"",""0"",""9067""
","
","
","""event"",""trial"",""time""
""fullscreenenter"",""0"",""9067""
","
","302.60000002384186","","","","","","","","51","1,0,0","0","city","4","probe-68","0.66163158399438","0.15829506709971003","0.12312464614424895","0","","","","","","","",""
"","html-keyboard-response","105","649851","0.0-61.0-1.0","""event"",""trial"",""time""
""fullscreenenter"",""0"",""9067""
","
","
","""event"",""trial"",""time""
""fullscreenenter"",""0"",""9067""
","
","null","<p></p>","null","","","","","","","","","","","","","","","","","","","","","","",""
"","do_trial","106","654820","0.0-62.0-0.0","""event"",""trial"",""time""
""fullscreenenter"",""0"",""9067""
","
","
","""event"",""trial"",""time""
""fullscreenenter"",""0"",""9067""
","
","425.1999999284744","","","","","","","","49","1,1,0","0","city","5","probe-166","0.5246971415347561","0.33493082506973443","0.1526199106165402","1","","","","","","","",""
"","html-keyboard-response","107","655825","0.0-62.0-1.0","""event"",""trial"",""time""
""fullscreenenter"",""0"",""9067""
","
","
","""event"",""trial"",""time""
""fullscreenenter"",""0"",""9067""
","
","null","<p></p>","null","","","","","","","","","","","","","","","","","","","","","","",""
"","do_trial","108","661189","0.0-63.0-0.0","""event"",""trial"",""time""
""fullscreenenter"",""0"",""9067""
","
","
","""event"",""trial"",""time""
""fullscreenenter"",""0"",""9067""
","
","818.1999999284744","","","","","","","","50","1,0,1","0","city","6","probe-04","0.6550534510400339","0.45025120544567465","0.1340518346966034","0","","","","","","","",""
"","html-keyboard-response","109","662195","0.0-63.0-1.0","""event"",""trial"",""time""
""fullscreenenter"",""0"",""9067""
","
","
","""event"",""trial"",""time""
""fullscreenenter"",""0"",""9067""
","
","null","<p></p>","null","","","","","","","","","","","","","","","","","","","","","","",""
"","do_trial","110","667368","0.0-64.0-0.0","""event"",""trial"",""time""
""fullscreenenter"",""0"",""9067""
","
","
","""event"",""trial"",""time""
""fullscreenenter"",""0"",""9067""
","
","631","","","","","","","","51","0,0,0","0","city","7","probe-219","0.6897199514890024","0.29947050926330254","0.10106154456247303","0","","","","","","","",""
"","html-keyboard-response","111","668374","0.0-64.0-1.0","""event"",""trial"",""time""
""fullscreenenter"",""0"",""9067""
","
","
","""event"",""trial"",""time""
""fullscreenenter"",""0"",""9067""
","
","null","<p></p>","null","","","","","","","","","","","","","","","","","","","","","","",""
"","do_trial","112","673684","0.0-65.0-0.0","""event"",""trial"",""time""
""fullscreenenter"",""0"",""9067""
","
","
","""event"",""trial"",""time""
""fullscreenenter"",""0"",""9067""
","
","762.5","","","","","","","","50","1,0,0","0","city","8","probe-209","0.5575884966689914","0.3704751161997079","0.21673741902308657","0","","","","","","","",""
"","html-keyboard-response","113","674693","0.0-65.0-1.0","""event"",""trial"",""time""
""fullscreenenter"",""0"",""9067""
","
","
","""event"",""trial"",""time""
""fullscreenenter"",""0"",""9067""
","
","null","<p></p>","null","","","","","","","","","","","","","","","","","","","","","","",""
"","do_trial","114","682103","0.0-66.0-0.0","""event"",""trial"",""time""
""fullscreenenter"",""0"",""9067""
","
","
","""event"",""trial"",""time""
""fullscreenenter"",""0"",""9067""
","
","2867.600000023842","","","","","","","","49","1,1,0","0","city","9","probe-09","0.5845941884129322","0.395306263837767","0.056267077417558924","1","","","","","","","",""
"","html-keyboard-response","115","683105","0.0-66.0-1.0","""event"",""trial"",""time""
""fullscreenenter"",""0"",""9067""
","
","
","""event"",""trial"",""time""
""fullscreenenter"",""0"",""9067""
","
","null","<p></p>","null","","","","","","","","","","","","","","","","","","","","","","",""
"","do_trial","116","690157","0.0-67.0-0.0","""event"",""trial"",""time""
""fullscreenenter"",""0"",""9067""
","
","
","""event"",""trial"",""time""
""fullscreenenter"",""0"",""9067""
","
","2516.7999999523163","","","","","","","","50","0,0,0","0","city","10","probe-193","0.4895135837666702","0.3114500209290478","0.05794338305002139","0","","","","","","","",""
"","html-keyboard-response","117","691160","0.0-67.0-1.0","""event"",""trial"",""time""
""fullscreenenter"",""0"",""9067""
","
","
","""event"",""trial"",""time""
""fullscreenenter"",""0"",""9067""
","
","null","<p></p>","null","","","","","","","","","","","","","","","","","","","","","","",""
"","do_trial","118","696299","0.0-68.0-0.0","""event"",""trial"",""time""
""fullscreenenter"",""0"",""9067""
","
","
","""event"",""trial"",""time""
""fullscreenenter"",""0"",""9067""
","
","593","","","","","","","","49","1,1,0","0","city","11","probe-183","0.5487896802572833","0.3320529532686313","0.11248585979450645","1","","","","","","","",""
"","html-keyboard-response","119","697304","0.0-68.0-1.0","""event"",""trial"",""time""
""fullscreenenter"",""0"",""9067""
","
","
","""event"",""trial"",""time""
""fullscreenenter"",""0"",""9067""
","
","null","<p></p>","null","","","","","","","","","","","","","","","","","","","","","","",""
"","do_trial","120","704745","0.0-69.0-0.0","""event"",""trial"",""time""
""fullscreenenter"",""0"",""9067""
","
","
","""event"",""trial"",""time""
""fullscreenenter"",""0"",""9067""
","
","2901.600000023842","","","","","","","","51","1,0,0","0","city","12","probe-21","0.5316093409489464","0.24858928915250292","0.18097365924384895","0","","","","","","","",""
"","html-keyboard-response","121","705750","0.0-69.0-1.0","""event"",""trial"",""time""
""fullscreenenter"",""0"",""9067""
","
","
","""event"",""trial"",""time""
""fullscreenenter"",""0"",""9067""
","
","null","<p></p>","null","","","","","","","","","","","","","","","","","","","","","","",""
"","do_trial","122","711211","0.0-70.0-0.0","""event"",""trial"",""time""
""fullscreenenter"",""0"",""9067""
","
","
","""event"",""trial"",""time""
""fullscreenenter"",""0"",""9067""
","
","918.2999999523163","","","","","","","","49","0,0,1","0","city","13","probe-75","0.6702500146362568","0.2685788958574535","0.1984595187346516","0","","","","","","","",""
"","html-keyboard-response","123","712217","0.0-70.0-1.0","""event"",""trial"",""time""
""fullscreenenter"",""0"",""9067""
","
","
","""event"",""trial"",""time""
""fullscreenenter"",""0"",""9067""
","
","null","<p></p>","null","","","","","","","","","","","","","","","","","","","","","","",""
"","do_trial","124","717129","0.0-71.0-0.0","""event"",""trial"",""time""
""fullscreenenter"",""0"",""9067""
","
","
","""event"",""trial"",""time""
""fullscreenenter"",""0"",""9067""
","
","369.5","","","","","","","","50","0,0,1","0","city","14","probe-208","0.5877581150418255","0.26648918489352746","0.13087304257920856","0","","","","","","","",""
"","html-keyboard-response","125","718136","0.0-71.0-1.0","""event"",""trial"",""time""
""fullscreenenter"",""0"",""9067""
","
","
","""event"",""trial"",""time""
""fullscreenenter"",""0"",""9067""
","
","null","<p></p>","null","","","","","","","","","","","","","","","","","","","","","","",""
"","do_trial","126","723231","0.0-72.0-0.0","""event"",""trial"",""time""
""fullscreenenter"",""0"",""9067""
","
","
","""event"",""trial"",""time""
""fullscreenenter"",""0"",""9067""
","
","548","","","","","","","","49","1,0,0","0","city","15","probe-185","0.5566924298405903","0.21280401135966157","0.07791429837662994","1","","","","","","","",""
"","html-keyboard-response","127","724238","0.0-72.0-1.0","""event"",""trial"",""time""
""fullscreenenter"",""0"",""9067""
","
","
","""event"",""trial"",""time""
""fullscreenenter"",""0"",""9067""
","
","null","<p></p>","null","","","","","","","","","","","","","","","","","","","","","","",""
"","do_trial","128","729495","0.0-73.0-0.0","""event"",""trial"",""time""
""fullscreenenter"",""0"",""9067""
","
","
","""event"",""trial"",""time""
""fullscreenenter"",""0"",""9067""
","
","711.6999999284744","","","","","","","","51","1,0,1","0","city","16","probe-124","0.6377717742661226","0.34392945008585474","0.05388940450034272","1","","","","","","","",""
"","html-keyboard-response","129","730500","0.0-73.0-1.0","""event"",""trial"",""time""
""fullscreenenter"",""0"",""9067""
","
","
","""event"",""trial"",""time""
""fullscreenenter"",""0"",""9067""
","
","null","<p></p>","null","","","","","","","","","","","","","","","","","","","","","","",""
"","do_trial","130","736459","0.0-74.0-0.0","""event"",""trial"",""time""
""fullscreenenter"",""0"",""9067""
","
","
","""event"",""trial"",""time""
""fullscreenenter"",""0"",""9067""
","
","1415.8000000715256","","","","","","","","50","1,0,0","0","city","17","probe-158","0.7364809925482748","0.2402893033986558","0.09341037378876223","0","","","","","","","",""
"","html-keyboard-response","131","737469","0.0-74.0-1.0","""event"",""trial"",""time""
""fullscreenenter"",""0"",""9067""
","
","
","""event"",""trial"",""time""
""fullscreenenter"",""0"",""9067""
","
","null","<p></p>","null","","","","","","","","","","","","","","","","","","","","","","",""
"","do_trial","132","743292","0.0-75.0-0.0","""event"",""trial"",""time""
""fullscreenenter"",""0"",""9067""
","
","
","""event"",""trial"",""time""
""fullscreenenter"",""0"",""9067""
","
","1279.5999999046326","","","","","","","","49","1,0,0","0","city","18","probe-211","0.7244204385677255","0.10625121232917942","0.14255065308543968","1","","","","","","","",""
"","html-keyboard-response","133","744302","0.0-75.0-1.0","""event"",""trial"",""time""
""fullscreenenter"",""0"",""9067""
","
","
","""event"",""trial"",""time""
""fullscreenenter"",""0"",""9067""
","
","null","<p></p>","null","","","","","","","","","","","","","","","","","","","","","","",""
"","do_trial","134","749612","0.0-76.0-0.0","""event"",""trial"",""time""
""fullscreenenter"",""0"",""9067""
","
","
","""event"",""trial"",""time""
""fullscreenenter"",""0"",""9067""
","
","765.3000000715256","","","","","","","","50","0,0,0","0","city","19","probe-93","0.6155522504794966","0.17057731127008505","0.2073092080739775","0","","","","","","","",""
"","html-keyboard-response","135","750614","0.0-76.0-1.0","""event"",""trial"",""time""
""fullscreenenter"",""0"",""9067""
","
","
","""event"",""trial"",""time""
""fullscreenenter"",""0"",""9067""
","
","null","<p></p>","null","","","","","","","","","","","","","","","","","","","","","","",""
"","do_trial","136","756350","0.0-77.0-0.0","""event"",""trial"",""time""
""fullscreenenter"",""0"",""9067""
","
","
","""event"",""trial"",""time""
""fullscreenenter"",""0"",""9067""
","
","1194.6999999284744","","","","","","","","51","1,0,0","0","city","20","probe-207","0.6242302415225689","0.1917983365536287","0.16822760095433195","0","","","","","","","",""
"","html-keyboard-response","137","757361","0.0-77.0-1.0","""event"",""trial"",""time""
""fullscreenenter"",""0"",""9067""
","
","
","""event"",""trial"",""time""
""fullscreenenter"",""0"",""9067""
","
","null","<p></p>","null","","","","","","","","","","","","","","","","","","","","","","",""
"","do_trial","138","762652","0.0-78.0-0.0","""event"",""trial"",""time""
""fullscreenenter"",""0"",""9067""
","
","
","""event"",""trial"",""time""
""fullscreenenter"",""0"",""9067""
","
","754.7999999523163","","","","","","","","49","1,0,0","0","city","21","probe-100","0.38106504889666204","0.17516174097394008","0.15323046908819546","1","","","","","","","",""
"","html-keyboard-response","139","763662","0.0-78.0-1.0","""event"",""trial"",""time""
""fullscreenenter"",""0"",""9067""
","
","
","""event"",""trial"",""time""
""fullscreenenter"",""0"",""9067""
","
","null","<p></p>","null","","","","","","","","","","","","","","","","","","","","","","",""
"","do_trial","140","769008","0.0-79.0-0.0","""event"",""trial"",""time""
""fullscreenenter"",""0"",""9067""
","
","
","""event"",""trial"",""time""
""fullscreenenter"",""0"",""9067""
","
","811.5","","","","","","","","51","0,0,0","0","city","22","probe-59","0.4839802444630012","0.3086290783260839","0.06004671258831332","0","","","","","","","",""
"","html-keyboard-response","141","770013","0.0-79.0-1.0","""event"",""trial"",""time""
""fullscreenenter"",""0"",""9067""
","
","
","""event"",""trial"",""time""
""fullscreenenter"",""0"",""9067""
","
","null","<p></p>","null","","","","","","","","","","","","","","","","","","","","","","",""
"","do_trial","142","775084","0.0-80.0-0.0","""event"",""trial"",""time""
""fullscreenenter"",""0"",""9067""
","
","
","""event"",""trial"",""time""
""fullscreenenter"",""0"",""9067""
","
","522.8999999761581","","","","","","","","50","0,0,0","0","city","23","probe-206","0.547680206788392","0.3162029269597845","0.1254551031023393","0","","","","","","","",""
"","html-keyboard-response","143","776088","0.0-80.0-1.0","""event"",""trial"",""time""
""fullscreenenter"",""0"",""9067""
","
","
","""event"",""trial"",""time""
""fullscreenenter"",""0"",""9067""
","
","null","<p></p>","null","","","","","","","","","","","","","","","","","","","","","","",""
"","do_trial","144","783078","0.0-81.0-0.0","""event"",""trial"",""time""
""fullscreenenter"",""0"",""9067""
","
","
","""event"",""trial"",""time""
""fullscreenenter"",""0"",""9067""
","
","2453.5999999046326","","","","","","","","50","0,0,0","0","city","24","probe-24","0.5578822389351131","0.38307742153192087","0.15102538419396666","0","","","","","","","",""
"","html-keyboard-response","145","784084","0.0-81.0-1.0","""event"",""trial"",""time""
""fullscreenenter"",""0"",""9067""
","
","
","""event"",""trial"",""time""
""fullscreenenter"",""0"",""9067""
","
","null","<p></p>","null","","","","","","","","","","","","","","","","","","","","","","",""
"","do_trial","146","789624","0.0-82.0-0.0","""event"",""trial"",""time""
""fullscreenenter"",""0"",""9067""
","
","
","""event"",""trial"",""time""
""fullscreenenter"",""0"",""9067""
","
","1004","","","","","","","","49","1,0,0","0","city","25","probe-155","0.46992055835846314","0.4231862044944802","0.13082907178726028","1","","","","","","","",""
"","html-keyboard-response","147","790633","0.0-82.0-1.0","""event"",""trial"",""time""
""fullscreenenter"",""0"",""9067""
","
","
","""event"",""trial"",""time""
""fullscreenenter"",""0"",""9067""
","
","null","<p></p>","null","","","","","","","","","","","","","","","","","","","","","","",""
"","do_trial","148","795868","0.0-83.0-0.0","""event"",""trial"",""time""
""fullscreenenter"",""0"",""9067""
","
","
","""event"",""trial"",""time""
""fullscreenenter"",""0"",""9067""
","
","700.2000000476837","","","","","","","","49","0,0,0","0","city","26","probe-197","0.5873550145138021","0.5247403519815554","0.2360588775538297","0","","","","","","","",""
"","html-keyboard-response","149","796882","0.0-83.0-1.0","""event"",""trial"",""time""
""fullscreenenter"",""0"",""9067""
","
","
","""event"",""trial"",""time""
""fullscreenenter"",""0"",""9067""
","
","null","<p></p>","null","","","","","","","","","","","","","","","","","","","","","","",""
"","do_trial","150","801836","0.0-84.0-0.0","""event"",""trial"",""time""
""fullscreenenter"",""0"",""9067""
","
","
","""event"",""trial"",""time""
""fullscreenenter"",""0"",""9067""
","
","403.39999997615814","","","","","","","","51","1,1,0","0","city","27","probe-66","0.6556400971792091","0.5643904748913131","0.2200717316247137","0","","","","","","","",""
"","html-keyboard-response","151","802847","0.0-84.0-1.0","""event"",""trial"",""time""
""fullscreenenter"",""0"",""9067""
","
","
","""event"",""trial"",""time""
""fullscreenenter"",""0"",""9067""
","
","null","<p></p>","null","","","","","","","","","","","","","","","","","","","","","","",""
"","do_trial","152","808027","0.0-85.0-0.0","""event"",""trial"",""time""
""fullscreenenter"",""0"",""9067""
","
","
","""event"",""trial"",""time""
""fullscreenenter"",""0"",""9067""
","
","636.2000000476837","","","","","","","","50","1,0,0","0","city","28","probe-217","0.654281634419896","0.4030059051128794","0.18268017736345113","0","","","","","","","",""
"","html-keyboard-response","153","809040","0.0-85.0-1.0","""event"",""trial"",""time""
""fullscreenenter"",""0"",""9067""
","
","
","""event"",""trial"",""time""
""fullscreenenter"",""0"",""9067""
","
","null","<p></p>","null","","","","","","","","","","","","","","","","","","","","","","",""
"","do_trial","154","814258","0.0-86.0-0.0","""event"",""trial"",""time""
""fullscreenenter"",""0"",""9067""
","
","
","""event"",""trial"",""time""
""fullscreenenter"",""0"",""9067""
","
","684.5","","","","","","","","49","0,0,0","0","city","29","probe-139","0.6053370773314314","0.38133374837602213","0.21927244336788212","0","","","","","","","",""
"","html-keyboard-response","155","815273","0.0-86.0-1.0","""event"",""trial"",""time""
""fullscreenenter"",""0"",""9067""
","
","
","""event"",""trial"",""time""
""fullscreenenter"",""0"",""9067""
","
","null","<p></p>","null","","","","","","","","","","","","","","","","","","","","","","",""
"","do_bye","156","816784","0.0-87.0-0.0","""event"",""trial"",""time""
""fullscreenenter"",""0"",""9067""
","
","
","""event"",""trial"",""time""
""fullscreenenter"",""0"",""9067""
","
","null","","","","","","","","null","","","","","","","","","","","","","","","","",""
"","break","157","877928","0.0-87.0-1.0","""event"",""trial"",""time""
""fullscreenenter"",""0"",""9067""
","
","
","""event"",""trial"",""time""
""fullscreenenter"",""0"",""9067""
","
","61143.200000047684","<div class='center'><p>Time to take a quick break! You have 2 minutes to rest, but you can move on sooner if you'd like.</p><p> Press the <b>space bar</b> to continue.</p></div>","32","","","","","","","","","","","","","","","","","","","","","","",""
"","do_travel","158","886941","0.0-88.0-0.0","""event"",""trial"",""time""
""fullscreenenter"",""0"",""9067""
","
","
","""event"",""trial"",""time""
""fullscreenenter"",""0"",""9067""
","
","null","","","","","","","","null","","","","","","","","","","","","","","","","",""
"","do_welcome","159","890961","0.0-88.0-1.0","""event"",""trial"",""time""
""fullscreenenter"",""0"",""9067""
","
","
","""event"",""trial"",""time""
""fullscreenenter"",""0"",""9067""
","
","null","","","","","","","","null","","","","","","","","","","","","","","","","",""
"","do_trial","160","897041","0.0-89.0-0.0","""event"",""trial"",""time""
""fullscreenenter"",""0"",""9067""
","
","
","""event"",""trial"",""time""
""fullscreenenter"",""0"",""9067""
","
","1532.8000000715256","","","","","","","","49","1,1,0","1","coast","30","probe-14","1","0.33365220414146135","0.1684596242828537","1","","","","","","","",""
"","html-keyboard-response","161","898047","0.0-89.0-1.0","""event"",""trial"",""time""
""fullscreenenter"",""0"",""9067""
","
","
","""event"",""trial"",""time""
""fullscreenenter"",""0"",""9067""
","
","null","<p></p>","null","","","","","","","","","","","","","","","","","","","","","","",""
"","do_trial","162","903552","0.0-90.0-0.0","""event"",""trial"",""time""
""fullscreenenter"",""0"",""9067""
","
","
","""event"",""trial"",""time""
""fullscreenenter"",""0"",""9067""
","
","965.8999999761581","","","","","","","","50","1,1,1","1","coast","31","probe-79","1","0.28055573244565163","0.11311090417982018","1","","","","","","","",""
"","html-keyboard-response","163","904556","0.0-90.0-1.0","""event"",""trial"",""time""
""fullscreenenter"",""0"",""9067""
","
","
","""event"",""trial"",""time""
""fullscreenenter"",""0"",""9067""
","
","null","<p></p>","null","","","","","","","","","","","","","","","","","","","","","","",""
"","do_trial","164","909747","0.0-91.0-0.0","""event"",""trial"",""time""
""fullscreenenter"",""0"",""9067""
","
","
","""event"",""trial"",""time""
""fullscreenenter"",""0"",""9067""
","
","649.5","","","","","","","","51","1,0,0","1","coast","32","probe-110","1","0.37974388215851934","0.24765174139676327","0","","","","","","","",""
"","html-keyboard-response","165","910760","0.0-91.0-1.0","""event"",""trial"",""time""
""fullscreenenter"",""0"",""9067""
","
","
","""event"",""trial"",""time""
""fullscreenenter"",""0"",""9067""
","
","null","<p></p>","null","","","","","","","","","","","","","","","","","","","","","","",""
"","do_trial","166","916270","0.0-92.0-0.0","""event"",""trial"",""time""
""fullscreenenter"",""0"",""9067""
","
","
","""event"",""trial"",""time""
""fullscreenenter"",""0"",""9067""
","
","969.7000000476837","","","","","","","","50","1,0,0","1","coast","33","probe-51","0.8834570255050249","0.3978958195194153","0.14930829534268414","0","","","","","","","",""
"","html-keyboard-response","167","917278","0.0-92.0-1.0","""event"",""trial"",""time""
""fullscreenenter"",""0"",""9067""
","
","
","""event"",""trial"",""time""
""fullscreenenter"",""0"",""9067""
","
","null","<p></p>","null","","","","","","","","","","","","","","","","","","","","","","",""
"","do_trial","168","922340","0.0-93.0-0.0","""event"",""trial"",""time""
""fullscreenenter"",""0"",""9067""
","
","
","""event"",""trial"",""time""
""fullscreenenter"",""0"",""9067""
","
","518.7999999523163","","","","","","","","49","1,0,0","1","coast","34","probe-42","0.6722135345134637","0.3169803019153087","0.06602146212885905","1","","","","","","","",""
"","html-keyboard-response","169","923352","0.0-93.0-1.0","""event"",""trial"",""time""
""fullscreenenter"",""0"",""9067""
","
","
","""event"",""trial"",""time""
""fullscreenenter"",""0"",""9067""
","
","null","<p></p>","null","","","","","","","","","","","","","","","","","","","","","","",""
"","do_trial","170","929064","0.0-94.0-0.0","""event"",""trial"",""time""
""fullscreenenter"",""0"",""9067""
","
","
","""event"",""trial"",""time""
""fullscreenenter"",""0"",""9067""
","
","1163.3000000715256","","","","","","","","51","1,1,0","1","coast","35","probe-30","0.7483658774715386","0.35120753169888724","0.10893712763067603","0","","","","","","","",""
"","html-keyboard-response","171","930077","0.0-94.0-1.0","""event"",""trial"",""time""
""fullscreenenter"",""0"",""9067""
","
","
","""event"",""trial"",""time""
""fullscreenenter"",""0"",""9067""
","
","null","<p></p>","null","","","","","","","","","","","","","","","","","","","","","","",""
"","do_trial","172","935326","0.0-95.0-0.0","""event"",""trial"",""time""
""fullscreenenter"",""0"",""9067""
","
","
","""event"",""trial"",""time""
""fullscreenenter"",""0"",""9067""
","
","705.5","","","","","","","","50","0,1,0","1","coast","36","probe-60","0.5926301611820278","0.35363023263246235","0.12059722551475104","1","","","","","","","",""
"","html-keyboard-response","173","936332","0.0-95.0-1.0","""event"",""trial"",""time""
""fullscreenenter"",""0"",""9067""
","
","
","""event"",""trial"",""time""
""fullscreenenter"",""0"",""9067""
","
","null","<p></p>","null","","","","","","","","","","","","","","","","","","","","","","",""
"","do_trial","174","943749","0.0-96.0-0.0","""event"",""trial"",""time""
""fullscreenenter"",""0"",""9067""
","
","
","""event"",""trial"",""time""
""fullscreenenter"",""0"",""9067""
","
","2874.600000023842","","","","","","","","50","1,0,0","1","coast","37","probe-103","0.6270028649662294","0.34368715200930483","0.12128246921913198","0","","","","","","","",""
"","html-keyboard-response","175","944762","0.0-96.0-1.0","""event"",""trial"",""time""
""fullscreenenter"",""0"",""9067""
","
","
","""event"",""trial"",""time""
""fullscreenenter"",""0"",""9067""
","
","null","<p></p>","null","","","","","","","","","","","","","","","","","","","","","","",""
"","do_trial","176","949607","0.0-97.0-0.0","""event"",""trial"",""time""
""fullscreenenter"",""0"",""9067""
","
","
","""event"",""trial"",""time""
""fullscreenenter"",""0"",""9067""
","
","303.7000000476837","","","","","","","","51","1,0,0","1","coast","38","probe-23","0.6435190475704831","0.28725369848244087","0.1998949274360232","0","","","","","","","",""
"","html-keyboard-response","177","950610","0.0-97.0-1.0","""event"",""trial"",""time""
""fullscreenenter"",""0"",""9067""
","
","
","""event"",""trial"",""time""
""fullscreenenter"",""0"",""9067""
","
","null","<p></p>","null","","","","","","","","","","","","","","","","","","","","","","",""
"","do_trial","178","956055","0.0-98.0-0.0","""event"",""trial"",""time""
""fullscreenenter"",""0"",""9067""
","
","
","""event"",""trial"",""time""
""fullscreenenter"",""0"",""9067""
","
","898.5","","","","","","","","49","1,0,0","1","coast","39","probe-25","0.5026786805800442","0.2549388920152979","0.13528596136912163","1","","","","","","","",""
"","html-keyboard-response","179","957065","0.0-98.0-1.0","""event"",""trial"",""time""
""fullscreenenter"",""0"",""9067""
","
","
","""event"",""trial"",""time""
""fullscreenenter"",""0"",""9067""
","
","null","<p></p>","null","","","","","","","","","","","","","","","","","","","","","","",""
"","do_trial","180","962434","0.0-99.0-0.0","""event"",""trial"",""time""
""fullscreenenter"",""0"",""9067""
","
","
","""event"",""trial"",""time""
""fullscreenenter"",""0"",""9067""
","
","821.3999999761581","","","","","","","","49","1,0,0","1","coast","40","probe-46","0.6353410054333755","0.23062791080081688","0.18200285099822325","1","","","","","","","",""
"","html-keyboard-response","181","963438","0.0-99.0-1.0","""event"",""trial"",""time""
""fullscreenenter"",""0"",""9067""
","
","
","""event"",""trial"",""time""
""fullscreenenter"",""0"",""9067""
","
","null","<p></p>","null","","","","","","","","","","","","","","","","","","","","","","",""
"","do_trial","182","970793","0.0-100.0-0.0","""event"",""trial"",""time""
""fullscreenenter"",""0"",""9067""
","
","
","""event"",""trial"",""time""
""fullscreenenter"",""0"",""9067""
","
","2818.5999999046326","","","","","","","","50","1,0,0","1","coast","41","probe-20","0.6932695393463009","0.18281760703842126","0.19630529038505093","0","","","","","","","",""
"","html-keyboard-response","183","971802","0.0-100.0-1.0","""event"",""trial"",""time""
""fullscreenenter"",""0"",""9067""
","
","
","""event"",""trial"",""time""
""fullscreenenter"",""0"",""9067""
","
","null","<p></p>","null","","","","","","","","","","","","","","","","","","","","","","",""
"","do_trial","184","976979","0.0-101.0-0.0","""event"",""trial"",""time""
""fullscreenenter"",""0"",""9067""
","
","
","""event"",""trial"",""time""
""fullscreenenter"",""0"",""9067""
","
","634","","","","","","","","51","0,1,1","1","coast","42","probe-194","0.5986518935461643","0.23748683252482652","0.3114633952342258","1","","","","","","","",""
"","html-keyboard-response","185","977984","0.0-101.0-1.0","""event"",""trial"",""time""
""fullscreenenter"",""0"",""9067""
","
","
","""event"",""trial"",""time""
""fullscreenenter"",""0"",""9067""
","
","null","<p></p>","null","","","","","","","","","","","","","","","","","","","","","","",""
"","do_trial","186","983728","0.0-102.0-0.0","""event"",""trial"",""time""
""fullscreenenter"",""0"",""9067""
","
","
","""event"",""trial"",""time""
""fullscreenenter"",""0"",""9067""
","
","1200.4000000953674","","","","","","","","51","1,1,0","1","coast","43","probe-181","0.5008424769890293","0.309310510515156","0.38149382307573554","0","","","","","","","",""
"","html-keyboard-response","187","984730","0.0-102.0-1.0","""event"",""trial"",""time""
""fullscreenenter"",""0"",""9067""
","
","
","""event"",""trial"",""time""
""fullscreenenter"",""0"",""9067""
","
","null","<p></p>","null","","","","","","","","","","","","","","","","","","","","","","",""
"","do_trial","188","989718","0.0-103.0-0.0","""event"",""trial"",""time""
""fullscreenenter"",""0"",""9067""
","
","
","""event"",""trial"",""time""
""fullscreenenter"",""0"",""9067""
","
","437.90000009536743","","","","","","","","49","0,0,1","1","coast","44","probe-149","0.29848780775393186","0.3734583757111612","0.4686790443440719","0","","","","","","","",""
"","html-keyboard-response","189","990730","0.0-103.0-1.0","""event"",""trial"",""time""
""fullscreenenter"",""0"",""9067""
","
","
","""event"",""trial"",""time""
""fullscreenenter"",""0"",""9067""
","
","null","<p></p>","null","","","","","","","","","","","","","","","","","","","","","","",""
"","do_trial","190","996194","0.0-104.0-0.0","""event"",""trial"",""time""
""fullscreenenter"",""0"",""9067""
","
","
","""event"",""trial"",""time""
""fullscreenenter"",""0"",""9067""
","
","921.8999999761581","","","","","","","","50","0,0,0","1","coast","45","probe-19","0.3368192961304402","0.3782619879812946","0.5160044366323746","0","","","","","","","",""
"","html-keyboard-response","191","997204","0.0-104.0-1.0","""event"",""trial"",""time""
""fullscreenenter"",""0"",""9067""
","
","
","""event"",""trial"",""time""
""fullscreenenter"",""0"",""9067""
","
","null","<p></p>","null","","","","","","","","","","","","","","","","","","","","","","",""
"","do_trial","192","1002723","0.0-105.0-0.0","""event"",""trial"",""time""
""fullscreenenter"",""0"",""9067""
","
","
","""event"",""trial"",""time""
""fullscreenenter"",""0"",""9067""
","
","975","","","","","","","","51","1,1,0","1","coast","46","probe-45","0.3884299496855242","0.3431212363671547","0.5076145626424166","0","","","","","","","",""
"","html-keyboard-response","193","1003728","0.0-105.0-1.0","""event"",""trial"",""time""
""fullscreenenter"",""0"",""9067""
","
","
","""event"",""trial"",""time""
""fullscreenenter"",""0"",""9067""
","
","null","<p></p>","null","","","","","","","","","","","","","","","","","","","","","","",""
"","do_trial","194","1008893","0.0-106.0-0.0","""event"",""trial"",""time""
""fullscreenenter"",""0"",""9067""
","
","
","""event"",""trial"",""time""
""fullscreenenter"",""0"",""9067""
","
","624.5","","","","","","","","49","0,0,1","1","coast","47","probe-131","0.27233385435127366","0.26579089629126446","0.6225940310338882","0","","","","","","","",""
"","html-keyboard-response","195","1009903","0.0-106.0-1.0","""event"",""trial"",""time""
""fullscreenenter"",""0"",""9067""
","
","
","""event"",""trial"",""time""
""fullscreenenter"",""0"",""9067""
","
","null","<p></p>","null","","","","","","","","","","","","","","","","","","","","","","",""
"","do_trial","196","1014807","0.0-107.0-0.0","""event"",""trial"",""time""
""fullscreenenter"",""0"",""9067""
","
","
","""event"",""trial"",""time""
""fullscreenenter"",""0"",""9067""
","
","365.8000000715256","","","","","","","","50","0,0,1","1","coast","48","probe-179","0.31033221388424276","0.2865917443899381","0.692700123379784","0","","","","","","","",""
"","html-keyboard-response","197","1015815","0.0-107.0-1.0","""event"",""trial"",""time""
""fullscreenenter"",""0"",""9067""
","
","
","""event"",""trial"",""time""
""fullscreenenter"",""0"",""9067""
","
","null","<p></p>","null","","","","","","","","","","","","","","","","","","","","","","",""
"","do_trial","198","1020910","0.0-108.0-0.0","""event"",""trial"",""time""
""fullscreenenter"",""0"",""9067""
","
","
","""event"",""trial"",""time""
""fullscreenenter"",""0"",""9067""
","
","551.3999999761581","","","","","","","","49","0,0,0","1","coast","49","probe-85","0.2889964816853676","0.2143132641774337","0.5964056585271917","0","","","","","","","",""
"","html-keyboard-response","199","1021918","0.0-108.0-1.0","""event"",""trial"",""time""
""fullscreenenter"",""0"",""9067""
","
","
","""event"",""trial"",""time""
""fullscreenenter"",""0"",""9067""
","
","null","<p></p>","null","","","","","","","","","","","","","","","","","","","","","","",""
"","do_trial","200","1026822","0.0-109.0-0.0","""event"",""trial"",""time""
""fullscreenenter"",""0"",""9067""
","
","
","""event"",""trial"",""time""
""fullscreenenter"",""0"",""9067""
","
","361.89999997615814","","","","","","","","51","0,1,1","1","coast","50","probe-218","0.19913742798531253","0.37828483086803516","0.5119968170389222","1","","","","","","","",""
"","html-keyboard-response","201","1027836","0.0-109.0-1.0","""event"",""trial"",""time""
""fullscreenenter"",""0"",""9067""
","
","
","""event"",""trial"",""time""
""fullscreenenter"",""0"",""9067""
","
","null","<p></p>","null","","","","","","","","","","","","","","","","","","","","","","",""
"","do_trial","202","1033437","0.0-110.0-0.0","""event"",""trial"",""time""
""fullscreenenter"",""0"",""9067""
","
","
","""event"",""trial"",""time""
""fullscreenenter"",""0"",""9067""
","
","1051.2000000476837","","","","","","","","50","0,1,0","1","coast","51","probe-26","0.11719048971135611","0.5406775052997188","0.5284514816875022","1","","","","","","","",""
"","html-keyboard-response","203","1034449","0.0-110.0-1.0","""event"",""trial"",""time""
""fullscreenenter"",""0"",""9067""
","
","
","""event"",""trial"",""time""
""fullscreenenter"",""0"",""9067""
","
","null","<p></p>","null","","","","","","","","","","","","","","","","","","","","","","",""
"","do_trial","204","1039343","0.0-111.0-0.0","""event"",""trial"",""time""
""fullscreenenter"",""0"",""9067""
","
","
","""event"",""trial"",""time""
""fullscreenenter"",""0"",""9067""
","
","344.5","","","","","","","","49","0,1,1","1","coast","52","probe-205","0.07502144690130243","0.393010098391652","0.5234396657172249","0","","","","","","","",""
"","html-keyboard-response","205","1040349","0.0-111.0-1.0","""event"",""trial"",""time""
""fullscreenenter"",""0"",""9067""
","
","
","""event"",""trial"",""time""
""fullscreenenter"",""0"",""9067""
","
","null","<p></p>","null","","","","","","","","","","","","","","","","","","","","","","",""
"","do_trial","206","1045211","0.0-112.0-0.0","""event"",""trial"",""time""
""fullscreenenter"",""0"",""9067""
""blur"",""207"",""1046040""
","""event"",""trial"",""time""
""blur"",""207"",""1046040""
","
","""event"",""trial"",""time""
""fullscreenenter"",""0"",""9067""
","
","320.39999997615814","","","","","","","","51","0,1,1","1","coast","53","probe-32","0.05802660599083412","0.3676097215084419","0.5719738704283077","1","","","","","","","",""
"","html-keyboard-response","207","1046223","0.0-112.0-1.0","""event"",""trial"",""time""
""fullscreenenter"",""0"",""9067""
""blur"",""207"",""1046040""
""focus"",""208"",""1047378""
","""event"",""trial"",""time""
""blur"",""207"",""1046040""
","""event"",""trial"",""time""
""focus"",""208"",""1047378""
","""event"",""trial"",""time""
""fullscreenenter"",""0"",""9067""
","
","null","<p></p>","null","","","","","","","","","","","","","","","","","","","","","","",""
"","do_trial","208","1053364","0.0-113.0-0.0","""event"",""trial"",""time""
""fullscreenenter"",""0"",""9067""
""blur"",""207"",""1046040""
""focus"",""208"",""1047378""
","""event"",""trial"",""time""
""blur"",""207"",""1046040""
","""event"",""trial"",""time""
""focus"",""208"",""1047378""
","""event"",""trial"",""time""
""fullscreenenter"",""0"",""9067""
","
","2576.600000023842","","","","","","","","50","0,0,1","1","coast","54","probe-96","0.16510744516336628","0.3044337993617552","0.5836336381098755","0","","","","","","","",""
"","html-keyboard-response","209","1054369","0.0-113.0-1.0","""event"",""trial"",""time""
""fullscreenenter"",""0"",""9067""
""blur"",""207"",""1046040""
""focus"",""208"",""1047378""
","""event"",""trial"",""time""
""blur"",""207"",""1046040""
","""event"",""trial"",""time""
""focus"",""208"",""1047378""
","""event"",""trial"",""time""
""fullscreenenter"",""0"",""9067""
","
","null","<p></p>","null","","","","","","","","","","","","","","","","","","","","","","",""
"","do_trial","210","1060581","0.0-114.0-0.0","""event"",""trial"",""time""
""fullscreenenter"",""0"",""9067""
""blur"",""207"",""1046040""
""focus"",""208"",""1047378""
","""event"",""trial"",""time""
""blur"",""207"",""1046040""
","""event"",""trial"",""time""
""focus"",""208"",""1047378""
","""event"",""trial"",""time""
""fullscreenenter"",""0"",""9067""
","
","1661.5","","","","","","","","49","0,0,1","1","coast","55","probe-111","0.14403325059180405","0.31104027410593865","0.6109521392345935","0","","","","","","","",""
"","html-keyboard-response","211","1061594","0.0-114.0-1.0","""event"",""trial"",""time""
""fullscreenenter"",""0"",""9067""
""blur"",""207"",""1046040""
""focus"",""208"",""1047378""
","""event"",""trial"",""time""
""blur"",""207"",""1046040""
","""event"",""trial"",""time""
""focus"",""208"",""1047378""
","""event"",""trial"",""time""
""fullscreenenter"",""0"",""9067""
","
","null","<p></p>","null","","","","","","","","","","","","","","","","","","","","","","",""
"","do_trial","212","1066940","0.0-115.0-0.0","""event"",""trial"",""time""
""fullscreenenter"",""0"",""9067""
""blur"",""207"",""1046040""
""focus"",""208"",""1047378""
","""event"",""trial"",""time""
""blur"",""207"",""1046040""
","""event"",""trial"",""time""
""focus"",""208"",""1047378""
","""event"",""trial"",""time""
""fullscreenenter"",""0"",""9067""
","
","797.5","","","","","","","","49","0,0,1","1","coast","56","probe-213","0.17288773090841422","0.4060237351878486","0.4108554207811555","0","","","","","","","",""
"","html-keyboard-response","213","1067951","0.0-115.0-1.0","""event"",""trial"",""time""
""fullscreenenter"",""0"",""9067""
""blur"",""207"",""1046040""
""focus"",""208"",""1047378""
","""event"",""trial"",""time""
""blur"",""207"",""1046040""
","""event"",""trial"",""time""
""focus"",""208"",""1047378""
","""event"",""trial"",""time""
""fullscreenenter"",""0"",""9067""
","
","null","<p></p>","null","","","","","","","","","","","","","","","","","","","","","","",""
"","do_trial","214","1073795","0.0-116.0-0.0","""event"",""trial"",""time""
""fullscreenenter"",""0"",""9067""
""blur"",""207"",""1046040""
""focus"",""208"",""1047378""
","""event"",""trial"",""time""
""blur"",""207"",""1046040""
","""event"",""trial"",""time""
""focus"",""208"",""1047378""
","""event"",""trial"",""time""
""fullscreenenter"",""0"",""9067""
","
","1302","","","","","","","","51","0,0,1","1","coast","57","probe-136","0.3571498023966987","0.40013934280877217","0.5639664706135167","1","","","","","","","",""
"","html-keyboard-response","215","1074799","0.0-116.0-1.0","""event"",""trial"",""time""
""fullscreenenter"",""0"",""9067""
""blur"",""207"",""1046040""
""focus"",""208"",""1047378""
","""event"",""trial"",""time""
""blur"",""207"",""1046040""
","""event"",""trial"",""time""
""focus"",""208"",""1047378""
","""event"",""trial"",""time""
""fullscreenenter"",""0"",""9067""
","
","null","<p></p>","null","","","","","","","","","","","","","","","","","","","","","","",""
"","do_trial","216","1081475","0.0-117.0-0.0","""event"",""trial"",""time""
""fullscreenenter"",""0"",""9067""
""blur"",""207"",""1046040""
""focus"",""208"",""1047378""
","""event"",""trial"",""time""
""blur"",""207"",""1046040""
","""event"",""trial"",""time""
""focus"",""208"",""1047378""
","""event"",""trial"",""time""
""fullscreenenter"",""0"",""9067""
","
","2128.3000000715256","","","","","","","","49","0,0,1","1","coast","58","probe-98","0.16341884023417116","0.5075658344231234","0.5889408709715885","0","","","","","","","",""
"","html-keyboard-response","217","1082483","0.0-117.0-1.0","""event"",""trial"",""time""
""fullscreenenter"",""0"",""9067""
""blur"",""207"",""1046040""
""focus"",""208"",""1047378""
","""event"",""trial"",""time""
""blur"",""207"",""1046040""
","""event"",""trial"",""time""
""focus"",""208"",""1047378""
","""event"",""trial"",""time""
""fullscreenenter"",""0"",""9067""
","
","null","<p></p>","null","","","","","","","","","","","","","","","","","","","","","","",""
"","do_trial","218","1088532","0.0-118.0-0.0","""event"",""trial"",""time""
""fullscreenenter"",""0"",""9067""
""blur"",""207"",""1046040""
""focus"",""208"",""1047378""
","""event"",""trial"",""time""
""blur"",""207"",""1046040""
","""event"",""trial"",""time""
""focus"",""208"",""1047378""
","""event"",""trial"",""time""
""fullscreenenter"",""0"",""9067""
","
","null","","","","","","","","null","0,0,0","1","coast","59","probe-34","0.1953554659236866","0.35225259757517585","0.5456834813491662","","","","","","","","",""
"","html-keyboard-response","219","1089542","0.0-118.0-1.0","""event"",""trial"",""time""
""fullscreenenter"",""0"",""9067""
""blur"",""207"",""1046040""
""focus"",""208"",""1047378""
","""event"",""trial"",""time""
""blur"",""207"",""1046040""
","""event"",""trial"",""time""
""focus"",""208"",""1047378""
","""event"",""trial"",""time""
""fullscreenenter"",""0"",""9067""
","
","null","<p></p>","null","","","","","","","","","","","","","","","","","","","","","","",""
"","do_trial","220","1094701","0.0-119.0-0.0","""event"",""trial"",""time""
""fullscreenenter"",""0"",""9067""
""blur"",""207"",""1046040""
""focus"",""208"",""1047378""
","""event"",""trial"",""time""
""blur"",""207"",""1046040""
","""event"",""trial"",""time""
""focus"",""208"",""1047378""
","""event"",""trial"",""time""
""fullscreenenter"",""0"",""9067""
","
","614.1999999284744","","","","","","","","50","0,0,1","1","coast","60","probe-10","0.21128356928247866","0.21305984922918705","0.4058902465018497","0","","","","","","","",""
"","html-keyboard-response","221","1095709","0.0-119.0-1.0","""event"",""trial"",""time""
""fullscreenenter"",""0"",""9067""
""blur"",""207"",""1046040""
""focus"",""208"",""1047378""
","""event"",""trial"",""time""
""blur"",""207"",""1046040""
","""event"",""trial"",""time""
""focus"",""208"",""1047378""
","""event"",""trial"",""time""
""fullscreenenter"",""0"",""9067""
","
","null","<p></p>","null","","","","","","","","","","","","","","","","","","","","","","",""
"","do_trial","222","1101575","0.0-120.0-0.0","""event"",""trial"",""time""
""fullscreenenter"",""0"",""9067""
""blur"",""207"",""1046040""
""focus"",""208"",""1047378""
","""event"",""trial"",""time""
""blur"",""207"",""1046040""
","""event"",""trial"",""time""
""focus"",""208"",""1047378""
","""event"",""trial"",""time""
""fullscreenenter"",""0"",""9067""
","
","1323.7000000476837","","","","","","","","50","0,1,0","1","coast","61","probe-02","0.16568162788528834","0.21442708262066712","0.5728384408396501","1","","","","","","","",""
"","html-keyboard-response","223","1102581","0.0-120.0-1.0","""event"",""trial"",""time""
""fullscreenenter"",""0"",""9067""
""blur"",""207"",""1046040""
""focus"",""208"",""1047378""
","""event"",""trial"",""time""
""blur"",""207"",""1046040""
","""event"",""trial"",""time""
""focus"",""208"",""1047378""
","""event"",""trial"",""time""
""fullscreenenter"",""0"",""9067""
","
","null","<p></p>","null","","","","","","","","","","","","","","","","","","","","","","",""
"","do_trial","224","1108238","0.0-121.0-0.0","""event"",""trial"",""time""
""fullscreenenter"",""0"",""9067""
""blur"",""207"",""1046040""
""focus"",""208"",""1047378""
","""event"",""trial"",""time""
""blur"",""207"",""1046040""
","""event"",""trial"",""time""
""focus"",""208"",""1047378""
","""event"",""trial"",""time""
""fullscreenenter"",""0"",""9067""
","
","1115.2999999523163","","","","","","","","49","0,0,0","1","coast","62","probe-64","0.13839936112140788","0.2385180596545648","0.74119588938258","0","","","","","","","",""
"","html-keyboard-response","225","1109245","0.0-121.0-1.0","""event"",""trial"",""time""
""fullscreenenter"",""0"",""9067""
""blur"",""207"",""1046040""
""focus"",""208"",""1047378""
","""event"",""trial"",""time""
""blur"",""207"",""1046040""
","""event"",""trial"",""time""
""focus"",""208"",""1047378""
","""event"",""trial"",""time""
""fullscreenenter"",""0"",""9067""
","
","null","<p></p>","null","","","","","","","","","","","","","","","","","","","","","","",""
"","do_trial","226","1114710","0.0-122.0-0.0","""event"",""trial"",""time""
""fullscreenenter"",""0"",""9067""
""blur"",""207"",""1046040""
""focus"",""208"",""1047378""
","""event"",""trial"",""time""
""blur"",""207"",""1046040""
","""event"",""trial"",""time""
""focus"",""208"",""1047378""
","""event"",""trial"",""time""
""fullscreenenter"",""0"",""9067""
","
","914.2999999523163","","","","","","","","51","0,0,1","1","coast","63","probe-67","0.05390184951132205","0.30343781385718993","0.5783930514032126","1","","","","","","","",""
"","html-keyboard-response","227","1115721","0.0-122.0-1.0","""event"",""trial"",""time""
""fullscreenenter"",""0"",""9067""
""blur"",""207"",""1046040""
""focus"",""208"",""1047378""
","""event"",""trial"",""time""
""blur"",""207"",""1046040""
","""event"",""trial"",""time""
""focus"",""208"",""1047378""
","""event"",""trial"",""time""
""fullscreenenter"",""0"",""9067""
","
","null","<p></p>","null","","","","","","","","","","","","","","","","","","","","","","",""
"","do_trial","228","1120951","0.0-123.0-0.0","""event"",""trial"",""time""
""fullscreenenter"",""0"",""9067""
""blur"",""207"",""1046040""
""focus"",""208"",""1047378""
","""event"",""trial"",""time""
""blur"",""207"",""1046040""
","""event"",""trial"",""time""
""focus"",""208"",""1047378""
","""event"",""trial"",""time""
""fullscreenenter"",""0"",""9067""
","
","692","","","","","","","","49","0,0,0","1","coast","64","probe-77","0.08648740868957082","0.322410450360393","0.5826070872205739","0","","","","","","","",""
"","html-keyboard-response","229","1121959","0.0-123.0-1.0","""event"",""trial"",""time""
""fullscreenenter"",""0"",""9067""
""blur"",""207"",""1046040""
""focus"",""208"",""1047378""
","""event"",""trial"",""time""
""blur"",""207"",""1046040""
","""event"",""trial"",""time""
""focus"",""208"",""1047378""
","""event"",""trial"",""time""
""fullscreenenter"",""0"",""9067""
","
","null","<p></p>","null","","","","","","","","","","","","","","","","","","","","","","",""
"","do_trial","230","1127128","0.0-124.0-0.0","""event"",""trial"",""time""
""fullscreenenter"",""0"",""9067""
""blur"",""207"",""1046040""
""focus"",""208"",""1047378""
","""event"",""trial"",""time""
""blur"",""207"",""1046040""
","""event"",""trial"",""time""
""focus"",""208"",""1047378""
","""event"",""trial"",""time""
""fullscreenenter"",""0"",""9067""
","
","618.9000000953674","","","","","","","","50","0,0,0","1","coast","65","probe-168","0.1639118418339531","0.25598425774228484","0.5851460415144488","0","","","","","","","",""
"","html-keyboard-response","231","1128136","0.0-124.0-1.0","""event"",""trial"",""time""
""fullscreenenter"",""0"",""9067""
""blur"",""207"",""1046040""
""focus"",""208"",""1047378""
","""event"",""trial"",""time""
""blur"",""207"",""1046040""
","""event"",""trial"",""time""
""focus"",""208"",""1047378""
","""event"",""trial"",""time""
""fullscreenenter"",""0"",""9067""
","
","null","<p></p>","null","","","","","","","","","","","","","","","","","","","","","","",""
"","do_trial","232","1133792","0.0-125.0-0.0","""event"",""trial"",""time""
""fullscreenenter"",""0"",""9067""
""blur"",""207"",""1046040""
""focus"",""208"",""1047378""
","""event"",""trial"",""time""
""blur"",""207"",""1046040""
","""event"",""trial"",""time""
""focus"",""208"",""1047378""
","""event"",""trial"",""time""
""fullscreenenter"",""0"",""9067""
","
","1113.6000000238419","","","","","","","","51","0,0,1","1","coast","66","probe-165","0.08870442943224284","0.27912257005657753","0.5861145587889317","1","","","","","","","",""
"","html-keyboard-response","233","1134800","0.0-125.0-1.0","""event"",""trial"",""time""
""fullscreenenter"",""0"",""9067""
""blur"",""207"",""1046040""
""focus"",""208"",""1047378""
","""event"",""trial"",""time""
""blur"",""207"",""1046040""
","""event"",""trial"",""time""
""focus"",""208"",""1047378""
","""event"",""trial"",""time""
""fullscreenenter"",""0"",""9067""
","
","null","<p></p>","null","","","","","","","","","","","","","","","","","","","","","","",""
"","do_trial","234","1141875","0.0-126.0-0.0","""event"",""trial"",""time""
""fullscreenenter"",""0"",""9067""
""blur"",""207"",""1046040""
""focus"",""208"",""1047378""
","""event"",""trial"",""time""
""blur"",""207"",""1046040""
","""event"",""trial"",""time""
""focus"",""208"",""1047378""
","""event"",""trial"",""time""
""fullscreenenter"",""0"",""9067""
","
","2531.600000023842","","","","","","","","49","0,1,1","1","coast","67","probe-188","0.26943465646801795","0.3577150372580433","0.705979814844516","0","","","","","","","",""
"","html-keyboard-response","235","1142881","0.0-126.0-1.0","""event"",""trial"",""time""
""fullscreenenter"",""0"",""9067""
""blur"",""207"",""1046040""
""focus"",""208"",""1047378""
","""event"",""trial"",""time""
""blur"",""207"",""1046040""
","""event"",""trial"",""time""
""focus"",""208"",""1047378""
","""event"",""trial"",""time""
""fullscreenenter"",""0"",""9067""
","
","null","<p></p>","null","","","","","","","","","","","","","","","","","","","","","","",""
"","do_trial","236","1148333","0.0-127.0-0.0","""event"",""trial"",""time""
""fullscreenenter"",""0"",""9067""
""blur"",""207"",""1046040""
""focus"",""208"",""1047378""
","""event"",""trial"",""time""
""blur"",""207"",""1046040""
","""event"",""trial"",""time""
""focus"",""208"",""1047378""
","""event"",""trial"",""time""
""fullscreenenter"",""0"",""9067""
","
","904.6000000238419","","","","","","","","50","0,0,1","1","coast","68","probe-117","0.18329066084735693","0.26456326012586073","0.522101629255671","0","","","","","","","",""
"","html-keyboard-response","237","1149335","0.0-127.0-1.0","""event"",""trial"",""time""
""fullscreenenter"",""0"",""9067""
""blur"",""207"",""1046040""
""focus"",""208"",""1047378""
","""event"",""trial"",""time""
""blur"",""207"",""1046040""
","""event"",""trial"",""time""
""focus"",""208"",""1047378""
","""event"",""trial"",""time""
""fullscreenenter"",""0"",""9067""
","
","null","<p></p>","null","","","","","","","","","","","","","","","","","","","","","","",""
"","do_trial","238","1155428","0.0-128.0-0.0","""event"",""trial"",""time""
""fullscreenenter"",""0"",""9067""
""blur"",""207"",""1046040""
""focus"",""208"",""1047378""
","""event"",""trial"",""time""
""blur"",""207"",""1046040""
","""event"",""trial"",""time""
""focus"",""208"",""1047378""
","""event"",""trial"",""time""
""fullscreenenter"",""0"",""9067""
","
","1539.8999999761581","","","","","","","","49","0,0,1","1","coast","69","probe-107","0.1339954603670017","0.24672062079784332","0.5446821483215857","0","","","","","","","",""
"","html-keyboard-response","239","1156431","0.0-128.0-1.0","""event"",""trial"",""time""
""fullscreenenter"",""0"",""9067""
""blur"",""207"",""1046040""
""focus"",""208"",""1047378""
","""event"",""trial"",""time""
""blur"",""207"",""1046040""
","""event"",""trial"",""time""
""focus"",""208"",""1047378""
","""event"",""trial"",""time""
""fullscreenenter"",""0"",""9067""
","
","null","<p></p>","null","","","","","","","","","","","","","","","","","","","","","","",""
"","do_bye","240","1157944","0.0-129.0-0.0","""event"",""trial"",""time""
""fullscreenenter"",""0"",""9067""
""blur"",""207"",""1046040""
""focus"",""208"",""1047378""
","""event"",""trial"",""time""
""blur"",""207"",""1046040""
","""event"",""trial"",""time""
""focus"",""208"",""1047378""
","""event"",""trial"",""time""
""fullscreenenter"",""0"",""9067""
","
","null","","","","","","","","null","","","","","","","","","","","","","","","","",""
"","break","241","1277949","0.0-129.0-1.0","""event"",""trial"",""time""
""fullscreenenter"",""0"",""9067""
""blur"",""207"",""1046040""
""focus"",""208"",""1047378""
","""event"",""trial"",""time""
""blur"",""207"",""1046040""
","""event"",""trial"",""time""
""focus"",""208"",""1047378""
","""event"",""trial"",""time""
""fullscreenenter"",""0"",""9067""
","
","null","<div class='center'><p>Time to take a quick break! You have 2 minutes to rest, but you can move on sooner if you'd like.</p><p> Press the <b>space bar</b> to continue.</p></div>","null","","","","","","","","","","","","","","","","","","","","","","",""
"","do_travel","242","1286958","0.0-130.0-0.0","""event"",""trial"",""time""
""fullscreenenter"",""0"",""9067""
""blur"",""207"",""1046040""
""focus"",""208"",""1047378""
","""event"",""trial"",""time""
""blur"",""207"",""1046040""
","""event"",""trial"",""time""
""focus"",""208"",""1047378""
","""event"",""trial"",""time""
""fullscreenenter"",""0"",""9067""
","
","null","","","","","","","","null","","","","","","","","","","","","","","","","",""
"","do_welcome","243","1290978","0.0-130.0-1.0","""event"",""trial"",""time""
""fullscreenenter"",""0"",""9067""
""blur"",""207"",""1046040""
""focus"",""208"",""1047378""
","""event"",""trial"",""time""
""blur"",""207"",""1046040""
","""event"",""trial"",""time""
""focus"",""208"",""1047378""
","""event"",""trial"",""time""
""fullscreenenter"",""0"",""9067""
","
