success,trial_type,trial_index,time_elapsed,internal_node_id,interactions,blur_events,focus_events,fullscreenenter_events,fullscreenexit_events,rt,stimulus,key_press,subject_id,participant_id,age,gender,prompt,response,choice_outcomes,context_n,context_img_id,trial_n,probe_img_id,pR_red,pR_white,pR_black,outcome,contextArray_ind,validImageProbes,invalidImageProbes,pRew_Red,pRew_White,pRew_Black,availableForMemProbe,choice_blocks
TRUE,fullscreen,0,4301,0.0-0.0,"""event"",""trial"",""time""
""fullscreenenter"",""0"",""3341""
","
","
","""event"",""trial"",""time""
""fullscreenenter"",""0"",""3341""
","
",,,,,,,,,,,,,,,,,,,,,,,,,,
,pavlovia,1,4305,0.0-1.0,"""event"",""trial"",""time""
""fullscreenenter"",""0"",""3341""
","
","
","""event"",""trial"",""time""
""fullscreenenter"",""0"",""3341""
","
",,,,,,,,,,,,,,,,,,,,,,,,,,
,instruc1,2,49416,0.0-2.0,"""event"",""trial"",""time""
""fullscreenenter"",""0"",""3341""
","
","
","""event"",""trial"",""time""
""fullscreenenter"",""0"",""3341""
","
",null,run_exp/static/audio/clip_1_welcome.m4a,null,342,784,21,Female,"<div class='center'><p>Welcome! This is the first part of the study. It will last ~30 minutes. In part 1 and part 2 of the study, you are the head captain of a pirate ship traveling around the world to different islands. You will play a few different games throughout these two parts. Here is an overview of them:</p><br><p>Part 1 (today)</p><p>1. Instructions, practice game, and quiz</p><p>2. Pick a pirate game on 6 different islands</p><br><p>Part 2 (tomorrow)</p><p>3. Pick a pirate game and memory game</p><p>4. Where did you see this ship? </p></div>",,,,,,,,,,,,,,,,,,
,html-keyboard-response,3,49566,0.0-3.0,"""event"",""trial"",""time""
""fullscreenenter"",""0"",""3341""
","
","
","""event"",""trial"",""time""
""fullscreenenter"",""0"",""3341""
","
",145.6,"<div class='center'><p>Welcome! This is the first part of the study. It will last ~30 minutes. In part 1 and part 2 of the study, you are the head captain of a pirate ship traveling around the world to different islands. You will play a few different games throughout these two parts. Here is an overview of them:</p><br><p>Part 1 (today)</p><p>1. Instructions, practice game, and quiz</p><p>2. Pick a pirate game on 6 different islands</p><br><p>Part 2 (tomorrow)</p><p>3. Pick a pirate game and memory game</p><p>4. Where did you see this ship? </p><p><b>[Press the space bar to continue]</b></p></div>",32,,,,,,,,,,,,,,,,,,,,,,,
,instruc2,4,54893,0.0-4.0,"""event"",""trial"",""time""
""fullscreenenter"",""0"",""3341""
","
","
","""event"",""trial"",""time""
""fullscreenenter"",""0"",""3341""
","
",null,run_exp/static/audio/clip_2_different_places.m4a,null,,,,,"<div class='center'><p>Today, you’ll visit these 6 islands on your journey. You'll be able to see these islands from your ship.</p><p><img src='run_exp/static/images/contexts/all_contexts.png' height='500'></p></div>",,,,,,,,,,,,,,,,,,
,html-keyboard-response,5,57021,0.0-5.0,"""event"",""trial"",""time""
""fullscreenenter"",""0"",""3341""
","
","
","""event"",""trial"",""time""
""fullscreenenter"",""0"",""3341""
","
",2125.7,"<div class='center'><p>Today, you’ll visit these 6 islands on your journey. You'll be able to see these islands from your ship.</p><p><img src='run_exp/static/images/contexts/all_contexts.png' height='500'></p><p><b>[Press the space bar to continue]</b></p></div>",32,,,,,,,,,,,,,,,,,,,,,,,
,instruc3,6,66754,0.0-6.0,"""event"",""trial"",""time""
""fullscreenenter"",""0"",""3341""
","
","
","""event"",""trial"",""time""
""fullscreenenter"",""0"",""3341""
","
",null,run_exp/static/audio/clip_3_goal_of_game_1.m4a,null,,,,,"<div class='center'><p> The pirates on your ship will rob other ships as they leave the island.</p> These ships have just sold their goods to the islanders, so they will be filled with lots and lots of gold.</p><p><img src='run_exp/static/images/tutorial/ship_center.png' height='400'></p></div>",,,,,,,,,,,,,,,,,,
,html-keyboard-response,7,68210,0.0-7.0,"""event"",""trial"",""time""
""fullscreenenter"",""0"",""3341""
","
","
","""event"",""trial"",""time""
""fullscreenenter"",""0"",""3341""
","
",1453.4,"<div class='center'><p> The pirates on your ship will rob other ships as they leave the island.</p> These ships have just sold their goods to the islanders, so they will be filled with lots and lots of gold.</p><p><img src='run_exp/static/images/tutorial/ship_center.png' height='400'></p><p><b>[Press the space bar to continue]</b></p></div>",32,,,,,,,,,,,,,,,,,,,,,,,
,instruc4,8,96214,0.0-8.0,"""event"",""trial"",""time""
""fullscreenenter"",""0"",""3341""
","
","
","""event"",""trial"",""time""
""fullscreenenter"",""0"",""3341""
","
",null,run_exp/static/audio/clip_4_goal_of_game_2.m4a,null,,,,,"<div class='center'><p>As the head captain, you do not have to rob any ships yourself. Another pirate will be doing the robbing for you. First, you will choose a pirate to rob the next ship.</p><p><img src='run_exp/static/images/tutorial/pirates_all_crop.png' height='200'></p><p>Then, you'll see if the pirate successfully robbed the ship of their gold. If they were successful, then you'll get a stack of gold coins like this:</p><p><img src='run_exp/static/images/tutorial/reward.png' height='150'></p><p> If they were <b>not</b> successful, then you'll get no gold coins, and you'll see a big red x like this: </p><p><img src='run_exp/static/images/tutorial/reward_no.png' height='150'></p><p> How much bonus money you make is based on how many gold coins you collect.</p><div>",,,,,,,,,,,,,,,,,,
,html-keyboard-response,9,98039,0.0-9.0,"""event"",""trial"",""time""
""fullscreenenter"",""0"",""3341""
","
","
","""event"",""trial"",""time""
""fullscreenenter"",""0"",""3341""
","
",1819.2,"<div class='center'><p>As the head captain, you do not have to rob any ships yourself. Another pirate will be doing the robbing for you. First, you will choose a pirate to rob the next ship.</p><p><img src='run_exp/static/images/tutorial/pirates_all_crop.png' height='200'></p><p>Then, you'll see if the pirate successfully robbed the ship of their gold. If they were successful, then you'll get a stack of gold coins like this:</p><p><img src='run_exp/static/images/tutorial/reward.png' height='150'></p><p> If they were <b>not</b> successful, then you'll get no gold coins, and you'll see a big red x like this: </p><p><img src='run_exp/static/images/tutorial/reward_no.png' height='150'></p><p> How much bonus money you make is based on how many gold coins you collect.</p<p><b>[Press the space bar to continue]</b></p></div>",32,,,,,,,,,,,,,,,,,,,,,,,
,instruc5,10,120736,0.0-10.0,"""event"",""trial"",""time""
""fullscreenenter"",""0"",""3341""
","
","
","""event"",""trial"",""time""
""fullscreenenter"",""0"",""3341""
","
",22694.4,run_exp/static/audio/clip_5_probabilistic.m4a,49,,,,,"<div class='center'><p>Even the most skilled pirate can not rob EVERY ship.</p><p> Some ships will have very strong protections against pirate attacks.</p><p> Blue beard, here, is very, very good at robbing ships, but he won't be successful every time he tries to rob one.</p><p> You can press the <b>‘1’</b> key on the keyboard to choose him.</p><p> Try choosing him 10 times to see how often he succeeds at robbing a ship. </p><p><img src='run_exp/static/images/tutorial/blue.png' height='500'></p></div>",,,,,,,,,,,,,,,,,,
,html-keyboard-response,11,122243,0.0-11.0,"""event"",""trial"",""time""
""fullscreenenter"",""0"",""3341""
","
","
","""event"",""trial"",""time""
""fullscreenenter"",""0"",""3341""
","
",null,<div class='center'><p><img src='run_exp/static/images/tutorial/blue_win.png' height='500'></p></div>,null,,,,,,,,,,,,,,,,,,,,,,,
,html-keyboard-response,12,122256,0.0-12.0,"""event"",""trial"",""time""
""fullscreenenter"",""0"",""3341""
","
","
","""event"",""trial"",""time""
""fullscreenenter"",""0"",""3341""
","
",11.5,<div class='center'><img src='run_exp/static/images/tutorial/blue.png' height='500'></p></div>,49,,,,,,,,,,,,,,,,,,,,,,,
,html-keyboard-response,13,123763,0.0-13.0,"""event"",""trial"",""time""
""fullscreenenter"",""0"",""3341""
","
","
","""event"",""trial"",""time""
""fullscreenenter"",""0"",""3341""
","
",null,<div class='center'><p><img src='run_exp/static/images/tutorial/blue_win.png' height='500'></p></div>,null,,,,,,,,,,,,,,,,,,,,,,,
,html-keyboard-response,14,126607,0.0-14.0,"""event"",""trial"",""time""
""fullscreenenter"",""0"",""3341""
","
","
","""event"",""trial"",""time""
""fullscreenenter"",""0"",""3341""
","
",2841.9,<div class='center'><img src='run_exp/static/images/tutorial/blue.png' height='500'></p></div>,49,,,,,,,,,,,,,,,,,,,,,,,
,html-keyboard-response,15,128113,0.0-15.0,"""event"",""trial"",""time""
""fullscreenenter"",""0"",""3341""
","
","
","""event"",""trial"",""time""
""fullscreenenter"",""0"",""3341""
","
",null,<div class='center'><p><img src='run_exp/static/images/tutorial/blue_win.png' height='500'></p></div>,null,,,,,,,,,,,,,,,,,,,,,,,
,html-keyboard-response,16,128269,0.0-16.0,"""event"",""trial"",""time""
""fullscreenenter"",""0"",""3341""
","
","
","""event"",""trial"",""time""
""fullscreenenter"",""0"",""3341""
","
",154.1,<div class='center'><img src='run_exp/static/images/tutorial/blue.png' height='500'></p></div>,49,,,,,,,,,,,,,,,,,,,,,,,
,html-keyboard-response,17,129776,0.0-17.0,"""event"",""trial"",""time""
""fullscreenenter"",""0"",""3341""
","
","
","""event"",""trial"",""time""
""fullscreenenter"",""0"",""3341""
","
",null,<div class='center'><p><img src='run_exp/static/images/tutorial/blue_no_win.png' height='500'></p></div>,null,,,,,,,,,,,,,,,,,,,,,,,
,html-keyboard-response,18,131068,0.0-18.0,"""event"",""trial"",""time""
""fullscreenenter"",""0"",""3341""
","
","
","""event"",""trial"",""time""
""fullscreenenter"",""0"",""3341""
","
",1289.5,<div class='center'><img src='run_exp/static/images/tutorial/blue.png' height='500'></p></div>,49,,,,,,,,,,,,,,,,,,,,,,,
,html-keyboard-response,19,132570,0.0-19.0,"""event"",""trial"",""time""
""fullscreenenter"",""0"",""3341""
","
","
","""event"",""trial"",""time""
""fullscreenenter"",""0"",""3341""
","
",null,<div class='center'><p><img src='run_exp/static/images/tutorial/blue_win.png' height='500'></p></div>,null,,,,,,,,,,,,,,,,,,,,,,,
,html-keyboard-response,20,132958,0.0-20.0,"""event"",""trial"",""time""
""fullscreenenter"",""0"",""3341""
","
","
","""event"",""trial"",""time""
""fullscreenenter"",""0"",""3341""
","
",386,<div class='center'><img src='run_exp/static/images/tutorial/blue.png' height='500'></p></div>,49,,,,,,,,,,,,,,,,,,,,,,,
,html-keyboard-response,21,134468,0.0-21.0,"""event"",""trial"",""time""
""fullscreenenter"",""0"",""3341""
","
","
","""event"",""trial"",""time""
""fullscreenenter"",""0"",""3341""
","
",null,<div class='center'><p><img src='run_exp/static/images/tutorial/blue_win.png' height='500'></p></div>,null,,,,,,,,,,,,,,,,,,,,,,,
,html-keyboard-response,22,134720,0.0-22.0,"""event"",""trial"",""time""
""fullscreenenter"",""0"",""3341""
","
","
","""event"",""trial"",""time""
""fullscreenenter"",""0"",""3341""
","
",249.7,<div class='center'><img src='run_exp/static/images/tutorial/blue.png' height='500'></p></div>,49,,,,,,,,,,,,,,,,,,,,,,,
,html-keyboard-response,23,136237,0.0-23.0,"""event"",""trial"",""time""
""fullscreenenter"",""0"",""3341""
","
","
","""event"",""trial"",""time""
""fullscreenenter"",""0"",""3341""
","
",null,<div class='center'><p><img src='run_exp/static/images/tutorial/blue_win.png' height='500'></p></div>,null,,,,,,,,,,,,,,,,,,,,,,,
,html-keyboard-response,24,136788,0.0-24.0,"""event"",""trial"",""time""
""fullscreenenter"",""0"",""3341""
","
","
","""event"",""trial"",""time""
""fullscreenenter"",""0"",""3341""
","
",549.7,<div class='center'><img src='run_exp/static/images/tutorial/blue.png' height='500'></p></div>,49,,,,,,,,,,,,,,,,,,,,,,,
,html-keyboard-response,25,138305,0.0-25.0,"""event"",""trial"",""time""
""fullscreenenter"",""0"",""3341""
","
","
","""event"",""trial"",""time""
""fullscreenenter"",""0"",""3341""
","
",null,<div class='center'><p><img src='run_exp/static/images/tutorial/blue_no_win.png' height='500'></p></div>,null,,,,,,,,,,,,,,,,,,,,,,,
,html-keyboard-response,26,138602,0.0-26.0,"""event"",""trial"",""time""
""fullscreenenter"",""0"",""3341""
","
","
","""event"",""trial"",""time""
""fullscreenenter"",""0"",""3341""
","
",295.9,<div class='center'><img src='run_exp/static/images/tutorial/blue.png' height='500'></p></div>,49,,,,,,,,,,,,,,,,,,,,,,,
,html-keyboard-response,27,140111,0.0-27.0,"""event"",""trial"",""time""
""fullscreenenter"",""0"",""3341""
","
","
","""event"",""trial"",""time""
""fullscreenenter"",""0"",""3341""
","
",null,<div class='center'><p><img src='run_exp/static/images/tutorial/blue_win.png' height='500'></p></div>,null,,,,,,,,,,,,,,,,,,,,,,,
,html-keyboard-response,28,140425,0.0-28.0,"""event"",""trial"",""time""
""fullscreenenter"",""0"",""3341""
","
","
","""event"",""trial"",""time""
""fullscreenenter"",""0"",""3341""
","
",313.2,<div class='center'><img src='run_exp/static/images/tutorial/blue.png' height='500'></p></div>,49,,,,,,,,,,,,,,,,,,,,,,,
,html-keyboard-response,29,141943,0.0-29.0,"""event"",""trial"",""time""
""fullscreenenter"",""0"",""3341""
","
","
","""event"",""trial"",""time""
""fullscreenenter"",""0"",""3341""
","
",null,<div class='center'><p><img src='run_exp/static/images/tutorial/blue_win.png' height='500'></p></div>,null,,,,,,,,,,,,,,,,,,,,,,,
,instruc6,30,152520,0.0-30.0,"""event"",""trial"",""time""
""fullscreenenter"",""0"",""3341""
","
","
","""event"",""trial"",""time""
""fullscreenenter"",""0"",""3341""
","
",null,run_exp/static/audio/clip_6_blue_beard_outcome.m4a,null,,,,,"<div class='center'><p> See, he succeeded in robbing the ships most of the time but not every time. </p></div>",,,,,,,,,,,,,,,,,,
,html-keyboard-response,31,153540,0.0-31.0,"""event"",""trial"",""time""
""fullscreenenter"",""0"",""3341""
","
","
","""event"",""trial"",""time""
""fullscreenenter"",""0"",""3341""
","
",1018.2,"<div class='center'><p> See, he succeeded in robbing the ships most of the time but not every time. </p><p><b>[Press the space bar to continue]</b></p></div>",32,,,,,,,,,,,,,,,,,,,,,,,
,audio-keyboard-response,32,170824,0.0-32.0,"""event"",""trial"",""time""
""fullscreenenter"",""0"",""3341""
","
","
","""event"",""trial"",""time""
""fullscreenenter"",""0"",""3341""
","
",17281.6,run_exp/static/audio/clip_7_pick_pirate.m4a,51,,,,,,,,,,,,,,,,,,,,,,,
,audio-keyboard-response,33,175209,0.0-33.0-0.0,"""event"",""trial"",""time""
""fullscreenenter"",""0"",""3341""
","
","
","""event"",""trial"",""time""
""fullscreenenter"",""0"",""3341""
","
",4381.6,run_exp/static/audio/clip_8_chosen_pirate_win.m4a,32,,,,,,,,,,,,,,,,,,,,,,,
,audio-keyboard-response,34,180580,0.0-33.0-1.0,"""event"",""trial"",""time""
""fullscreenenter"",""0"",""3341""
","
","
","""event"",""trial"",""time""
""fullscreenenter"",""0"",""3341""
","
",5368.3,run_exp/static/audio/clip_9_pick_a_pirate_again.m4a,51,,,,,,,,,,,,,,,,,,,,,,,
,audio-keyboard-response,35,186017,0.0-34.0-0.0,"""event"",""trial"",""time""
""fullscreenenter"",""0"",""3341""
","
","
","""event"",""trial"",""time""
""fullscreenenter"",""0"",""3341""
","
",5433.1,run_exp/static/audio/clip_10_chosen_pirate_loss.m4a,32,,,,,,,,,,,,,,,,,,,,,,,
,instruc9,36,191679,0.0-35.0-0.0,"""event"",""trial"",""time""
""fullscreenenter"",""0"",""3341""
","
","
","""event"",""trial"",""time""
""fullscreenenter"",""0"",""3341""
","
",null,run_exp/static/audio/clip_11_time_out.m4a,null,,,,,"<div class='center'><p>If you don’t make your choice fast enough, you’ll have to wait a few seconds before you can make another one. </p><p><img src='run_exp/static/images/miscellaneous/hurry_up.png' height='500'></p></div>",,,,,,,,,,,,,,,,,,
,html-keyboard-response,37,192724,0.0-35.0-1.0,"""event"",""trial"",""time""
""fullscreenenter"",""0"",""3341""
","
","
","""event"",""trial"",""time""
""fullscreenenter"",""0"",""3341""
","
",1042.5,"<div class='center'><p>If you don’t make your choice fast enough, you’ll have to wait a few seconds before you can make another one. </p><p><img src='run_exp/static/images/miscellaneous/hurry_up.png' height='500'></p><p><b>[Press the space bar to continue]</b></p></div>",32,,,,,,,,,,,,,,,,,,,,,,,
,instruc10,38,232000,0.0-35.0-2.0,"""event"",""trial"",""time""
""fullscreenenter"",""0"",""3341""
","
","
","""event"",""trial"",""time""
""fullscreenenter"",""0"",""3341""
","
",null,run_exp/static/audio/clip_12_probe.m4a,null,,,,,"<div class='center'><p>Once you've chosen a pirate, you’ll be shown the ship they are robbing. You will never rob the same ship twice. Ships can be told apart from one another by the image on them. These are the goods that they sell. See, this ship has a travel mug on it. </p><p> You’ll have to remember which island you saw each ship on. You will win more gold coins and hence more bonus money if you remember correctly! To help you remember, you can imagine a story. For example, here, you could imagine a mug full of water in the desert. Or, as another example, if on the forest island, your pirate robbed a ship with an apple on it, you could imagine an apple falling from a tree in the forest. </p><p><img src='run_exp/static/images/tutorial/example_probe.png' height='500'></p></div>",,,,,,,,,,,,,,,,,,
,html-keyboard-response,39,232987,0.0-35.0-3.0,"""event"",""trial"",""time""
""fullscreenenter"",""0"",""3341""
","
","
","""event"",""trial"",""time""
""fullscreenenter"",""0"",""3341""
","
",984.6,"<div class='center'><p>Once you've chosen a pirate, you’ll be shown the ship they are robbing. You will never rob the same ship twice. Ships can be told apart from one another by the image on them. These are the goods that they sell. See, this ship has a travel mug on it. </p><p> You’ll have to remember which island you saw each ship on. You will win more gold coins and hence more bonus money if you remember correctly! To help you remember, you can imagine a story. For example, here, you could imagine a mug full of water in the desert. Or, as another example, if on the forest island, your pirate robbed a ship with an apple on it, you could imagine an apple falling from a tree in the forest. </p><p><img src='run_exp/static/images/tutorial/example_probe.png' height='500'></p><p><b>[Press the space bar to continue]</b></p></div>",32,,,,,,,,,,,,,,,,,,,,,,,
,instruc11,40,249579,0.0-35.0-4.0,"""event"",""trial"",""time""
""fullscreenenter"",""0"",""3341""
","
","
","""event"",""trial"",""time""
""fullscreenenter"",""0"",""3341""
","
",null,run_exp/static/audio/clip_13_changepoint.m4a,null,,,,,"<div class='center'><p>How successful a pirate is at robbing ships will depend on the island you’re on.</p><p> A pirate may have visited this island many times before and gained a lot of practice robbing ships there.</p><p>So, they’re more likely to be successful than a pirate who has never visited the island before.</p></div>",,,,,,,,,,,,,,,,,,
,html-keyboard-response,41,251089,0.0-35.0-5.0,"""event"",""trial"",""time""
""fullscreenenter"",""0"",""3341""
","
","
","""event"",""trial"",""time""
""fullscreenenter"",""0"",""3341""
","
",1507.8,"<div class='center'><p>How successful a pirate is at robbing ships will depend on the island you’re on.</p><p> A pirate may have visited this island many times before and gained a lot of practice robbing ships there.</p><p>So, they’re more likely to be successful than a pirate who has never visited the island before.</p><p><b>[Press the space bar to continue]</b></p></div>",32,,,,,,,,,,,,,,,,,,,,,,,
,instruc12,42,292360,0.0-35.0-6.0,"""event"",""trial"",""time""
""fullscreenenter"",""0"",""3341""
","
","
","""event"",""trial"",""time""
""fullscreenenter"",""0"",""3341""
","
",null,run_exp/static/audio/clip_14_drift.m4a,null,,,,,"<div class='center'><p>How successful a pirate is at robbing ships can also change over the time spent on the island. </p><p> Ships may hear from islanders about the pirates coming and will improve their protections against the attack. This may make it harder to rob them.</p><p> Ships may also become lazy and weaken the strength of their protections. This may make it easier to rob them.</p><br><p>Things are always changing on the high seas! So, try your best to pay attention!</p><p><img src='run_exp/static/images/tutorial/contingency.png' height='500'></p></div>",,,,,,,,,,,,,,,,,,
,html-keyboard-response,43,294899,0.0-35.0-7.0,"""event"",""trial"",""time""
""fullscreenenter"",""0"",""3341""
","
","
","""event"",""trial"",""time""
""fullscreenenter"",""0"",""3341""
","
",2535.6,"<div class='center'><p>How successful a pirate is at robbing ships can also change over the time spent on the island. </p><p> Ships may hear from islanders about the pirates coming and will improve their protections against the attack. This may make it harder to rob them.</p><p> Ships may also become lazy and weaken the strength of their protections. This may make it easier to rob them.</p><br><p>Things are always changing on the high seas! So, try your best to pay attention!</p><p><img src='run_exp/static/images/tutorial/contingency.png' height='500'></p><p><b>[Press the space bar to continue]</b></p></div>",32,,,,,,,,,,,,,,,,,,,,,,,
,instruc13,44,330280,0.0-35.0-8.0,"""event"",""trial"",""time""
""fullscreenenter"",""0"",""3341""
","
","
","""event"",""trial"",""time""
""fullscreenenter"",""0"",""3341""
","
",null,run_exp/static/audio/clip_15_summary.m4a,null,,,,,"<div class='center'><p>Let's go over the instructions quickly again. You have two important things to do: </p><b><p> 1. Pick the pirate who is the best at robbing ships on the current island. </p></b><b><p> 2. Remember on which island a ship was robbed.</p> </b><p>The amount of bonus money you can win depends on both.</p><p><br><p>Let’s try a practice game. The game will start by showing you the pirates. First, pick a pirate using the <b> 1, 2, 3 </b> keys on your keyboard. When you are shown a ship, try to remember which island you’re on by making up a story.</p><p>This is just a practice game, so you’re not playing for money. </p><p> Good luck! This game will be very difficult but try your best!</p></div>",,,,,,,,,,,,,,,,,,
,html-keyboard-response,45,331574,0.0-35.0-9.0,"""event"",""trial"",""time""
""fullscreenenter"",""0"",""3341""
","
","
","""event"",""trial"",""time""
""fullscreenenter"",""0"",""3341""
","
",1291,"<div class='center'><p>Let's go over the instructions quickly again. You have two important things to do: </p><b><p> 1. Pick the pirate who is the best at robbing ships on the current island. </p></b><b><p> 2. Remember on which island a ship was robbed.</p> </b><p>The amount of bonus money you can win depends on both.</p><p><br><p>Let’s try a practice game. The game will start by showing you the pirates. First, pick a pirate using the <b> 1, 2, 3 </b> keys on your keyboard. When you are shown a ship, try to remember which island you’re on by making up a story.</p><p>This is just a practice game, so you’re not playing for money. </p><p> Good luck! This game will be very difficult but try your best!</p><p><b>[Press the space bar to continue]</b></p></div>",32,,,,,,,,,,,,,,,,,,,,,,,
,do_welcome,46,335589,0.0-35.0-10.0,"""event"",""trial"",""time""
""fullscreenenter"",""0"",""3341""
","
","
","""event"",""trial"",""time""
""fullscreenenter"",""0"",""3341""
","
",null,,,,,,,,null,,,,,,,,,,,,,,,,,
,do_trial,47,341669,0.0-35.0-11.0,"""event"",""trial"",""time""
""fullscreenenter"",""0"",""3341""
","
","
","""event"",""trial"",""time""
""fullscreenenter"",""0"",""3341""
","
",1560,,,,,,,,49,"1,0,0",,,,,,,,,,,,,,,,
,html-keyboard-response,48,342679,0.0-36.0-0.0,"""event"",""trial"",""time""
""fullscreenenter"",""0"",""3341""
","
","
","""event"",""trial"",""time""
""fullscreenenter"",""0"",""3341""
","
",null,<p></p>,null,,,,,,,,,,,,,,,,,,,,,,,
,do_trial,49,348535,0.0-36.0-1.0,"""event"",""trial"",""time""
""fullscreenenter"",""0"",""3341""
","
","
","""event"",""trial"",""time""
""fullscreenenter"",""0"",""3341""
","
",1339.8,,,,,,,,50,"1,1,0",,,,,,,,,,,,,,,,
,html-keyboard-response,50,349548,0.0-37.0-0.0,"""event"",""trial"",""time""
""fullscreenenter"",""0"",""3341""
","
","
","""event"",""trial"",""time""
""fullscreenenter"",""0"",""3341""
","
",null,<p></p>,null,,,,,,,,,,,,,,,,,,,,,,,
,do_trial,51,354445,0.0-37.0-1.0,"""event"",""trial"",""time""
""fullscreenenter"",""0"",""3341""
","
","
","""event"",""trial"",""time""
""fullscreenenter"",""0"",""3341""
","
",379.3,,,,,,,,51,"1,0,1",,,,,,,,,,,,,,,,
,html-keyboard-response,52,355454,0.0-38.0-0.0,"""event"",""trial"",""time""
""fullscreenenter"",""0"",""3341""
","
","
","""event"",""trial"",""time""
""fullscreenenter"",""0"",""3341""
","
",null,<p></p>,null,,,,,,,,,,,,,,,,,,,,,,,
,do_trial,53,360726,0.0-38.0-1.0,"""event"",""trial"",""time""
""fullscreenenter"",""0"",""3341""
","
","
","""event"",""trial"",""time""
""fullscreenenter"",""0"",""3341""
","
",752.4,,,,,,,,50,"0,1,0",,,,,,,,,,,,,,,,
,html-keyboard-response,54,361738,0.0-39.0-0.0,"""event"",""trial"",""time""
""fullscreenenter"",""0"",""3341""
","
","
","""event"",""trial"",""time""
""fullscreenenter"",""0"",""3341""
","
",null,<p></p>,null,,,,,,,,,,,,,,,,,,,,,,,
,do_trial,55,367655,0.0-39.0-1.0,"""event"",""trial"",""time""
""fullscreenenter"",""0"",""3341""
","
","
","""event"",""trial"",""time""
""fullscreenenter"",""0"",""3341""
","
",1391.7,,,,,,,,51,"1,0,0",,,,,,,,,,,,,,,,
,do_bye,56,369176,0.0-40.0-0.0,"""event"",""trial"",""time""
""fullscreenenter"",""0"",""3341""
","
","
","""event"",""trial"",""time""
""fullscreenenter"",""0"",""3341""
","
",null,,,,,,,,null,,,,,,,,,,,,,,,,,
,do_travel,57,378197,0.0-40.0-1.0,"""event"",""trial"",""time""
""fullscreenenter"",""0"",""3341""
","
","
","""event"",""trial"",""time""
""fullscreenenter"",""0"",""3341""
","
",null,,,,,,,,null,,,,,,,,,,,,,,,,,
,do_welcome,58,382217,0.0-40.0-2.0,"""event"",""trial"",""time""
""fullscreenenter"",""0"",""3341""
","
","
","""event"",""trial"",""time""
""fullscreenenter"",""0"",""3341""
","
",null,,,,,,,,null,,,,,,,,,,,,,,,,,
,do_trial,59,387761,0.0-40.0-3.0,"""event"",""trial"",""time""
""fullscreenenter"",""0"",""3341""
","
","
","""event"",""trial"",""time""
""fullscreenenter"",""0"",""3341""
","
",1024.9,,,,,,,,49,"1,0,0",,,,,,,,,,,,,,,,
,html-keyboard-response,60,388767,0.0-41.0-0.0,"""event"",""trial"",""time""
""fullscreenenter"",""0"",""3341""
","
","
","""event"",""trial"",""time""
""fullscreenenter"",""0"",""3341""
","
",null,<p></p>,null,,,,,,,,,,,,,,,,,,,,,,,
,do_trial,61,394202,0.0-41.0-1.0,"""event"",""trial"",""time""
""fullscreenenter"",""0"",""3341""
","
","
","""event"",""trial"",""time""
""fullscreenenter"",""0"",""3341""
","
",917.8,,,,,,,,49,"1,0,1",,,,,,,,,,,,,,,,
,html-keyboard-response,62,395225,0.0-42.0-0.0,"""event"",""trial"",""time""
""fullscreenenter"",""0"",""3341""
","
","
","""event"",""trial"",""time""
""fullscreenenter"",""0"",""3341""
","
",null,<p></p>,null,,,,,,,,,,,,,,,,,,,,,,,
,do_trial,63,400493,0.0-42.0-1.0,"""event"",""trial"",""time""
""fullscreenenter"",""0"",""3341""
","
","
","""event"",""trial"",""time""
""fullscreenenter"",""0"",""3341""
","
",756.4,,,,,,,,51,"1,1,0",,,,,,,,,,,,,,,,
,html-keyboard-response,64,401522,0.0-43.0-0.0,"""event"",""trial"",""time""
""fullscreenenter"",""0"",""3341""
","
","
","""event"",""trial"",""time""
""fullscreenenter"",""0"",""3341""
","
",null,<p></p>,null,,,,,,,,,,,,,,,,,,,,,,,
,do_trial,65,406600,0.0-43.0-1.0,"""event"",""trial"",""time""
""fullscreenenter"",""0"",""3341""
","
","
","""event"",""trial"",""time""
""fullscreenenter"",""0"",""3341""
","
",562.2,,,,,,,,50,"0,0,1",,,,,,,,,,,,,,,,
,html-keyboard-response,66,407616,0.0-44.0-0.0,"""event"",""trial"",""time""
""fullscreenenter"",""0"",""3341""
","
","
","""event"",""trial"",""time""
""fullscreenenter"",""0"",""3341""
","
",null,<p></p>,null,,,,,,,,,,,,,,,,,,,,,,,
,do_trial,67,413670,0.0-44.0-1.0,"""event"",""trial"",""time""
""fullscreenenter"",""0"",""3341""
","
","
","""event"",""trial"",""time""
""fullscreenenter"",""0"",""3341""
","
",1529.9,,,,,,,,49,"1,0,1",,,,,,,,,,,,,,,,
,html-keyboard-response,68,415820,0.0-45.0-0.0,"""event"",""trial"",""time""
""fullscreenenter"",""0"",""3341""
","
","
","""event"",""trial"",""time""
""fullscreenenter"",""0"",""3341""
","
",2147.8,<div class='center'><p><img src='run_exp/static/images/tutorial/prac_best_pirate.png'  height='500'></p></div>,49,,,,,,,,,,,,,,,,,,,,,,,
,html-keyboard-response,69,418047,0.0-46.0-0.0,"""event"",""trial"",""time""
""fullscreenenter"",""0"",""3341""
","
","
","""event"",""trial"",""time""
""fullscreenenter"",""0"",""3341""
","
",2225.1,<div class='center'><p>That's correct! Red beard was the best.</p><p><b>[Press the space bar to continue]</b></p></div>,32,,,,,,,,,,,,,,,,,,,,,,,
,html-keyboard-response,70,420811,0.0-46.0-1.0,"""event"",""trial"",""time""
""fullscreenenter"",""0"",""3341""
","
","
","""event"",""trial"",""time""
""fullscreenenter"",""0"",""3341""
","
",2762.2,<div class='center'><p><img src='run_exp/static/images/tutorial/prac_source.png'  height='500'></p></div>,50,,,,,,,,,,,,,,,,,,,,,,,
,html-keyboard-response,71,421706,0.0-47.0-0.0,"""event"",""trial"",""time""
""fullscreenenter"",""0"",""3341""
","
","
","""event"",""trial"",""time""
""fullscreenenter"",""0"",""3341""
","
",893.8,<div class='center'><p>That's correct! You saw this ship on the cavern island.</p><p><b>[Press the space bar to continue]</b></p></div>,32,,,,,,,,,,,,,,,,,,,,,,,
,quiz_beginning,72,438077,0.0-47.0-1.0,"""event"",""trial"",""time""
""fullscreenenter"",""0"",""3341""
","
","
","""event"",""trial"",""time""
""fullscreenenter"",""0"",""3341""
","
",null,run_exp/static/audio/clip_16_quiz_intro.m4a,null,,,,,"<div class='center'><p>Good job on the practice game! Now, you will be asked some true or false questions to make sure you really understand the rules of the game.</p><p> Press <b>'1'</b> on the keyboard for true and press <b>'2'</b> for false.</p></div>",,,,,,,,,,,,,,,,,,
,audio-keyboard-response,73,455195,0.0-47.0-2.0,"""event"",""trial"",""time""
""fullscreenenter"",""0"",""3341""
","
","
","""event"",""trial"",""time""
""fullscreenenter"",""0"",""3341""
","
",17115.4,run_exp/static/audio/clip_17_q1.m4a,49,,,,,,,,,,,,,,,,,,,,,,,
,correct,74,457610,0.0-48.0-0.0,"""event"",""trial"",""time""
""fullscreenenter"",""0"",""3341""
","
","
","""event"",""trial"",""time""
""fullscreenenter"",""0"",""3341""
","
",null,run_exp/static/audio/clip_18_correct.m4a,null,,,,,<div class='center'><p>That's correct!</p></div>,,,,,,,,,,,,,,,,,,
,html-keyboard-response,75,458430,0.0-48.0-1.0,"""event"",""trial"",""time""
""fullscreenenter"",""0"",""3341""
","
","
","""event"",""trial"",""time""
""fullscreenenter"",""0"",""3341""
","
",818.2,<div class='center'><p>That's correct!</p><p><b>[Press the space bar to continue]</b></p></div>,32,,,,,,,,,,,,,,,,,,,,,,,
,audio-keyboard-response,76,470533,0.0-48.0-2.0,"""event"",""trial"",""time""
""fullscreenenter"",""0"",""3341""
","
","
","""event"",""trial"",""time""
""fullscreenenter"",""0"",""3341""
","
",12101.2,run_exp/static/audio/clip_20_q2.m4a,49,,,,,,,,,,,,,,,,,,,,,,,
,q2_err,77,476050,0.0-49.0-0.0,"""event"",""trial"",""time""
""fullscreenenter"",""0"",""3341""
","
","
","""event"",""trial"",""time""
""fullscreenenter"",""0"",""3341""
","
",null,run_exp/static/audio/clip_21_wrong_q2.m4a,null,,,,,<div class='center'><p>That’s incorrect. Which pirate is the best may change during your time on the island.</p></div>,,,,,,,,,,,,,,,,,,
,html-keyboard-response,78,477102,0.0-49.0-1.0,"""event"",""trial"",""time""
""fullscreenenter"",""0"",""3341""
","
","
","""event"",""trial"",""time""
""fullscreenenter"",""0"",""3341""
","
",1050.7,<div class='center'><p>That’s incorrect. Which pirate is the best may change during your time on the island.</p><p><b>[Press the space bar to continue]</b></p></div>,32,,,,,,,,,,,,,,,,,,,,,,,
,audio-keyboard-response,79,487369,0.0-49.0-2.0,"""event"",""trial"",""time""
""fullscreenenter"",""0"",""3341""
","
","
","""event"",""trial"",""time""
""fullscreenenter"",""0"",""3341""
","
",10265.6,run_exp/static/audio/clip_22_q3.m4a,49,,,,,,,,,,,,,,,,,,,,,,,
,q3_err,80,493870,0.0-50.0-0.0,"""event"",""trial"",""time""
""fullscreenenter"",""0"",""3341""
","
","
","""event"",""trial"",""time""
""fullscreenenter"",""0"",""3341""
","
",null,run_exp/static/audio/clip_23_wrong_q3.m4a,null,,,,,<div class='center'><p>That’s incorrect. How good a pirate is at robbing ships will change from island to island!</p></div>,,,,,,,,,,,,,,,,,,
,html-keyboard-response,81,494546,0.0-50.0-1.0,"""event"",""trial"",""time""
""fullscreenenter"",""0"",""3341""
","
","
","""event"",""trial"",""time""
""fullscreenenter"",""0"",""3341""
","
",674.7,<div class='center'><p>That’s incorrect. How good a pirate is at robbing ships will change from island to island!</p><p><b>[Press the space bar to continue]</b></p></div>,32,,,,,,,,,,,,,,,,,,,,,,,
,audio-keyboard-response,82,499384,0.0-50.0-2.0,"""event"",""trial"",""time""
""fullscreenenter"",""0"",""3341""
","
","
","""event"",""trial"",""time""
""fullscreenenter"",""0"",""3341""
","
",4835.9,run_exp/static/audio/clip_24_q4.m4a,49,,,,,,,,,,,,,,,,,,,,,,,
,correct,83,501810,0.0-51.0-0.0,"""event"",""trial"",""time""
""fullscreenenter"",""0"",""3341""
","
","
","""event"",""trial"",""time""
""fullscreenenter"",""0"",""3341""
","
",null,run_exp/static/audio/clip_18_correct.m4a,null,,,,,<div class='center'><p>That's correct!</p></div>,,,,,,,,,,,,,,,,,,
,html-keyboard-response,84,502347,0.0-51.0-1.0,"""event"",""trial"",""time""
""fullscreenenter"",""0"",""3341""
","
","
","""event"",""trial"",""time""
""fullscreenenter"",""0"",""3341""
","
",534.5,<div class='center'><p>That's correct!</p><p><b>[Press the space bar to continue]</b></p></div>,32,,,,,,,,,,,,,,,,,,,,,,,
,q_all_err,85,508571,0.0-52.0-0.0,"""event"",""trial"",""time""
""fullscreenenter"",""0"",""3341""
","
","
","""event"",""trial"",""time""
""fullscreenenter"",""0"",""3341""
","
",null,run_exp/static/audio/clip_26_quiz_redo.m4a,null,,,,,"<div class='center'><p>Oops, you missed some questions. Now that you’ve heard the correct answers. Try the quiz again! </p></div>",,,,,,,,,,,,,,,,,,
,html-keyboard-response,86,509041,0.0-52.0-1.0,"""event"",""trial"",""time""
""fullscreenenter"",""0"",""3341""
","
","
","""event"",""trial"",""time""
""fullscreenenter"",""0"",""3341""
","
",469.3,"<div class='center'><p>Oops, you missed some questions. Now that you’ve heard the correct answers. Try the quiz again! </p><p><b>[Press the space bar to continue]</b></p></div>",32,,,,,,,,,,,,,,,,,,,,,,,
,audio-keyboard-response,87,512428,0.0-52.0-2.0,"""event"",""trial"",""time""
""fullscreenenter"",""0"",""3341""
","
","
","""event"",""trial"",""time""
""fullscreenenter"",""0"",""3341""
","
",3385.1,run_exp/static/audio/clip_17_q1.m4a,49,,,,,,,,,,,,,,,,,,,,,,,
,correct,88,514830,0.0-53.0-0.0,"""event"",""trial"",""time""
""fullscreenenter"",""0"",""3341""
","
","
","""event"",""trial"",""time""
""fullscreenenter"",""0"",""3341""
","
",null,run_exp/static/audio/clip_18_correct.m4a,null,,,,,<div class='center'><p>That's correct!</p></div>,,,,,,,,,,,,,,,,,,
,html-keyboard-response,89,515355,0.0-53.0-1.0,"""event"",""trial"",""time""
""fullscreenenter"",""0"",""3341""
","
","
","""event"",""trial"",""time""
""fullscreenenter"",""0"",""3341""
","
",523.1,<div class='center'><p>That's correct!</p><p><b>[Press the space bar to continue]</b></p></div>,32,,,,,,,,,,,,,,,,,,,,,,,
,audio-keyboard-response,90,523547,0.0-53.0-2.0,"""event"",""trial"",""time""
""fullscreenenter"",""0"",""3341""
","
","
","""event"",""trial"",""time""
""fullscreenenter"",""0"",""3341""
","
",8190.3,run_exp/static/audio/clip_20_q2.m4a,50,,,,,,,,,,,,,,,,,,,,,,,
,correct,91,525952,0.0-54.0-0.0,"""event"",""trial"",""time""
""fullscreenenter"",""0"",""3341""
","
","
","""event"",""trial"",""time""
""fullscreenenter"",""0"",""3341""
","
",null,run_exp/static/audio/clip_18_correct.m4a,null,,,,,<div class='center'><p>That's correct!</p></div>,,,,,,,,,,,,,,,,,,
,html-keyboard-response,92,526362,0.0-54.0-1.0,"""event"",""trial"",""time""
""fullscreenenter"",""0"",""3341""
","
","
","""event"",""trial"",""time""
""fullscreenenter"",""0"",""3341""
","
",409.4,<div class='center'><p>That's correct!</p><p><b>[Press the space bar to continue]</b></p></div>,32,,,,,,,,,,,,,,,,,,,,,,,
,audio-keyboard-response,93,533179,0.0-54.0-2.0,"""event"",""trial"",""time""
""fullscreenenter"",""0"",""3341""
","
","
","""event"",""trial"",""time""
""fullscreenenter"",""0"",""3341""
","
",6815.2,run_exp/static/audio/clip_22_q3.m4a,50,,,,,,,,,,,,,,,,,,,,,,,
,correct,94,535571,0.0-55.0-0.0,"""event"",""trial"",""time""
""fullscreenenter"",""0"",""3341""
","
","
","""event"",""trial"",""time""
""fullscreenenter"",""0"",""3341""
","
",null,run_exp/static/audio/clip_18_correct.m4a,null,,,,,<div class='center'><p>That's correct!</p></div>,,,,,,,,,,,,,,,,,,
,html-keyboard-response,95,536053,0.0-55.0-1.0,"""event"",""trial"",""time""
""fullscreenenter"",""0"",""3341""
","
","
","""event"",""trial"",""time""
""fullscreenenter"",""0"",""3341""
","
",480.4,<div class='center'><p>That's correct!</p><p><b>[Press the space bar to continue]</b></p></div>,32,,,,,,,,,,,,,,,,,,,,,,,
,audio-keyboard-response,96,541107,0.0-55.0-2.0,"""event"",""trial"",""time""
""fullscreenenter"",""0"",""3341""
","
","
","""event"",""trial"",""time""
""fullscreenenter"",""0"",""3341""
","
",5052.5,run_exp/static/audio/clip_24_q4.m4a,49,,,,,,,,,,,,,,,,,,,,,,,
,correct,97,543531,0.0-56.0-0.0,"""event"",""trial"",""time""
""fullscreenenter"",""0"",""3341""
","
","
","""event"",""trial"",""time""
""fullscreenenter"",""0"",""3341""
","
",null,run_exp/static/audio/clip_18_correct.m4a,null,,,,,<div class='center'><p>That's correct!</p></div>,,,,,,,,,,,,,,,,,,
,html-keyboard-response,98,544026,0.0-56.0-1.0,"""event"",""trial"",""time""
""fullscreenenter"",""0"",""3341""
","
","
","""event"",""trial"",""time""
""fullscreenenter"",""0"",""3341""
","
",492.8,<div class='center'><p>That's correct!</p><p><b>[Press the space bar to continue]</b></p></div>,32,,,,,,,,,,,,,,,,,,,,,,,
,q_all_corr,99,552530,0.0-57.0-0.0,"""event"",""trial"",""time""
""fullscreenenter"",""0"",""3341""
","
","
","""event"",""trial"",""time""
""fullscreenenter"",""0"",""3341""
","
",null,run_exp/static/audio/clip_27_quiz_all_correct.m4a,null,,,,,<div class='center'><p>Good job! You’re now ready to move on to the real game! Remember this game will be difficult but don't get discouraged and try your best!</p></div>,,,,,,,,,,,,,,,,,,
,html-keyboard-response,100,553358,0.0-57.0-1.0,"""event"",""trial"",""time""
""fullscreenenter"",""0"",""3341""
","
","
","""event"",""trial"",""time""
""fullscreenenter"",""0"",""3341""
","
",826.4,<div class='center'><p>Good job! You’re now ready to move on to the real game! Remember this game will be difficult but don't get discouraged and try your best!</p><p><b>[Press the space bar to continue]</b></p></div>,32,,,,,,,,,,,,,,,,,,,,,,,
,do_welcome,101,557374,0.0-58.0-0.0,"""event"",""trial"",""time""
""fullscreenenter"",""0"",""3341""
","
","
","""event"",""trial"",""time""
""fullscreenenter"",""0"",""3341""
","
",null,,,,,,,,null,,,,,,,,,,,,,,,,,
,do_trial,102,562391,0.0-59.0-0.0,"""event"",""trial"",""time""
""fullscreenenter"",""0"",""3341""
","
","
","""event"",""trial"",""time""
""fullscreenenter"",""0"",""3341""
","
",442.1,,,,,,,,49,"1,1,0",0,city,0,probe-31,0.6,0.3,0.1,1,,,,,,,,
,html-keyboard-response,103,563402,0.0-59.0-1.0,"""event"",""trial"",""time""
""fullscreenenter"",""0"",""3341""
","
","
","""event"",""trial"",""time""
""fullscreenenter"",""0"",""3341""
","
",null,<p></p>,null,,,,,,,,,,,,,,,,,,,,,,,
,do_trial,104,568780,0.0-60.0-0.0,"""event"",""trial"",""time""
""fullscreenenter"",""0"",""3341""
","
","
","""event"",""trial"",""time""
""fullscreenenter"",""0"",""3341""
","
",823.2,,,,,,,,50,"1,0,0",0,city,1,probe-78,0.524992892,0.304016289,0.110686361,0,,,,,,,,
,html-keyboard-response,105,569783,0.0-60.0-1.0,"""event"",""trial"",""time""
""fullscreenenter"",""0"",""3341""
","
","
","""event"",""trial"",""time""
""fullscreenenter"",""0"",""3341""
","
",null,<p></p>,null,,,,,,,,,,,,,,,,,,,,,,,
,do_trial,106,575056,0.0-61.0-0.0,"""event"",""trial"",""time""
""fullscreenenter"",""0"",""3341""
","
","
","""event"",""trial"",""time""
""fullscreenenter"",""0"",""3341""
","
",701.4,,,,,,,,51,"1,0,1",0,city,2,probe-110,0.613947344,0.291179624,0.193246956,1,,,,,,,,
,html-keyboard-response,107,576075,0.0-61.0-1.0,"""event"",""trial"",""time""
""fullscreenenter"",""0"",""3341""
","
","
","""event"",""trial"",""time""
""fullscreenenter"",""0"",""3341""
","
",null,<p></p>,null,,,,,,,,,,,,,,,,,,,,,,,
,do_trial,108,581179,0.0-62.0-0.0,"""event"",""trial"",""time""
""fullscreenenter"",""0"",""3341""
","
","
","""event"",""trial"",""time""
""fullscreenenter"",""0"",""3341""
","
",559.4,,,,,,,,49,"0,0,0",0,city,3,probe-170,0.580613938,0.282465181,0.081060789,0,,,,,,,,
,html-keyboard-response,109,582198,0.0-62.0-1.0,"""event"",""trial"",""time""
""fullscreenenter"",""0"",""3341""
","
","
","""event"",""trial"",""time""
""fullscreenenter"",""0"",""3341""
","
",null,<p></p>,null,,,,,,,,,,,,,,,,,,,,,,,
,do_trial,110,588255,0.0-63.0-0.0,"""event"",""trial"",""time""
""fullscreenenter"",""0"",""3341""
","
","
","""event"",""trial"",""time""
""fullscreenenter"",""0"",""3341""
","
",1506.1,,,,,,,,51,"1,1,1",0,city,4,probe-101,0.572472154,0.325826878,0.105325339,1,,,,,,,,
,html-keyboard-response,111,589275,0.0-63.0-1.0,"""event"",""trial"",""time""
""fullscreenenter"",""0"",""3341""
","
","
","""event"",""trial"",""time""
""fullscreenenter"",""0"",""3341""
","
",null,<p></p>,null,,,,,,,,,,,,,,,,,,,,,,,
,do_trial,112,594524,0.0-64.0-0.0,"""event"",""trial"",""time""
""fullscreenenter"",""0"",""3341""
","
","
","""event"",""trial"",""time""
""fullscreenenter"",""0"",""3341""
","
",701.2,,,,,,,,50,"1,1,0",0,city,5,probe-191,0.689594853,0.401148449,0.107383468,1,,,,,,,,
,html-keyboard-response,113,595541,0.0-64.0-1.0,"""event"",""trial"",""time""
""fullscreenenter"",""0"",""3341""
","
","
","""event"",""trial"",""time""
""fullscreenenter"",""0"",""3341""
","
",null,<p></p>,null,,,,,,,,,,,,,,,,,,,,,,,
,do_trial,114,600914,0.0-65.0-0.0,"""event"",""trial"",""time""
""fullscreenenter"",""0"",""3341""
","
","
","""event"",""trial"",""time""
""fullscreenenter"",""0"",""3341""
","
",826.1,,,,,,,,49,"1,0,0",0,city,6,probe-131,0.730798631,0.402150346,0.142011641,1,,,,,,,,
,html-keyboard-response,115,601931,0.0-65.0-1.0,"""event"",""trial"",""time""
""fullscreenenter"",""0"",""3341""
","
","
","""event"",""trial"",""time""
""fullscreenenter"",""0"",""3341""
","
",null,<p></p>,null,,,,,,,,,,,,,,,,,,,,,,,
,do_trial,116,608004,0.0-66.0-0.0,"""event"",""trial"",""time""
""fullscreenenter"",""0"",""3341""
","
","
","""event"",""trial"",""time""
""fullscreenenter"",""0"",""3341""
","
",1515.7,,,,,,,,51,"0,0,0",0,city,7,probe-162,0.64287119,0.477949458,0.152236532,0,,,,,,,,
,html-keyboard-response,117,609018,0.0-66.0-1.0,"""event"",""trial"",""time""
""fullscreenenter"",""0"",""3341""
","
","
","""event"",""trial"",""time""
""fullscreenenter"",""0"",""3341""
","
",null,<p></p>,null,,,,,,,,,,,,,,,,,,,,,,,
,do_trial,118,615398,0.0-67.0-0.0,"""event"",""trial"",""time""
""fullscreenenter"",""0"",""3341""
","
","
","""event"",""trial"",""time""
""fullscreenenter"",""0"",""3341""
","
",1828.3,,,,,,,,49,"0,1,0",0,city,8,probe-81,0.474981157,0.610665274,0.25915287,0,,,,,,,,
,html-keyboard-response,119,616410,0.0-67.0-1.0,"""event"",""trial"",""time""
""fullscreenenter"",""0"",""3341""
","
","
","""event"",""trial"",""time""
""fullscreenenter"",""0"",""3341""
","
",null,<p></p>,null,,,,,,,,,,,,,,,,,,,,,,,
,do_trial,120,621974,0.0-68.0-0.0,"""event"",""trial"",""time""
""fullscreenenter"",""0"",""3341""
","
","
","""event"",""trial"",""time""
""fullscreenenter"",""0"",""3341""
","
",1017.9,,,,,,,,50,"0,1,0",0,city,9,probe-76,0.567039794,0.441102945,0.067806326,1,,,,,,,,
,html-keyboard-response,121,622992,0.0-68.0-1.0,"""event"",""trial"",""time""
""fullscreenenter"",""0"",""3341""
","
","
","""event"",""trial"",""time""
""fullscreenenter"",""0"",""3341""
","
",null,<p></p>,null,,,,,,,,,,,,,,,,,,,,,,,
,do_trial,122,628392,0.0-69.0-0.0,"""event"",""trial"",""time""
""fullscreenenter"",""0"",""3341""
","
","
","""event"",""trial"",""time""
""fullscreenenter"",""0"",""3341""
","
",817.9,,,,,,,,49,"0,1,0",0,city,10,probe-202,0.643961094,0.582275477,0.079273771,0,,,,,,,,
,html-keyboard-response,123,629406,0.0-69.0-1.0,"""event"",""trial"",""time""
""fullscreenenter"",""0"",""3341""
","
","
","""event"",""trial"",""time""
""fullscreenenter"",""0"",""3341""
","
",null,<p></p>,null,,,,,,,,,,,,,,,,,,,,,,,
,do_trial,124,634968,0.0-70.0-0.0,"""event"",""trial"",""time""
""fullscreenenter"",""0"",""3341""
","
","
","""event"",""trial"",""time""
""fullscreenenter"",""0"",""3341""
","
",988.2,,,,,,,,51,"1,1,0",0,city,11,probe-192,0.562126491,0.465366165,0.090645054,0,,,,,,,,
,html-keyboard-response,125,635983,0.0-70.0-1.0,"""event"",""trial"",""time""
""fullscreenenter"",""0"",""3341""
","
","
","""event"",""trial"",""time""
""fullscreenenter"",""0"",""3341""
","
",null,<p></p>,null,,,,,,,,,,,,,,,,,,,,,,,
,do_trial,126,641757,0.0-71.0-0.0,"""event"",""trial"",""time""
""fullscreenenter"",""0"",""3341""
","
","
","""event"",""trial"",""time""
""fullscreenenter"",""0"",""3341""
","
",1226.3,,,,,,,,50,"0,1,0",0,city,12,probe-57,0.444050586,0.473442738,0.095996,1,,,,,,,,
,html-keyboard-response,127,642769,0.0-71.0-1.0,"""event"",""trial"",""time""
""fullscreenenter"",""0"",""3341""
","
","
","""event"",""trial"",""time""
""fullscreenenter"",""0"",""3341""
","
",null,<p></p>,null,,,,,,,,,,,,,,,,,,,,,,,
,do_trial,128,647946,0.0-72.0-0.0,"""event"",""trial"",""time""
""fullscreenenter"",""0"",""3341""
","
","
","""event"",""trial"",""time""
""fullscreenenter"",""0"",""3341""
","
",630.9,,,,,,,,49,"1,1,0",0,city,13,probe-224,0.502472949,0.478105639,0.114803375,1,,,,,,,,
,html-keyboard-response,129,648961,0.0-72.0-1.0,"""event"",""trial"",""time""
""fullscreenenter"",""0"",""3341""
","
","
","""event"",""trial"",""time""
""fullscreenenter"",""0"",""3341""
","
",null,<p></p>,null,,,,,,,,,,,,,,,,,,,,,,,
,do_trial,130,654554,0.0-73.0-0.0,"""event"",""trial"",""time""
""fullscreenenter"",""0"",""3341""
","
","
","""event"",""trial"",""time""
""fullscreenenter"",""0"",""3341""
","
",1040.8,,,,,,,,51,"0,0,0",0,city,14,probe-03,0.577762812,0.632661262,0.082781507,0,,,,,,,,
,html-keyboard-response,131,655571,0.0-73.0-1.0,"""event"",""trial"",""time""
""fullscreenenter"",""0"",""3341""
","
","
","""event"",""trial"",""time""
""fullscreenenter"",""0"",""3341""
","
",null,<p></p>,null,,,,,,,,,,,,,,,,,,,,,,,
,do_trial,132,661996,0.0-74.0-0.0,"""event"",""trial"",""time""
""fullscreenenter"",""0"",""3341""
","
","
","""event"",""trial"",""time""
""fullscreenenter"",""0"",""3341""
","
",1832.9,,,,,,,,50,"1,0,0",0,city,15,probe-70,0.565768359,0.342324663,0.067133059,0,,,,,,,,
,html-keyboard-response,133,663007,0.0-74.0-1.0,"""event"",""trial"",""time""
""fullscreenenter"",""0"",""3341""
","
","
","""event"",""trial"",""time""
""fullscreenenter"",""0"",""3341""
","
",null,<p></p>,null,,,,,,,,,,,,,,,,,,,,,,,
,do_trial,134,668470,0.0-75.0-0.0,"""event"",""trial"",""time""
""fullscreenenter"",""0"",""3341""
","
","
","""event"",""trial"",""time""
""fullscreenenter"",""0"",""3341""
","
",892.6,,,,,,,,49,"1,0,0",0,city,16,probe-103,0.685182681,0.41090802,0.076158719,1,,,,,,,,
,html-keyboard-response,135,669479,0.0-75.0-1.0,"""event"",""trial"",""time""
""fullscreenenter"",""0"",""3341""
","
","
","""event"",""trial"",""time""
""fullscreenenter"",""0"",""3341""
","
",null,<p></p>,null,,,,,,,,,,,,,,,,,,,,,,,
,do_trial,136,674780,0.0-76.0-0.0,"""event"",""trial"",""time""
""fullscreenenter"",""0"",""3341""
","
","
","""event"",""trial"",""time""
""fullscreenenter"",""0"",""3341""
","
",723.2,,,,,,,,51,"1,0,0",0,city,17,probe-117,0.615863644,0.343355696,0.064455141,0,,,,,,,,
,html-keyboard-response,137,675794,0.0-76.0-1.0,"""event"",""trial"",""time""
""fullscreenenter"",""0"",""3341""
","
","
","""event"",""trial"",""time""
""fullscreenenter"",""0"",""3341""
","
",null,<p></p>,null,,,,,,,,,,,,,,,,,,,,,,,
,do_trial,138,681100,0.0-77.0-0.0,"""event"",""trial"",""time""
""fullscreenenter"",""0"",""3341""
","
","
","""event"",""trial"",""time""
""fullscreenenter"",""0"",""3341""
","
",758.3,,,,,,,,50,"1,0,1",0,city,18,probe-40,0.564696312,0.375132877,0.2188047,0,,,,,,,,
,html-keyboard-response,139,682118,0.0-77.0-1.0,"""event"",""trial"",""time""
""fullscreenenter"",""0"",""3341""
","
","
","""event"",""trial"",""time""
""fullscreenenter"",""0"",""3341""
","
",null,<p></p>,null,,,,,,,,,,,,,,,,,,,,,,,
,do_trial,140,687604,0.0-78.0-0.0,"""event"",""trial"",""time""
""fullscreenenter"",""0"",""3341""
","
","
","""event"",""trial"",""time""
""fullscreenenter"",""0"",""3341""
","
",936.6,,,,,,,,49,"1,1,1",0,city,19,probe-199,0.513193073,0.351821222,0.243959194,1,,,,,,,,
,html-keyboard-response,141,688620,0.0-78.0-1.0,"""event"",""trial"",""time""
""fullscreenenter"",""0"",""3341""
","
","
","""event"",""trial"",""time""
""fullscreenenter"",""0"",""3341""
","
",null,<p></p>,null,,,,,,,,,,,,,,,,,,,,,,,
,do_trial,142,694581,0.0-79.0-0.0,"""event"",""trial"",""time""
""fullscreenenter"",""0"",""3341""
","
","
","""event"",""trial"",""time""
""fullscreenenter"",""0"",""3341""
","
",1380.2,,,,,,,,50,"1,0,0",0,city,20,probe-24,0.693399282,0.277457709,0.298093553,0,,,,,,,,
,html-keyboard-response,143,695597,0.0-79.0-1.0,"""event"",""trial"",""time""
""fullscreenenter"",""0"",""3341""
","
","
","""event"",""trial"",""time""
""fullscreenenter"",""0"",""3341""
","
",null,<p></p>,null,,,,,,,,,,,,,,,,,,,,,,,
,do_trial,144,700920,0.0-80.0-0.0,"""event"",""trial"",""time""
""fullscreenenter"",""0"",""3341""
","
","
","""event"",""trial"",""time""
""fullscreenenter"",""0"",""3341""
","
",767.1,,,,,,,,51,"1,1,0",0,city,21,probe-130,0.679744808,0.300690678,0.213279973,0,,,,,,,,
,html-keyboard-response,145,701936,0.0-80.0-1.0,"""event"",""trial"",""time""
""fullscreenenter"",""0"",""3341""
","
","
","""event"",""trial"",""time""
""fullscreenenter"",""0"",""3341""
","
",null,<p></p>,null,,,,,,,,,,,,,,,,,,,,,,,
,do_trial,146,707810,0.0-81.0-0.0,"""event"",""trial"",""time""
""fullscreenenter"",""0"",""3341""
","
","
","""event"",""trial"",""time""
""fullscreenenter"",""0"",""3341""
","
",1317.3,,,,,,,,49,"1,0,0",0,city,22,probe-86,0.58253975,0.387779193,0.199763236,1,,,,,,,,
,html-keyboard-response,147,708824,0.0-81.0-1.0,"""event"",""trial"",""time""
""fullscreenenter"",""0"",""3341""
","
","
","""event"",""trial"",""time""
""fullscreenenter"",""0"",""3341""
","
",null,<p></p>,null,,,,,,,,,,,,,,,,,,,,,,,
,do_trial,148,714000,0.0-82.0-0.0,"""event"",""trial"",""time""
""fullscreenenter"",""0"",""3341""
","
","
","""event"",""trial"",""time""
""fullscreenenter"",""0"",""3341""
","
",620.7,,,,,,,,49,"1,0,0",0,city,23,probe-132,0.575796288,0.494334018,0.115803793,1,,,,,,,,
,html-keyboard-response,149,715019,0.0-82.0-1.0,"""event"",""trial"",""time""
""fullscreenenter"",""0"",""3341""
","
","
","""event"",""trial"",""time""
""fullscreenenter"",""0"",""3341""
","
",null,<p></p>,null,,,,,,,,,,,,,,,,,,,,,,,
,do_trial,150,720028,0.0-83.0-0.0,"""event"",""trial"",""time""
""fullscreenenter"",""0"",""3341""
","
","
","""event"",""trial"",""time""
""fullscreenenter"",""0"",""3341""
","
",461.2,,,,,,,,51,"1,1,0",0,city,24,probe-11,0.638901957,0.368871052,0.139375775,0,,,,,,,,
,html-keyboard-response,151,721038,0.0-83.0-1.0,"""event"",""trial"",""time""
""fullscreenenter"",""0"",""3341""
","
","
","""event"",""trial"",""time""
""fullscreenenter"",""0"",""3341""
","
",null,<p></p>,null,,,,,,,,,,,,,,,,,,,,,,,
,do_trial,152,726833,0.0-84.0-0.0,"""event"",""trial"",""time""
""fullscreenenter"",""0"",""3341""
","
","
","""event"",""trial"",""time""
""fullscreenenter"",""0"",""3341""
","
",1239.9,,,,,,,,50,"0,1,0",0,city,25,probe-20,0.622742774,0.497211305,0.130510345,1,,,,,,,,
,html-keyboard-response,153,727843,0.0-84.0-1.0,"""event"",""trial"",""time""
""fullscreenenter"",""0"",""3341""
","
","
","""event"",""trial"",""time""
""fullscreenenter"",""0"",""3341""
","
",null,<p></p>,null,,,,,,,,,,,,,,,,,,,,,,,
,do_trial,154,734885,0.0-85.0-0.0,"""event"",""trial"",""time""
""fullscreenenter"",""0"",""3341""
","
","
","""event"",""trial"",""time""
""fullscreenenter"",""0"",""3341""
","
",2492.5,,,,,,,,49,"1,0,0",0,city,26,probe-139,0.591057357,0.296946876,0.072838916,1,,,,,,,,
,html-keyboard-response,155,735905,0.0-85.0-1.0,"""event"",""trial"",""time""
""fullscreenenter"",""0"",""3341""
","
","
","""event"",""trial"",""time""
""fullscreenenter"",""0"",""3341""
","
",null,<p></p>,null,,,,,,,,,,,,,,,,,,,,,,,
,do_trial,156,741211,0.0-86.0-0.0,"""event"",""trial"",""time""
""fullscreenenter"",""0"",""3341""
","
","
","""event"",""trial"",""time""
""fullscreenenter"",""0"",""3341""
","
",753.2,,,,,,,,51,"0,1,0",0,city,27,probe-14,0.493452988,0.32919939,0.066658893,0,,,,,,,,
,html-keyboard-response,157,742220,0.0-86.0-1.0,"""event"",""trial"",""time""
""fullscreenenter"",""0"",""3341""
","
","
","""event"",""trial"",""time""
""fullscreenenter"",""0"",""3341""
","
",null,<p></p>,null,,,,,,,,,,,,,,,,,,,,,,,
,do_trial,158,747970,0.0-87.0-0.0,"""event"",""trial"",""time""
""fullscreenenter"",""0"",""3341""
","
","
","""event"",""trial"",""time""
""fullscreenenter"",""0"",""3341""
","
",1188.3,,,,,,,,49,"1,0,0",0,city,28,probe-137,0.561778636,0.236027519,0.13160488,1,,,,,,,,
,html-keyboard-response,159,748991,0.0-87.0-1.0,"""event"",""trial"",""time""
""fullscreenenter"",""0"",""3341""
","
","
","""event"",""trial"",""time""
""fullscreenenter"",""0"",""3341""
","
",null,<p></p>,null,,,,,,,,,,,,,,,,,,,,,,,
,do_trial,160,754612,0.0-88.0-0.0,"""event"",""trial"",""time""
""fullscreenenter"",""0"",""3341""
","
","
","""event"",""trial"",""time""
""fullscreenenter"",""0"",""3341""
","
",1068.6,,,,,,,,50,"0,0,0",0,city,29,probe-126,0.727967316,0.102927884,0.152377753,0,,,,,,,,
,html-keyboard-response,161,755617,0.0-88.0-1.0,"""event"",""trial"",""time""
""fullscreenenter"",""0"",""3341""
","
","
","""event"",""trial"",""time""
""fullscreenenter"",""0"",""3341""
","
",null,<p></p>,null,,,,,,,,,,,,,,,,,,,,,,,
,do_bye,162,757128,0.0-89.0-0.0,"""event"",""trial"",""time""
""fullscreenenter"",""0"",""3341""
","
","
","""event"",""trial"",""time""
""fullscreenenter"",""0"",""3341""
","
",null,,,,,,,,null,,,,,,,,,,,,,,,,,
,break,163,757245,0.0-89.0-1.0,"""event"",""trial"",""time""
""fullscreenenter"",""0"",""3341""
","
","
","""event"",""trial"",""time""
""fullscreenenter"",""0"",""3341""
","
",114.4,"<div class='center'><p>Time to take a quick break! You have 2 minutes to rest, but you can move on sooner if you'd like.</p><p> Press the <b>space bar</b> to continue.</p></div>",32,,,,,,,,,,,,,,,,,,,,,,,
,do_travel,164,766256,0.0-90.0-0.0,"""event"",""trial"",""time""
""fullscreenenter"",""0"",""3341""
","
","
","""event"",""trial"",""time""
""fullscreenenter"",""0"",""3341""
","
",null,,,,,,,,null,,,,,,,,,,,,,,,,,
,do_welcome,165,770272,0.0-90.0-1.0,"""event"",""trial"",""time""
""fullscreenenter"",""0"",""3341""
","
","
","""event"",""trial"",""time""
""fullscreenenter"",""0"",""3341""
","
",null,,,,,,,,null,,,,,,,,,,,,,,,,,
,do_trial,166,776358,0.0-91.0-0.0,"""event"",""trial"",""time""
""fullscreenenter"",""0"",""3341""
","
","
","""event"",""trial"",""time""
""fullscreenenter"",""0"",""3341""
","
",null,,,,,,,,null,"1,0,0",1,mountain,30,probe-208,1,0.119386596,0.102866349,,,,,,,,,
,html-keyboard-response,167,777377,0.0-91.0-1.0,"""event"",""trial"",""time""
""fullscreenenter"",""0"",""3341""
","
","
","""event"",""trial"",""time""
""fullscreenenter"",""0"",""3341""
","
",null,<p></p>,null,,,,,,,,,,,,,,,,,,,,,,,
,do_trial,168,782337,0.0-92.0-0.0,"""event"",""trial"",""time""
""fullscreenenter"",""0"",""3341""
","
","
","""event"",""trial"",""time""
""fullscreenenter"",""0"",""3341""
","
",392.6,,,,,,,,51,"1,0,0",1,mountain,31,probe-61,1,0.315224039,0.089184284,0,,,,,,,,
,html-keyboard-response,169,783348,0.0-92.0-1.0,"""event"",""trial"",""time""
""fullscreenenter"",""0"",""3341""
","
","
","""event"",""trial"",""time""
""fullscreenenter"",""0"",""3341""
","
",null,<p></p>,null,,,,,,,,,,,,,,,,,,,,,,,
,do_trial,170,788493,0.0-93.0-0.0,"""event"",""trial"",""time""
""fullscreenenter"",""0"",""3341""
","
","
","""event"",""trial"",""time""
""fullscreenenter"",""0"",""3341""
","
",595.7,,,,,,,,49,"1,0,0",1,mountain,32,probe-04,1,0.361340894,0.096637851,1,,,,,,,,
,html-keyboard-response,171,789504,0.0-93.0-1.0,"""event"",""trial"",""time""
""fullscreenenter"",""0"",""3341""
","
","
","""event"",""trial"",""time""
""fullscreenenter"",""0"",""3341""
","
",null,<p></p>,null,,,,,,,,,,,,,,,,,,,,,,,
,do_trial,172,794364,0.0-94.0-0.0,"""event"",""trial"",""time""
""fullscreenenter"",""0"",""3341""
","
","
","""event"",""trial"",""time""
""fullscreenenter"",""0"",""3341""
","
",290.4,,,,,,,,50,"1,0,1",1,mountain,33,probe-185,0.859086113,0.313709571,0.067742938,0,,,,,,,,
,html-keyboard-response,173,795380,0.0-94.0-1.0,"""event"",""trial"",""time""
""fullscreenenter"",""0"",""3341""
","
","
","""event"",""trial"",""time""
""fullscreenenter"",""0"",""3341""
","
",null,<p></p>,null,,,,,,,,,,,,,,,,,,,,,,,
,do_trial,174,800223,0.0-95.0-0.0,"""event"",""trial"",""time""
""fullscreenenter"",""0"",""3341""
","
","
","""event"",""trial"",""time""
""fullscreenenter"",""0"",""3341""
","
",283.7,,,,,,,,49,"0,1,1",1,mountain,34,probe-210,0.745910813,0.300469082,0.104358369,0,,,,,,,,
,html-keyboard-response,175,801237,0.0-95.0-1.0,"""event"",""trial"",""time""
""fullscreenenter"",""0"",""3341""
","
","
","""event"",""trial"",""time""
""fullscreenenter"",""0"",""3341""
","
",null,<p></p>,null,,,,,,,,,,,,,,,,,,,,,,,
,do_trial,176,806014,0.0-96.0-0.0,"""event"",""trial"",""time""
""fullscreenenter"",""0"",""3341""
","
","
","""event"",""trial"",""time""
""fullscreenenter"",""0"",""3341""
","
",234.7,,,,,,,,51,"1,0,0",1,mountain,35,probe-46,0.669877604,0.181820459,0.053622205,0,,,,,,,,
,html-keyboard-response,177,807028,0.0-96.0-1.0,"""event"",""trial"",""time""
""fullscreenenter"",""0"",""3341""
","
","
","""event"",""trial"",""time""
""fullscreenenter"",""0"",""3341""
","
",null,<p></p>,null,,,,,,,,,,,,,,,,,,,,,,,
,do_trial,178,811952,0.0-97.0-0.0,"""event"",""trial"",""time""
""fullscreenenter"",""0"",""3341""
","
","
","""event"",""trial"",""time""
""fullscreenenter"",""0"",""3341""
","
",366.7,,,,,,,,49,"1,0,0",1,mountain,36,probe-34,0.734760935,0.192015194,0.262184215,1,,,,,,,,
,html-keyboard-response,179,812968,0.0-97.0-1.0,"""event"",""trial"",""time""
""fullscreenenter"",""0"",""3341""
","
","
","""event"",""trial"",""time""
""fullscreenenter"",""0"",""3341""
","
",null,<p></p>,null,,,,,,,,,,,,,,,,,,,,,,,
,do_trial,180,817921,0.0-98.0-0.0,"""event"",""trial"",""time""
""fullscreenenter"",""0"",""3341""
","
","
","""event"",""trial"",""time""
""fullscreenenter"",""0"",""3341""
","
",370.4,,,,,,,,50,"1,0,1",1,mountain,37,probe-169,0.680520842,0.270714574,0.279067979,0,,,,,,,,
,html-keyboard-response,181,818931,0.0-98.0-1.0,"""event"",""trial"",""time""
""fullscreenenter"",""0"",""3341""
","
","
","""event"",""trial"",""time""
""fullscreenenter"",""0"",""3341""
","
",null,<p></p>,null,,,,,,,,,,,,,,,,,,,,,,,
,do_trial,182,824687,0.0-99.0-0.0,"""event"",""trial"",""time""
""fullscreenenter"",""0"",""3341""
","
","
","""event"",""trial"",""time""
""fullscreenenter"",""0"",""3341""
","
",1197.3,,,,,,,,49,"0,0,0",1,mountain,38,probe-118,0.691744724,0.204291762,0.089776346,0,,,,,,,,
,html-keyboard-response,183,825703,0.0-99.0-1.0,"""event"",""trial"",""time""
""fullscreenenter"",""0"",""3341""
","
","
","""event"",""trial"",""time""
""fullscreenenter"",""0"",""3341""
","
",null,<p></p>,null,,,,,,,,,,,,,,,,,,,,,,,
,do_trial,184,830547,0.0-100.0-0.0,"""event"",""trial"",""time""
""fullscreenenter"",""0"",""3341""
","
","
","""event"",""trial"",""time""
""fullscreenenter"",""0"",""3341""
","
",294.3,,,,,,,,51,"0,1,0",1,mountain,39,probe-154,0.588254449,0.408977418,0.20710069,0,,,,,,,,
,html-keyboard-response,185,831576,0.0-100.0-1.0,"""event"",""trial"",""time""
""fullscreenenter"",""0"",""3341""
","
","
","""event"",""trial"",""time""
""fullscreenenter"",""0"",""3341""
","
",null,<p></p>,null,,,,,,,,,,,,,,,,,,,,,,,
,do_trial,186,836488,0.0-101.0-0.0,"""event"",""trial"",""time""
""fullscreenenter"",""0"",""3341""
","
","
","""event"",""trial"",""time""
""fullscreenenter"",""0"",""3341""
","
",353.1,,,,,,,,50,"1,1,0",1,mountain,40,probe-205,0.627233669,0.50550005,0.15926188,1,,,,,,,,
,html-keyboard-response,187,837502,0.0-101.0-1.0,"""event"",""trial"",""time""
""fullscreenenter"",""0"",""3341""
","
","
","""event"",""trial"",""time""
""fullscreenenter"",""0"",""3341""
","
",null,<p></p>,null,,,,,,,,,,,,,,,,,,,,,,,
,do_trial,188,842501,0.0-102.0-0.0,"""event"",""trial"",""time""
""fullscreenenter"",""0"",""3341""
","
","
","""event"",""trial"",""time""
""fullscreenenter"",""0"",""3341""
","
",432.2,,,,,,,,51,"1,1,0",1,mountain,41,probe-123,0.612405407,0.499993055,0.203896509,0,,,,,,,,
,html-keyboard-response,189,843507,0.0-102.0-1.0,"""event"",""trial"",""time""
""fullscreenenter"",""0"",""3341""
","
","
","""event"",""trial"",""time""
""fullscreenenter"",""0"",""3341""
","
",null,<p></p>,null,,,,,,,,,,,,,,,,,,,,,,,
,do_trial,190,848586,0.0-103.0-0.0,"""event"",""trial"",""time""
""fullscreenenter"",""0"",""3341""
","
","
","""event"",""trial"",""time""
""fullscreenenter"",""0"",""3341""
","
",522.9,,,,,,,,49,"0,1,0",1,mountain,42,probe-180,0.457531528,0.508322286,0.172685502,0,,,,,,,,
,html-keyboard-response,191,849602,0.0-103.0-1.0,"""event"",""trial"",""time""
""fullscreenenter"",""0"",""3341""
","
","
","""event"",""trial"",""time""
""fullscreenenter"",""0"",""3341""
","
",null,<p></p>,null,,,,,,,,,,,,,,,,,,,,,,,
,do_trial,192,854566,0.0-104.0-0.0,"""event"",""trial"",""time""
""fullscreenenter"",""0"",""3341""
","
","
","""event"",""trial"",""time""
""fullscreenenter"",""0"",""3341""
","
",416.1,,,,,,,,50,"0,0,1",1,mountain,43,probe-87,0.379250506,0.533237494,0.137350556,0,,,,,,,,
,html-keyboard-response,193,855578,0.0-104.0-1.0,"""event"",""trial"",""time""
""fullscreenenter"",""0"",""3341""
","
","
","""event"",""trial"",""time""
""fullscreenenter"",""0"",""3341""
","
",null,<p></p>,null,,,,,,,,,,,,,,,,,,,,,,,
,do_trial,194,860372,0.0-105.0-0.0,"""event"",""trial"",""time""
""fullscreenenter"",""0"",""3341""
","
","
","""event"",""trial"",""time""
""fullscreenenter"",""0"",""3341""
","
",234.9,,,,,,,,51,"0,0,0",1,mountain,44,probe-43,0.196058933,0.5502007,0.132237256,0,,,,,,,,
,html-keyboard-response,195,861387,0.0-105.0-1.0,"""event"",""trial"",""time""
""fullscreenenter"",""0"",""3341""
","
","
","""event"",""trial"",""time""
""fullscreenenter"",""0"",""3341""
","
",null,<p></p>,null,,,,,,,,,,,,,,,,,,,,,,,
,do_trial,196,867178,0.0-106.0-0.0,"""event"",""trial"",""time""
""fullscreenenter"",""0"",""3341""
","
","
","""event"",""trial"",""time""
""fullscreenenter"",""0"",""3341""
","
",1240.5,,,,,,,,49,"0,1,1",1,mountain,45,probe-187,0.287047148,0.750115312,0.119515988,0,,,,,,,,
,html-keyboard-response,197,868197,0.0-106.0-1.0,"""event"",""trial"",""time""
""fullscreenenter"",""0"",""3341""
","
","
","""event"",""trial"",""time""
""fullscreenenter"",""0"",""3341""
","
",null,<p></p>,null,,,,,,,,,,,,,,,,,,,,,,,
,do_trial,198,872767,0.0-107.0-0.0,"""event"",""trial"",""time""
""fullscreenenter"",""0"",""3341""
","
","
","""event"",""trial"",""time""
""fullscreenenter"",""0"",""3341""
","
",0.099999994,,,,,,,,51,"0,1,0",1,mountain,46,probe-30,0.215888372,0.814777742,0.077375943,0,,,,,,,,
,html-keyboard-response,199,873771,0.0-107.0-1.0,"""event"",""trial"",""time""
""fullscreenenter"",""0"",""3341""
","
","
","""event"",""trial"",""time""
""fullscreenenter"",""0"",""3341""
","
",null,<p></p>,null,,,,,,,,,,,,,,,,,,,,,,,
,do_trial,200,878611,0.0-108.0-0.0,"""event"",""trial"",""time""
""fullscreenenter"",""0"",""3341""
","
","
","""event"",""trial"",""time""
""fullscreenenter"",""0"",""3341""
","
",293.6,,,,,,,,50,"0,1,1",1,mountain,47,probe-12,0.25276677,0.91770717,0.069673927,1,,,,,,,,
,html-keyboard-response,201,879625,0.0-108.0-1.0,"""event"",""trial"",""time""
""fullscreenenter"",""0"",""3341""
","
","
","""event"",""trial"",""time""
""fullscreenenter"",""0"",""3341""
","
",null,<p></p>,null,,,,,,,,,,,,,,,,,,,,,,,
,do_trial,202,884619,0.0-109.0-0.0,"""event"",""trial"",""time""
""fullscreenenter"",""0"",""3341""
","
","
","""event"",""trial"",""time""
""fullscreenenter"",""0"",""3341""
","
",440.2,,,,,,,,51,"0,1,0",1,mountain,48,probe-26,0.187649072,0.892558491,0.088742173,0,,,,,,,,
,html-keyboard-response,203,885622,0.0-109.0-1.0,"""event"",""trial"",""time""
""fullscreenenter"",""0"",""3341""
","
","
","""event"",""trial"",""time""
""fullscreenenter"",""0"",""3341""
","
",null,<p></p>,null,,,,,,,,,,,,,,,,,,,,,,,
,do_trial,204,890490,0.0-110.0-0.0,"""event"",""trial"",""time""
""fullscreenenter"",""0"",""3341""
","
","
","""event"",""trial"",""time""
""fullscreenenter"",""0"",""3341""
","
",321,,,,,,,,49,"0,1,1",1,mountain,49,probe-165,0.312255832,0.780419124,0.134367543,0,,,,,,,,
,html-keyboard-response,205,891503,0.0-110.0-1.0,"""event"",""trial"",""time""
""fullscreenenter"",""0"",""3341""
","
","
","""event"",""trial"",""time""
""fullscreenenter"",""0"",""3341""
","
",null,<p></p>,null,,,,,,,,,,,,,,,,,,,,,,,
,do_trial,206,896284,0.0-111.0-0.0,"""event"",""trial"",""time""
""fullscreenenter"",""0"",""3341""
","
","
","""event"",""trial"",""time""
""fullscreenenter"",""0"",""3341""
","
",221.4,,,,,,,,51,"1,1,0",1,mountain,50,probe-53,0.206289607,0.69411156,0.266531939,0,,,,,,,,
,html-keyboard-response,207,897298,0.0-111.0-1.0,"""event"",""trial"",""time""
""fullscreenenter"",""0"",""3341""
","
","
","""event"",""trial"",""time""
""fullscreenenter"",""0"",""3341""
","
",null,<p></p>,null,,,,,,,,,,,,,,,,,,,,,,,
,do_trial,208,902593,0.0-112.0-0.0,"""event"",""trial"",""time""
""fullscreenenter"",""0"",""3341""
","
","
","""event"",""trial"",""time""
""fullscreenenter"",""0"",""3341""
","
",739.7,,,,,,,,49,"0,0,1",1,mountain,51,probe-156,0.1827927,0.630789446,0.206352979,0,,,,,,,,
,html-keyboard-response,209,903601,0.0-112.0-1.0,"""event"",""trial"",""time""
""fullscreenenter"",""0"",""3341""
","
","
","""event"",""trial"",""time""
""fullscreenenter"",""0"",""3341""
","
",null,<p></p>,null,,,,,,,,,,,,,,,,,,,,,,,
,do_trial,210,908537,0.0-113.0-0.0,"""event"",""trial"",""time""
""fullscreenenter"",""0"",""3341""
","
","
","""event"",""trial"",""time""
""fullscreenenter"",""0"",""3341""
","
",382.6,,,,,,,,50,"0,0,0",1,mountain,52,probe-168,0.226312034,0.7207564,0.179602783,0,,,,,,,,
,html-keyboard-response,211,909547,0.0-113.0-1.0,"""event"",""trial"",""time""
""fullscreenenter"",""0"",""3341""
","
","
","""event"",""trial"",""time""
""fullscreenenter"",""0"",""3341""
","
",null,<p></p>,null,,,,,,,,,,,,,,,,,,,,,,,
,do_trial,212,915124,0.0-114.0-0.0,"""event"",""trial"",""time""
""fullscreenenter"",""0"",""3341""
","
","
","""event"",""trial"",""time""
""fullscreenenter"",""0"",""3341""
","
",1027.8,,,,,,,,51,"0,0,0",1,mountain,53,probe-173,0.197433018,0.639531716,0.131064923,0,,,,,,,,
,html-keyboard-response,213,916155,0.0-114.0-1.0,"""event"",""trial"",""time""
""fullscreenenter"",""0"",""3341""
","
","
","""event"",""trial"",""time""
""fullscreenenter"",""0"",""3341""
","
",null,<p></p>,null,,,,,,,,,,,,,,,,,,,,,,,
,do_trial,214,921123,0.0-115.0-0.0,"""event"",""trial"",""time""
""fullscreenenter"",""0"",""3341""
","
","
","""event"",""trial"",""time""
""fullscreenenter"",""0"",""3341""
","
",392,,,,,,,,49,"0,1,0",1,mountain,54,probe-179,0.180974178,0.630069927,0.138508454,0,,,,,,,,
,html-keyboard-response,215,922146,0.0-115.0-1.0,"""event"",""trial"",""time""
""fullscreenenter"",""0"",""3341""
","
","
","""event"",""trial"",""time""
""fullscreenenter"",""0"",""3341""
","
",null,<p></p>,null,,,,,,,,,,,,,,,,,,,,,,,
,do_trial,216,926985,0.0-116.0-0.0,"""event"",""trial"",""time""
""fullscreenenter"",""0"",""3341""
","
","
","""event"",""trial"",""time""
""fullscreenenter"",""0"",""3341""
","
",287.5,,,,,,,,50,"1,1,0",1,mountain,55,probe-163,0.313427683,0.698868969,0.093807244,1,,,,,,,,
,html-keyboard-response,217,927988,0.0-116.0-1.0,"""event"",""trial"",""time""
""fullscreenenter"",""0"",""3341""
","
","
","""event"",""trial"",""time""
""fullscreenenter"",""0"",""3341""
","
",null,<p></p>,null,,,,,,,,,,,,,,,,,,,,,,,
,do_trial,218,933778,0.0-117.0-0.0,"""event"",""trial"",""time""
""fullscreenenter"",""0"",""3341""
","
","
","""event"",""trial"",""time""
""fullscreenenter"",""0"",""3341""
","
",1238.6,,,,,,,,49,"1,1,0",1,mountain,56,probe-39,0.282267194,0.72444481,0.063278689,1,,,,,,,,
,html-keyboard-response,219,934796,0.0-117.0-1.0,"""event"",""trial"",""time""
""fullscreenenter"",""0"",""3341""
","
","
","""event"",""trial"",""time""
""fullscreenenter"",""0"",""3341""
","
",null,<p></p>,null,,,,,,,,,,,,,,,,,,,,,,,
,do_trial,220,939654,0.0-118.0-0.0,"""event"",""trial"",""time""
""fullscreenenter"",""0"",""3341""
","
","
","""event"",""trial"",""time""
""fullscreenenter"",""0"",""3341""
","
",308.1,,,,,,,,51,"0,0,0",1,mountain,57,probe-108,0.285959274,0.617441362,0.117134481,0,,,,,,,,
,html-keyboard-response,221,940664,0.0-118.0-1.0,"""event"",""trial"",""time""
""fullscreenenter"",""0"",""3341""
","
","
","""event"",""trial"",""time""
""fullscreenenter"",""0"",""3341""
","
",null,<p></p>,null,,,,,,,,,,,,,,,,,,,,,,,
,do_trial,222,945640,0.0-119.0-0.0,"""event"",""trial"",""time""
""fullscreenenter"",""0"",""3341""
","
","
","""event"",""trial"",""time""
""fullscreenenter"",""0"",""3341""
","
",427.6,,,,,,,,50,"0,1,0",1,mountain,58,probe-06,0.396899962,0.645898992,0.065243831,1,,,,,,,,
,html-keyboard-response,223,946644,0.0-119.0-1.0,"""event"",""trial"",""time""
""fullscreenenter"",""0"",""3341""
","
","
","""event"",""trial"",""time""
""fullscreenenter"",""0"",""3341""
","
",null,<p></p>,null,,,,,,,,,,,,,,,,,,,,,,,
,do_trial,224,951516,0.0-120.0-0.0,"""event"",""trial"",""time""
""fullscreenenter"",""0"",""3341""
","
","
","""event"",""trial"",""time""
""fullscreenenter"",""0"",""3341""
","
",324.8,,,,,,,,51,"0,1,0",1,mountain,59,probe-17,0.31722768,0.54478132,0.066831492,0,,,,,,,,
,html-keyboard-response,225,952528,0.0-120.0-1.0,"""event"",""trial"",""time""
""fullscreenenter"",""0"",""3341""
","
","
","""event"",""trial"",""time""
""fullscreenenter"",""0"",""3341""
","
",null,<p></p>,null,,,,,,,,,,,,,,,,,,,,,,,
,do_trial,226,957504,0.0-121.0-0.0,"""event"",""trial"",""time""
""fullscreenenter"",""0"",""3341""
","
","
","""event"",""trial"",""time""
""fullscreenenter"",""0"",""3341""
","
",434,,,,,,,,49,"0,0,0",1,mountain,60,probe-209,0.193072278,0.589028593,0.137844122,0,,,,,,,,
,html-keyboard-response,227,958519,0.0-121.0-1.0,"""event"",""trial"",""time""
""fullscreenenter"",""0"",""3341""
","
","
","""event"",""trial"",""time""
""fullscreenenter"",""0"",""3341""
","
",null,<p></p>,null,,,,,,,,,,,,,,,,,,,,,,,
,do_trial,228,963482,0.0-122.0-0.0,"""event"",""trial"",""time""
""fullscreenenter"",""0"",""3341""
","
","
","""event"",""trial"",""time""
""fullscreenenter"",""0"",""3341""
","
",405.2,,,,,,,,51,"0,1,0",1,mountain,61,probe-44,0.307793644,0.664939837,0.076911224,0,,,,,,,,
,html-keyboard-response,229,964493,0.0-122.0-1.0,"""event"",""trial"",""time""
""fullscreenenter"",""0"",""3341""
","
","
","""event"",""trial"",""time""
""fullscreenenter"",""0"",""3341""
","
",null,<p></p>,null,,,,,,,,,,,,,,,,,,,,,,,
,do_trial,230,969357,0.0-123.0-0.0,"""event"",""trial"",""time""
""fullscreenenter"",""0"",""3341""
","
","
","""event"",""trial"",""time""
""fullscreenenter"",""0"",""3341""
","
",308.3,,,,,,,,50,"1,1,1",1,mountain,62,probe-150,0.340088048,0.786908943,0.175167945,1,,,,,,,,
,html-keyboard-response,231,970369,0.0-123.0-1.0,"""event"",""trial"",""time""
""fullscreenenter"",""0"",""3341""
","
","
","""event"",""trial"",""time""
""fullscreenenter"",""0"",""3341""
","
",null,<p></p>,null,,,,,,,,,,,,,,,,,,,,,,,
,do_trial,232,975626,0.0-124.0-0.0,"""event"",""trial"",""time""
""fullscreenenter"",""0"",""3341""
","
","
","""event"",""trial"",""time""
""fullscreenenter"",""0"",""3341""
","
",680.6,,,,,,,,51,"0,1,0",1,mountain,63,probe-186,0.525786133,0.68491458,0.062307438,0,,,,,,,,
,html-keyboard-response,233,976630,0.0-124.0-1.0,"""event"",""trial"",""time""
""fullscreenenter"",""0"",""3341""
","
","
","""event"",""trial"",""time""
""fullscreenenter"",""0"",""3341""
","
",null,<p></p>,null,,,,,,,,,,,,,,,,,,,,,,,
,do_trial,234,981702,0.0-125.0-0.0,"""event"",""trial"",""time""
""fullscreenenter"",""0"",""3341""
","
","
","""event"",""trial"",""time""
""fullscreenenter"",""0"",""3341""
","
",529.8,,,,,,,,49,"0,1,1",1,mountain,64,probe-105,0.413898746,0.731188704,0.10881942,0,,,,,,,,
,html-keyboard-response,235,982717,0.0-125.0-1.0,"""event"",""trial"",""time""
""fullscreenenter"",""0"",""3341""
","
","
","""event"",""trial"",""time""
""fullscreenenter"",""0"",""3341""
","
",null,<p></p>,null,,,,,,,,,,,,,,,,,,,,,,,
,do_trial,236,987676,0.0-126.0-0.0,"""event"",""trial"",""time""
""fullscreenenter"",""0"",""3341""
","
","
","""event"",""trial"",""time""
""fullscreenenter"",""0"",""3341""
","
",409.2,,,,,,,,50,"1,1,0",1,mountain,65,probe-228,0.284544153,0.635461718,0.119662336,1,,,,,,,,
,html-keyboard-response,237,988696,0.0-126.0-1.0,"""event"",""trial"",""time""
""fullscreenenter"",""0"",""3341""
","
","
","""event"",""trial"",""time""
""fullscreenenter"",""0"",""3341""
","
",null,<p></p>,null,,,,,,,,,,,,,,,,,,,,,,,
,do_trial,238,994416,0.0-127.0-0.0,"""event"",""trial"",""time""
""fullscreenenter"",""0"",""3341""
","
","
","""event"",""trial"",""time""
""fullscreenenter"",""0"",""3341""
","
",1162.9,,,,,,,,49,"0,1,0",1,mountain,66,probe-128,0.337588434,0.528721081,0.235520008,0,,,,,,,,
,html-keyboard-response,239,995432,0.0-127.0-1.0,"""event"",""trial"",""time""
""fullscreenenter"",""0"",""3341""
","
","
","""event"",""trial"",""time""
""fullscreenenter"",""0"",""3341""
","
",null,<p></p>,null,,,,,,,,,,,,,,,,,,,,,,,
,do_trial,240,1000477,0.0-128.0-0.0,"""event"",""trial"",""time""
""fullscreenenter"",""0"",""3341""
","
","
","""event"",""trial"",""time""
""fullscreenenter"",""0"",""3341""
","
",492.8,,,,,,,,51,"1,1,1",1,mountain,67,probe-35,0.410102629,0.552228788,0.208953634,1,,,,,,,,
,html-keyboard-response,241,1001490,0.0-128.0-1.0,"""event"",""trial"",""time""
""fullscreenenter"",""0"",""3341""
","
","
","""event"",""trial"",""time""
""fullscreenenter"",""0"",""3341""
","
",null,<p></p>,null,,,,,,,,,,,,,,,,,,,,,,,
,do_trial,242,1006448,0.0-129.0-0.0,"""event"",""trial"",""time""
""fullscreenenter"",""0"",""3341""
","
","
","""event"",""trial"",""time""
""fullscreenenter"",""0"",""3341""
","
",395.3,,,,,,,,49,"1,1,0",1,mountain,68,probe-227,0.378242971,0.638975102,0.073967283,1,,,,,,,,
,html-keyboard-response,243,1007466,0.0-129.0-1.0,"""event"",""trial"",""time""
""fullscreenenter"",""0"",""3341""
","
","
","""event"",""trial"",""time""
""fullscreenenter"",""0"",""3341""
","
",null,<p></p>,null,,,,,,,,,,,,,,,,,,,,,,,
,do_trial,244,1012356,0.0-130.0-0.0,"""event"",""trial"",""time""
""fullscreenenter"",""0"",""3341""
","
","
","""event"",""trial"",""time""
""fullscreenenter"",""0"",""3341""
","
",334.1,,,,,,,,50,"1,1,0",1,mountain,69,probe-58,0.523833234,0.526601713,0.108120495,1,,,,,,,,
,html-keyboard-response,245,1013367,0.0-130.0-1.0,"""event"",""trial"",""time""
""fullscreenenter"",""0"",""3341""
","
","
","""event"",""trial"",""time""
""fullscreenenter"",""0"",""3341""
","
",null,<p></p>,null,,,,,,,,,,,,,,,,,,,,,,,
,do_bye,246,1014889,0.0-131.0-0.0,"""event"",""trial"",""time""
""fullscreenenter"",""0"",""3341""
","
","
","""event"",""trial"",""time""
""fullscreenenter"",""0"",""3341""
","
",null,,,,,,,,null,,,,,,,,,,,,,,,,,
,break,247,1019122,0.0-131.0-1.0,"""event"",""trial"",""time""
""fullscreenenter"",""0"",""3341""
","
","
","""event"",""trial"",""time""
""fullscreenenter"",""0"",""3341""
","
",4229.3,"<div class='center'><p>Time to take a quick break! You have 2 minutes to rest, but you can move on sooner if you'd like.</p><p> Press the <b>space bar</b> to continue.</p></div>",32,,,,,,,,,,,,,,,,,,,,,,,
,do_travel,248,1028134,0.0-132.0-0.0,"""event"",""trial"",""time""
""fullscreenenter"",""0"",""3341""
","
","
","""event"",""trial"",""time""
""fullscreenenter"",""0"",""3341""
","
",null,,,,,,,,null,,,,,,,,,,,,,,,,,
,do_welcome,249,1032154,0.0-132.0-1.0,"""event"",""trial"",""time""
""fullscreenenter"",""0"",""3341""
","
","
","""event"",""trial"",""time""
""fullscreenenter"",""0"",""3341""
","
",null,,,,,,,,null,,,,,,,,,,,,,,,,,
,do_trial,250,1037665,0.0-133.0-0.0,"""event"",""trial"",""time""
""fullscreenenter"",""0"",""3341""
","
","
","""event"",""trial"",""time""
""fullscreenenter"",""0"",""3341""
","
",930.3,,,,,,,,51,"0,1,1",2,forest,70,probe-146,0.43331842,1,0.221707566,1,,,,,,,,
,html-keyboard-response,251,1038682,0.0-133.0-1.0,"""event"",""trial"",""time""
""fullscreenenter"",""0"",""3341""
","
","
","""event"",""trial"",""time""
""fullscreenenter"",""0"",""3341""
","
",null,<p></p>,null,,,,,,,,,,,,,,,,,,,,,,,
,do_trial,252,1043772,0.0-134.0-0.0,"""event"",""trial"",""time""
""fullscreenenter"",""0"",""3341""
","
","
","""event"",""trial"",""time""
""fullscreenenter"",""0"",""3341""
","
",527.8,,,,,,,,49,"0,1,1",2,forest,71,probe-45,0.351004248,1,0.173745377,0,,,,,,,,
,html-keyboard-response,253,1044788,0.0-134.0-1.0,"""event"",""trial"",""time""
""fullscreenenter"",""0"",""3341""
","
","
","""event"",""trial"",""time""
""fullscreenenter"",""0"",""3341""
","
",null,<p></p>,null,,,,,,,,,,,,,,,,,,,,,,,
,do_trial,254,1049571,0.0-135.0-0.0,"""event"",""trial"",""time""
""fullscreenenter"",""0"",""3341""
","
","
","""event"",""trial"",""time""
""fullscreenenter"",""0"",""3341""
","
",202.5,,,,,,,,50,"0,1,0",2,forest,72,probe-159,0.356519808,0.922979393,0.17628171,1,,,,,,,,
,html-keyboard-response,255,1050596,0.0-135.0-1.0,"""event"",""trial"",""time""
""fullscreenenter"",""0"",""3341""
","
","
","""event"",""trial"",""time""
""fullscreenenter"",""0"",""3341""
","
",null,<p></p>,null,,,,,,,,,,,,,,,,,,,,,,,
,do_trial,256,1055458,0.0-136.0-0.0,"""event"",""trial"",""time""
""fullscreenenter"",""0"",""3341""
","
","
","""event"",""trial"",""time""
""fullscreenenter"",""0"",""3341""
","
",319.2,,,,,,,,51,"0,0,0",2,forest,73,probe-194,0.44427495,0.727430725,0.209667105,0,,,,,,,,
,html-keyboard-response,257,1056487,0.0-136.0-1.0,"""event"",""trial"",""time""
""fullscreenenter"",""0"",""3341""
","
","
","""event"",""trial"",""time""
""fullscreenenter"",""0"",""3341""
","
",null,<p></p>,null,,,,,,,,,,,,,,,,,,,,,,,
,do_trial,258,1061629,0.0-137.0-0.0,"""event"",""trial"",""time""
""fullscreenenter"",""0"",""3341""
","
","
","""event"",""trial"",""time""
""fullscreenenter"",""0"",""3341""
","
",589.3,,,,,,,,49,"1,1,1",2,forest,74,probe-225,0.49312507,0.635940003,0.229113953,1,,,,,,,,
,html-keyboard-response,259,1062645,0.0-137.0-1.0,"""event"",""trial"",""time""
""fullscreenenter"",""0"",""3341""
","
","
","""event"",""trial"",""time""
""fullscreenenter"",""0"",""3341""
","
",null,<p></p>,null,,,,,,,,,,,,,,,,,,,,,,,
,do_trial,260,1067536,0.0-138.0-0.0,"""event"",""trial"",""time""
""fullscreenenter"",""0"",""3341""
","
","
","""event"",""trial"",""time""
""fullscreenenter"",""0"",""3341""
","
",342.1,,,,,,,,50,"1,0,0",2,forest,75,probe-94,0.509966156,0.482841786,0.217160762,0,,,,,,,,
,html-keyboard-response,261,1068553,0.0-138.0-1.0,"""event"",""trial"",""time""
""fullscreenenter"",""0"",""3341""
","
","
","""event"",""trial"",""time""
""fullscreenenter"",""0"",""3341""
","
",null,<p></p>,null,,,,,,,,,,,,,,,,,,,,,,,
,do_trial,262,1073781,0.0-139.0-0.0,"""event"",""trial"",""time""
""fullscreenenter"",""0"",""3341""
","
","
","""event"",""trial"",""time""
""fullscreenenter"",""0"",""3341""
","
",675.1,,,,,,,,51,"1,1,1",2,forest,76,probe-121,0.307517187,0.543356313,0.131864007,1,,,,,,,,
,html-keyboard-response,263,1074796,0.0-139.0-1.0,"""event"",""trial"",""time""
""fullscreenenter"",""0"",""3341""
","
","
","""event"",""trial"",""time""
""fullscreenenter"",""0"",""3341""
","
",null,<p></p>,null,,,,,,,,,,,,,,,,,,,,,,,
,do_trial,264,1079337,0.0-140.0-0.0,"""event"",""trial"",""time""
""fullscreenenter"",""0"",""3341""
","
","
","""event"",""trial"",""time""
""fullscreenenter"",""0"",""3341""
","
",0.199999996,,,,,,,,49,"1,0,0",2,forest,77,probe-41,0.308634948,0.551674825,0.156347796,1,,,,,,,,
,html-keyboard-response,265,1080351,0.0-140.0-1.0,"""event"",""trial"",""time""
""fullscreenenter"",""0"",""3341""
","
","
","""event"",""trial"",""time""
""fullscreenenter"",""0"",""3341""
","
",null,<p></p>,null,,,,,,,,,,,,,,,,,,,,,,,
,do_trial,266,1085191,0.0-141.0-0.0,"""event"",""trial"",""time""
""fullscreenenter"",""0"",""3341""
","
","
","""event"",""trial"",""time""
""fullscreenenter"",""0"",""3341""
","
",271.1,,,,,,,,50,"0,1,0",2,forest,78,probe-114,0.345841249,0.590229403,0.199821444,1,,,,,,,,
,html-keyboard-response,267,1086197,0.0-141.0-1.0,"""event"",""trial"",""time""
""fullscreenenter"",""0"",""3341""
","
","
","""event"",""trial"",""time""
""fullscreenenter"",""0"",""3341""
","
",null,<p></p>,null,,,,,,,,,,,,,,,,,,,,,,,
,do_trial,268,1091019,0.0-142.0-0.0,"""event"",""trial"",""time""
""fullscreenenter"",""0"",""3341""
","
","
","""event"",""trial"",""time""
""fullscreenenter"",""0"",""3341""
","
",267.4,,,,,,,,51,"0,0,1",2,forest,79,probe-49,0.461310849,0.449982929,0.131054187,1,,,,,,,,
,html-keyboard-response,269,1092035,0.0-142.0-1.0,"""event"",""trial"",""time""
""fullscreenenter"",""0"",""3341""
","
","
","""event"",""trial"",""time""
""fullscreenenter"",""0"",""3341""
","
",null,<p></p>,null,,,,,,,,,,,,,,,,,,,,,,,
,do_trial,270,1097246,0.0-143.0-0.0,"""event"",""trial"",""time""
""fullscreenenter"",""0"",""3341""
","
","
","""event"",""trial"",""time""
""fullscreenenter"",""0"",""3341""
","
",662.1,,,,,,,,51,"0,0,0",2,forest,80,probe-189,0.506160462,0.389023367,0.145731608,0,,,,,,,,
,html-keyboard-response,271,1098262,0.0-143.0-1.0,"""event"",""trial"",""time""
""fullscreenenter"",""0"",""3341""
","
","
","""event"",""trial"",""time""
""fullscreenenter"",""0"",""3341""
","
",null,<p></p>,null,,,,,,,,,,,,,,,,,,,,,,,
,do_trial,272,1103158,0.0-144.0-0.0,"""event"",""trial"",""time""
""fullscreenenter"",""0"",""3341""
","
","
","""event"",""trial"",""time""
""fullscreenenter"",""0"",""3341""
","
",355.9,,,,,,,,50,"1,0,0",2,forest,81,probe-138,0.485126455,0.543766654,0.164173575,0,,,,,,,,
,html-keyboard-response,273,1104170,0.0-144.0-1.0,"""event"",""trial"",""time""
""fullscreenenter"",""0"",""3341""
","
","
","""event"",""trial"",""time""
""fullscreenenter"",""0"",""3341""
","
",null,<p></p>,null,,,,,,,,,,,,,,,,,,,,,,,
,do_trial,274,1108743,0.0-145.0-0.0,"""event"",""trial"",""time""
""fullscreenenter"",""0"",""3341""
","
","
","""event"",""trial"",""time""
""fullscreenenter"",""0"",""3341""
","
",0.199999996,,,,,,,,49,"0,1,0",2,forest,82,probe-83,0.539386335,0.3280794,0.286879771,0,,,,,,,,
,html-keyboard-response,275,1109745,0.0-145.0-1.0,"""event"",""trial"",""time""
""fullscreenenter"",""0"",""3341""
","
","
","""event"",""trial"",""time""
""fullscreenenter"",""0"",""3341""
","
",null,<p></p>,null,,,,,,,,,,,,,,,,,,,,,,,
,do_trial,276,1114947,0.0-146.0-0.0,"""event"",""trial"",""time""
""fullscreenenter"",""0"",""3341""
","
","
","""event"",""trial"",""time""
""fullscreenenter"",""0"",""3341""
","
",646.5,,,,,,,,50,"1,0,0",2,forest,83,probe-124,0.673724823,0.283664873,0.338680726,0,,,,,,,,
,html-keyboard-response,277,1115950,0.0-146.0-1.0,"""event"",""trial"",""time""
""fullscreenenter"",""0"",""3341""
","
","
","""event"",""trial"",""time""
""fullscreenenter"",""0"",""3341""
","
",null,<p></p>,null,,,,,,,,,,,,,,,,,,,,,,,
,do_trial,278,1120819,0.0-147.0-0.0,"""event"",""trial"",""time""
""fullscreenenter"",""0"",""3341""
","
","
","""event"",""trial"",""time""
""fullscreenenter"",""0"",""3341""
","
",313.9,,,,,,,,49,"1,0,0",2,forest,84,probe-120,0.722448351,0.168412368,0.314386452,1,,,,,,,,
,html-keyboard-response,279,1121830,0.0-147.0-1.0,"""event"",""trial"",""time""
""fullscreenenter"",""0"",""3341""
","
","
","""event"",""trial"",""time""
""fullscreenenter"",""0"",""3341""
","
",null,<p></p>,null,,,,,,,,,,,,,,,,,,,,,,,
,do_trial,280,1126786,0.0-148.0-0.0,"""event"",""trial"",""time""
""fullscreenenter"",""0"",""3341""
","
","
","""event"",""trial"",""time""
""fullscreenenter"",""0"",""3341""
","
",384.4,,,,,,,,51,"1,0,1",2,forest,85,probe-07,0.667987907,0.076322442,0.267798845,1,,,,,,,,
,html-keyboard-response,281,1127803,0.0-148.0-1.0,"""event"",""trial"",""time""
""fullscreenenter"",""0"",""3341""
","
","
","""event"",""trial"",""time""
""fullscreenenter"",""0"",""3341""
","
",null,<p></p>,null,,,,,,,,,,,,,,,,,,,,,,,
,do_trial,282,1133049,0.0-149.0-0.0,"""event"",""trial"",""time""
""fullscreenenter"",""0"",""3341""
","
","
","""event"",""trial"",""time""
""fullscreenenter"",""0"",""3341""
","
",689.3,,,,,,,,51,"1,0,0",2,forest,86,probe-60,0.612559497,0.0644683,0.207502248,0,,,,,,,,
,html-keyboard-response,283,1134076,0.0-149.0-1.0,"""event"",""trial"",""time""
""fullscreenenter"",""0"",""3341""
","
","
","""event"",""trial"",""time""
""fullscreenenter"",""0"",""3341""
","
",null,<p></p>,null,,,,,,,,,,,,,,,,,,,,,,,
,do_trial,284,1138964,0.0-150.0-0.0,"""event"",""trial"",""time""
""fullscreenenter"",""0"",""3341""
","
","
","""event"",""trial"",""time""
""fullscreenenter"",""0"",""3341""
","
",344.8,,,,,,,,50,"1,0,0",2,forest,87,probe-167,0.663068124,0.071000069,0.274071782,0,,,,,,,,
,html-keyboard-response,285,1139969,0.0-150.0-1.0,"""event"",""trial"",""time""
""fullscreenenter"",""0"",""3341""
","
","
","""event"",""trial"",""time""
""fullscreenenter"",""0"",""3341""
","
",null,<p></p>,null,,,,,,,,,,,,,,,,,,,,,,,
,do_trial,286,1144853,0.0-151.0-0.0,"""event"",""trial"",""time""
""fullscreenenter"",""0"",""3341""
","
","
","""event"",""trial"",""time""
""fullscreenenter"",""0"",""3341""
","
",333.9,,,,,,,,49,"0,0,1",2,forest,88,probe-178,0.556251345,0.080727505,0.196797071,0,,,,,,,,
,html-keyboard-response,287,1145863,0.0-151.0-1.0,"""event"",""trial"",""time""
""fullscreenenter"",""0"",""3341""
","
","
","""event"",""trial"",""time""
""fullscreenenter"",""0"",""3341""
","
",null,<p></p>,null,,,,,,,,,,,,,,,,,,,,,,,
,do_trial,288,1150707,0.0-152.0-0.0,"""event"",""trial"",""time""
""fullscreenenter"",""0"",""3341""
","
","
","""event"",""trial"",""time""
""fullscreenenter"",""0"",""3341""
","
",294.3,,,,,,,,51,"0,1,1",2,forest,89,probe-197,0.485081949,0.095754262,0.220511445,1,,,,,,,,
,html-keyboard-response,289,1151717,0.0-152.0-1.0,"""event"",""trial"",""time""
""fullscreenenter"",""0"",""3341""
","
","
","""event"",""trial"",""time""
""fullscreenenter"",""0"",""3341""
","
",null,<p></p>,null,,,,,,,,,,,,,,,,,,,,,,,
,do_trial,290,1156930,0.0-153.0-0.0,"""event"",""trial"",""time""
""fullscreenenter"",""0"",""3341""
","
","
","""event"",""trial"",""time""
""fullscreenenter"",""0"",""3341""
","
",645.6,,,,,,,,49,"0,0,0",2,forest,90,probe-164,0.431995378,0.088968236,0.190299096,0,,,,,,,,
,html-keyboard-response,291,1157940,0.0-153.0-1.0,"""event"",""trial"",""time""
""fullscreenenter"",""0"",""3341""
","
","
","""event"",""trial"",""time""
""fullscreenenter"",""0"",""3341""
","
",null,<p></p>,null,,,,,,,,,,,,,,,,,,,,,,,
,do_trial,292,1163693,0.0-154.0-0.0,"""event"",""trial"",""time""
""fullscreenenter"",""0"",""3341""
","
","
","""event"",""trial"",""time""
""fullscreenenter"",""0"",""3341""
","
",1196.1,,,,,,,,51,"0,0,1",2,forest,91,probe-140,0.531536632,0.137558818,0.354664117,1,,,,,,,,
,html-keyboard-response,293,1164703,0.0-154.0-1.0,"""event"",""trial"",""time""
""fullscreenenter"",""0"",""3341""
","
","
","""event"",""trial"",""time""
""fullscreenenter"",""0"",""3341""
","
",null,<p></p>,null,,,,,,,,,,,,,,,,,,,,,,,
,do_trial,294,1169931,0.0-155.0-0.0,"""event"",""trial"",""time""
""fullscreenenter"",""0"",""3341""
","
","
","""event"",""trial"",""time""
""fullscreenenter"",""0"",""3341""
","
",678.9,,,,,,,,50,"1,0,1",2,forest,92,probe-99,0.60224643,0.145875647,0.344236175,0,,,,,,,,
,html-keyboard-response,295,1170945,0.0-155.0-1.0,"""event"",""trial"",""time""
""fullscreenenter"",""0"",""3341""
","
","
","""event"",""trial"",""time""
""fullscreenenter"",""0"",""3341""
","
",null,<p></p>,null,,,,,,,,,,,,,,,,,,,,,,,
,do_trial,296,1176286,0.0-156.0-0.0,"""event"",""trial"",""time""
""fullscreenenter"",""0"",""3341""
","
","
","""event"",""trial"",""time""
""fullscreenenter"",""0"",""3341""
","
",760.7,,,,,,,,51,"0,0,0",2,forest,93,probe-16,0.629758675,0.052545365,0.280280195,0,,,,,,,,
,html-keyboard-response,297,1177290,0.0-156.0-1.0,"""event"",""trial"",""time""
""fullscreenenter"",""0"",""3341""
","
","
","""event"",""trial"",""time""
""fullscreenenter"",""0"",""3341""
","
",null,<p></p>,null,,,,,,,,,,,,,,,,,,,,,,,
,do_trial,298,1183119,0.0-157.0-0.0,"""event"",""trial"",""time""
""fullscreenenter"",""0"",""3341""
","
","
","""event"",""trial"",""time""
""fullscreenenter"",""0"",""3341""
","
",1281.4,,,,,,,,49,"1,1,1",2,forest,94,probe-28,0.673867497,0.119208791,0.416362736,1,,,,,,,,
,html-keyboard-response,299,1184133,0.0-157.0-1.0,"""event"",""trial"",""time""
""fullscreenenter"",""0"",""3341""
","
","
","""event"",""trial"",""time""
""fullscreenenter"",""0"",""3341""
","
",null,<p></p>,null,,,,,,,,,,,,,,,,,,,,,,,
,do_trial,300,1190369,0.0-158.0-0.0,"""event"",""trial"",""time""
""fullscreenenter"",""0"",""3341""
","
","
","""event"",""trial"",""time""
""fullscreenenter"",""0"",""3341""
","
",1666.6,,,,,,,,51,"0,1,0",2,forest,95,probe-23,0.741316053,0.170361995,0.43522577,0,,,,,,,,
,html-keyboard-response,301,1191373,0.0-158.0-1.0,"""event"",""trial"",""time""
""fullscreenenter"",""0"",""3341""
","
","
","""event"",""trial"",""time""
""fullscreenenter"",""0"",""3341""
","
",null,<p></p>,null,,,,,,,,,,,,,,,,,,,,,,,
,do_trial,302,1197961,0.0-159.0-0.0,"""event"",""trial"",""time""
""fullscreenenter"",""0"",""3341""
","
","
","""event"",""trial"",""time""
""fullscreenenter"",""0"",""3341""
","
",2022.8,,,,,,,,50,"1,0,0",2,forest,96,probe-84,0.814248855,0.196601852,0.460276299,0,,,,,,,,
,html-keyboard-response,303,1198976,0.0-159.0-1.0,"""event"",""trial"",""time""
""fullscreenenter"",""0"",""3341""
","
","
","""event"",""trial"",""time""
""fullscreenenter"",""0"",""3341""
","
",null,<p></p>,null,,,,,,,,,,,,,,,,,,,,,,,
,do_trial,304,1204912,0.0-160.0-0.0,"""event"",""trial"",""time""
""fullscreenenter"",""0"",""3341""
","
","
","""event"",""trial"",""time""
""fullscreenenter"",""0"",""3341""
","
",1381.3,,,,,,,,49,"1,0,0",2,forest,97,probe-155,0.744323584,0.178797171,0.348765529,1,,,,,,,,
,html-keyboard-response,305,1205934,0.0-160.0-1.0,"""event"",""trial"",""time""
""fullscreenenter"",""0"",""3341""
","
","
","""event"",""trial"",""time""
""fullscreenenter"",""0"",""3341""
","
",null,<p></p>,null,,,,,,,,,,,,,,,,,,,,,,,
,do_trial,306,1211627,0.0-161.0-0.0,"""event"",""trial"",""time""
""fullscreenenter"",""0"",""3341""
","
","
","""event"",""trial"",""time""
""fullscreenenter"",""0"",""3341""
","
",1145.3,,,,,,,,49,"1,0,1",2,forest,98,probe-98,0.681525121,0.333367348,0.271899876,1,,,,,,,,
,html-keyboard-response,307,1212641,0.0-161.0-1.0,"""event"",""trial"",""time""
""fullscreenenter"",""0"",""3341""
","
","
","""event"",""trial"",""time""
""fullscreenenter"",""0"",""3341""
","
",null,<p></p>,null,,,,,,,,,,,,,,,,,,,,,,,
,do_trial,308,1219200,0.0-162.0-0.0,"""event"",""trial"",""time""
""fullscreenenter"",""0"",""3341""
","
","
","""event"",""trial"",""time""
""fullscreenenter"",""0"",""3341""
","
",2009.9,,,,,,,,51,"0,0,1",2,forest,99,probe-229,0.540535279,0.19467554,0.314436554,1,,,,,,,,
,html-keyboard-response,309,1220215,0.0-162.0-1.0,"""event"",""trial"",""time""
""fullscreenenter"",""0"",""3341""
","
","
","""event"",""trial"",""time""
""fullscreenenter"",""0"",""3341""
","
",null,<p></p>,null,,,,,,,,,,,,,,,,,,,,,,,
,do_trial,310,1226823,0.0-163.0-0.0,"""event"",""trial"",""time""
""fullscreenenter"",""0"",""3341""
","
","
","""event"",""trial"",""time""
""fullscreenenter"",""0"",""3341""
","
",2060.1,,,,,,,,50,"0,0,0",2,forest,100,probe-116,0.657829115,0.167777206,0.265816634,0,,,,,,,,
,html-keyboard-response,311,1227841,0.0-163.0-1.0,"""event"",""trial"",""time""
""fullscreenenter"",""0"",""3341""
","
","
","""event"",""trial"",""time""
""fullscreenenter"",""0"",""3341""
","
",null,<p></p>,null,,,,,,,,,,,,,,,,,,,,,,,
,do_trial,312,1232938,0.0-164.0-0.0,"""event"",""trial"",""time""
""fullscreenenter"",""0"",""3341""
","
","
","""event"",""trial"",""time""
""fullscreenenter"",""0"",""3341""
","
",546,,,,,,,,49,"1,0,1",2,forest,101,probe-133,0.648640533,0.165337653,0.231984611,1,,,,,,,,
,html-keyboard-response,313,1233948,0.0-164.0-1.0,"""event"",""trial"",""time""
""fullscreenenter"",""0"",""3341""
","
","
","""event"",""trial"",""time""
""fullscreenenter"",""0"",""3341""
","
",null,<p></p>,null,,,,,,,,,,,,,,,,,,,,,,,
,do_trial,314,1239256,0.0-165.0-0.0,"""event"",""trial"",""time""
""fullscreenenter"",""0"",""3341""
","
","
","""event"",""trial"",""time""
""fullscreenenter"",""0"",""3341""
","
",726.7,,,,,,,,49,"1,0,0",2,forest,102,probe-212,0.483380888,0.117700742,0.490571134,1,,,,,,,,
,html-keyboard-response,315,1240274,0.0-165.0-1.0,"""event"",""trial"",""time""
""fullscreenenter"",""0"",""3341""
","
","
","""event"",""trial"",""time""
""fullscreenenter"",""0"",""3341""
","
",null,<p></p>,null,,,,,,,,,,,,,,,,,,,,,,,
,do_trial,316,1245382,0.0-166.0-0.0,"""event"",""trial"",""time""
""fullscreenenter"",""0"",""3341""
","
","
","""event"",""trial"",""time""
""fullscreenenter"",""0"",""3341""
","
",561.3,,,,,,,,49,"0,0,1",2,forest,103,probe-25,0.539242884,0.076687379,0.557134,0,,,,,,,,
,html-keyboard-response,317,1246397,0.0-166.0-1.0,"""event"",""trial"",""time""
""fullscreenenter"",""0"",""3341""
","
","
","""event"",""trial"",""time""
""fullscreenenter"",""0"",""3341""
","
",null,<p></p>,null,,,,,,,,,,,,,,,,,,,,,,,
,do_trial,318,1252443,0.0-167.0-0.0,"""event"",""trial"",""time""
""fullscreenenter"",""0"",""3341""
","
","
","""event"",""trial"",""time""
""fullscreenenter"",""0"",""3341""
","
",1483.8,,,,,,,,50,"1,0,0",2,forest,104,probe-135,0.58144633,0.089416989,0.441140305,0,,,,,,,,
,html-keyboard-response,319,1253451,0.0-167.0-1.0,"""event"",""trial"",""time""
""fullscreenenter"",""0"",""3341""
","
","
","""event"",""trial"",""time""
""fullscreenenter"",""0"",""3341""
","
",null,<p></p>,null,,,,,,,,,,,,,,,,,,,,,,,
,do_trial,320,1258680,0.0-168.0-0.0,"""event"",""trial"",""time""
""fullscreenenter"",""0"",""3341""
","
","
","""event"",""trial"",""time""
""fullscreenenter"",""0"",""3341""
","
",678.7,,,,,,,,51,"1,0,1",2,forest,105,probe-142,0.632880804,0.087373209,0.365571651,1,,,,,,,,
,html-keyboard-response,321,1259693,0.0-168.0-1.0,"""event"",""trial"",""time""
""fullscreenenter"",""0"",""3341""
","
","
","""event"",""trial"",""time""
""fullscreenenter"",""0"",""3341""
","
",null,<p></p>,null,,,,,,,,,,,,,,,,,,,,,,,
,do_trial,322,1266647,0.0-169.0-0.0,"""event"",""trial"",""time""
""fullscreenenter"",""0"",""3341""
","
","
","""event"",""trial"",""time""
""fullscreenenter"",""0"",""3341""
","
",2409.7,,,,,,,,51,"1,0,0",2,forest,106,probe-21,0.803643183,0.088410731,0.183086847,0,,,,,,,,
,html-keyboard-response,323,1267653,0.0-169.0-1.0,"""event"",""trial"",""time""
""fullscreenenter"",""0"",""3341""
","
","
","""event"",""trial"",""time""
""fullscreenenter"",""0"",""3341""
","
",null,<p></p>,null,,,,,,,,,,,,,,,,,,,,,,,
,do_trial,324,1272811,0.0-170.0-0.0,"""event"",""trial"",""time""
""fullscreenenter"",""0"",""3341""
","
","
","""event"",""trial"",""time""
""fullscreenenter"",""0"",""3341""
","
",602.3,,,,,,,,50,"1,0,0",2,forest,107,probe-92,0.769150439,0.140216059,0.195437852,0,,,,,,,,
,html-keyboard-response,325,1273824,0.0-170.0-1.0,"""event"",""trial"",""time""
""fullscreenenter"",""0"",""3341""
","
","
","""event"",""trial"",""time""
""fullscreenenter"",""0"",""3341""
","
",null,<p></p>,null,,,,,,,,,,,,,,,,,,,,,,,
,do_trial,326,1278782,0.0-171.0-0.0,"""event"",""trial"",""time""
""fullscreenenter"",""0"",""3341""
","
","
","""event"",""trial"",""time""
""fullscreenenter"",""0"",""3341""
","
",388.6,,,,,,,,49,"1,0,0",2,forest,108,probe-125,0.754985773,0.198131549,0.113713665,1,,,,,,,,
,html-keyboard-response,327,1279801,0.0-171.0-1.0,"""event"",""trial"",""time""
""fullscreenenter"",""0"",""3341""
","
","
","""event"",""trial"",""time""
""fullscreenenter"",""0"",""3341""
","
",null,<p></p>,null,,,,,,,,,,,,,,,,,,,,,,,
,do_trial,328,1284838,0.0-172.0-0.0,"""event"",""trial"",""time""
""fullscreenenter"",""0"",""3341""
","
","
","""event"",""trial"",""time""
""fullscreenenter"",""0"",""3341""
","
",456.8,,,,,,,,49,"1,0,0",2,forest,109,probe-96,0.856097573,0.149167858,0.11546294,1,,,,,,,,
,html-keyboard-response,329,1285852,0.0-172.0-1.0,"""event"",""trial"",""time""
""fullscreenenter"",""0"",""3341""
","
","
","""event"",""trial"",""time""
""fullscreenenter"",""0"",""3341""
","
",null,<p></p>,null,,,,,,,,,,,,,,,,,,,,,,,
,do_bye,330,1287373,0.0-173.0-0.0,"""event"",""trial"",""time""
