"success","trial_type","trial_index","time_elapsed","internal_node_id","interactions","blur_events","focus_events","fullscreenenter_events","fullscreenexit_events","rt","stimulus","key_press","subject_id","participant_id","age","gender","prompt","response","choice_outcomes","context_n","context_img_id","trial_n","probe_img_id","pR_red","pR_white","pR_black","outcome","contextArray_ind","validImageProbes","invalidImageProbes","pRew_Red","pRew_White","pRew_Black","availableForMemProbe","choice_blocks"
"true","fullscreen","0","11579","0.0-0.0","""event"",""trial"",""time""
""blur"",""0"",""3391""
""focus"",""0"",""8475""
""fullscreenenter"",""0"",""10600""
","""event"",""trial"",""time""
""blur"",""0"",""3391""
","""event"",""trial"",""time""
""focus"",""0"",""8475""
","""event"",""trial"",""time""
""fullscreenenter"",""0"",""10600""
","
","","","","","","","","","","","","","","","","","","","","","","","","","",""
"","pavlovia","1","11581","0.0-1.0","""event"",""trial"",""time""
""blur"",""0"",""3391""
""focus"",""0"",""8475""
""fullscreenenter"",""0"",""10600""
""blur"",""2"",""12466""
""focus"",""2"",""12727""
","""event"",""trial"",""time""
""blur"",""0"",""3391""
""blur"",""2"",""12466""
","""event"",""trial"",""time""
""focus"",""0"",""8475""
""focus"",""2"",""12727""
","""event"",""trial"",""time""
""fullscreenenter"",""0"",""10600""
","
","","","","","","","","","","","","","","","","","","","","","","","","","",""
"","instruc1","2","56680","0.0-2.0","""event"",""trial"",""time""
""blur"",""0"",""3391""
""focus"",""0"",""8475""
""fullscreenenter"",""0"",""10600""
""blur"",""2"",""12466""
""focus"",""2"",""12727""
","""event"",""trial"",""time""
""blur"",""0"",""3391""
""blur"",""2"",""12466""
","""event"",""trial"",""time""
""focus"",""0"",""8475""
""focus"",""2"",""12727""
","""event"",""trial"",""time""
""fullscreenenter"",""0"",""10600""
","
","null","run_exp/static/audio/clip_1_welcome.m4a","null","926","1225","19","Female","<div class='center'><p>Welcome! This is the first part of the study. It will last ~30 minutes. In part 1 and part 2 of the study, you are the head captain of a pirate ship traveling around the world to different islands. You will play a few different games throughout these two parts. Here is an overview of them:</p><br><p>Part 1 (today)</p><p>1. Instructions, practice game, and quiz</p><p>2. Pick a pirate game on 6 different islands</p><br><p>Part 2 (tomorrow)</p><p>3. Pick a pirate game and memory game</p><p>4. Where did you see this ship? </p></div>","","","","","","","","","","","","","","","","","",""
"","html-keyboard-response","3","56771","0.0-3.0","""event"",""trial"",""time""
""blur"",""0"",""3391""
""focus"",""0"",""8475""
""fullscreenenter"",""0"",""10600""
""blur"",""2"",""12466""
""focus"",""2"",""12727""
","""event"",""trial"",""time""
""blur"",""0"",""3391""
""blur"",""2"",""12466""
","""event"",""trial"",""time""
""focus"",""0"",""8475""
""focus"",""2"",""12727""
","""event"",""trial"",""time""
""fullscreenenter"",""0"",""10600""
","
","90","<div class='center'><p>Welcome! This is the first part of the study. It will last ~30 minutes. In part 1 and part 2 of the study, you are the head captain of a pirate ship traveling around the world to different islands. You will play a few different games throughout these two parts. Here is an overview of them:</p><br><p>Part 1 (today)</p><p>1. Instructions, practice game, and quiz</p><p>2. Pick a pirate game on 6 different islands</p><br><p>Part 2 (tomorrow)</p><p>3. Pick a pirate game and memory game</p><p>4. Where did you see this ship? </p><p><b>[Press the space bar to continue]</b></p></div>","32","","","","","","","","","","","","","","","","","","","","","","",""
"","instruc2","4","62087","0.0-4.0","""event"",""trial"",""time""
""blur"",""0"",""3391""
""focus"",""0"",""8475""
""fullscreenenter"",""0"",""10600""
""blur"",""2"",""12466""
""focus"",""2"",""12727""
","""event"",""trial"",""time""
""blur"",""0"",""3391""
""blur"",""2"",""12466""
","""event"",""trial"",""time""
""focus"",""0"",""8475""
""focus"",""2"",""12727""
","""event"",""trial"",""time""
""fullscreenenter"",""0"",""10600""
","
","null","run_exp/static/audio/clip_2_different_places.m4a","null","","","","","<div class='center'><p>Today, you’ll visit these 6 islands on your journey. You'll be able to see these islands from your ship.</p><p><img src='run_exp/static/images/contexts/all_contexts.png' height='500'></p></div>","","","","","","","","","","","","","","","","","",""
"","html-keyboard-response","5","62841","0.0-5.0","""event"",""trial"",""time""
""blur"",""0"",""3391""
""focus"",""0"",""8475""
""fullscreenenter"",""0"",""10600""
""blur"",""2"",""12466""
""focus"",""2"",""12727""
","""event"",""trial"",""time""
""blur"",""0"",""3391""
""blur"",""2"",""12466""
","""event"",""trial"",""time""
""focus"",""0"",""8475""
""focus"",""2"",""12727""
","""event"",""trial"",""time""
""fullscreenenter"",""0"",""10600""
","
","752.4000000059605","<div class='center'><p>Today, you’ll visit these 6 islands on your journey. You'll be able to see these islands from your ship.</p><p><img src='run_exp/static/images/contexts/all_contexts.png' height='500'></p><p><b>[Press the space bar to continue]</b></p></div>","32","","","","","","","","","","","","","","","","","","","","","","",""
"","instruc3","6","72549","0.0-6.0","""event"",""trial"",""time""
""blur"",""0"",""3391""
""focus"",""0"",""8475""
""fullscreenenter"",""0"",""10600""
""blur"",""2"",""12466""
""focus"",""2"",""12727""
","""event"",""trial"",""time""
""blur"",""0"",""3391""
""blur"",""2"",""12466""
","""event"",""trial"",""time""
""focus"",""0"",""8475""
""focus"",""2"",""12727""
","""event"",""trial"",""time""
""fullscreenenter"",""0"",""10600""
","
","null","run_exp/static/audio/clip_3_goal_of_game_1.m4a","null","","","","","<div class='center'><p> The pirates on your ship will rob other ships as they leave the island.</p> These ships have just sold their goods to the islanders, so they will be filled with lots and lots of gold.</p><p><img src='run_exp/static/images/tutorial/ship_center.png' height='400'></p></div>","","","","","","","","","","","","","","","","","",""
"","html-keyboard-response","7","72961","0.0-7.0","""event"",""trial"",""time""
""blur"",""0"",""3391""
""focus"",""0"",""8475""
""fullscreenenter"",""0"",""10600""
""blur"",""2"",""12466""
""focus"",""2"",""12727""
","""event"",""trial"",""time""
""blur"",""0"",""3391""
""blur"",""2"",""12466""
","""event"",""trial"",""time""
""focus"",""0"",""8475""
""focus"",""2"",""12727""
","""event"",""trial"",""time""
""fullscreenenter"",""0"",""10600""
","
","411.5","<div class='center'><p> The pirates on your ship will rob other ships as they leave the island.</p> These ships have just sold their goods to the islanders, so they will be filled with lots and lots of gold.</p><p><img src='run_exp/static/images/tutorial/ship_center.png' height='400'></p><p><b>[Press the space bar to continue]</b></p></div>","32","","","","","","","","","","","","","","","","","","","","","","",""
"","instruc4","8","100967","0.0-8.0","""event"",""trial"",""time""
""blur"",""0"",""3391""
""focus"",""0"",""8475""
""fullscreenenter"",""0"",""10600""
""blur"",""2"",""12466""
""focus"",""2"",""12727""
","""event"",""trial"",""time""
""blur"",""0"",""3391""
""blur"",""2"",""12466""
","""event"",""trial"",""time""
""focus"",""0"",""8475""
""focus"",""2"",""12727""
","""event"",""trial"",""time""
""fullscreenenter"",""0"",""10600""
","
","null","run_exp/static/audio/clip_4_goal_of_game_2.m4a","null","","","","","<div class='center'><p>As the head captain, you do not have to rob any ships yourself. Another pirate will be doing the robbing for you. First, you will choose a pirate to rob the next ship.</p><p><img src='run_exp/static/images/tutorial/pirates_all_crop.png' height='200'></p><p>Then, you'll see if the pirate successfully robbed the ship of their gold. If they were successful, then you'll get a stack of gold coins like this:</p><p><img src='run_exp/static/images/tutorial/reward.png' height='150'></p><p> If they were <b>not</b> successful, then you'll get no gold coins, and you'll see a big red x like this: </p><p><img src='run_exp/static/images/tutorial/reward_no.png' height='150'></p><p> How much bonus money you make is based on how many gold coins you collect.</p><div>","","","","","","","","","","","","","","","","","",""
"","html-keyboard-response","9","102152","0.0-9.0","""event"",""trial"",""time""
""blur"",""0"",""3391""
""focus"",""0"",""8475""
""fullscreenenter"",""0"",""10600""
""blur"",""2"",""12466""
""focus"",""2"",""12727""
","""event"",""trial"",""time""
""blur"",""0"",""3391""
""blur"",""2"",""12466""
","""event"",""trial"",""time""
""focus"",""0"",""8475""
""focus"",""2"",""12727""
","""event"",""trial"",""time""
""fullscreenenter"",""0"",""10600""
","
","1183.2000000178814","<div class='center'><p>As the head captain, you do not have to rob any ships yourself. Another pirate will be doing the robbing for you. First, you will choose a pirate to rob the next ship.</p><p><img src='run_exp/static/images/tutorial/pirates_all_crop.png' height='200'></p><p>Then, you'll see if the pirate successfully robbed the ship of their gold. If they were successful, then you'll get a stack of gold coins like this:</p><p><img src='run_exp/static/images/tutorial/reward.png' height='150'></p><p> If they were <b>not</b> successful, then you'll get no gold coins, and you'll see a big red x like this: </p><p><img src='run_exp/static/images/tutorial/reward_no.png' height='150'></p><p> How much bonus money you make is based on how many gold coins you collect.</p<p><b>[Press the space bar to continue]</b></p></div>","32","","","","","","","","","","","","","","","","","","","","","","",""
"","instruc5","10","123672","0.0-10.0","""event"",""trial"",""time""
""blur"",""0"",""3391""
""focus"",""0"",""8475""
""fullscreenenter"",""0"",""10600""
""blur"",""2"",""12466""
""focus"",""2"",""12727""
","""event"",""trial"",""time""
""blur"",""0"",""3391""
""blur"",""2"",""12466""
","""event"",""trial"",""time""
""focus"",""0"",""8475""
""focus"",""2"",""12727""
","""event"",""trial"",""time""
""fullscreenenter"",""0"",""10600""
","
","21519","run_exp/static/audio/clip_5_probabilistic.m4a","49","","","","","<div class='center'><p>Even the most skilled pirate can not rob EVERY ship.</p><p> Some ships will have very strong protections against pirate attacks.</p><p> Blue beard, here, is very, very good at robbing ships, but he won't be successful every time he tries to rob one.</p><p> You can press the <b>‘1’</b> key on the keyboard to choose him.</p><p> Try choosing him 10 times to see how often he succeeds at robbing a ship. </p><p><img src='run_exp/static/images/tutorial/blue.png' height='500'></p></div>","","","","","","","","","","","","","","","","","",""
"","html-keyboard-response","11","125179","0.0-11.0","""event"",""trial"",""time""
""blur"",""0"",""3391""
""focus"",""0"",""8475""
""fullscreenenter"",""0"",""10600""
""blur"",""2"",""12466""
""focus"",""2"",""12727""
","""event"",""trial"",""time""
""blur"",""0"",""3391""
""blur"",""2"",""12466""
","""event"",""trial"",""time""
""focus"",""0"",""8475""
""focus"",""2"",""12727""
","""event"",""trial"",""time""
""fullscreenenter"",""0"",""10600""
","
","null","<div class='center'><p><img src='run_exp/static/images/tutorial/blue_win.png' height='500'></p></div>","null","","","","","","","","","","","","","","","","","","","","","","",""
"","html-keyboard-response","12","126611","0.0-12.0","""event"",""trial"",""time""
""blur"",""0"",""3391""
""focus"",""0"",""8475""
""fullscreenenter"",""0"",""10600""
""blur"",""2"",""12466""
""focus"",""2"",""12727""
","""event"",""trial"",""time""
""blur"",""0"",""3391""
""blur"",""2"",""12466""
","""event"",""trial"",""time""
""focus"",""0"",""8475""
""focus"",""2"",""12727""
","""event"",""trial"",""time""
""fullscreenenter"",""0"",""10600""
","
","1430.7000000178814","<div class='center'><img src='run_exp/static/images/tutorial/blue.png' height='500'></p></div>","49","","","","","","","","","","","","","","","","","","","","","","",""
"","html-keyboard-response","13","128118","0.0-13.0","""event"",""trial"",""time""
""blur"",""0"",""3391""
""focus"",""0"",""8475""
""fullscreenenter"",""0"",""10600""
""blur"",""2"",""12466""
""focus"",""2"",""12727""
","""event"",""trial"",""time""
""blur"",""0"",""3391""
""blur"",""2"",""12466""
","""event"",""trial"",""time""
""focus"",""0"",""8475""
""focus"",""2"",""12727""
","""event"",""trial"",""time""
""fullscreenenter"",""0"",""10600""
","
","null","<div class='center'><p><img src='run_exp/static/images/tutorial/blue_win.png' height='500'></p></div>","null","","","","","","","","","","","","","","","","","","","","","","",""
"","html-keyboard-response","14","128790","0.0-14.0","""event"",""trial"",""time""
""blur"",""0"",""3391""
""focus"",""0"",""8475""
""fullscreenenter"",""0"",""10600""
""blur"",""2"",""12466""
""focus"",""2"",""12727""
","""event"",""trial"",""time""
""blur"",""0"",""3391""
""blur"",""2"",""12466""
","""event"",""trial"",""time""
""focus"",""0"",""8475""
""focus"",""2"",""12727""
","""event"",""trial"",""time""
""fullscreenenter"",""0"",""10600""
","
","671.2999999821186","<div class='center'><img src='run_exp/static/images/tutorial/blue.png' height='500'></p></div>","49","","","","","","","","","","","","","","","","","","","","","","",""
"","html-keyboard-response","15","130299","0.0-15.0","""event"",""trial"",""time""
""blur"",""0"",""3391""
""focus"",""0"",""8475""
""fullscreenenter"",""0"",""10600""
""blur"",""2"",""12466""
""focus"",""2"",""12727""
","""event"",""trial"",""time""
""blur"",""0"",""3391""
""blur"",""2"",""12466""
","""event"",""trial"",""time""
""focus"",""0"",""8475""
""focus"",""2"",""12727""
","""event"",""trial"",""time""
""fullscreenenter"",""0"",""10600""
","
","null","<div class='center'><p><img src='run_exp/static/images/tutorial/blue_win.png' height='500'></p></div>","null","","","","","","","","","","","","","","","","","","","","","","",""
"","html-keyboard-response","16","130690","0.0-16.0","""event"",""trial"",""time""
""blur"",""0"",""3391""
""focus"",""0"",""8475""
""fullscreenenter"",""0"",""10600""
""blur"",""2"",""12466""
""focus"",""2"",""12727""
","""event"",""trial"",""time""
""blur"",""0"",""3391""
""blur"",""2"",""12466""
","""event"",""trial"",""time""
""focus"",""0"",""8475""
""focus"",""2"",""12727""
","""event"",""trial"",""time""
""fullscreenenter"",""0"",""10600""
","
","391.10000002384186","<div class='center'><img src='run_exp/static/images/tutorial/blue.png' height='500'></p></div>","49","","","","","","","","","","","","","","","","","","","","","","",""
"","html-keyboard-response","17","132200","0.0-17.0","""event"",""trial"",""time""
""blur"",""0"",""3391""
""focus"",""0"",""8475""
""fullscreenenter"",""0"",""10600""
""blur"",""2"",""12466""
""focus"",""2"",""12727""
","""event"",""trial"",""time""
""blur"",""0"",""3391""
""blur"",""2"",""12466""
","""event"",""trial"",""time""
""focus"",""0"",""8475""
""focus"",""2"",""12727""
","""event"",""trial"",""time""
""fullscreenenter"",""0"",""10600""
","
","null","<div class='center'><p><img src='run_exp/static/images/tutorial/blue_no_win.png' height='500'></p></div>","null","","","","","","","","","","","","","","","","","","","","","","",""
"","html-keyboard-response","18","132630","0.0-18.0","""event"",""trial"",""time""
""blur"",""0"",""3391""
""focus"",""0"",""8475""
""fullscreenenter"",""0"",""10600""
""blur"",""2"",""12466""
""focus"",""2"",""12727""
","""event"",""trial"",""time""
""blur"",""0"",""3391""
""blur"",""2"",""12466""
","""event"",""trial"",""time""
""focus"",""0"",""8475""
""focus"",""2"",""12727""
","""event"",""trial"",""time""
""fullscreenenter"",""0"",""10600""
","
","428.7000000178814","<div class='center'><img src='run_exp/static/images/tutorial/blue.png' height='500'></p></div>","49","","","","","","","","","","","","","","","","","","","","","","",""
"","html-keyboard-response","19","134133","0.0-19.0","""event"",""trial"",""time""
""blur"",""0"",""3391""
""focus"",""0"",""8475""
""fullscreenenter"",""0"",""10600""
""blur"",""2"",""12466""
""focus"",""2"",""12727""
","""event"",""trial"",""time""
""blur"",""0"",""3391""
""blur"",""2"",""12466""
","""event"",""trial"",""time""
""focus"",""0"",""8475""
""focus"",""2"",""12727""
","""event"",""trial"",""time""
""fullscreenenter"",""0"",""10600""
","
","null","<div class='center'><p><img src='run_exp/static/images/tutorial/blue_win.png' height='500'></p></div>","null","","","","","","","","","","","","","","","","","","","","","","",""
"","html-keyboard-response","20","134332","0.0-20.0","""event"",""trial"",""time""
""blur"",""0"",""3391""
""focus"",""0"",""8475""
""fullscreenenter"",""0"",""10600""
""blur"",""2"",""12466""
""focus"",""2"",""12727""
","""event"",""trial"",""time""
""blur"",""0"",""3391""
""blur"",""2"",""12466""
","""event"",""trial"",""time""
""focus"",""0"",""8475""
""focus"",""2"",""12727""
","""event"",""trial"",""time""
""fullscreenenter"",""0"",""10600""
","
","197.40000000596046","<div class='center'><img src='run_exp/static/images/tutorial/blue.png' height='500'></p></div>","49","","","","","","","","","","","","","","","","","","","","","","",""
"","html-keyboard-response","21","135841","0.0-21.0","""event"",""trial"",""time""
""blur"",""0"",""3391""
""focus"",""0"",""8475""
""fullscreenenter"",""0"",""10600""
""blur"",""2"",""12466""
""focus"",""2"",""12727""
","""event"",""trial"",""time""
""blur"",""0"",""3391""
""blur"",""2"",""12466""
","""event"",""trial"",""time""
""focus"",""0"",""8475""
""focus"",""2"",""12727""
","""event"",""trial"",""time""
""fullscreenenter"",""0"",""10600""
","
","null","<div class='center'><p><img src='run_exp/static/images/tutorial/blue_win.png' height='500'></p></div>","null","","","","","","","","","","","","","","","","","","","","","","",""
"","html-keyboard-response","22","136142","0.0-22.0","""event"",""trial"",""time""
""blur"",""0"",""3391""
""focus"",""0"",""8475""
""fullscreenenter"",""0"",""10600""
""blur"",""2"",""12466""
""focus"",""2"",""12727""
","""event"",""trial"",""time""
""blur"",""0"",""3391""
""blur"",""2"",""12466""
","""event"",""trial"",""time""
""focus"",""0"",""8475""
""focus"",""2"",""12727""
","""event"",""trial"",""time""
""fullscreenenter"",""0"",""10600""
","
","299","<div class='center'><img src='run_exp/static/images/tutorial/blue.png' height='500'></p></div>","49","","","","","","","","","","","","","","","","","","","","","","",""
"","html-keyboard-response","23","137651","0.0-23.0","""event"",""trial"",""time""
""blur"",""0"",""3391""
""focus"",""0"",""8475""
""fullscreenenter"",""0"",""10600""
""blur"",""2"",""12466""
""focus"",""2"",""12727""
","""event"",""trial"",""time""
""blur"",""0"",""3391""
""blur"",""2"",""12466""
","""event"",""trial"",""time""
""focus"",""0"",""8475""
""focus"",""2"",""12727""
","""event"",""trial"",""time""
""fullscreenenter"",""0"",""10600""
","
","null","<div class='center'><p><img src='run_exp/static/images/tutorial/blue_win.png' height='500'></p></div>","null","","","","","","","","","","","","","","","","","","","","","","",""
"","html-keyboard-response","24","137952","0.0-24.0","""event"",""trial"",""time""
""blur"",""0"",""3391""
""focus"",""0"",""8475""
""fullscreenenter"",""0"",""10600""
""blur"",""2"",""12466""
""focus"",""2"",""12727""
","""event"",""trial"",""time""
""blur"",""0"",""3391""
""blur"",""2"",""12466""
","""event"",""trial"",""time""
""focus"",""0"",""8475""
""focus"",""2"",""12727""
","""event"",""trial"",""time""
""fullscreenenter"",""0"",""10600""
","
","299","<div class='center'><img src='run_exp/static/images/tutorial/blue.png' height='500'></p></div>","49","","","","","","","","","","","","","","","","","","","","","","",""
"","html-keyboard-response","25","139468","0.0-25.0","""event"",""trial"",""time""
""blur"",""0"",""3391""
""focus"",""0"",""8475""
""fullscreenenter"",""0"",""10600""
""blur"",""2"",""12466""
""focus"",""2"",""12727""
","""event"",""trial"",""time""
""blur"",""0"",""3391""
""blur"",""2"",""12466""
","""event"",""trial"",""time""
""focus"",""0"",""8475""
""focus"",""2"",""12727""
","""event"",""trial"",""time""
""fullscreenenter"",""0"",""10600""
","
","null","<div class='center'><p><img src='run_exp/static/images/tutorial/blue_no_win.png' height='500'></p></div>","null","","","","","","","","","","","","","","","","","","","","","","",""
"","html-keyboard-response","26","139791","0.0-26.0","""event"",""trial"",""time""
""blur"",""0"",""3391""
""focus"",""0"",""8475""
""fullscreenenter"",""0"",""10600""
""blur"",""2"",""12466""
""focus"",""2"",""12727""
","""event"",""trial"",""time""
""blur"",""0"",""3391""
""blur"",""2"",""12466""
","""event"",""trial"",""time""
""focus"",""0"",""8475""
""focus"",""2"",""12727""
","""event"",""trial"",""time""
""fullscreenenter"",""0"",""10600""
","
","321.7000000178814","<div class='center'><img src='run_exp/static/images/tutorial/blue.png' height='500'></p></div>","49","","","","","","","","","","","","","","","","","","","","","","",""
"","html-keyboard-response","27","141303","0.0-27.0","""event"",""trial"",""time""
""blur"",""0"",""3391""
""focus"",""0"",""8475""
""fullscreenenter"",""0"",""10600""
""blur"",""2"",""12466""
""focus"",""2"",""12727""
","""event"",""trial"",""time""
""blur"",""0"",""3391""
""blur"",""2"",""12466""
","""event"",""trial"",""time""
""focus"",""0"",""8475""
""focus"",""2"",""12727""
","""event"",""trial"",""time""
""fullscreenenter"",""0"",""10600""
","
","null","<div class='center'><p><img src='run_exp/static/images/tutorial/blue_win.png' height='500'></p></div>","null","","","","","","","","","","","","","","","","","","","","","","",""
"","html-keyboard-response","28","141642","0.0-28.0","""event"",""trial"",""time""
""blur"",""0"",""3391""
""focus"",""0"",""8475""
""fullscreenenter"",""0"",""10600""
""blur"",""2"",""12466""
""focus"",""2"",""12727""
","""event"",""trial"",""time""
""blur"",""0"",""3391""
""blur"",""2"",""12466""
","""event"",""trial"",""time""
""focus"",""0"",""8475""
""focus"",""2"",""12727""
","""event"",""trial"",""time""
""fullscreenenter"",""0"",""10600""
","
","336.59999999403954","<div class='center'><img src='run_exp/static/images/tutorial/blue.png' height='500'></p></div>","49","","","","","","","","","","","","","","","","","","","","","","",""
"","html-keyboard-response","29","143155","0.0-29.0","""event"",""trial"",""time""
""blur"",""0"",""3391""
""focus"",""0"",""8475""
""fullscreenenter"",""0"",""10600""
""blur"",""2"",""12466""
""focus"",""2"",""12727""
","""event"",""trial"",""time""
""blur"",""0"",""3391""
""blur"",""2"",""12466""
","""event"",""trial"",""time""
""focus"",""0"",""8475""
""focus"",""2"",""12727""
","""event"",""trial"",""time""
""fullscreenenter"",""0"",""10600""
","
","null","<div class='center'><p><img src='run_exp/static/images/tutorial/blue_win.png' height='500'></p></div>","null","","","","","","","","","","","","","","","","","","","","","","",""
"","instruc6","30","148883","0.0-30.0","""event"",""trial"",""time""
""blur"",""0"",""3391""
""focus"",""0"",""8475""
""fullscreenenter"",""0"",""10600""
""blur"",""2"",""12466""
""focus"",""2"",""12727""
","""event"",""trial"",""time""
""blur"",""0"",""3391""
""blur"",""2"",""12466""
","""event"",""trial"",""time""
""focus"",""0"",""8475""
""focus"",""2"",""12727""
","""event"",""trial"",""time""
""fullscreenenter"",""0"",""10600""
","
","null","run_exp/static/audio/clip_6_blue_beard_outcome.m4a","null","","","","","<div class='center'><p> See, he succeeded in robbing the ships most of the time but not every time. </p></div>","","","","","","","","","","","","","","","","","",""
"","html-keyboard-response","31","149540","0.0-31.0","""event"",""trial"",""time""
""blur"",""0"",""3391""
""focus"",""0"",""8475""
""fullscreenenter"",""0"",""10600""
""blur"",""2"",""12466""
""focus"",""2"",""12727""
","""event"",""trial"",""time""
""blur"",""0"",""3391""
""blur"",""2"",""12466""
","""event"",""trial"",""time""
""focus"",""0"",""8475""
""focus"",""2"",""12727""
","""event"",""trial"",""time""
""fullscreenenter"",""0"",""10600""
","
","656.3000000119209","<div class='center'><p> See, he succeeded in robbing the ships most of the time but not every time. </p><p><b>[Press the space bar to continue]</b></p></div>","32","","","","","","","","","","","","","","","","","","","","","","",""
"","audio-keyboard-response","32","152532","0.0-32.0","""event"",""trial"",""time""
""blur"",""0"",""3391""
""focus"",""0"",""8475""
""fullscreenenter"",""0"",""10600""
""blur"",""2"",""12466""
""focus"",""2"",""12727""
","""event"",""trial"",""time""
""blur"",""0"",""3391""
""blur"",""2"",""12466""
","""event"",""trial"",""time""
""focus"",""0"",""8475""
""focus"",""2"",""12727""
","""event"",""trial"",""time""
""fullscreenenter"",""0"",""10600""
","
","2989.7999999821186","run_exp/static/audio/clip_7_pick_pirate.m4a","51","","","","","","","","","","","","","","","","","","","","","","",""
"","audio-keyboard-response","33","154241","0.0-33.0-0.0","""event"",""trial"",""time""
""blur"",""0"",""3391""
""focus"",""0"",""8475""
""fullscreenenter"",""0"",""10600""
""blur"",""2"",""12466""
""focus"",""2"",""12727""
","""event"",""trial"",""time""
""blur"",""0"",""3391""
""blur"",""2"",""12466""
","""event"",""trial"",""time""
""focus"",""0"",""8475""
""focus"",""2"",""12727""
","""event"",""trial"",""time""
""fullscreenenter"",""0"",""10600""
","
","1706.0999999940395","run_exp/static/audio/clip_8_chosen_pirate_win.m4a","32","","","","","","","","","","","","","","","","","","","","","","",""
"","audio-keyboard-response","34","155711","0.0-33.0-1.0","""event"",""trial"",""time""
""blur"",""0"",""3391""
""focus"",""0"",""8475""
""fullscreenenter"",""0"",""10600""
""blur"",""2"",""12466""
""focus"",""2"",""12727""
","""event"",""trial"",""time""
""blur"",""0"",""3391""
""blur"",""2"",""12466""
","""event"",""trial"",""time""
""focus"",""0"",""8475""
""focus"",""2"",""12727""
","""event"",""trial"",""time""
""fullscreenenter"",""0"",""10600""
","
","1469.5","run_exp/static/audio/clip_9_pick_a_pirate_again.m4a","50","","","","","","","","","","","","","","","","","","","","","","",""
"","audio-keyboard-response","35","156220","0.0-34.0-0.0","""event"",""trial"",""time""
""blur"",""0"",""3391""
""focus"",""0"",""8475""
""fullscreenenter"",""0"",""10600""
""blur"",""2"",""12466""
""focus"",""2"",""12727""
","""event"",""trial"",""time""
""blur"",""0"",""3391""
""blur"",""2"",""12466""
","""event"",""trial"",""time""
""focus"",""0"",""8475""
""focus"",""2"",""12727""
","""event"",""trial"",""time""
""fullscreenenter"",""0"",""10600""
","
","508.30000001192093","run_exp/static/audio/clip_10_chosen_pirate_loss.m4a","32","","","","","","","","","","","","","","","","","","","","","","",""
"","instruc9","36","161716","0.0-35.0-0.0","""event"",""trial"",""time""
""blur"",""0"",""3391""
""focus"",""0"",""8475""
""fullscreenenter"",""0"",""10600""
""blur"",""2"",""12466""
""focus"",""2"",""12727""
","""event"",""trial"",""time""
""blur"",""0"",""3391""
""blur"",""2"",""12466""
","""event"",""trial"",""time""
""focus"",""0"",""8475""
""focus"",""2"",""12727""
","""event"",""trial"",""time""
""fullscreenenter"",""0"",""10600""
","
","null","run_exp/static/audio/clip_11_time_out.m4a","null","","","","","<div class='center'><p>If you don’t make your choice fast enough, you’ll have to wait a few seconds before you can make another one. </p><p><img src='run_exp/static/images/miscellaneous/hurry_up.png' height='500'></p></div>","","","","","","","","","","","","","","","","","",""
"","html-keyboard-response","37","162612","0.0-35.0-1.0","""event"",""trial"",""time""
""blur"",""0"",""3391""
""focus"",""0"",""8475""
""fullscreenenter"",""0"",""10600""
""blur"",""2"",""12466""
""focus"",""2"",""12727""
","""event"",""trial"",""time""
""blur"",""0"",""3391""
""blur"",""2"",""12466""
","""event"",""trial"",""time""
""focus"",""0"",""8475""
""focus"",""2"",""12727""
","""event"",""trial"",""time""
""fullscreenenter"",""0"",""10600""
","
","895.7000000178814","<div class='center'><p>If you don’t make your choice fast enough, you’ll have to wait a few seconds before you can make another one. </p><p><img src='run_exp/static/images/miscellaneous/hurry_up.png' height='500'></p><p><b>[Press the space bar to continue]</b></p></div>","32","","","","","","","","","","","","","","","","","","","","","","",""
"","instruc10","38","201736","0.0-35.0-2.0","""event"",""trial"",""time""
""blur"",""0"",""3391""
""focus"",""0"",""8475""
""fullscreenenter"",""0"",""10600""
""blur"",""2"",""12466""
""focus"",""2"",""12727""
","""event"",""trial"",""time""
""blur"",""0"",""3391""
""blur"",""2"",""12466""
","""event"",""trial"",""time""
""focus"",""0"",""8475""
""focus"",""2"",""12727""
","""event"",""trial"",""time""
""fullscreenenter"",""0"",""10600""
","
","null","run_exp/static/audio/clip_12_probe.m4a","null","","","","","<div class='center'><p>Once you've chosen a pirate, you’ll be shown the ship they are robbing. You will never rob the same ship twice. Ships can be told apart from one another by the image on them. These are the goods that they sell. See, this ship has a travel mug on it. </p><p> You’ll have to remember which island you saw each ship on. You will win more gold coins and hence more bonus money if you remember correctly! To help you remember, you can imagine a story. For example, here, you could imagine a mug full of water in the desert. Or, as another example, if on the forest island, your pirate robbed a ship with an apple on it, you could imagine an apple falling from a tree in the forest. </p><p><img src='run_exp/static/images/tutorial/example_probe.png' height='500'></p></div>","","","","","","","","","","","","","","","","","",""
"","html-keyboard-response","39","203890","0.0-35.0-3.0","""event"",""trial"",""time""
""blur"",""0"",""3391""
""focus"",""0"",""8475""
""fullscreenenter"",""0"",""10600""
""blur"",""2"",""12466""
""focus"",""2"",""12727""
","""event"",""trial"",""time""
""blur"",""0"",""3391""
""blur"",""2"",""12466""
","""event"",""trial"",""time""
""focus"",""0"",""8475""
""focus"",""2"",""12727""
","""event"",""trial"",""time""
""fullscreenenter"",""0"",""10600""
","
","2153.4000000059605","<div class='center'><p>Once you've chosen a pirate, you’ll be shown the ship they are robbing. You will never rob the same ship twice. Ships can be told apart from one another by the image on them. These are the goods that they sell. See, this ship has a travel mug on it. </p><p> You’ll have to remember which island you saw each ship on. You will win more gold coins and hence more bonus money if you remember correctly! To help you remember, you can imagine a story. For example, here, you could imagine a mug full of water in the desert. Or, as another example, if on the forest island, your pirate robbed a ship with an apple on it, you could imagine an apple falling from a tree in the forest. </p><p><img src='run_exp/static/images/tutorial/example_probe.png' height='500'></p><p><b>[Press the space bar to continue]</b></p></div>","32","","","","","","","","","","","","","","","","","","","","","","",""
"","instruc11","40","220297","0.0-35.0-4.0","""event"",""trial"",""time""
""blur"",""0"",""3391""
""focus"",""0"",""8475""
""fullscreenenter"",""0"",""10600""
""blur"",""2"",""12466""
""focus"",""2"",""12727""
","""event"",""trial"",""time""
""blur"",""0"",""3391""
""blur"",""2"",""12466""
","""event"",""trial"",""time""
""focus"",""0"",""8475""
""focus"",""2"",""12727""
","""event"",""trial"",""time""
""fullscreenenter"",""0"",""10600""
","
","null","run_exp/static/audio/clip_13_changepoint.m4a","null","","","","","<div class='center'><p>How successful a pirate is at robbing ships will depend on the island you’re on.</p><p> A pirate may have visited this island many times before and gained a lot of practice robbing ships there.</p><p>So, they’re more likely to be successful than a pirate who has never visited the island before.</p></div>","","","","","","","","","","","","","","","","","",""
"","html-keyboard-response","41","224780","0.0-35.0-5.0","""event"",""trial"",""time""
""blur"",""0"",""3391""
""focus"",""0"",""8475""
""fullscreenenter"",""0"",""10600""
""blur"",""2"",""12466""
""focus"",""2"",""12727""
","""event"",""trial"",""time""
""blur"",""0"",""3391""
""blur"",""2"",""12466""
","""event"",""trial"",""time""
""focus"",""0"",""8475""
""focus"",""2"",""12727""
","""event"",""trial"",""time""
""fullscreenenter"",""0"",""10600""
","
","4481.9000000059605","<div class='center'><p>How successful a pirate is at robbing ships will depend on the island you’re on.</p><p> A pirate may have visited this island many times before and gained a lot of practice robbing ships there.</p><p>So, they’re more likely to be successful than a pirate who has never visited the island before.</p><p><b>[Press the space bar to continue]</b></p></div>","32","","","","","","","","","","","","","","","","","","","","","","",""
"","instruc12","42","265877","0.0-35.0-6.0","""event"",""trial"",""time""
""blur"",""0"",""3391""
""focus"",""0"",""8475""
""fullscreenenter"",""0"",""10600""
""blur"",""2"",""12466""
""focus"",""2"",""12727""
","""event"",""trial"",""time""
""blur"",""0"",""3391""
""blur"",""2"",""12466""
","""event"",""trial"",""time""
""focus"",""0"",""8475""
""focus"",""2"",""12727""
","""event"",""trial"",""time""
""fullscreenenter"",""0"",""10600""
","
","null","run_exp/static/audio/clip_14_drift.m4a","null","","","","","<div class='center'><p>How successful a pirate is at robbing ships can also change over the time spent on the island. </p><p> Ships may hear from islanders about the pirates coming and will improve their protections against the attack. This may make it harder to rob them.</p><p> Ships may also become lazy and weaken the strength of their protections. This may make it easier to rob them.</p><br><p>Things are always changing on the high seas! So, try your best to pay attention!</p><p><img src='run_exp/static/images/tutorial/contingency.png' height='500'></p></div>","","","","","","","","","","","","","","","","","",""
"","html-keyboard-response","43","267401","0.0-35.0-7.0","""event"",""trial"",""time""
""blur"",""0"",""3391""
""focus"",""0"",""8475""
""fullscreenenter"",""0"",""10600""
""blur"",""2"",""12466""
""focus"",""2"",""12727""
","""event"",""trial"",""time""
""blur"",""0"",""3391""
""blur"",""2"",""12466""
","""event"",""trial"",""time""
""focus"",""0"",""8475""
""focus"",""2"",""12727""
","""event"",""trial"",""time""
""fullscreenenter"",""0"",""10600""
","
","1521.4000000059605","<div class='center'><p>How successful a pirate is at robbing ships can also change over the time spent on the island. </p><p> Ships may hear from islanders about the pirates coming and will improve their protections against the attack. This may make it harder to rob them.</p><p> Ships may also become lazy and weaken the strength of their protections. This may make it easier to rob them.</p><br><p>Things are always changing on the high seas! So, try your best to pay attention!</p><p><img src='run_exp/static/images/tutorial/contingency.png' height='500'></p><p><b>[Press the space bar to continue]</b></p></div>","32","","","","","","","","","","","","","","","","","","","","","","",""
"","instruc13","44","305516","0.0-35.0-8.0","""event"",""trial"",""time""
""blur"",""0"",""3391""
""focus"",""0"",""8475""
""fullscreenenter"",""0"",""10600""
""blur"",""2"",""12466""
""focus"",""2"",""12727""
","""event"",""trial"",""time""
""blur"",""0"",""3391""
""blur"",""2"",""12466""
","""event"",""trial"",""time""
""focus"",""0"",""8475""
""focus"",""2"",""12727""
","""event"",""trial"",""time""
""fullscreenenter"",""0"",""10600""
","
","null","run_exp/static/audio/clip_15_summary.m4a","null","","","","","<div class='center'><p>Let's go over the instructions quickly again. You have two important things to do: </p><b><p> 1. Pick the pirate who is the best at robbing ships on the current island. </p></b><b><p> 2. Remember on which island a ship was robbed.</p> </b><p>The amount of bonus money you can win depends on both.</p><p><br><p>Let’s try a practice game. The game will start by showing you the pirates. First, pick a pirate using the <b> 1, 2, 3 </b> keys on your keyboard. When you are shown a ship, try to remember which island you’re on by making up a story.</p><p>This is just a practice game, so you’re not playing for money. </p><p> Good luck! This game will be very difficult but try your best!</p></div>","","","","","","","","","","","","","","","","","",""
"","html-keyboard-response","45","306142","0.0-35.0-9.0","""event"",""trial"",""time""
""blur"",""0"",""3391""
""focus"",""0"",""8475""
""fullscreenenter"",""0"",""10600""
""blur"",""2"",""12466""
""focus"",""2"",""12727""
","""event"",""trial"",""time""
""blur"",""0"",""3391""
""blur"",""2"",""12466""
","""event"",""trial"",""time""
""focus"",""0"",""8475""
""focus"",""2"",""12727""
","""event"",""trial"",""time""
""fullscreenenter"",""0"",""10600""
","
","625.5999999940395","<div class='center'><p>Let's go over the instructions quickly again. You have two important things to do: </p><b><p> 1. Pick the pirate who is the best at robbing ships on the current island. </p></b><b><p> 2. Remember on which island a ship was robbed.</p> </b><p>The amount of bonus money you can win depends on both.</p><p><br><p>Let’s try a practice game. The game will start by showing you the pirates. First, pick a pirate using the <b> 1, 2, 3 </b> keys on your keyboard. When you are shown a ship, try to remember which island you’re on by making up a story.</p><p>This is just a practice game, so you’re not playing for money. </p><p> Good luck! This game will be very difficult but try your best!</p><p><b>[Press the space bar to continue]</b></p></div>","32","","","","","","","","","","","","","","","","","","","","","","",""
"","do_welcome","46","310155","0.0-35.0-10.0","""event"",""trial"",""time""
""blur"",""0"",""3391""
""focus"",""0"",""8475""
""fullscreenenter"",""0"",""10600""
""blur"",""2"",""12466""
""focus"",""2"",""12727""
","""event"",""trial"",""time""
""blur"",""0"",""3391""
""blur"",""2"",""12466""
","""event"",""trial"",""time""
""focus"",""0"",""8475""
""focus"",""2"",""12727""
","""event"",""trial"",""time""
""fullscreenenter"",""0"",""10600""
","
","null","","","","","","","","null","","","","","","","","","","","","","","","","",""
"","do_trial","47","315993","0.0-35.0-11.0","""event"",""trial"",""time""
""blur"",""0"",""3391""
""focus"",""0"",""8475""
""fullscreenenter"",""0"",""10600""
""blur"",""2"",""12466""
""focus"",""2"",""12727""
","""event"",""trial"",""time""
""blur"",""0"",""3391""
""blur"",""2"",""12466""
","""event"",""trial"",""time""
""focus"",""0"",""8475""
""focus"",""2"",""12727""
","""event"",""trial"",""time""
""fullscreenenter"",""0"",""10600""
","
","1323.5999999940395","","","","","","","","50","1,0,0","","","","","","","","","","","","","","","",""
"","html-keyboard-response","48","317003","0.0-36.0-0.0","""event"",""trial"",""time""
""blur"",""0"",""3391""
""focus"",""0"",""8475""
""fullscreenenter"",""0"",""10600""
""blur"",""2"",""12466""
""focus"",""2"",""12727""
","""event"",""trial"",""time""
""blur"",""0"",""3391""
""blur"",""2"",""12466""
","""event"",""trial"",""time""
""focus"",""0"",""8475""
""focus"",""2"",""12727""
","""event"",""trial"",""time""
""fullscreenenter"",""0"",""10600""
","
","null","<p></p>","null","","","","","","","","","","","","","","","","","","","","","","",""
"","do_trial","49","322260","0.0-36.0-1.0","""event"",""trial"",""time""
""blur"",""0"",""3391""
""focus"",""0"",""8475""
""fullscreenenter"",""0"",""10600""
""blur"",""2"",""12466""
""focus"",""2"",""12727""
","""event"",""trial"",""time""
""blur"",""0"",""3391""
""blur"",""2"",""12466""
","""event"",""trial"",""time""
""focus"",""0"",""8475""
""focus"",""2"",""12727""
","""event"",""trial"",""time""
""fullscreenenter"",""0"",""10600""
","
","746","","","","","","","","51","1,1,0","","","","","","","","","","","","","","","",""
"","html-keyboard-response","50","323281","0.0-37.0-0.0","""event"",""trial"",""time""
""blur"",""0"",""3391""
""focus"",""0"",""8475""
""fullscreenenter"",""0"",""10600""
""blur"",""2"",""12466""
""focus"",""2"",""12727""
","""event"",""trial"",""time""
""blur"",""0"",""3391""
""blur"",""2"",""12466""
","""event"",""trial"",""time""
""focus"",""0"",""8475""
""focus"",""2"",""12727""
","""event"",""trial"",""time""
""fullscreenenter"",""0"",""10600""
","
","null","<p></p>","null","","","","","","","","","","","","","","","","","","","","","","",""
"","do_trial","51","329299","0.0-37.0-1.0","""event"",""trial"",""time""
""blur"",""0"",""3391""
""focus"",""0"",""8475""
""fullscreenenter"",""0"",""10600""
""blur"",""2"",""12466""
""focus"",""2"",""12727""
","""event"",""trial"",""time""
""blur"",""0"",""3391""
""blur"",""2"",""12466""
","""event"",""trial"",""time""
""focus"",""0"",""8475""
""focus"",""2"",""12727""
","""event"",""trial"",""time""
""fullscreenenter"",""0"",""10600""
","
","null","","","","","","","","null","1,0,1","","","","","","","","","","","","","","","",""
"","html-keyboard-response","52","330316","0.0-38.0-0.0","""event"",""trial"",""time""
""blur"",""0"",""3391""
""focus"",""0"",""8475""
""fullscreenenter"",""0"",""10600""
""blur"",""2"",""12466""
""focus"",""2"",""12727""
","""event"",""trial"",""time""
""blur"",""0"",""3391""
""blur"",""2"",""12466""
","""event"",""trial"",""time""
""focus"",""0"",""8475""
""focus"",""2"",""12727""
","""event"",""trial"",""time""
""fullscreenenter"",""0"",""10600""
","
","null","<p></p>","null","","","","","","","","","","","","","","","","","","","","","","",""
"","do_trial","53","336787","0.0-38.0-1.0","""event"",""trial"",""time""
""blur"",""0"",""3391""
""focus"",""0"",""8475""
""fullscreenenter"",""0"",""10600""
""blur"",""2"",""12466""
""focus"",""2"",""12727""
","""event"",""trial"",""time""
""blur"",""0"",""3391""
""blur"",""2"",""12466""
","""event"",""trial"",""time""
""focus"",""0"",""8475""
""focus"",""2"",""12727""
","""event"",""trial"",""time""
""fullscreenenter"",""0"",""10600""
","
","1957.2999999821186","","","","","","","","49","1,0,1","","","","","","","","","","","","","","","",""
"","html-keyboard-response","54","337805","0.0-39.0-0.0","""event"",""trial"",""time""
""blur"",""0"",""3391""
""focus"",""0"",""8475""
""fullscreenenter"",""0"",""10600""
""blur"",""2"",""12466""
""focus"",""2"",""12727""
","""event"",""trial"",""time""
""blur"",""0"",""3391""
""blur"",""2"",""12466""
","""event"",""trial"",""time""
""focus"",""0"",""8475""
""focus"",""2"",""12727""
","""event"",""trial"",""time""
""fullscreenenter"",""0"",""10600""
","
","null","<p></p>","null","","","","","","","","","","","","","","","","","","","","","","",""
"","do_trial","55","343442","0.0-39.0-1.0","""event"",""trial"",""time""
""blur"",""0"",""3391""
""focus"",""0"",""8475""
""fullscreenenter"",""0"",""10600""
""blur"",""2"",""12466""
""focus"",""2"",""12727""
","""event"",""trial"",""time""
""blur"",""0"",""3391""
""blur"",""2"",""12466""
","""event"",""trial"",""time""
""focus"",""0"",""8475""
""focus"",""2"",""12727""
","""event"",""trial"",""time""
""fullscreenenter"",""0"",""10600""
","
","1119.300000011921","","","","","","","","51","0,1,0","","","","","","","","","","","","","","","",""
"","html-keyboard-response","56","344459","0.0-40.0-0.0","""event"",""trial"",""time""
""blur"",""0"",""3391""
""focus"",""0"",""8475""
""fullscreenenter"",""0"",""10600""
""blur"",""2"",""12466""
""focus"",""2"",""12727""
","""event"",""trial"",""time""
""blur"",""0"",""3391""
""blur"",""2"",""12466""
","""event"",""trial"",""time""
""focus"",""0"",""8475""
""focus"",""2"",""12727""
","""event"",""trial"",""time""
""fullscreenenter"",""0"",""10600""
","
","null","<p></p>","null","","","","","","","","","","","","","","","","","","","","","","",""
"","do_trial","57","349387","0.0-40.0-1.0","""event"",""trial"",""time""
""blur"",""0"",""3391""
""focus"",""0"",""8475""
""fullscreenenter"",""0"",""10600""
""blur"",""2"",""12466""
""focus"",""2"",""12727""
","""event"",""trial"",""time""
""blur"",""0"",""3391""
""blur"",""2"",""12466""
","""event"",""trial"",""time""
""focus"",""0"",""8475""
""focus"",""2"",""12727""
","""event"",""trial"",""time""
""fullscreenenter"",""0"",""10600""
","
","414.2999999821186","","","","","","","","51","1,0,0","","","","","","","","","","","","","","","",""
"","do_bye","58","350898","0.0-41.0-0.0","""event"",""trial"",""time""
""blur"",""0"",""3391""
""focus"",""0"",""8475""
""fullscreenenter"",""0"",""10600""
""blur"",""2"",""12466""
""focus"",""2"",""12727""
","""event"",""trial"",""time""
""blur"",""0"",""3391""
""blur"",""2"",""12466""
","""event"",""trial"",""time""
""focus"",""0"",""8475""
""focus"",""2"",""12727""
","""event"",""trial"",""time""
""fullscreenenter"",""0"",""10600""
","
","null","","","","","","","","null","","","","","","","","","","","","","","","","",""
"","do_travel","59","359907","0.0-41.0-1.0","""event"",""trial"",""time""
""blur"",""0"",""3391""
""focus"",""0"",""8475""
""fullscreenenter"",""0"",""10600""
""blur"",""2"",""12466""
""focus"",""2"",""12727""
","""event"",""trial"",""time""
""blur"",""0"",""3391""
""blur"",""2"",""12466""
","""event"",""trial"",""time""
""focus"",""0"",""8475""
""focus"",""2"",""12727""
","""event"",""trial"",""time""
""fullscreenenter"",""0"",""10600""
","
","null","","","","","","","","null","","","","","","","","","","","","","","","","",""
"","do_welcome","60","363927","0.0-41.0-2.0","""event"",""trial"",""time""
""blur"",""0"",""3391""
""focus"",""0"",""8475""
""fullscreenenter"",""0"",""10600""
""blur"",""2"",""12466""
""focus"",""2"",""12727""
","""event"",""trial"",""time""
""blur"",""0"",""3391""
""blur"",""2"",""12466""
","""event"",""trial"",""time""
""focus"",""0"",""8475""
""focus"",""2"",""12727""
","""event"",""trial"",""time""
""fullscreenenter"",""0"",""10600""
","
","null","","","","","","","","null","","","","","","","","","","","","","","","","",""
"","do_trial","61","369809","0.0-41.0-3.0","""event"",""trial"",""time""
""blur"",""0"",""3391""
""focus"",""0"",""8475""
""fullscreenenter"",""0"",""10600""
""blur"",""2"",""12466""
""focus"",""2"",""12727""
","""event"",""trial"",""time""
""blur"",""0"",""3391""
""blur"",""2"",""12466""
","""event"",""trial"",""time""
""focus"",""0"",""8475""
""focus"",""2"",""12727""
","""event"",""trial"",""time""
""fullscreenenter"",""0"",""10600""
","
","1371","","","","","","","","50","1,0,0","","","","","","","","","","","","","","","",""
"","html-keyboard-response","62","370818","0.0-42.0-0.0","""event"",""trial"",""time""
""blur"",""0"",""3391""
""focus"",""0"",""8475""
""fullscreenenter"",""0"",""10600""
""blur"",""2"",""12466""
""focus"",""2"",""12727""
","""event"",""trial"",""time""
""blur"",""0"",""3391""
""blur"",""2"",""12466""
","""event"",""trial"",""time""
""focus"",""0"",""8475""
""focus"",""2"",""12727""
","""event"",""trial"",""time""
""fullscreenenter"",""0"",""10600""
","
","null","<p></p>","null","","","","","","","","","","","","","","","","","","","","","","",""
"","do_trial","63","376239","0.0-42.0-1.0","""event"",""trial"",""time""
""blur"",""0"",""3391""
""focus"",""0"",""8475""
""fullscreenenter"",""0"",""10600""
""blur"",""2"",""12466""
""focus"",""2"",""12727""
","""event"",""trial"",""time""
""blur"",""0"",""3391""
""blur"",""2"",""12466""
","""event"",""trial"",""time""
""focus"",""0"",""8475""
""focus"",""2"",""12727""
","""event"",""trial"",""time""
""fullscreenenter"",""0"",""10600""
","
","909.0999999940395","","","","","","","","51","1,0,1","","","","","","","","","","","","","","","",""
"","html-keyboard-response","64","377251","0.0-43.0-0.0","""event"",""trial"",""time""
""blur"",""0"",""3391""
""focus"",""0"",""8475""
""fullscreenenter"",""0"",""10600""
""blur"",""2"",""12466""
""focus"",""2"",""12727""
","""event"",""trial"",""time""
""blur"",""0"",""3391""
""blur"",""2"",""12466""
","""event"",""trial"",""time""
""focus"",""0"",""8475""
""focus"",""2"",""12727""
","""event"",""trial"",""time""
""fullscreenenter"",""0"",""10600""
","
","null","<p></p>","null","","","","","","","","","","","","","","","","","","","","","","",""
"","do_trial","65","382236","0.0-43.0-1.0","""event"",""trial"",""time""
""blur"",""0"",""3391""
""focus"",""0"",""8475""
""fullscreenenter"",""0"",""10600""
""blur"",""2"",""12466""
""focus"",""2"",""12727""
","""event"",""trial"",""time""
""blur"",""0"",""3391""
""blur"",""2"",""12466""
","""event"",""trial"",""time""
""focus"",""0"",""8475""
""focus"",""2"",""12727""
","""event"",""trial"",""time""
""fullscreenenter"",""0"",""10600""
","
","473.7000000178814","","","","","","","","49","1,1,0","","","","","","","","","","","","","","","",""
"","html-keyboard-response","66","383253","0.0-44.0-0.0","""event"",""trial"",""time""
""blur"",""0"",""3391""
""focus"",""0"",""8475""
""fullscreenenter"",""0"",""10600""
""blur"",""2"",""12466""
""focus"",""2"",""12727""
","""event"",""trial"",""time""
""blur"",""0"",""3391""
""blur"",""2"",""12466""
","""event"",""trial"",""time""
""focus"",""0"",""8475""
""focus"",""2"",""12727""
","""event"",""trial"",""time""
""fullscreenenter"",""0"",""10600""
","
","null","<p></p>","null","","","","","","","","","","","","","","","","","","","","","","",""
"","do_trial","67","388657","0.0-44.0-1.0","""event"",""trial"",""time""
""blur"",""0"",""3391""
""focus"",""0"",""8475""
""fullscreenenter"",""0"",""10600""
""blur"",""2"",""12466""
""focus"",""2"",""12727""
","""event"",""trial"",""time""
""blur"",""0"",""3391""
""blur"",""2"",""12466""
","""event"",""trial"",""time""
""focus"",""0"",""8475""
""focus"",""2"",""12727""
","""event"",""trial"",""time""
""fullscreenenter"",""0"",""10600""
","
","891.1999999880791","","","","","","","","50","0,0,1","","","","","","","","","","","","","","","",""
"","html-keyboard-response","68","389674","0.0-45.0-0.0","""event"",""trial"",""time""
""blur"",""0"",""3391""
""focus"",""0"",""8475""
""fullscreenenter"",""0"",""10600""
""blur"",""2"",""12466""
""focus"",""2"",""12727""
","""event"",""trial"",""time""
""blur"",""0"",""3391""
""blur"",""2"",""12466""
","""event"",""trial"",""time""
""focus"",""0"",""8475""
""focus"",""2"",""12727""
","""event"",""trial"",""time""
""fullscreenenter"",""0"",""10600""
","
","null","<p></p>","null","","","","","","","","","","","","","","","","","","","","","","",""
"","do_trial","69","395011","0.0-45.0-1.0","""event"",""trial"",""time""
""blur"",""0"",""3391""
""focus"",""0"",""8475""
""fullscreenenter"",""0"",""10600""
""blur"",""2"",""12466""
""focus"",""2"",""12727""
","""event"",""trial"",""time""
""blur"",""0"",""3391""
""blur"",""2"",""12466""
","""event"",""trial"",""time""
""focus"",""0"",""8475""
""focus"",""2"",""12727""
","""event"",""trial"",""time""
""fullscreenenter"",""0"",""10600""
","
","810.1999999880791","","","","","","","","50","1,0,1","","","","","","","","","","","","","","","",""
"","html-keyboard-response","70","400042","0.0-46.0-0.0","""event"",""trial"",""time""
""blur"",""0"",""3391""
""focus"",""0"",""8475""
""fullscreenenter"",""0"",""10600""
""blur"",""2"",""12466""
""focus"",""2"",""12727""
","""event"",""trial"",""time""
""blur"",""0"",""3391""
""blur"",""2"",""12466""
","""event"",""trial"",""time""
""focus"",""0"",""8475""
""focus"",""2"",""12727""
","""event"",""trial"",""time""
""fullscreenenter"",""0"",""10600""
","
","5027.700000017881","<div class='center'><p><img src='run_exp/static/images/tutorial/prac_best_pirate.png'  height='500'></p></div>","50","","","","","","","","","","","","","","","","","","","","","","",""
"","html-keyboard-response","71","401363","0.0-47.0-0.0","""event"",""trial"",""time""
""blur"",""0"",""3391""
""focus"",""0"",""8475""
""fullscreenenter"",""0"",""10600""
""blur"",""2"",""12466""
""focus"",""2"",""12727""
","""event"",""trial"",""time""
""blur"",""0"",""3391""
""blur"",""2"",""12466""
","""event"",""trial"",""time""
""focus"",""0"",""8475""
""focus"",""2"",""12727""
","""event"",""trial"",""time""
""fullscreenenter"",""0"",""10600""
","
","1319.5999999940395","<div class='center'><p>That's incorrect! Red beard was the best.</p><p><b>[Press the space bar to continue]</b></p></div>","32","","","","","","","","","","","","","","","","","","","","","","",""
"","html-keyboard-response","72","404112","0.0-47.0-1.0","""event"",""trial"",""time""
""blur"",""0"",""3391""
""focus"",""0"",""8475""
""fullscreenenter"",""0"",""10600""
""blur"",""2"",""12466""
""focus"",""2"",""12727""
","""event"",""trial"",""time""
""blur"",""0"",""3391""
""blur"",""2"",""12466""
","""event"",""trial"",""time""
""focus"",""0"",""8475""
""focus"",""2"",""12727""
","""event"",""trial"",""time""
""fullscreenenter"",""0"",""10600""
","
","2746.800000011921","<div class='center'><p><img src='run_exp/static/images/tutorial/prac_source.png'  height='500'></p></div>","50","","","","","","","","","","","","","","","","","","","","","","",""
"","html-keyboard-response","73","404982","0.0-48.0-0.0","""event"",""trial"",""time""
""blur"",""0"",""3391""
""focus"",""0"",""8475""
""fullscreenenter"",""0"",""10600""
""blur"",""2"",""12466""
""focus"",""2"",""12727""
","""event"",""trial"",""time""
""blur"",""0"",""3391""
""blur"",""2"",""12466""
","""event"",""trial"",""time""
""focus"",""0"",""8475""
""focus"",""2"",""12727""
","""event"",""trial"",""time""
""fullscreenenter"",""0"",""10600""
","
","868.8000000119209","<div class='center'><p>That's correct! You saw this ship on the cavern island.</p><p><b>[Press the space bar to continue]</b></p></div>","32","","","","","","","","","","","","","","","","","","","","","","",""
"","quiz_beginning","74","416532","0.0-48.0-1.0","""event"",""trial"",""time""
""blur"",""0"",""3391""
""focus"",""0"",""8475""
""fullscreenenter"",""0"",""10600""
""blur"",""2"",""12466""
""focus"",""2"",""12727""
","""event"",""trial"",""time""
""blur"",""0"",""3391""
""blur"",""2"",""12466""
","""event"",""trial"",""time""
""focus"",""0"",""8475""
""focus"",""2"",""12727""
","""event"",""trial"",""time""
""fullscreenenter"",""0"",""10600""
","
","null","run_exp/static/audio/clip_16_quiz_intro.m4a","null","","","","","<div class='center'><p>Good job on the practice game! Now, you will be asked some true or false questions to make sure you really understand the rules of the game.</p><p> Press <b>'1'</b> on the keyboard for true and press <b>'2'</b> for false.</p></div>","","","","","","","","","","","","","","","","","",""
"","audio-keyboard-response","75","425193","0.0-48.0-2.0","""event"",""trial"",""time""
""blur"",""0"",""3391""
""focus"",""0"",""8475""
""fullscreenenter"",""0"",""10600""
""blur"",""2"",""12466""
""focus"",""2"",""12727""
","""event"",""trial"",""time""
""blur"",""0"",""3391""
""blur"",""2"",""12466""
","""event"",""trial"",""time""
""focus"",""0"",""8475""
""focus"",""2"",""12727""
","""event"",""trial"",""time""
""fullscreenenter"",""0"",""10600""
","
","8658.199999988079","run_exp/static/audio/clip_17_q1.m4a","49","","","","","","","","","","","","","","","","","","","","","","",""
"","correct","76","427637","0.0-49.0-0.0","""event"",""trial"",""time""
""blur"",""0"",""3391""
""focus"",""0"",""8475""
""fullscreenenter"",""0"",""10600""
""blur"",""2"",""12466""
""focus"",""2"",""12727""
","""event"",""trial"",""time""
""blur"",""0"",""3391""
""blur"",""2"",""12466""
","""event"",""trial"",""time""
""focus"",""0"",""8475""
""focus"",""2"",""12727""
","""event"",""trial"",""time""
""fullscreenenter"",""0"",""10600""
","
","null","run_exp/static/audio/clip_18_correct.m4a","null","","","","","<div class='center'><p>That's correct!</p></div>","","","","","","","","","","","","","","","","","",""
"","html-keyboard-response","77","428381","0.0-49.0-1.0","""event"",""trial"",""time""
""blur"",""0"",""3391""
""focus"",""0"",""8475""
""fullscreenenter"",""0"",""10600""
""blur"",""2"",""12466""
""focus"",""2"",""12727""
","""event"",""trial"",""time""
""blur"",""0"",""3391""
""blur"",""2"",""12466""
","""event"",""trial"",""time""
""focus"",""0"",""8475""
""focus"",""2"",""12727""
","""event"",""trial"",""time""
""fullscreenenter"",""0"",""10600""
","
","742.6999999880791","<div class='center'><p>That's correct!</p><p><b>[Press the space bar to continue]</b></p></div>","32","","","","","","","","","","","","","","","","","","","","","","",""
"","audio-keyboard-response","78","431090","0.0-49.0-2.0","""event"",""trial"",""time""
""blur"",""0"",""3391""
""focus"",""0"",""8475""
""fullscreenenter"",""0"",""10600""
""blur"",""2"",""12466""
""focus"",""2"",""12727""
","""event"",""trial"",""time""
""blur"",""0"",""3391""
""blur"",""2"",""12466""
","""event"",""trial"",""time""
""focus"",""0"",""8475""
""focus"",""2"",""12727""
","""event"",""trial"",""time""
""fullscreenenter"",""0"",""10600""
","
","2707.9000000059605","run_exp/static/audio/clip_20_q2.m4a","50","","","","","","","","","","","","","","","","","","","","","","",""
"","correct","79","433472","0.0-50.0-0.0","""event"",""trial"",""time""
""blur"",""0"",""3391""
""focus"",""0"",""8475""
""fullscreenenter"",""0"",""10600""
""blur"",""2"",""12466""
""focus"",""2"",""12727""
","""event"",""trial"",""time""
""blur"",""0"",""3391""
""blur"",""2"",""12466""
","""event"",""trial"",""time""
""focus"",""0"",""8475""
""focus"",""2"",""12727""
","""event"",""trial"",""time""
""fullscreenenter"",""0"",""10600""
","
","null","run_exp/static/audio/clip_18_correct.m4a","null","","","","","<div class='center'><p>That's correct!</p></div>","","","","","","","","","","","","","","","","","",""
"","html-keyboard-response","80","433960","0.0-50.0-1.0","""event"",""trial"",""time""
""blur"",""0"",""3391""
""focus"",""0"",""8475""
""fullscreenenter"",""0"",""10600""
""blur"",""2"",""12466""
""focus"",""2"",""12727""
","""event"",""trial"",""time""
""blur"",""0"",""3391""
""blur"",""2"",""12466""
","""event"",""trial"",""time""
""focus"",""0"",""8475""
""focus"",""2"",""12727""
","""event"",""trial"",""time""
""fullscreenenter"",""0"",""10600""
","
","487","<div class='center'><p>That's correct!</p><p><b>[Press the space bar to continue]</b></p></div>","32","","","","","","","","","","","","","","","","","","","","","","",""
"","audio-keyboard-response","81","436882","0.0-50.0-2.0","""event"",""trial"",""time""
""blur"",""0"",""3391""
""focus"",""0"",""8475""
""fullscreenenter"",""0"",""10600""
""blur"",""2"",""12466""
""focus"",""2"",""12727""
","""event"",""trial"",""time""
""blur"",""0"",""3391""
""blur"",""2"",""12466""
","""event"",""trial"",""time""
""focus"",""0"",""8475""
""focus"",""2"",""12727""
","""event"",""trial"",""time""
""fullscreenenter"",""0"",""10600""
","
","2920.699999988079","run_exp/static/audio/clip_22_q3.m4a","50","","","","","","","","","","","","","","","","","","","","","","",""
"","correct","82","439272","0.0-51.0-0.0","""event"",""trial"",""time""
""blur"",""0"",""3391""
""focus"",""0"",""8475""
""fullscreenenter"",""0"",""10600""
""blur"",""2"",""12466""
""focus"",""2"",""12727""
","""event"",""trial"",""time""
""blur"",""0"",""3391""
""blur"",""2"",""12466""
","""event"",""trial"",""time""
""focus"",""0"",""8475""
""focus"",""2"",""12727""
","""event"",""trial"",""time""
""fullscreenenter"",""0"",""10600""
","
","null","run_exp/static/audio/clip_18_correct.m4a","null","","","","","<div class='center'><p>That's correct!</p></div>","","","","","","","","","","","","","","","","","",""
"","html-keyboard-response","83","440130","0.0-51.0-1.0","""event"",""trial"",""time""
""blur"",""0"",""3391""
""focus"",""0"",""8475""
""fullscreenenter"",""0"",""10600""
""blur"",""2"",""12466""
""focus"",""2"",""12727""
","""event"",""trial"",""time""
""blur"",""0"",""3391""
""blur"",""2"",""12466""
","""event"",""trial"",""time""
""focus"",""0"",""8475""
""focus"",""2"",""12727""
","""event"",""trial"",""time""
""fullscreenenter"",""0"",""10600""
","
","856.9000000059605","<div class='center'><p>That's correct!</p><p><b>[Press the space bar to continue]</b></p></div>","32","","","","","","","","","","","","","","","","","","","","","","",""
"","audio-keyboard-response","84","442200","0.0-51.0-2.0","""event"",""trial"",""time""
""blur"",""0"",""3391""
""focus"",""0"",""8475""
""fullscreenenter"",""0"",""10600""
""blur"",""2"",""12466""
""focus"",""2"",""12727""
","""event"",""trial"",""time""
""blur"",""0"",""3391""
""blur"",""2"",""12466""
","""event"",""trial"",""time""
""focus"",""0"",""8475""
""focus"",""2"",""12727""
","""event"",""trial"",""time""
""fullscreenenter"",""0"",""10600""
","
","2069.2000000178814","run_exp/static/audio/clip_24_q4.m4a","49","","","","","","","","","","","","","","","","","","","","","","",""
"","correct","85","444611","0.0-52.0-0.0","""event"",""trial"",""time""
""blur"",""0"",""3391""
""focus"",""0"",""8475""
""fullscreenenter"",""0"",""10600""
""blur"",""2"",""12466""
""focus"",""2"",""12727""
","""event"",""trial"",""time""
""blur"",""0"",""3391""
""blur"",""2"",""12466""
","""event"",""trial"",""time""
""focus"",""0"",""8475""
""focus"",""2"",""12727""
","""event"",""trial"",""time""
""fullscreenenter"",""0"",""10600""
","
","null","run_exp/static/audio/clip_18_correct.m4a","null","","","","","<div class='center'><p>That's correct!</p></div>","","","","","","","","","","","","","","","","","",""
"","html-keyboard-response","86","447550","0.0-52.0-1.0","""event"",""trial"",""time""
""blur"",""0"",""3391""
""focus"",""0"",""8475""
""fullscreenenter"",""0"",""10600""
""blur"",""2"",""12466""
""focus"",""2"",""12727""
","""event"",""trial"",""time""
""blur"",""0"",""3391""
""blur"",""2"",""12466""
","""event"",""trial"",""time""
""focus"",""0"",""8475""
""focus"",""2"",""12727""
","""event"",""trial"",""time""
""fullscreenenter"",""0"",""10600""
","
","2938.5999999940395","<div class='center'><p>That's correct!</p><p><b>[Press the space bar to continue]</b></p></div>","32","","","","","","","","","","","","","","","","","","","","","","",""
"","q_all_corr","87","456032","0.0-53.0-0.0","""event"",""trial"",""time""
""blur"",""0"",""3391""
""focus"",""0"",""8475""
""fullscreenenter"",""0"",""10600""
""blur"",""2"",""12466""
""focus"",""2"",""12727""
","""event"",""trial"",""time""
""blur"",""0"",""3391""
""blur"",""2"",""12466""
","""event"",""trial"",""time""
""focus"",""0"",""8475""
""focus"",""2"",""12727""
","""event"",""trial"",""time""
""fullscreenenter"",""0"",""10600""
","
","null","run_exp/static/audio/clip_27_quiz_all_correct.m4a","null","","","","","<div class='center'><p>Good job! You’re now ready to move on to the real game! Remember this game will be difficult but don't get discouraged and try your best!</p></div>","","","","","","","","","","","","","","","","","",""
"","html-keyboard-response","88","460413","0.0-53.0-1.0","""event"",""trial"",""time""
""blur"",""0"",""3391""
""focus"",""0"",""8475""
""fullscreenenter"",""0"",""10600""
""blur"",""2"",""12466""
""focus"",""2"",""12727""
","""event"",""trial"",""time""
""blur"",""0"",""3391""
""blur"",""2"",""12466""
","""event"",""trial"",""time""
""focus"",""0"",""8475""
""focus"",""2"",""12727""
","""event"",""trial"",""time""
""fullscreenenter"",""0"",""10600""
","
","4378.700000017881","<div class='center'><p>Good job! You’re now ready to move on to the real game! Remember this game will be difficult but don't get discouraged and try your best!</p><p><b>[Press the space bar to continue]</b></p></div>","32","","","","","","","","","","","","","","","","","","","","","","",""
"","do_welcome","89","464430","0.0-54.0-0.0","""event"",""trial"",""time""
""blur"",""0"",""3391""
""focus"",""0"",""8475""
""fullscreenenter"",""0"",""10600""
""blur"",""2"",""12466""
""focus"",""2"",""12727""
","""event"",""trial"",""time""
""blur"",""0"",""3391""
""blur"",""2"",""12466""
","""event"",""trial"",""time""
""focus"",""0"",""8475""
""focus"",""2"",""12727""
","""event"",""trial"",""time""
""fullscreenenter"",""0"",""10600""
","
","null","","","","","","","","null","","","","","","","","","","","","","","","","",""
"","do_trial","90","471619","0.0-55.0-0.0","""event"",""trial"",""time""
""blur"",""0"",""3391""
""focus"",""0"",""8475""
""fullscreenenter"",""0"",""10600""
""blur"",""2"",""12466""
""focus"",""2"",""12727""
","""event"",""trial"",""time""
""blur"",""0"",""3391""
""blur"",""2"",""12466""
","""event"",""trial"",""time""
""focus"",""0"",""8475""
""focus"",""2"",""12727""
","""event"",""trial"",""time""
""fullscreenenter"",""0"",""10600""
","
","2605.5","","","","","","","","50","0,0,0","0","coast","0","probe-128","0.6","0.3","0.1","0","","","","","","","",""
"","html-keyboard-response","91","472631","0.0-55.0-1.0","""event"",""trial"",""time""
""blur"",""0"",""3391""
""focus"",""0"",""8475""
""fullscreenenter"",""0"",""10600""
""blur"",""2"",""12466""
""focus"",""2"",""12727""
","""event"",""trial"",""time""
""blur"",""0"",""3391""
""blur"",""2"",""12466""
","""event"",""trial"",""time""
""focus"",""0"",""8475""
""focus"",""2"",""12727""
","""event"",""trial"",""time""
""fullscreenenter"",""0"",""10600""
","
","null","<p></p>","null","","","","","","","","","","","","","","","","","","","","","","",""
"","do_trial","92","477417","0.0-56.0-0.0","""event"",""trial"",""time""
""blur"",""0"",""3391""
""focus"",""0"",""8475""
""fullscreenenter"",""0"",""10600""
""blur"",""2"",""12466""
""focus"",""2"",""12727""
","""event"",""trial"",""time""
""blur"",""0"",""3391""
""blur"",""2"",""12466""
","""event"",""trial"",""time""
""focus"",""0"",""8475""
""focus"",""2"",""12727""
","""event"",""trial"",""time""
""fullscreenenter"",""0"",""10600""
","
","251.5","","","","","","","","49","1,1,0","0","coast","1","probe-17","0.6302426951618696","0.2633573432393717","0.1417346983007976","1","","","","","","","",""
"","html-keyboard-response","93","478426","0.0-56.0-1.0","""event"",""trial"",""time""
""blur"",""0"",""3391""
""focus"",""0"",""8475""
""fullscreenenter"",""0"",""10600""
""blur"",""2"",""12466""
""focus"",""2"",""12727""
","""event"",""trial"",""time""
""blur"",""0"",""3391""
""blur"",""2"",""12466""
","""event"",""trial"",""time""
""focus"",""0"",""8475""
""focus"",""2"",""12727""
","""event"",""trial"",""time""
""fullscreenenter"",""0"",""10600""
","
","null","<p></p>","null","","","","","","","","","","","","","","","","","","","","","","",""
"","do_trial","94","484189","0.0-57.0-0.0","""event"",""trial"",""time""
""blur"",""0"",""3391""
""focus"",""0"",""8475""
""fullscreenenter"",""0"",""10600""
""blur"",""2"",""12466""
""focus"",""2"",""12727""
","""event"",""trial"",""time""
""blur"",""0"",""3391""
""blur"",""2"",""12466""
","""event"",""trial"",""time""
""focus"",""0"",""8475""
""focus"",""2"",""12727""
","""event"",""trial"",""time""
""fullscreenenter"",""0"",""10600""
","
","1174.699999988079","","","","","","","","51","0,1,0","0","coast","2","probe-84","0.5781137071244595","0.21968956963288042","0.1088911393803407","0","","","","","","","",""
"","html-keyboard-response","95","485199","0.0-57.0-1.0","""event"",""trial"",""time""
""blur"",""0"",""3391""
""focus"",""0"",""8475""
""fullscreenenter"",""0"",""10600""
""blur"",""2"",""12466""
""focus"",""2"",""12727""
","""event"",""trial"",""time""
""blur"",""0"",""3391""
""blur"",""2"",""12466""
","""event"",""trial"",""time""
""focus"",""0"",""8475""
""focus"",""2"",""12727""
","""event"",""trial"",""time""
""fullscreenenter"",""0"",""10600""
","
","null","<p></p>","null","","","","","","","","","","","","","","","","","","","","","","",""
"","do_trial","96","490081","0.0-58.0-0.0","""event"",""trial"",""time""
""blur"",""0"",""3391""
""focus"",""0"",""8475""
""fullscreenenter"",""0"",""10600""
""blur"",""2"",""12466""
""focus"",""2"",""12727""
","""event"",""trial"",""time""
""blur"",""0"",""3391""
""blur"",""2"",""12466""
","""event"",""trial"",""time""
""focus"",""0"",""8475""
""focus"",""2"",""12727""
","""event"",""trial"",""time""
""fullscreenenter"",""0"",""10600""
","
","316.7000000178814","","","","","","","","51","0,0,0","0","coast","3","probe-114","0.557978887453545","0.3267001149911231","0.11148359536318751","0","","","","","","","",""
"","html-keyboard-response","97","491093","0.0-58.0-1.0","""event"",""trial"",""time""
""blur"",""0"",""3391""
""focus"",""0"",""8475""
""fullscreenenter"",""0"",""10600""
""blur"",""2"",""12466""
""focus"",""2"",""12727""
","""event"",""trial"",""time""
""blur"",""0"",""3391""
""blur"",""2"",""12466""
","""event"",""trial"",""time""
""focus"",""0"",""8475""
""focus"",""2"",""12727""
","""event"",""trial"",""time""
""fullscreenenter"",""0"",""10600""
","
","null","<p></p>","null","","","","","","","","","","","","","","","","","","","","","","",""
"","do_trial","98","495694","0.0-59.0-0.0","""event"",""trial"",""time""
""blur"",""0"",""3391""
""focus"",""0"",""8475""
""fullscreenenter"",""0"",""10600""
""blur"",""2"",""12466""
""focus"",""2"",""12727""
","""event"",""trial"",""time""
""blur"",""0"",""3391""
""blur"",""2"",""12466""
","""event"",""trial"",""time""
""focus"",""0"",""8475""
""focus"",""2"",""12727""
","""event"",""trial"",""time""
""fullscreenenter"",""0"",""10600""
","
","22.69999998807907","","","","","","","","49","0,1,0","0","coast","4","probe-89","0.6488100956581448","0.3524078805873176","0.1520665574147375","0","","","","","","","",""
"","html-keyboard-response","99","496711","0.0-59.0-1.0","""event"",""trial"",""time""
""blur"",""0"",""3391""
""focus"",""0"",""8475""
""fullscreenenter"",""0"",""10600""
""blur"",""2"",""12466""
""focus"",""2"",""12727""
","""event"",""trial"",""time""
""blur"",""0"",""3391""
""blur"",""2"",""12466""
","""event"",""trial"",""time""
""focus"",""0"",""8475""
""focus"",""2"",""12727""
","""event"",""trial"",""time""
""fullscreenenter"",""0"",""10600""
","
","null","<p></p>","null","","","","","","","","","","","","","","","","","","","","","","",""
"","do_trial","100","501348","0.0-60.0-0.0","""event"",""trial"",""time""
""blur"",""0"",""3391""
""focus"",""0"",""8475""
""fullscreenenter"",""0"",""10600""
""blur"",""2"",""12466""
""focus"",""2"",""12727""
","""event"",""trial"",""time""
""blur"",""0"",""3391""
""blur"",""2"",""12466""
","""event"",""trial"",""time""
""focus"",""0"",""8475""
""focus"",""2"",""12727""
","""event"",""trial"",""time""
""fullscreenenter"",""0"",""10600""
","
","53.19999998807907","","","","","","","","50","1,0,0","0","coast","5","probe-144","0.5917514910457521","0.548086826183547","0.17280946468218447","0","","","","","","","",""
"","html-keyboard-response","101","502356","0.0-60.0-1.0","""event"",""trial"",""time""
""blur"",""0"",""3391""
""focus"",""0"",""8475""
""fullscreenenter"",""0"",""10600""
""blur"",""2"",""12466""
""focus"",""2"",""12727""
","""event"",""trial"",""time""
""blur"",""0"",""3391""
""blur"",""2"",""12466""
","""event"",""trial"",""time""
""focus"",""0"",""8475""
""focus"",""2"",""12727""
","""event"",""trial"",""time""
""fullscreenenter"",""0"",""10600""
","
","null","<p></p>","null","","","","","","","","","","","","","","","","","","","","","","",""
"","do_trial","102","506935","0.0-61.0-0.0","""event"",""trial"",""time""
""blur"",""0"",""3391""
""focus"",""0"",""8475""
""fullscreenenter"",""0"",""10600""
""blur"",""2"",""12466""
""focus"",""2"",""12727""
","""event"",""trial"",""time""
""blur"",""0"",""3391""
""blur"",""2"",""12466""
","""event"",""trial"",""time""
""focus"",""0"",""8475""
""focus"",""2"",""12727""
","""event"",""trial"",""time""
""fullscreenenter"",""0"",""10600""
","
","0.19999998807907104","","","","","","","","49","1,1,0","0","coast","6","probe-181","0.6299192836039801","0.3306672032505968","0.09586827002976366","1","","","","","","","",""
"","html-keyboard-response","103","507953","0.0-61.0-1.0","""event"",""trial"",""time""
""blur"",""0"",""3391""
""focus"",""0"",""8475""
""fullscreenenter"",""0"",""10600""
""blur"",""2"",""12466""
""focus"",""2"",""12727""
","""event"",""trial"",""time""
""blur"",""0"",""3391""
""blur"",""2"",""12466""
","""event"",""trial"",""time""
""focus"",""0"",""8475""
""focus"",""2"",""12727""
","""event"",""trial"",""time""
""fullscreenenter"",""0"",""10600""
","
","null","<p></p>","null","","","","","","","","","","","","","","","","","","","","","","",""
"","do_trial","104","513481","0.0-62.0-0.0","""event"",""trial"",""time""
""blur"",""0"",""3391""
""focus"",""0"",""8475""
""fullscreenenter"",""0"",""10600""
""blur"",""2"",""12466""
""focus"",""2"",""12727""
","""event"",""trial"",""time""
""blur"",""0"",""3391""
""blur"",""2"",""12466""
","""event"",""trial"",""time""
""focus"",""0"",""8475""
""focus"",""2"",""12727""
","""event"",""trial"",""time""
""fullscreenenter"",""0"",""10600""
","
","944.1999999880791","","","","","","","","49","1,0,0","0","coast","7","probe-51","0.5561348980590551","0.34540869350921055","0.08687022929556719","1","","","","","","","",""
"","html-keyboard-response","105","514492","0.0-62.0-1.0","""event"",""trial"",""time""
""blur"",""0"",""3391""
""focus"",""0"",""8475""
""fullscreenenter"",""0"",""10600""
""blur"",""2"",""12466""
""focus"",""2"",""12727""
","""event"",""trial"",""time""
""blur"",""0"",""3391""
""blur"",""2"",""12466""
","""event"",""trial"",""time""
""focus"",""0"",""8475""
""focus"",""2"",""12727""
","""event"",""trial"",""time""
""fullscreenenter"",""0"",""10600""
","
","null","<p></p>","null","","","","","","","","","","","","","","","","","","","","","","",""
"","do_trial","106","519466","0.0-63.0-0.0","""event"",""trial"",""time""
""blur"",""0"",""3391""
""focus"",""0"",""8475""
""fullscreenenter"",""0"",""10600""
""blur"",""2"",""12466""
""focus"",""2"",""12727""
","""event"",""trial"",""time""
""blur"",""0"",""3391""
""blur"",""2"",""12466""
","""event"",""trial"",""time""
""focus"",""0"",""8475""
""focus"",""2"",""12727""
","""event"",""trial"",""time""
""fullscreenenter"",""0"",""10600""
","
","392.90000000596046","","","","","","","","51","1,0,0","0","coast","8","probe-187","0.42788671919453203","0.3963640882797496","0.12035728809677626","0","","","","","","","",""
"","html-keyboard-response","107","520477","0.0-63.0-1.0","""event"",""trial"",""time""
""blur"",""0"",""3391""
""focus"",""0"",""8475""
""fullscreenenter"",""0"",""10600""
""blur"",""2"",""12466""
""focus"",""2"",""12727""
","""event"",""trial"",""time""
""blur"",""0"",""3391""
""blur"",""2"",""12466""
","""event"",""trial"",""time""
""focus"",""0"",""8475""
""focus"",""2"",""12727""
","""event"",""trial"",""time""
""fullscreenenter"",""0"",""10600""
","
","null","<p></p>","null","","","","","","","","","","","","","","","","","","","","","","",""
"","do_trial","108","525348","0.0-64.0-0.0","""event"",""trial"",""time""
""blur"",""0"",""3391""
""focus"",""0"",""8475""
""fullscreenenter"",""0"",""10600""
""blur"",""2"",""12466""
""focus"",""2"",""12727""
","""event"",""trial"",""time""
""blur"",""0"",""3391""
""blur"",""2"",""12466""
","""event"",""trial"",""time""
""focus"",""0"",""8475""
""focus"",""2"",""12727""
","""event"",""trial"",""time""
""fullscreenenter"",""0"",""10600""
","
","286.60000002384186","","","","","","","","49","0,0,1","0","coast","9","probe-216","0.5287817207458584","0.4008920659310886","0.10652384251471729","0","","","","","","","",""
"","html-keyboard-response","109","526365","0.0-64.0-1.0","""event"",""trial"",""time""
""blur"",""0"",""3391""
""focus"",""0"",""8475""
""fullscreenenter"",""0"",""10600""
""blur"",""2"",""12466""
""focus"",""2"",""12727""
","""event"",""trial"",""time""
""blur"",""0"",""3391""
""blur"",""2"",""12466""
","""event"",""trial"",""time""
""focus"",""0"",""8475""
""focus"",""2"",""12727""
","""event"",""trial"",""time""
""fullscreenenter"",""0"",""10600""
","
","null","<p></p>","null","","","","","","","","","","","","","","","","","","","","","","",""
"","do_trial","110","531527","0.0-65.0-0.0","""event"",""trial"",""time""
""blur"",""0"",""3391""
""focus"",""0"",""8475""
""fullscreenenter"",""0"",""10600""
""blur"",""2"",""12466""
""focus"",""2"",""12727""
","""event"",""trial"",""time""
""blur"",""0"",""3391""
""blur"",""2"",""12466""
","""event"",""trial"",""time""
""focus"",""0"",""8475""
""focus"",""2"",""12727""
","""event"",""trial"",""time""
""fullscreenenter"",""0"",""10600""
","
","582.4000000059605","","","","","","","","50","0,1,0","0","coast","10","probe-205","0.42210356410243843","0.5381224915169386","0.096815281247846","1","","","","","","","",""
"","html-keyboard-response","111","532536","0.0-65.0-1.0","""event"",""trial"",""time""
""blur"",""0"",""3391""
""focus"",""0"",""8475""
""fullscreenenter"",""0"",""10600""
""blur"",""2"",""12466""
""focus"",""2"",""12727""
","""event"",""trial"",""time""
""blur"",""0"",""3391""
""blur"",""2"",""12466""
","""event"",""trial"",""time""
""focus"",""0"",""8475""
""focus"",""2"",""12727""
","""event"",""trial"",""time""
""fullscreenenter"",""0"",""10600""
","
","null","<p></p>","null","","","","","","","","","","","","","","","","","","","","","","",""
"","do_trial","112","537908","0.0-66.0-0.0","""event"",""trial"",""time""
""blur"",""0"",""3391""
""focus"",""0"",""8475""
""fullscreenenter"",""0"",""10600""
""blur"",""2"",""12466""
""focus"",""2"",""12727""
","""event"",""trial"",""time""
""blur"",""0"",""3391""
""blur"",""2"",""12466""
","""event"",""trial"",""time""
""focus"",""0"",""8475""
""focus"",""2"",""12727""
","""event"",""trial"",""time""
""fullscreenenter"",""0"",""10600""
","
","792","","","","","","","","51","1,0,0","0","coast","11","probe-179","0.514428433271247","0.4150242810323886","0.0861591378069105","0","","","","","","","",""
"","html-keyboard-response","113","538923","0.0-66.0-1.0","""event"",""trial"",""time""
""blur"",""0"",""3391""
""focus"",""0"",""8475""
""fullscreenenter"",""0"",""10600""
""blur"",""2"",""12466""
""focus"",""2"",""12727""
","""event"",""trial"",""time""
""blur"",""0"",""3391""
""blur"",""2"",""12466""
","""event"",""trial"",""time""
""focus"",""0"",""8475""
""focus"",""2"",""12727""
","""event"",""trial"",""time""
""fullscreenenter"",""0"",""10600""
","
","null","<p></p>","null","","","","","","","","","","","","","","","","","","","","","","",""
"","do_trial","114","543596","0.0-67.0-0.0","""event"",""trial"",""time""
""blur"",""0"",""3391""
""focus"",""0"",""8475""
""fullscreenenter"",""0"",""10600""
""blur"",""2"",""12466""
""focus"",""2"",""12727""
","""event"",""trial"",""time""
""blur"",""0"",""3391""
""blur"",""2"",""12466""
","""event"",""trial"",""time""
""focus"",""0"",""8475""
""focus"",""2"",""12727""
","""event"",""trial"",""time""
""fullscreenenter"",""0"",""10600""
","
","92.19999998807907","","","","","","","","50","0,0,0","0","coast","12","probe-119","0.5303644425664422","0.21143400247534797","0.12791961634336232","0","","","","","","","",""
"","html-keyboard-response","115","544611","0.0-67.0-1.0","""event"",""trial"",""time""
""blur"",""0"",""3391""
""focus"",""0"",""8475""
""fullscreenenter"",""0"",""10600""
""blur"",""2"",""12466""
""focus"",""2"",""12727""
","""event"",""trial"",""time""
""blur"",""0"",""3391""
""blur"",""2"",""12466""
","""event"",""trial"",""time""
""focus"",""0"",""8475""
""focus"",""2"",""12727""
","""event"",""trial"",""time""
""fullscreenenter"",""0"",""10600""
","
","null","<p></p>","null","","","","","","","","","","","","","","","","","","","","","","",""
"","do_trial","116","549617","0.0-68.0-0.0","""event"",""trial"",""time""
""blur"",""0"",""3391""
""focus"",""0"",""8475""
""fullscreenenter"",""0"",""10600""
""blur"",""2"",""12466""
""focus"",""2"",""12727""
","""event"",""trial"",""time""
""blur"",""0"",""3391""
""blur"",""2"",""12466""
","""event"",""trial"",""time""
""focus"",""0"",""8475""
""focus"",""2"",""12727""
","""event"",""trial"",""time""
""fullscreenenter"",""0"",""10600""
","
","414","","","","","","","","49","0,0,0","0","coast","13","probe-191","0.5879380929271081","0.27068798367230074","0.05303172897441937","0","","","","","","","",""
"","html-keyboard-response","117","550625","0.0-68.0-1.0","""event"",""trial"",""time""
""blur"",""0"",""3391""
""focus"",""0"",""8475""
""fullscreenenter"",""0"",""10600""
""blur"",""2"",""12466""
""focus"",""2"",""12727""
","""event"",""trial"",""time""
""blur"",""0"",""3391""
""blur"",""2"",""12466""
","""event"",""trial"",""time""
""focus"",""0"",""8475""
""focus"",""2"",""12727""
","""event"",""trial"",""time""
""fullscreenenter"",""0"",""10600""
","
","null","<p></p>","null","","","","","","","","","","","","","","","","","","","","","","",""
"","do_trial","118","555571","0.0-69.0-0.0","""event"",""trial"",""time""
""blur"",""0"",""3391""
""focus"",""0"",""8475""
""fullscreenenter"",""0"",""10600""
""blur"",""2"",""12466""
""focus"",""2"",""12727""
","""event"",""trial"",""time""
""blur"",""0"",""3391""
""blur"",""2"",""12466""
","""event"",""trial"",""time""
""focus"",""0"",""8475""
""focus"",""2"",""12727""
","""event"",""trial"",""time""
""fullscreenenter"",""0"",""10600""
","
","363","","","","","","","","49","1,1,1","0","coast","14","probe-161","0.6679107484538487","0.19687215641094497","0.2916182300998915","1","","","","","","","",""
"","html-keyboard-response","119","556588","0.0-69.0-1.0","""event"",""trial"",""time""
""blur"",""0"",""3391""
""focus"",""0"",""8475""
""fullscreenenter"",""0"",""10600""
""blur"",""2"",""12466""
""focus"",""2"",""12727""
","""event"",""trial"",""time""
""blur"",""0"",""3391""
""blur"",""2"",""12466""
","""event"",""trial"",""time""
""focus"",""0"",""8475""
""focus"",""2"",""12727""
","""event"",""trial"",""time""
""fullscreenenter"",""0"",""10600""
","
","null","<p></p>","null","","","","","","","","","","","","","","","","","","","","","","",""
"","do_trial","120","562559","0.0-70.0-0.0","""event"",""trial"",""time""
""blur"",""0"",""3391""
""focus"",""0"",""8475""
""fullscreenenter"",""0"",""10600""
""blur"",""2"",""12466""
""focus"",""2"",""12727""
","""event"",""trial"",""time""
""blur"",""0"",""3391""
""blur"",""2"",""12466""
","""event"",""trial"",""time""
""focus"",""0"",""8475""
""focus"",""2"",""12727""
","""event"",""trial"",""time""
""fullscreenenter"",""0"",""10600""
","
","1382.5","","","","","","","","50","1,0,0","0","coast","15","probe-162","0.6545570652578948","0.2894974839574727","0.06579759010504976","0","","","","","","","",""
"","html-keyboard-response","121","563576","0.0-70.0-1.0","""event"",""trial"",""time""
""blur"",""0"",""3391""
""focus"",""0"",""8475""
""fullscreenenter"",""0"",""10600""
""blur"",""2"",""12466""
""focus"",""2"",""12727""
","""event"",""trial"",""time""
""blur"",""0"",""3391""
""blur"",""2"",""12466""
","""event"",""trial"",""time""
""focus"",""0"",""8475""
""focus"",""2"",""12727""
","""event"",""trial"",""time""
""fullscreenenter"",""0"",""10600""
","
","null","<p></p>","null","","","","","","","","","","","","","","","","","","","","","","",""
"","do_trial","122","568621","0.0-71.0-0.0","""event"",""trial"",""time""
""blur"",""0"",""3391""
""focus"",""0"",""8475""
""fullscreenenter"",""0"",""10600""
""blur"",""2"",""12466""
""focus"",""2"",""12727""
","""event"",""trial"",""time""
""blur"",""0"",""3391""
""blur"",""2"",""12466""
","""event"",""trial"",""time""
""focus"",""0"",""8475""
""focus"",""2"",""12727""
","""event"",""trial"",""time""
""fullscreenenter"",""0"",""10600""
","
","461.7000000178814","","","","","","","","49","1,1,0","0","coast","16","probe-148","0.7506916050958896","0.391055281395945","0.21409937860471445","1","","","","","","","",""
"","html-keyboard-response","123","569630","0.0-71.0-1.0","""event"",""trial"",""time""
""blur"",""0"",""3391""
""focus"",""0"",""8475""
""fullscreenenter"",""0"",""10600""
""blur"",""2"",""12466""
""focus"",""2"",""12727""
","""event"",""trial"",""time""
""blur"",""0"",""3391""
""blur"",""2"",""12466""
","""event"",""trial"",""time""
""focus"",""0"",""8475""
""focus"",""2"",""12727""
","""event"",""trial"",""time""
""fullscreenenter"",""0"",""10600""
","
","null","<p></p>","null","","","","","","","","","","","","","","","","","","","","","","",""
"","do_trial","124","575768","0.0-72.0-0.0","""event"",""trial"",""time""
""blur"",""0"",""3391""
""focus"",""0"",""8475""
""fullscreenenter"",""0"",""10600""
""blur"",""2"",""12466""
""focus"",""2"",""12727""
","""event"",""trial"",""time""
""blur"",""0"",""3391""
""blur"",""2"",""12466""
","""event"",""trial"",""time""
""focus"",""0"",""8475""
""focus"",""2"",""12727""
","""event"",""trial"",""time""
""fullscreenenter"",""0"",""10600""
","
","1546.300000011921","","","","","","","","51","0,1,0","0","coast","17","probe-101","0.6741434005385915","0.3117033615387127","0.051876897871859756","0","","","","","","","",""
"","html-keyboard-response","125","576785","0.0-72.0-1.0","""event"",""trial"",""time""
""blur"",""0"",""3391""
""focus"",""0"",""8475""
""fullscreenenter"",""0"",""10600""
""blur"",""2"",""12466""
""focus"",""2"",""12727""
","""event"",""trial"",""time""
""blur"",""0"",""3391""
""blur"",""2"",""12466""
","""event"",""trial"",""time""
""focus"",""0"",""8475""
""focus"",""2"",""12727""
","""event"",""trial"",""time""
""fullscreenenter"",""0"",""10600""
","
","null","<p></p>","null","","","","","","","","","","","","","","","","","","","","","","",""
"","do_trial","126","581739","0.0-73.0-0.0","""event"",""trial"",""time""
""blur"",""0"",""3391""
""focus"",""0"",""8475""
""fullscreenenter"",""0"",""10600""
""blur"",""2"",""12466""
""focus"",""2"",""12727""
","""event"",""trial"",""time""
""blur"",""0"",""3391""
""blur"",""2"",""12466""
","""event"",""trial"",""time""
""focus"",""0"",""8475""
""focus"",""2"",""12727""
","""event"",""trial"",""time""
""fullscreenenter"",""0"",""10600""
","
","372.5","","","","","","","","49","1,0,0","0","coast","18","probe-225","0.6510935762654438","0.375827820432205","0.12373052077906603","1","","","","","","","",""
"","html-keyboard-response","127","582756","0.0-73.0-1.0","""event"",""trial"",""time""
""blur"",""0"",""3391""
""focus"",""0"",""8475""
""fullscreenenter"",""0"",""10600""
""blur"",""2"",""12466""
""focus"",""2"",""12727""
","""event"",""trial"",""time""
""blur"",""0"",""3391""
""blur"",""2"",""12466""
","""event"",""trial"",""time""
""focus"",""0"",""8475""
""focus"",""2"",""12727""
","""event"",""trial"",""time""
""fullscreenenter"",""0"",""10600""
","
","null","<p></p>","null","","","","","","","","","","","","","","","","","","","","","","",""
"","do_trial","128","587892","0.0-74.0-0.0","""event"",""trial"",""time""
""blur"",""0"",""3391""
""focus"",""0"",""8475""
""fullscreenenter"",""0"",""10600""
""blur"",""2"",""12466""
""focus"",""2"",""12727""
","""event"",""trial"",""time""
""blur"",""0"",""3391""
""blur"",""2"",""12466""
","""event"",""trial"",""time""
""focus"",""0"",""8475""
""focus"",""2"",""12727""
","""event"",""trial"",""time""
""fullscreenenter"",""0"",""10600""
","
","552.6999999880791","","","","","","","","50","1,1,1","0","coast","19","probe-46","0.4229749748040308","0.3276470157240187","0.07465192754193607","1","","","","","","","",""
"","html-keyboard-response","129","588910","0.0-74.0-1.0","""event"",""trial"",""time""
""blur"",""0"",""3391""
""focus"",""0"",""8475""
""fullscreenenter"",""0"",""10600""
""blur"",""2"",""12466""
""focus"",""2"",""12727""
","""event"",""trial"",""time""
""blur"",""0"",""3391""
""blur"",""2"",""12466""
","""event"",""trial"",""time""
""focus"",""0"",""8475""
""focus"",""2"",""12727""
","""event"",""trial"",""time""
""fullscreenenter"",""0"",""10600""
","
","null","<p></p>","null","","","","","","","","","","","","","","","","","","","","","","",""
"","do_trial","130","594581","0.0-75.0-0.0","""event"",""trial"",""time""
""blur"",""0"",""3391""
""focus"",""0"",""8475""
""fullscreenenter"",""0"",""10600""
""blur"",""2"",""12466""
""focus"",""2"",""12727""
","""event"",""trial"",""time""
""blur"",""0"",""3391""
""blur"",""2"",""12466""
","""event"",""trial"",""time""
""focus"",""0"",""8475""
""focus"",""2"",""12727""
","""event"",""trial"",""time""
""fullscreenenter"",""0"",""10600""
","
","1088.0999999940395","","","","","","","","50","0,0,1","0","coast","20","probe-204","0.48139015465930435","0.22387571052710475","0.11922923438719066","0","","","","","","","",""
"","html-keyboard-response","131","595589","0.0-75.0-1.0","""event"",""trial"",""time""
""blur"",""0"",""3391""
""focus"",""0"",""8475""
""fullscreenenter"",""0"",""10600""
""blur"",""2"",""12466""
""focus"",""2"",""12727""
","""event"",""trial"",""time""
""blur"",""0"",""3391""
""blur"",""2"",""12466""
","""event"",""trial"",""time""
""focus"",""0"",""8475""
""focus"",""2"",""12727""
","""event"",""trial"",""time""
""fullscreenenter"",""0"",""10600""
","
","null","<p></p>","null","","","","","","","","","","","","","","","","","","","","","","",""
"","do_trial","132","600725","0.0-76.0-0.0","""event"",""trial"",""time""
""blur"",""0"",""3391""
""focus"",""0"",""8475""
""fullscreenenter"",""0"",""10600""
""blur"",""2"",""12466""
""focus"",""2"",""12727""
","""event"",""trial"",""time""
""blur"",""0"",""3391""
""blur"",""2"",""12466""
","""event"",""trial"",""time""
""focus"",""0"",""8475""
""focus"",""2"",""12727""
","""event"",""trial"",""time""
""fullscreenenter"",""0"",""10600""
","
","556.9000000059605","","","","","","","","49","0,1,0","0","coast","21","probe-174","0.5057052235369807","0.3706664837979902","0.06303522951492585","0","","","","","","","",""
"","html-keyboard-response","133","601735","0.0-76.0-1.0","""event"",""trial"",""time""
""blur"",""0"",""3391""
""focus"",""0"",""8475""
""fullscreenenter"",""0"",""10600""
""blur"",""2"",""12466""
""focus"",""2"",""12727""
","""event"",""trial"",""time""
""blur"",""0"",""3391""
""blur"",""2"",""12466""
","""event"",""trial"",""time""
""focus"",""0"",""8475""
""focus"",""2"",""12727""
","""event"",""trial"",""time""
""fullscreenenter"",""0"",""10600""
","
","null","<p></p>","null","","","","","","","","","","","","","","","","","","","","","","",""
"","do_trial","134","606371","0.0-77.0-0.0","""event"",""trial"",""time""
""blur"",""0"",""3391""
""focus"",""0"",""8475""
""fullscreenenter"",""0"",""10600""
""blur"",""2"",""12466""
""focus"",""2"",""12727""
","""event"",""trial"",""time""
""blur"",""0"",""3391""
""blur"",""2"",""12466""
","""event"",""trial"",""time""
""focus"",""0"",""8475""
""focus"",""2"",""12727""
","""event"",""trial"",""time""
""fullscreenenter"",""0"",""10600""
","
","56","","","","","","","","51","1,0,0","0","coast","22","probe-34","0.6014869551872541","0.31525166115399667","0.0736279037136302","0","","","","","","","",""
"","html-keyboard-response","135","607389","0.0-77.0-1.0","""event"",""trial"",""time""
""blur"",""0"",""3391""
""focus"",""0"",""8475""
""fullscreenenter"",""0"",""10600""
""blur"",""2"",""12466""
""focus"",""2"",""12727""
","""event"",""trial"",""time""
""blur"",""0"",""3391""
""blur"",""2"",""12466""
","""event"",""trial"",""time""
""focus"",""0"",""8475""
""focus"",""2"",""12727""
","""event"",""trial"",""time""
""fullscreenenter"",""0"",""10600""
","
","null","<p></p>","null","","","","","","","","","","","","","","","","","","","","","","",""
"","do_trial","136","612191","0.0-78.0-0.0","""event"",""trial"",""time""
""blur"",""0"",""3391""
""focus"",""0"",""8475""
""fullscreenenter"",""0"",""10600""
""blur"",""2"",""12466""
""focus"",""2"",""12727""
","""event"",""trial"",""time""
""blur"",""0"",""3391""
""blur"",""2"",""12466""
","""event"",""trial"",""time""
""focus"",""0"",""8475""
""focus"",""2"",""12727""
","""event"",""trial"",""time""
""fullscreenenter"",""0"",""10600""
","
","228.80000001192093","","","","","","","","49","0,0,0","0","coast","23","probe-143","0.39435764298882175","0.2306667076719235","0.16110609013816085","0","","","","","","","",""
"","html-keyboard-response","137","613209","0.0-78.0-1.0","""event"",""trial"",""time""
""blur"",""0"",""3391""
""focus"",""0"",""8475""
""fullscreenenter"",""0"",""10600""
""blur"",""2"",""12466""
""focus"",""2"",""12727""
","""event"",""trial"",""time""
""blur"",""0"",""3391""
""blur"",""2"",""12466""
","""event"",""trial"",""time""
""focus"",""0"",""8475""
""focus"",""2"",""12727""
","""event"",""trial"",""time""
""fullscreenenter"",""0"",""10600""
","
","null","<p></p>","null","","","","","","","","","","","","","","","","","","","","","","",""
"","do_trial","138","618211","0.0-79.0-0.0","""event"",""trial"",""time""
""blur"",""0"",""3391""
""focus"",""0"",""8475""
""fullscreenenter"",""0"",""10600""
""blur"",""2"",""12466""
""focus"",""2"",""12727""
","""event"",""trial"",""time""
""blur"",""0"",""3391""
""blur"",""2"",""12466""
","""event"",""trial"",""time""
""focus"",""0"",""8475""
""focus"",""2"",""12727""
","""event"",""trial"",""time""
""fullscreenenter"",""0"",""10600""
","
","417.19999998807907","","","","","","","","50","1,0,0","0","coast","24","probe-50","0.5407213167051108","0.17675248818098127","0.0710707671926124","0","","","","","","","",""
"","html-keyboard-response","139","619229","0.0-79.0-1.0","""event"",""trial"",""time""
""blur"",""0"",""3391""
""focus"",""0"",""8475""
""fullscreenenter"",""0"",""10600""
""blur"",""2"",""12466""
""focus"",""2"",""12727""
","""event"",""trial"",""time""
""blur"",""0"",""3391""
""blur"",""2"",""12466""
","""event"",""trial"",""time""
""focus"",""0"",""8475""
""focus"",""2"",""12727""
","""event"",""trial"",""time""
""fullscreenenter"",""0"",""10600""
","
","null","<p></p>","null","","","","","","","","","","","","","","","","","","","","","","",""
"","do_trial","140","624357","0.0-80.0-0.0","""event"",""trial"",""time""
""blur"",""0"",""3391""
""focus"",""0"",""8475""
""fullscreenenter"",""0"",""10600""
""blur"",""2"",""12466""
""focus"",""2"",""12727""
","""event"",""trial"",""time""
""blur"",""0"",""3391""
""blur"",""2"",""12466""
","""event"",""trial"",""time""
""focus"",""0"",""8475""
""focus"",""2"",""12727""
","""event"",""trial"",""time""
""fullscreenenter"",""0"",""10600""
","
","548.0999999940395","","","","","","","","49","1,0,0","0","coast","25","probe-154","0.5040196746074282","0.2567156831941411","0.12246132797967427","1","","","","","","","",""
"","html-keyboard-response","141","625367","0.0-80.0-1.0","""event"",""trial"",""time""
""blur"",""0"",""3391""
""focus"",""0"",""8475""
""fullscreenenter"",""0"",""10600""
""blur"",""2"",""12466""
""focus"",""2"",""12727""
","""event"",""trial"",""time""
""blur"",""0"",""3391""
""blur"",""2"",""12466""
","""event"",""trial"",""time""
""focus"",""0"",""8475""
""focus"",""2"",""12727""
","""event"",""trial"",""time""
""fullscreenenter"",""0"",""10600""
","
","null","<p></p>","null","","","","","","","","","","","","","","","","","","","","","","",""
"","do_trial","142","630144","0.0-81.0-0.0","""event"",""trial"",""time""
""blur"",""0"",""3391""
""focus"",""0"",""8475""
""fullscreenenter"",""0"",""10600""
""blur"",""2"",""12466""
""focus"",""2"",""12727""
","""event"",""trial"",""time""
""blur"",""0"",""3391""
""blur"",""2"",""12466""
","""event"",""trial"",""time""
""focus"",""0"",""8475""
""focus"",""2"",""12727""
","""event"",""trial"",""time""
""fullscreenenter"",""0"",""10600""
","
","199.30000001192093","","","","","","","","49","0,0,1","0","coast","26","probe-28","0.5219254376423915","0.23142007058194713","0.23751051894486894","0","","","","","","","",""
"","html-keyboard-response","143","631154","0.0-81.0-1.0","""event"",""trial"",""time""
""blur"",""0"",""3391""
""focus"",""0"",""8475""
""fullscreenenter"",""0"",""10600""
""blur"",""2"",""12466""
""focus"",""2"",""12727""
","""event"",""trial"",""time""
""blur"",""0"",""3391""
""blur"",""2"",""12466""
","""event"",""trial"",""time""
""focus"",""0"",""8475""
""focus"",""2"",""12727""
","""event"",""trial"",""time""
""fullscreenenter"",""0"",""10600""
","
","null","<p></p>","null","","","","","","","","","","","","","","","","","","","","","","",""
"","do_trial","144","635791","0.0-82.0-0.0","""event"",""trial"",""time""
""blur"",""0"",""3391""
""focus"",""0"",""8475""
""fullscreenenter"",""0"",""10600""
""blur"",""2"",""12466""
""focus"",""2"",""12727""
","""event"",""trial"",""time""
""blur"",""0"",""3391""
""blur"",""2"",""12466""
","""event"",""trial"",""time""
""focus"",""0"",""8475""
""focus"",""2"",""12727""
","""event"",""trial"",""time""
""fullscreenenter"",""0"",""10600""
","
","53.20000001788139","","","","","","","","49","1,1,0","0","coast","27","probe-212","0.520039486214688","0.3423403256406908","0.25424649801157395","1","","","","","","","",""
"","html-keyboard-response","145","636799","0.0-82.0-1.0","""event"",""trial"",""time""
""blur"",""0"",""3391""
""focus"",""0"",""8475""
""fullscreenenter"",""0"",""10600""
""blur"",""2"",""12466""
""focus"",""2"",""12727""
","""event"",""trial"",""time""
""blur"",""0"",""3391""
""blur"",""2"",""12466""
","""event"",""trial"",""time""
""focus"",""0"",""8475""
""focus"",""2"",""12727""
","""event"",""trial"",""time""
""fullscreenenter"",""0"",""10600""
","
","null","<p></p>","null","","","","","","","","","","","","","","","","","","","","","","",""
"","do_trial","146","642895","0.0-83.0-0.0","""event"",""trial"",""time""
""blur"",""0"",""3391""
""focus"",""0"",""8475""
""fullscreenenter"",""0"",""10600""
""blur"",""2"",""12466""
""focus"",""2"",""12727""
","""event"",""trial"",""time""
""blur"",""0"",""3391""
""blur"",""2"",""12466""
","""event"",""trial"",""time""
""focus"",""0"",""8475""
""focus"",""2"",""12727""
","""event"",""trial"",""time""
""fullscreenenter"",""0"",""10600""
","
