"success","trial_type","trial_index","time_elapsed","internal_node_id","interactions","blur_events","focus_events","fullscreenenter_events","fullscreenexit_events","rt","stimulus","key_press","subject_id","participant_id","age","gender","prompt","response","choice_outcomes","context_n","context_img_id","trial_n","probe_img_id","pR_red","pR_white","pR_black","outcome","contextArray_ind","validImageProbes","invalidImageProbes","pRew_Red","pRew_White","pRew_Black","availableForMemProbe","choice_blocks"
"true","fullscreen","0","4918","0.0-0.0","""event"",""trial"",""time""
""fullscreenenter"",""0"",""3934""
","
","
","""event"",""trial"",""time""
""fullscreenenter"",""0"",""3934""
","
","","","","","","","","","","","","","","","","","","","","","","","","","",""
"","pavlovia","1","4921","0.0-1.0","""event"",""trial"",""time""
""fullscreenenter"",""0"",""3934""
","
","
","""event"",""trial"",""time""
""fullscreenenter"",""0"",""3934""
","
","","","","","","","","","","","","","","","","","","","","","","","","","",""
"","instruc1","2","50055","0.0-2.0","""event"",""trial"",""time""
""fullscreenenter"",""0"",""3934""
","
","
","""event"",""trial"",""time""
""fullscreenenter"",""0"",""3934""
","
","null","run_exp/static/audio/clip_1_welcome.m4a","null","362","433","23","Male","<div class='center'><p>Welcome! This is the first part of the study. It will last ~30 minutes. In part 1 and part 2 of the study, you are the head captain of a pirate ship traveling around the world to different islands. You will play a few different games throughout these two parts. Here is an overview of them:</p><br><p>Part 1 (today)</p><p>1. Instructions, practice game, and quiz</p><p>2. Pick a pirate game on 6 different islands</p><br><p>Part 2 (tomorrow)</p><p>3. Pick a pirate game and memory game</p><p>4. Where did you see this ship? </p></div>","","","","","","","","","","","","","","","","","",""
"","html-keyboard-response","3","50548","0.0-3.0","""event"",""trial"",""time""
""fullscreenenter"",""0"",""3934""
","
","
","""event"",""trial"",""time""
""fullscreenenter"",""0"",""3934""
","
","490.8000011444092","<div class='center'><p>Welcome! This is the first part of the study. It will last ~30 minutes. In part 1 and part 2 of the study, you are the head captain of a pirate ship traveling around the world to different islands. You will play a few different games throughout these two parts. Here is an overview of them:</p><br><p>Part 1 (today)</p><p>1. Instructions, practice game, and quiz</p><p>2. Pick a pirate game on 6 different islands</p><br><p>Part 2 (tomorrow)</p><p>3. Pick a pirate game and memory game</p><p>4. Where did you see this ship? </p><p><b>[Press the space bar to continue]</b></p></div>","32","","","","","","","","","","","","","","","","","","","","","","",""
"","instruc2","4","55874","0.0-4.0","""event"",""trial"",""time""
""fullscreenenter"",""0"",""3934""
","
","
","""event"",""trial"",""time""
""fullscreenenter"",""0"",""3934""
","
","null","run_exp/static/audio/clip_2_different_places.m4a","null","","","","","<div class='center'><p>Today, you’ll visit these 6 islands on your journey. You'll be able to see these islands from your ship.</p><p><img src='run_exp/static/images/contexts/all_contexts.png' height='500'></p></div>","","","","","","","","","","","","","","","","","",""
"","html-keyboard-response","5","58979","0.0-5.0","""event"",""trial"",""time""
""fullscreenenter"",""0"",""3934""
","
","
","""event"",""trial"",""time""
""fullscreenenter"",""0"",""3934""
","
","3102.599998474121","<div class='center'><p>Today, you’ll visit these 6 islands on your journey. You'll be able to see these islands from your ship.</p><p><img src='run_exp/static/images/contexts/all_contexts.png' height='500'></p><p><b>[Press the space bar to continue]</b></p></div>","32","","","","","","","","","","","","","","","","","","","","","","",""
"","instruc3","6","68675","0.0-6.0","""event"",""trial"",""time""
""fullscreenenter"",""0"",""3934""
","
","
","""event"",""trial"",""time""
""fullscreenenter"",""0"",""3934""
","
","null","run_exp/static/audio/clip_3_goal_of_game_1.m4a","null","","","","","<div class='center'><p> The pirates on your ship will rob other ships as they leave the island.</p> These ships have just sold their goods to the islanders, so they will be filled with lots and lots of gold.</p><p><img src='run_exp/static/images/tutorial/ship_center.png' height='400'></p></div>","","","","","","","","","","","","","","","","","",""
"","html-keyboard-response","7","97475","0.0-7.0","""event"",""trial"",""time""
""fullscreenenter"",""0"",""3934""
","
","
","""event"",""trial"",""time""
""fullscreenenter"",""0"",""3934""
","
","28799.39999961853","<div class='center'><p> The pirates on your ship will rob other ships as they leave the island.</p> These ships have just sold their goods to the islanders, so they will be filled with lots and lots of gold.</p><p><img src='run_exp/static/images/tutorial/ship_center.png' height='400'></p><p><b>[Press the space bar to continue]</b></p></div>","32","","","","","","","","","","","","","","","","","","","","","","",""
"","instruc4","8","125524","0.0-8.0","""event"",""trial"",""time""
""fullscreenenter"",""0"",""3934""
","
","
","""event"",""trial"",""time""
""fullscreenenter"",""0"",""3934""
","
","null","run_exp/static/audio/clip_4_goal_of_game_2.m4a","null","","","","","<div class='center'><p>As the head captain, you do not have to rob any ships yourself. Another pirate will be doing the robbing for you. First, you will choose a pirate to rob the next ship.</p><p><img src='run_exp/static/images/tutorial/pirates_all_crop.png' height='200'></p><p>Then, you'll see if the pirate successfully robbed the ship of their gold. If they were successful, then you'll get a stack of gold coins like this:</p><p><img src='run_exp/static/images/tutorial/reward.png' height='150'></p><p> If they were <b>not</b> successful, then you'll get no gold coins, and you'll see a big red x like this: </p><p><img src='run_exp/static/images/tutorial/reward_no.png' height='150'></p><p> How much bonus money you make is based on how many gold coins you collect.</p><div>","","","","","","","","","","","","","","","","","",""
"","html-keyboard-response","9","126371","0.0-9.0","""event"",""trial"",""time""
""fullscreenenter"",""0"",""3934""
","
","
","""event"",""trial"",""time""
""fullscreenenter"",""0"",""3934""
","
","845.8000011444092","<div class='center'><p>As the head captain, you do not have to rob any ships yourself. Another pirate will be doing the robbing for you. First, you will choose a pirate to rob the next ship.</p><p><img src='run_exp/static/images/tutorial/pirates_all_crop.png' height='200'></p><p>Then, you'll see if the pirate successfully robbed the ship of their gold. If they were successful, then you'll get a stack of gold coins like this:</p><p><img src='run_exp/static/images/tutorial/reward.png' height='150'></p><p> If they were <b>not</b> successful, then you'll get no gold coins, and you'll see a big red x like this: </p><p><img src='run_exp/static/images/tutorial/reward_no.png' height='150'></p><p> How much bonus money you make is based on how many gold coins you collect.</p<p><b>[Press the space bar to continue]</b></p></div>","32","","","","","","","","","","","","","","","","","","","","","","",""
"","instruc5","10","147091","0.0-10.0","""event"",""trial"",""time""
""fullscreenenter"",""0"",""3934""
","
","
","""event"",""trial"",""time""
""fullscreenenter"",""0"",""3934""
","
","20719","run_exp/static/audio/clip_5_probabilistic.m4a","49","","","","","<div class='center'><p>Even the most skilled pirate can not rob EVERY ship.</p><p> Some ships will have very strong protections against pirate attacks.</p><p> Blue beard, here, is very, very good at robbing ships, but he won't be successful every time he tries to rob one.</p><p> You can press the <b>‘1’</b> key on the keyboard to choose him.</p><p> Try choosing him 10 times to see how often he succeeds at robbing a ship. </p><p><img src='run_exp/static/images/tutorial/blue.png' height='500'></p></div>","","","","","","","","","","","","","","","","","",""
"","html-keyboard-response","11","148603","0.0-11.0","""event"",""trial"",""time""
""fullscreenenter"",""0"",""3934""
","
","
","""event"",""trial"",""time""
""fullscreenenter"",""0"",""3934""
","
","null","<div class='center'><p><img src='run_exp/static/images/tutorial/blue_win.png' height='500'></p></div>","null","","","","","","","","","","","","","","","","","","","","","","",""
"","html-keyboard-response","12","149491","0.0-12.0","""event"",""trial"",""time""
""fullscreenenter"",""0"",""3934""
","
","
","""event"",""trial"",""time""
""fullscreenenter"",""0"",""3934""
","
","887.8999996185303","<div class='center'><img src='run_exp/static/images/tutorial/blue.png' height='500'></p></div>","49","","","","","","","","","","","","","","","","","","","","","","",""
"","html-keyboard-response","13","151008","0.0-13.0","""event"",""trial"",""time""
""fullscreenenter"",""0"",""3934""
","
","
","""event"",""trial"",""time""
""fullscreenenter"",""0"",""3934""
","
","null","<div class='center'><p><img src='run_exp/static/images/tutorial/blue_win.png' height='500'></p></div>","null","","","","","","","","","","","","","","","","","","","","","","",""
"","html-keyboard-response","14","151315","0.0-14.0","""event"",""trial"",""time""
""fullscreenenter"",""0"",""3934""
","
","
","""event"",""trial"",""time""
""fullscreenenter"",""0"",""3934""
","
","306.6000003814697","<div class='center'><img src='run_exp/static/images/tutorial/blue.png' height='500'></p></div>","49","","","","","","","","","","","","","","","","","","","","","","",""
"","html-keyboard-response","15","152833","0.0-15.0","""event"",""trial"",""time""
""fullscreenenter"",""0"",""3934""
","
","
","""event"",""trial"",""time""
""fullscreenenter"",""0"",""3934""
","
","null","<div class='center'><p><img src='run_exp/static/images/tutorial/blue_win.png' height='500'></p></div>","null","","","","","","","","","","","","","","","","","","","","","","",""
"","html-keyboard-response","16","153091","0.0-16.0","""event"",""trial"",""time""
""fullscreenenter"",""0"",""3934""
","
","
","""event"",""trial"",""time""
""fullscreenenter"",""0"",""3934""
","
","257.8999996185303","<div class='center'><img src='run_exp/static/images/tutorial/blue.png' height='500'></p></div>","49","","","","","","","","","","","","","","","","","","","","","","",""
"","html-keyboard-response","17","154607","0.0-17.0","""event"",""trial"",""time""
""fullscreenenter"",""0"",""3934""
","
","
","""event"",""trial"",""time""
""fullscreenenter"",""0"",""3934""
","
","null","<div class='center'><p><img src='run_exp/static/images/tutorial/blue_no_win.png' height='500'></p></div>","null","","","","","","","","","","","","","","","","","","","","","","",""
"","html-keyboard-response","18","154883","0.0-18.0","""event"",""trial"",""time""
""fullscreenenter"",""0"",""3934""
","
","
","""event"",""trial"",""time""
""fullscreenenter"",""0"",""3934""
","
","275","<div class='center'><img src='run_exp/static/images/tutorial/blue.png' height='500'></p></div>","49","","","","","","","","","","","","","","","","","","","","","","",""
"","html-keyboard-response","19","156393","0.0-19.0","""event"",""trial"",""time""
""fullscreenenter"",""0"",""3934""
","
","
","""event"",""trial"",""time""
""fullscreenenter"",""0"",""3934""
","
","null","<div class='center'><p><img src='run_exp/static/images/tutorial/blue_win.png' height='500'></p></div>","null","","","","","","","","","","","","","","","","","","","","","","",""
"","html-keyboard-response","20","156691","0.0-20.0","""event"",""trial"",""time""
""fullscreenenter"",""0"",""3934""
","
","
","""event"",""trial"",""time""
""fullscreenenter"",""0"",""3934""
","
","297.3999996185303","<div class='center'><img src='run_exp/static/images/tutorial/blue.png' height='500'></p></div>","49","","","","","","","","","","","","","","","","","","","","","","",""
"","html-keyboard-response","21","158204","0.0-21.0","""event"",""trial"",""time""
""fullscreenenter"",""0"",""3934""
","
","
","""event"",""trial"",""time""
""fullscreenenter"",""0"",""3934""
","
","null","<div class='center'><p><img src='run_exp/static/images/tutorial/blue_win.png' height='500'></p></div>","null","","","","","","","","","","","","","","","","","","","","","","",""
"","html-keyboard-response","22","158467","0.0-22.0","""event"",""trial"",""time""
""fullscreenenter"",""0"",""3934""
","
","
","""event"",""trial"",""time""
""fullscreenenter"",""0"",""3934""
","
","262.3000011444092","<div class='center'><img src='run_exp/static/images/tutorial/blue.png' height='500'></p></div>","49","","","","","","","","","","","","","","","","","","","","","","",""
"","html-keyboard-response","23","159970","0.0-23.0","""event"",""trial"",""time""
""fullscreenenter"",""0"",""3934""
","
","
","""event"",""trial"",""time""
""fullscreenenter"",""0"",""3934""
","
","null","<div class='center'><p><img src='run_exp/static/images/tutorial/blue_win.png' height='500'></p></div>","null","","","","","","","","","","","","","","","","","","","","","","",""
"","html-keyboard-response","24","160323","0.0-24.0","""event"",""trial"",""time""
""fullscreenenter"",""0"",""3934""
","
","
","""event"",""trial"",""time""
""fullscreenenter"",""0"",""3934""
","
","352.5","<div class='center'><img src='run_exp/static/images/tutorial/blue.png' height='500'></p></div>","49","","","","","","","","","","","","","","","","","","","","","","",""
"","html-keyboard-response","25","161830","0.0-25.0","""event"",""trial"",""time""
""fullscreenenter"",""0"",""3934""
","
","
","""event"",""trial"",""time""
""fullscreenenter"",""0"",""3934""
","
","null","<div class='center'><p><img src='run_exp/static/images/tutorial/blue_no_win.png' height='500'></p></div>","null","","","","","","","","","","","","","","","","","","","","","","",""
"","html-keyboard-response","26","162179","0.0-26.0","""event"",""trial"",""time""
""fullscreenenter"",""0"",""3934""
","
","
","""event"",""trial"",""time""
""fullscreenenter"",""0"",""3934""
","
","348.6000003814697","<div class='center'><img src='run_exp/static/images/tutorial/blue.png' height='500'></p></div>","49","","","","","","","","","","","","","","","","","","","","","","",""
"","html-keyboard-response","27","163690","0.0-27.0","""event"",""trial"",""time""
""fullscreenenter"",""0"",""3934""
","
","
","""event"",""trial"",""time""
""fullscreenenter"",""0"",""3934""
","
","null","<div class='center'><p><img src='run_exp/static/images/tutorial/blue_win.png' height='500'></p></div>","null","","","","","","","","","","","","","","","","","","","","","","",""
"","html-keyboard-response","28","164019","0.0-28.0","""event"",""trial"",""time""
""fullscreenenter"",""0"",""3934""
","
","
","""event"",""trial"",""time""
""fullscreenenter"",""0"",""3934""
","
","328.5","<div class='center'><img src='run_exp/static/images/tutorial/blue.png' height='500'></p></div>","49","","","","","","","","","","","","","","","","","","","","","","",""
"","html-keyboard-response","29","165524","0.0-29.0","""event"",""trial"",""time""
""fullscreenenter"",""0"",""3934""
","
","
","""event"",""trial"",""time""
""fullscreenenter"",""0"",""3934""
","
","null","<div class='center'><p><img src='run_exp/static/images/tutorial/blue_win.png' height='500'></p></div>","null","","","","","","","","","","","","","","","","","","","","","","",""
"","instruc6","30","170985","0.0-30.0","""event"",""trial"",""time""
""fullscreenenter"",""0"",""3934""
","
","
","""event"",""trial"",""time""
""fullscreenenter"",""0"",""3934""
","
","null","run_exp/static/audio/clip_6_blue_beard_outcome.m4a","null","","","","","<div class='center'><p> See, he succeeded in robbing the ships most of the time but not every time. </p></div>","","","","","","","","","","","","","","","","","",""
"","html-keyboard-response","31","171939","0.0-31.0","""event"",""trial"",""time""
""fullscreenenter"",""0"",""3934""
","
","
","""event"",""trial"",""time""
""fullscreenenter"",""0"",""3934""
","
","953.6000003814697","<div class='center'><p> See, he succeeded in robbing the ships most of the time but not every time. </p><p><b>[Press the space bar to continue]</b></p></div>","32","","","","","","","","","","","","","","","","","","","","","","",""
"","audio-keyboard-response","32","177811","0.0-32.0","""event"",""trial"",""time""
""fullscreenenter"",""0"",""3934""
","
","
","""event"",""trial"",""time""
""fullscreenenter"",""0"",""3934""
","
","5870.699998855591","run_exp/static/audio/clip_7_pick_pirate.m4a","51","","","","","","","","","","","","","","","","","","","","","","",""
"","audio-keyboard-response","33","181139","0.0-33.0-0.0","""event"",""trial"",""time""
""fullscreenenter"",""0"",""3934""
","
","
","""event"",""trial"",""time""
""fullscreenenter"",""0"",""3934""
","
","3326.2000007629395","run_exp/static/audio/clip_8_chosen_pirate_win.m4a","32","","","","","","","","","","","","","","","","","","","","","","",""
"","audio-keyboard-response","34","184067","0.0-33.0-1.0","""event"",""trial"",""time""
""fullscreenenter"",""0"",""3934""
","
","
","""event"",""trial"",""time""
""fullscreenenter"",""0"",""3934""
","
","2926.7000007629395","run_exp/static/audio/clip_9_pick_a_pirate_again.m4a","50","","","","","","","","","","","","","","","","","","","","","","",""
"","audio-keyboard-response","35","185555","0.0-34.0-0.0","""event"",""trial"",""time""
""fullscreenenter"",""0"",""3934""
","
","
","""event"",""trial"",""time""
""fullscreenenter"",""0"",""3934""
","
","1486.3999996185303","run_exp/static/audio/clip_10_chosen_pirate_loss.m4a","32","","","","","","","","","","","","","","","","","","","","","","",""
"","instruc9","36","191045","0.0-35.0-0.0","""event"",""trial"",""time""
""fullscreenenter"",""0"",""3934""
","
","
","""event"",""trial"",""time""
""fullscreenenter"",""0"",""3934""
","
","null","run_exp/static/audio/clip_11_time_out.m4a","null","","","","","<div class='center'><p>If you don’t make your choice fast enough, you’ll have to wait a few seconds before you can make another one. </p><p><img src='run_exp/static/images/miscellaneous/hurry_up.png' height='500'></p></div>","","","","","","","","","","","","","","","","","",""
"","html-keyboard-response","37","191955","0.0-35.0-1.0","""event"",""trial"",""time""
""fullscreenenter"",""0"",""3934""
","
","
","""event"",""trial"",""time""
""fullscreenenter"",""0"",""3934""
","
","908.8999996185303","<div class='center'><p>If you don’t make your choice fast enough, you’ll have to wait a few seconds before you can make another one. </p><p><img src='run_exp/static/images/miscellaneous/hurry_up.png' height='500'></p><p><b>[Press the space bar to continue]</b></p></div>","32","","","","","","","","","","","","","","","","","","","","","","",""
"","instruc10","38","231065","0.0-35.0-2.0","""event"",""trial"",""time""
""fullscreenenter"",""0"",""3934""
","
","
","""event"",""trial"",""time""
""fullscreenenter"",""0"",""3934""
","
","null","run_exp/static/audio/clip_12_probe.m4a","null","","","","","<div class='center'><p>Once you've chosen a pirate, you’ll be shown the ship they are robbing. You will never rob the same ship twice. Ships can be told apart from one another by the image on them. These are the goods that they sell. See, this ship has a travel mug on it. </p><p> You’ll have to remember which island you saw each ship on. You will win more gold coins and hence more bonus money if you remember correctly! To help you remember, you can imagine a story. For example, here, you could imagine a mug full of water in the desert. Or, as another example, if on the forest island, your pirate robbed a ship with an apple on it, you could imagine an apple falling from a tree in the forest. </p><p><img src='run_exp/static/images/tutorial/example_probe.png' height='500'></p></div>","","","","","","","","","","","","","","","","","",""
"","html-keyboard-response","39","232355","0.0-35.0-3.0","""event"",""trial"",""time""
""fullscreenenter"",""0"",""3934""
","
","
","""event"",""trial"",""time""
""fullscreenenter"",""0"",""3934""
","
","1288.7000007629395","<div class='center'><p>Once you've chosen a pirate, you’ll be shown the ship they are robbing. You will never rob the same ship twice. Ships can be told apart from one another by the image on them. These are the goods that they sell. See, this ship has a travel mug on it. </p><p> You’ll have to remember which island you saw each ship on. You will win more gold coins and hence more bonus money if you remember correctly! To help you remember, you can imagine a story. For example, here, you could imagine a mug full of water in the desert. Or, as another example, if on the forest island, your pirate robbed a ship with an apple on it, you could imagine an apple falling from a tree in the forest. </p><p><img src='run_exp/static/images/tutorial/example_probe.png' height='500'></p><p><b>[Press the space bar to continue]</b></p></div>","32","","","","","","","","","","","","","","","","","","","","","","",""
"","instruc11","40","248783","0.0-35.0-4.0","""event"",""trial"",""time""
""fullscreenenter"",""0"",""3934""
","
","
","""event"",""trial"",""time""
""fullscreenenter"",""0"",""3934""
","
","null","run_exp/static/audio/clip_13_changepoint.m4a","null","","","","","<div class='center'><p>How successful a pirate is at robbing ships will depend on the island you’re on.</p><p> A pirate may have visited this island many times before and gained a lot of practice robbing ships there.</p><p>So, they’re more likely to be successful than a pirate who has never visited the island before.</p></div>","","","","","","","","","","","","","","","","","",""
"","html-keyboard-response","41","253010","0.0-35.0-5.0","""event"",""trial"",""time""
""fullscreenenter"",""0"",""3934""
","
","
","""event"",""trial"",""time""
""fullscreenenter"",""0"",""3934""
","
","4225.5","<div class='center'><p>How successful a pirate is at robbing ships will depend on the island you’re on.</p><p> A pirate may have visited this island many times before and gained a lot of practice robbing ships there.</p><p>So, they’re more likely to be successful than a pirate who has never visited the island before.</p><p><b>[Press the space bar to continue]</b></p></div>","32","","","","","","","","","","","","","","","","","","","","","","",""
"","instruc12","42","294124","0.0-35.0-6.0","""event"",""trial"",""time""
""fullscreenenter"",""0"",""3934""
","
","
","""event"",""trial"",""time""
""fullscreenenter"",""0"",""3934""
","
","null","run_exp/static/audio/clip_14_drift.m4a","null","","","","","<div class='center'><p>How successful a pirate is at robbing ships can also change over the time spent on the island. </p><p> Ships may hear from islanders about the pirates coming and will improve their protections against the attack. This may make it harder to rob them.</p><p> Ships may also become lazy and weaken the strength of their protections. This may make it easier to rob them.</p><br><p>Things are always changing on the high seas! So, try your best to pay attention!</p><p><img src='run_exp/static/images/tutorial/contingency.png' height='500'></p></div>","","","","","","","","","","","","","","","","","",""
"","html-keyboard-response","43","295313","0.0-35.0-7.0","""event"",""trial"",""time""
""fullscreenenter"",""0"",""3934""
","
","
","""event"",""trial"",""time""
""fullscreenenter"",""0"",""3934""
","
","1188.6000003814697","<div class='center'><p>How successful a pirate is at robbing ships can also change over the time spent on the island. </p><p> Ships may hear from islanders about the pirates coming and will improve their protections against the attack. This may make it harder to rob them.</p><p> Ships may also become lazy and weaken the strength of their protections. This may make it easier to rob them.</p><br><p>Things are always changing on the high seas! So, try your best to pay attention!</p><p><img src='run_exp/static/images/tutorial/contingency.png' height='500'></p><p><b>[Press the space bar to continue]</b></p></div>","32","","","","","","","","","","","","","","","","","","","","","","",""
"","instruc13","44","330783","0.0-35.0-8.0","""event"",""trial"",""time""
""fullscreenenter"",""0"",""3934""
","
","
","""event"",""trial"",""time""
""fullscreenenter"",""0"",""3934""
","
","null","run_exp/static/audio/clip_15_summary.m4a","null","","","","","<div class='center'><p>Let's go over the instructions quickly again. You have two important things to do: </p><b><p> 1. Pick the pirate who is the best at robbing ships on the current island. </p></b><b><p> 2. Remember on which island a ship was robbed.</p> </b><p>The amount of bonus money you can win depends on both.</p><p><br><p>Let’s try a practice game. The game will start by showing you the pirates. First, pick a pirate using the <b> 1, 2, 3 </b> keys on your keyboard. When you are shown a ship, try to remember which island you’re on by making up a story.</p><p>This is just a practice game, so you’re not playing for money. </p><p> Good luck! This game will be very difficult but try your best!</p></div>","","","","","","","","","","","","","","","","","",""
"","html-keyboard-response","45","331730","0.0-35.0-9.0","""event"",""trial"",""time""
""fullscreenenter"",""0"",""3934""
","
","
","""event"",""trial"",""time""
""fullscreenenter"",""0"",""3934""
","
","945.3999996185303","<div class='center'><p>Let's go over the instructions quickly again. You have two important things to do: </p><b><p> 1. Pick the pirate who is the best at robbing ships on the current island. </p></b><b><p> 2. Remember on which island a ship was robbed.</p> </b><p>The amount of bonus money you can win depends on both.</p><p><br><p>Let’s try a practice game. The game will start by showing you the pirates. First, pick a pirate using the <b> 1, 2, 3 </b> keys on your keyboard. When you are shown a ship, try to remember which island you’re on by making up a story.</p><p>This is just a practice game, so you’re not playing for money. </p><p> Good luck! This game will be very difficult but try your best!</p><p><b>[Press the space bar to continue]</b></p></div>","32","","","","","","","","","","","","","","","","","","","","","","",""
"","do_welcome","46","335737","0.0-35.0-10.0","""event"",""trial"",""time""
""fullscreenenter"",""0"",""3934""
","
","
","""event"",""trial"",""time""
""fullscreenenter"",""0"",""3934""
","
","null","","","","","","","","null","","","","","","","","","","","","","","","","",""
"","do_trial","47","342972","0.0-35.0-11.0","""event"",""trial"",""time""
""fullscreenenter"",""0"",""3934""
","
","
","""event"",""trial"",""time""
""fullscreenenter"",""0"",""3934""
","
","2724.6000003814697","","","","","","","","50","1,0,0","","","","","","","","","","","","","","","",""
"","html-keyboard-response","48","343977","0.0-36.0-0.0","""event"",""trial"",""time""
""fullscreenenter"",""0"",""3934""
","
","
","""event"",""trial"",""time""
""fullscreenenter"",""0"",""3934""
","
","null","<p></p>","null","","","","","","","","","","","","","","","","","","","","","","",""
"","do_trial","49","349624","0.0-36.0-1.0","""event"",""trial"",""time""
""fullscreenenter"",""0"",""3934""
","
","
","""event"",""trial"",""time""
""fullscreenenter"",""0"",""3934""
","
","1125","","","","","","","","49","1,1,0","","","","","","","","","","","","","","","",""
"","html-keyboard-response","50","350635","0.0-37.0-0.0","""event"",""trial"",""time""
""fullscreenenter"",""0"",""3934""
","
","
","""event"",""trial"",""time""
""fullscreenenter"",""0"",""3934""
","
","null","<p></p>","null","","","","","","","","","","","","","","","","","","","","","","",""
"","do_trial","51","355573","0.0-37.0-1.0","""event"",""trial"",""time""
""fullscreenenter"",""0"",""3934""
","
","
","""event"",""trial"",""time""
""fullscreenenter"",""0"",""3934""
","
","419.20000076293945","","","","","","","","49","1,0,1","","","","","","","","","","","","","","","",""
"","html-keyboard-response","52","356589","0.0-38.0-0.0","""event"",""trial"",""time""
""fullscreenenter"",""0"",""3934""
","
","
","""event"",""trial"",""time""
""fullscreenenter"",""0"",""3934""
","
","null","<p></p>","null","","","","","","","","","","","","","","","","","","","","","","",""
"","do_trial","53","361939","0.0-38.0-1.0","""event"",""trial"",""time""
""fullscreenenter"",""0"",""3934""
","
","
","""event"",""trial"",""time""
""fullscreenenter"",""0"",""3934""
","
","832.2000007629395","","","","","","","","49","0,1,0","","","","","","","","","","","","","","","",""
"","html-keyboard-response","54","362955","0.0-39.0-0.0","""event"",""trial"",""time""
""fullscreenenter"",""0"",""3934""
","
","
","""event"",""trial"",""time""
""fullscreenenter"",""0"",""3934""
","
","null","<p></p>","null","","","","","","","","","","","","","","","","","","","","","","",""
"","do_trial","55","368290","0.0-39.0-1.0","""event"",""trial"",""time""
""fullscreenenter"",""0"",""3934""
","
","
","""event"",""trial"",""time""
""fullscreenenter"",""0"",""3934""
","
","818.1000003814697","","","","","","","","51","1,0,0","","","","","","","","","","","","","","","",""
"","do_bye","56","369806","0.0-40.0-0.0","""event"",""trial"",""time""
""fullscreenenter"",""0"",""3934""
","
","
","""event"",""trial"",""time""
""fullscreenenter"",""0"",""3934""
","
","null","","","","","","","","null","","","","","","","","","","","","","","","","",""
"","do_travel","57","378809","0.0-40.0-1.0","""event"",""trial"",""time""
""fullscreenenter"",""0"",""3934""
","
","
","""event"",""trial"",""time""
""fullscreenenter"",""0"",""3934""
","
","null","","","","","","","","null","","","","","","","","","","","","","","","","",""
"","do_welcome","58","382822","0.0-40.0-2.0","""event"",""trial"",""time""
""fullscreenenter"",""0"",""3934""
","
","
","""event"",""trial"",""time""
""fullscreenenter"",""0"",""3934""
","
","null","","","","","","","","null","","","","","","","","","","","","","","","","",""
"","do_trial","59","388857","0.0-40.0-3.0","""event"",""trial"",""time""
""fullscreenenter"",""0"",""3934""
","
","
","""event"",""trial"",""time""
""fullscreenenter"",""0"",""3934""
","
","null","","","","","","","","null","1,0,0","","","","","","","","","","","","","","","",""
"","do_bye","60","390362","0.0-41.0-0.0","""event"",""trial"",""time""
""fullscreenenter"",""0"",""3934""
","
","
","""event"",""trial"",""time""
""fullscreenenter"",""0"",""3934""
","
","null","","","","","","","","null","","","","","","","","","","","","","","","","",""
"","do_travel","61","399383","0.0-41.0-1.0","""event"",""trial"",""time""
""fullscreenenter"",""0"",""3934""
","
","
","""event"",""trial"",""time""
""fullscreenenter"",""0"",""3934""
","
","null","","","","","","","","null","","","","","","","","","","","","","","","","",""
"","do_welcome","62","403393","0.0-41.0-2.0","""event"",""trial"",""time""
""fullscreenenter"",""0"",""3934""
","
","
","""event"",""trial"",""time""
""fullscreenenter"",""0"",""3934""
","
","null","","","","","","","","null","","","","","","","","","","","","","","","","",""
"","do_trial","63","409928","0.0-41.0-3.0","""event"",""trial"",""time""
""fullscreenenter"",""0"",""3934""
","
","
","""event"",""trial"",""time""
""fullscreenenter"",""0"",""3934""
","
","2013.3000011444092","","","","","","","","50","1,0,0","","","","","","","","","","","","","","","",""
"","html-keyboard-response","64","410948","0.0-42.0-0.0","""event"",""trial"",""time""
""fullscreenenter"",""0"",""3934""
","
","
","""event"",""trial"",""time""
""fullscreenenter"",""0"",""3934""
","
","null","<p></p>","null","","","","","","","","","","","","","","","","","","","","","","",""
"","do_trial","65","415918","0.0-42.0-1.0","""event"",""trial"",""time""
""fullscreenenter"",""0"",""3934""
","
","
","""event"",""trial"",""time""
""fullscreenenter"",""0"",""3934""
","
","458.3000011444092","","","","","","","","49","1,0,1","","","","","","","","","","","","","","","",""
"","html-keyboard-response","66","416920","0.0-43.0-0.0","""event"",""trial"",""time""
""fullscreenenter"",""0"",""3934""
","
","
","""event"",""trial"",""time""
""fullscreenenter"",""0"",""3934""
","
","null","<p></p>","null","","","","","","","","","","","","","","","","","","","","","","",""
"","do_trial","67","421907","0.0-43.0-1.0","""event"",""trial"",""time""
""fullscreenenter"",""0"",""3934""
","
","
","""event"",""trial"",""time""
""fullscreenenter"",""0"",""3934""
","
","470.0999984741211","","","","","","","","49","1,1,0","","","","","","","","","","","","","","","",""
"","html-keyboard-response","68","422923","0.0-44.0-0.0","""event"",""trial"",""time""
""fullscreenenter"",""0"",""3934""
","
","
","""event"",""trial"",""time""
""fullscreenenter"",""0"",""3934""
","
","null","<p></p>","null","","","","","","","","","","","","","","","","","","","","","","",""
"","do_trial","69","428335","0.0-44.0-1.0","""event"",""trial"",""time""
""fullscreenenter"",""0"",""3934""
","
","
","""event"",""trial"",""time""
""fullscreenenter"",""0"",""3934""
","
","899.2000007629395","","","","","","","","49","0,0,1","","","","","","","","","","","","","","","",""
"","html-keyboard-response","70","429338","0.0-45.0-0.0","""event"",""trial"",""time""
""fullscreenenter"",""0"",""3934""
","
","
","""event"",""trial"",""time""
""fullscreenenter"",""0"",""3934""
","
","null","<p></p>","null","","","","","","","","","","","","","","","","","","","","","","",""
"","do_trial","71","434533","0.0-45.0-1.0","""event"",""trial"",""time""
""fullscreenenter"",""0"",""3934""
","
","
","""event"",""trial"",""time""
""fullscreenenter"",""0"",""3934""
","
","676.2000007629395","","","","","","","","49","1,0,1","","","","","","","","","","","","","","","",""
"","html-keyboard-response","72","436786","0.0-46.0-0.0","""event"",""trial"",""time""
""fullscreenenter"",""0"",""3934""
","
","
","""event"",""trial"",""time""
""fullscreenenter"",""0"",""3934""
","
","2251.900001525879","<div class='center'><p><img src='run_exp/static/images/tutorial/prac_best_pirate.png'  height='500'></p></div>","49","","","","","","","","","","","","","","","","","","","","","","",""
"","html-keyboard-response","73","438498","0.0-47.0-0.0","""event"",""trial"",""time""
""fullscreenenter"",""0"",""3934""
","
","
","""event"",""trial"",""time""
""fullscreenenter"",""0"",""3934""
","
","1711.3999996185303","<div class='center'><p>That's correct! Red beard was the best.</p><p><b>[Press the space bar to continue]</b></p></div>","32","","","","","","","","","","","","","","","","","","","","","","",""
"","html-keyboard-response","74","445346","0.0-47.0-1.0","""event"",""trial"",""time""
""fullscreenenter"",""0"",""3934""
","
","
","""event"",""trial"",""time""
""fullscreenenter"",""0"",""3934""
","
","6847.39999961853","<div class='center'><p><img src='run_exp/static/images/tutorial/prac_source.png'  height='500'></p></div>","50","","","","","","","","","","","","","","","","","","","","","","",""
"","html-keyboard-response","75","447074","0.0-48.0-0.0","""event"",""trial"",""time""
""fullscreenenter"",""0"",""3934""
","
","
","""event"",""trial"",""time""
""fullscreenenter"",""0"",""3934""
","
","1727.1000003814697","<div class='center'><p>That's correct! You saw this ship on the cavern island.</p><p><b>[Press the space bar to continue]</b></p></div>","32","","","","","","","","","","","","","","","","","","","","","","",""
"","quiz_beginning","76","458512","0.0-48.0-1.0","""event"",""trial"",""time""
""fullscreenenter"",""0"",""3934""
","
","
","""event"",""trial"",""time""
""fullscreenenter"",""0"",""3934""
","
","null","run_exp/static/audio/clip_16_quiz_intro.m4a","null","","","","","<div class='center'><p>Good job on the practice game! Now, you will be asked some true or false questions to make sure you really understand the rules of the game.</p><p> Press <b>'1'</b> on the keyboard for true and press <b>'2'</b> for false.</p></div>","","","","","","","","","","","","","","","","","",""
"","audio-keyboard-response","77","463458","0.0-48.0-2.0","""event"",""trial"",""time""
""fullscreenenter"",""0"",""3934""
","
","
","""event"",""trial"",""time""
""fullscreenenter"",""0"",""3934""
","
","4945.300001144409","run_exp/static/audio/clip_17_q1.m4a","49","","","","","","","","","","","","","","","","","","","","","","",""
"","correct","78","465892","0.0-49.0-0.0","""event"",""trial"",""time""
""fullscreenenter"",""0"",""3934""
","
","
","""event"",""trial"",""time""
""fullscreenenter"",""0"",""3934""
","
","null","run_exp/static/audio/clip_18_correct.m4a","null","","","","","<div class='center'><p>That's correct!</p></div>","","","","","","","","","","","","","","","","","",""
"","html-keyboard-response","79","467538","0.0-49.0-1.0","""event"",""trial"",""time""
""fullscreenenter"",""0"",""3934""
","
","
","""event"",""trial"",""time""
""fullscreenenter"",""0"",""3934""
","
","1645.3999996185303","<div class='center'><p>That's correct!</p><p><b>[Press the space bar to continue]</b></p></div>","32","","","","","","","","","","","","","","","","","","","","","","",""
"","audio-keyboard-response","80","471442","0.0-49.0-2.0","""event"",""trial"",""time""
""fullscreenenter"",""0"",""3934""
","
","
","""event"",""trial"",""time""
""fullscreenenter"",""0"",""3934""
","
","3903.1000003814697","run_exp/static/audio/clip_20_q2.m4a","50","","","","","","","","","","","","","","","","","","","","","","",""
"","correct","81","473832","0.0-50.0-0.0","""event"",""trial"",""time""
""fullscreenenter"",""0"",""3934""
","
","
","""event"",""trial"",""time""
""fullscreenenter"",""0"",""3934""
","
","null","run_exp/static/audio/clip_18_correct.m4a","null","","","","","<div class='center'><p>That's correct!</p></div>","","","","","","","","","","","","","","","","","",""
"","html-keyboard-response","82","474706","0.0-50.0-1.0","""event"",""trial"",""time""
""fullscreenenter"",""0"",""3934""
","
","
","""event"",""trial"",""time""
""fullscreenenter"",""0"",""3934""
","
","874.1000003814697","<div class='center'><p>That's correct!</p><p><b>[Press the space bar to continue]</b></p></div>","32","","","","","","","","","","","","","","","","","","","","","","",""
"","audio-keyboard-response","83","477602","0.0-50.0-2.0","""event"",""trial"",""time""
""fullscreenenter"",""0"",""3934""
","
","
","""event"",""trial"",""time""
""fullscreenenter"",""0"",""3934""
","
","2895.2000007629395","run_exp/static/audio/clip_22_q3.m4a","50","","","","","","","","","","","","","","","","","","","","","","",""
"","correct","84","479992","0.0-51.0-0.0","""event"",""trial"",""time""
""fullscreenenter"",""0"",""3934""
","
","
","""event"",""trial"",""time""
""fullscreenenter"",""0"",""3934""
","
","null","run_exp/static/audio/clip_18_correct.m4a","null","","","","","<div class='center'><p>That's correct!</p></div>","","","","","","","","","","","","","","","","","",""
"","html-keyboard-response","85","480594","0.0-51.0-1.0","""event"",""trial"",""time""
""fullscreenenter"",""0"",""3934""
","
","
","""event"",""trial"",""time""
""fullscreenenter"",""0"",""3934""
","
","601.3999996185303","<div class='center'><p>That's correct!</p><p><b>[Press the space bar to continue]</b></p></div>","32","","","","","","","","","","","","","","","","","","","","","","",""
"","audio-keyboard-response","86","485826","0.0-51.0-2.0","""event"",""trial"",""time""
""fullscreenenter"",""0"",""3934""
","
","
","""event"",""trial"",""time""
""fullscreenenter"",""0"",""3934""
","
","5231.39999961853","run_exp/static/audio/clip_24_q4.m4a","49","","","","","","","","","","","","","","","","","","","","","","",""
"","correct","87","488272","0.0-52.0-0.0","""event"",""trial"",""time""
""fullscreenenter"",""0"",""3934""
","
","
","""event"",""trial"",""time""
""fullscreenenter"",""0"",""3934""
","
","null","run_exp/static/audio/clip_18_correct.m4a","null","","","","","<div class='center'><p>That's correct!</p></div>","","","","","","","","","","","","","","","","","",""
"","html-keyboard-response","88","488787","0.0-52.0-1.0","""event"",""trial"",""time""
""fullscreenenter"",""0"",""3934""
","
","
","""event"",""trial"",""time""
""fullscreenenter"",""0"",""3934""
","
","513.6000003814697","<div class='center'><p>That's correct!</p><p><b>[Press the space bar to continue]</b></p></div>","32","","","","","","","","","","","","","","","","","","","","","","",""
"","q_all_corr","89","497293","0.0-53.0-0.0","""event"",""trial"",""time""
""fullscreenenter"",""0"",""3934""
","
","
","""event"",""trial"",""time""
""fullscreenenter"",""0"",""3934""
","
","null","run_exp/static/audio/clip_27_quiz_all_correct.m4a","null","","","","","<div class='center'><p>Good job! You’re now ready to move on to the real game! Remember this game will be difficult but don't get discouraged and try your best!</p></div>","","","","","","","","","","","","","","","","","",""
"","html-keyboard-response","90","497747","0.0-53.0-1.0","""event"",""trial"",""time""
""fullscreenenter"",""0"",""3934""
","
","
","""event"",""trial"",""time""
""fullscreenenter"",""0"",""3934""
","
","452.8999996185303","<div class='center'><p>Good job! You’re now ready to move on to the real game! Remember this game will be difficult but don't get discouraged and try your best!</p><p><b>[Press the space bar to continue]</b></p></div>","32","","","","","","","","","","","","","","","","","","","","","","",""
"","do_welcome","91","501762","0.0-54.0-0.0","""event"",""trial"",""time""
""fullscreenenter"",""0"",""3934""
","
","
","""event"",""trial"",""time""
""fullscreenenter"",""0"",""3934""
","
","null","","","","","","","","null","","","","","","","","","","","","","","","","",""
"","do_trial","92","508091","0.0-55.0-0.0","""event"",""trial"",""time""
""fullscreenenter"",""0"",""3934""
","
","
","""event"",""trial"",""time""
""fullscreenenter"",""0"",""3934""
","
","1786.1000003814697","","","","","","","","50","1,0,0","0","mountain","0","probe-227","0.6","0.3","0.1","0","","","","","","","",""
"","html-keyboard-response","93","509105","0.0-55.0-1.0","""event"",""trial"",""time""
""fullscreenenter"",""0"",""3934""
","
","
","""event"",""trial"",""time""
""fullscreenenter"",""0"",""3934""
","
","null","<p></p>","null","","","","","","","","","","","","","","","","","","","","","","",""
"","do_trial","94","516172","0.0-56.0-0.0","""event"",""trial"",""time""
""fullscreenenter"",""0"",""3934""
","
","
","""event"",""trial"",""time""
""fullscreenenter"",""0"",""3934""
","
","2524.400001525879","","","","","","","","51","1,1,0","0","mountain","1","probe-192","0.5334141294534768","0.29702544700874645","0.05140281796142425","0","","","","","","","",""
"","html-keyboard-response","95","517187","0.0-56.0-1.0","""event"",""trial"",""time""
""fullscreenenter"",""0"",""3934""
","
","
","""event"",""trial"",""time""
""fullscreenenter"",""0"",""3934""
","
","null","<p></p>","null","","","","","","","","","","","","","","","","","","","","","","",""
"","do_trial","96","522073","0.0-57.0-0.0","""event"",""trial"",""time""
""fullscreenenter"",""0"",""3934""
","
","
","""event"",""trial"",""time""
""fullscreenenter"",""0"",""3934""
","
","346.3999996185303","","","","","","","","49","0,0,1","0","mountain","2","probe-107","0.5395067818072041","0.21511769075156723","0.22112933247005306","0","","","","","","","",""
"","html-keyboard-response","97","523074","0.0-57.0-1.0","""event"",""trial"",""time""
""fullscreenenter"",""0"",""3934""
","
","
","""event"",""trial"",""time""
""fullscreenenter"",""0"",""3934""
","
","null","<p></p>","null","","","","","","","","","","","","","","","","","","","","","","",""
"","do_trial","98","529075","0.0-58.0-0.0","""event"",""trial"",""time""
""fullscreenenter"",""0"",""3934""
","
","
","""event"",""trial"",""time""
""fullscreenenter"",""0"",""3934""
","
","1450.7999992370605","","","","","","","","50","1,0,1","0","mountain","3","probe-53","0.3674130552447422","0.20090026700625543","0.24150835972082602","0","","","","","","","",""
"","html-keyboard-response","99","530090","0.0-58.0-1.0","""event"",""trial"",""time""
""fullscreenenter"",""0"",""3934""
","
","
","""event"",""trial"",""time""
""fullscreenenter"",""0"",""3934""
","
","null","<p></p>","null","","","","","","","","","","","","","","","","","","","","","","",""
"","do_trial","100","535175","0.0-59.0-0.0","""event"",""trial"",""time""
""fullscreenenter"",""0"",""3934""
","
","
","""event"",""trial"",""time""
""fullscreenenter"",""0"",""3934""
","
","546.2999992370605","","","","","","","","51","1,1,0","0","mountain","4","probe-214","0.4609808409473226","0.17568612994588642","0.17309532654996995","0","","","","","","","",""
"","html-keyboard-response","101","536190","0.0-59.0-1.0","""event"",""trial"",""time""
""fullscreenenter"",""0"",""3934""
","
","
","""event"",""trial"",""time""
""fullscreenenter"",""0"",""3934""
","
","null","<p></p>","null","","","","","","","","","","","","","","","","","","","","","","",""
"","do_trial","102","542204","0.0-60.0-0.0","""event"",""trial"",""time""
""fullscreenenter"",""0"",""3934""
","
","
","""event"",""trial"",""time""
""fullscreenenter"",""0"",""3934""
","
","1470.3000011444092","","","","","","","","49","1,0,1","0","mountain","5","probe-148","0.4815768279242319","0.15951974993880144","0.33739194201855455","1","","","","","","","",""
"","html-keyboard-response","103","543208","0.0-60.0-1.0","""event"",""trial"",""time""
""fullscreenenter"",""0"",""3934""
","
","
","""event"",""trial"",""time""
""fullscreenenter"",""0"",""3934""
","
","null","<p></p>","null","","","","","","","","","","","","","","","","","","","","","","",""
"","do_trial","104","548341","0.0-61.0-0.0","""event"",""trial"",""time""
""fullscreenenter"",""0"",""3934""
","
","
","""event"",""trial"",""time""
""fullscreenenter"",""0"",""3934""
","
","580.2999992370605","","","","","","","","49","1,0,0","0","mountain","6","probe-49","0.4926762645884402","0.08955933275127156","0.3820659569921695","1","","","","","","","",""
"","html-keyboard-response","105","549356","0.0-61.0-1.0","""event"",""trial"",""time""
""fullscreenenter"",""0"",""3934""
","
","
","""event"",""trial"",""time""
""fullscreenenter"",""0"",""3934""
","
","null","<p></p>","null","","","","","","","","","","","","","","","","","","","","","","",""
"","do_trial","106","554675","0.0-62.0-0.0","""event"",""trial"",""time""
""fullscreenenter"",""0"",""3934""
","
","
","""event"",""trial"",""time""
""fullscreenenter"",""0"",""3934""
","
","768.1000003814697","","","","","","","","49","0,0,0","0","mountain","7","probe-140","0.5044834484850889","0.09156947348520118","0.45364784530372804","0","","","","","","","",""
"","html-keyboard-response","107","555689","0.0-62.0-1.0","""event"",""trial"",""time""
""fullscreenenter"",""0"",""3934""
","
","
","""event"",""trial"",""time""
""fullscreenenter"",""0"",""3934""
","
","null","<p></p>","null","","","","","","","","","","","","","","","","","","","","","","",""
"","do_trial","108","560756","0.0-63.0-0.0","""event"",""trial"",""time""
""fullscreenenter"",""0"",""3934""
","
","
","""event"",""trial"",""time""
""fullscreenenter"",""0"",""3934""
","
","516","","","","","","","","49","0,0,1","0","mountain","8","probe-51","0.6012468695949342","0.18759563085760608","0.2618102130120902","0","","","","","","","",""
"","html-keyboard-response","109","561765","0.0-63.0-1.0","""event"",""trial"",""time""
""fullscreenenter"",""0"",""3934""
","
","
","""event"",""trial"",""time""
""fullscreenenter"",""0"",""3934""
","
","null","<p></p>","null","","","","","","","","","","","","","","","","","","","","","","",""
"","do_trial","110","566726","0.0-64.0-0.0","""event"",""trial"",""time""
""fullscreenenter"",""0"",""3934""
","
","
","""event"",""trial"",""time""
""fullscreenenter"",""0"",""3934""
","
","407.6999988555908","","","","","","","","51","0,0,0","0","mountain","9","probe-190","0.5934739771137614","0.2456664105035374","0.1097281622294036","0","","","","","","","",""
"","html-keyboard-response","111","567740","0.0-64.0-1.0","""event"",""trial"",""time""
""fullscreenenter"",""0"",""3934""
","
","
","""event"",""trial"",""time""
""fullscreenenter"",""0"",""3934""
","
","null","<p></p>","null","","","","","","","","","","","","","","","","","","","","","","",""
"","do_trial","112","573141","0.0-65.0-0.0","""event"",""trial"",""time""
""fullscreenenter"",""0"",""3934""
","
","
","""event"",""trial"",""time""
""fullscreenenter"",""0"",""3934""
","
","848.8999996185303","","","","","","","","50","0,0,0","0","mountain","10","probe-85","0.7035819648678359","0.28042673547629554","0.08810426660547035","0","","","","","","","",""
"","html-keyboard-response","113","574156","0.0-65.0-1.0","""event"",""trial"",""time""
""fullscreenenter"",""0"",""3934""
","
","
","""event"",""trial"",""time""
""fullscreenenter"",""0"",""3934""
","
","null","<p></p>","null","","","","","","","","","","","","","","","","","","","","","","",""
"","do_trial","114","579024","0.0-66.0-0.0","""event"",""trial"",""time""
""fullscreenenter"",""0"",""3934""
","
","
","""event"",""trial"",""time""
""fullscreenenter"",""0"",""3934""
","
","320.8999996185303","","","","","","","","49","1,0,0","0","mountain","11","probe-182","0.6257311407398679","0.32376658351357057","0.14213682720958673","1","","","","","","","",""
"","html-keyboard-response","115","580039","0.0-66.0-1.0","""event"",""trial"",""time""
""fullscreenenter"",""0"",""3934""
","
","
","""event"",""trial"",""time""
""fullscreenenter"",""0"",""3934""
","
","null","<p></p>","null","","","","","","","","","","","","","","","","","","","","","","",""
"","do_trial","116","585355","0.0-67.0-0.0","""event"",""trial"",""time""
""fullscreenenter"",""0"",""3934""
","
","
","""event"",""trial"",""time""
""fullscreenenter"",""0"",""3934""
","
","773","","","","","","","","49","0,1,0","0","mountain","12","probe-63","0.5306827399891721","0.32918930786107453","0.14735859492464642","0","","","","","","","",""
"","html-keyboard-response","117","586357","0.0-67.0-1.0","""event"",""trial"",""time""
""fullscreenenter"",""0"",""3934""
","
","
","""event"",""trial"",""time""
""fullscreenenter"",""0"",""3934""
","
","null","<p></p>","null","","","","","","","","","","","","","","","","","","","","","","",""
"","do_trial","118","591696","0.0-68.0-0.0","""event"",""trial"",""time""
""fullscreenenter"",""0"",""3934""
","
","
","""event"",""trial"",""time""
""fullscreenenter"",""0"",""3934""
","
","791.5","","","","","","","","49","1,0,0","0","mountain","13","probe-170","0.5071297835164004","0.4192135420654268","0.10135910789959579","1","","","","","","","",""
"","html-keyboard-response","119","592706","0.0-68.0-1.0","""event"",""trial"",""time""
""fullscreenenter"",""0"",""3934""
","
","
","""event"",""trial"",""time""
""fullscreenenter"",""0"",""3934""
","
","null","<p></p>","null","","","","","","","","","","","","","","","","","","","","","","",""
"","do_trial","120","598332","0.0-69.0-0.0","""event"",""trial"",""time""
""fullscreenenter"",""0"",""3934""
","
","
","""event"",""trial"",""time""
""fullscreenenter"",""0"",""3934""
","
","1082","","","","","","","","49","0,0,0","0","mountain","14","probe-97","0.3416157089924272","0.3925438202964955","0.08947166343558316","0","","","","","","","",""
"","html-keyboard-response","121","599338","0.0-69.0-1.0","""event"",""trial"",""time""
""fullscreenenter"",""0"",""3934""
","
","
","""event"",""trial"",""time""
""fullscreenenter"",""0"",""3934""
","
","null","<p></p>","null","","","","","","","","","","","","","","","","","","","","","","",""
"","do_trial","122","604325","0.0-70.0-0.0","""event"",""trial"",""time""
""fullscreenenter"",""0"",""3934""
","
","
","""event"",""trial"",""time""
""fullscreenenter"",""0"",""3934""
","
","433.6999988555908","","","","","","","","49","0,0,0","0","mountain","15","probe-204","0.4469369032412888","0.22993273319244922","0.18036916304635978","0","","","","","","","",""
"","html-keyboard-response","123","605339","0.0-70.0-1.0","""event"",""trial"",""time""
""fullscreenenter"",""0"",""3934""
","
","
","""event"",""trial"",""time""
""fullscreenenter"",""0"",""3934""
","
","null","<p></p>","null","","","","","","","","","","","","","","","","","","","","","","",""
"","do_trial","124","610407","0.0-71.0-0.0","""event"",""trial"",""time""
""fullscreenenter"",""0"",""3934""
","
","
","""event"",""trial"",""time""
""fullscreenenter"",""0"",""3934""
","
","528.9000015258789","","","","","","","","51","1,1,0","0","mountain","16","probe-207","0.4392963753638799","0.32959872981973953","0.11213575642474717","0","","","","","","","",""
"","html-keyboard-response","125","611422","0.0-71.0-1.0","""event"",""trial"",""time""
""fullscreenenter"",""0"",""3934""
","
","
","""event"",""trial"",""time""
""fullscreenenter"",""0"",""3934""
","
","null","<p></p>","null","","","","","","","","","","","","","","","","","","","","","","",""
"","do_trial","126","616408","0.0-72.0-0.0","""event"",""trial"",""time""
""fullscreenenter"",""0"",""3934""
","
","
","""event"",""trial"",""time""
""fullscreenenter"",""0"",""3934""
","
","446.0999984741211","","","","","","","","50","0,0,0","0","mountain","17","probe-171","0.47065638015661476","0.3702202367267984","0.1857253546184486","0","","","","","","","",""
"","html-keyboard-response","127","617423","0.0-72.0-1.0","""event"",""trial"",""time""
""fullscreenenter"",""0"",""3934""
","
","
","""event"",""trial"",""time""
""fullscreenenter"",""0"",""3934""
","
","null","<p></p>","null","","","","","","","","","","","","","","","","","","","","","","",""
"","do_trial","128","622622","0.0-73.0-0.0","""event"",""trial"",""time""
""fullscreenenter"",""0"",""3934""
","
","
","""event"",""trial"",""time""
""fullscreenenter"",""0"",""3934""
","
","653.4000015258789","","","","","","","","51","1,0,0","0","mountain","18","probe-02","0.6405790248916501","0.27230012401458925","0.07646539595863151","0","","","","","","","",""
"","html-keyboard-response","129","623637","0.0-73.0-1.0","""event"",""trial"",""time""
""fullscreenenter"",""0"",""3934""
","
","
","""event"",""trial"",""time""
""fullscreenenter"",""0"",""3934""
","
","null","<p></p>","null","","","","","","","","","","","","","","","","","","","","","","",""
"","do_trial","130","628540","0.0-74.0-0.0","""event"",""trial"",""time""
""fullscreenenter"",""0"",""3934""
","
","
","""event"",""trial"",""time""
""fullscreenenter"",""0"",""3934""
","
","359.3999996185303","","","","","","","","50","1,0,1","0","mountain","19","probe-211","0.6070598252395721","0.20318567557058628","0.06540592413687396","0","","","","","","","",""
"","html-keyboard-response","131","629556","0.0-74.0-1.0","""event"",""trial"",""time""
""fullscreenenter"",""0"",""3934""
","
","
","""event"",""trial"",""time""
""fullscreenenter"",""0"",""3934""
","
","null","<p></p>","null","","","","","","","","","","","","","","","","","","","","","","",""
"","do_trial","132","634473","0.0-75.0-0.0","""event"",""trial"",""time""
""fullscreenenter"",""0"",""3934""
","
","
","""event"",""trial"",""time""
""fullscreenenter"",""0"",""3934""
","
","376.3999996185303","","","","","","","","49","1,0,0","0","mountain","20","probe-36","0.6965308827293114","0.16255574669664627","0.1412590355618536","1","","","","","","","",""
"","html-keyboard-response","133","635489","0.0-75.0-1.0","""event"",""trial"",""time""
""fullscreenenter"",""0"",""3934""
","
","
","""event"",""trial"",""time""
""fullscreenenter"",""0"",""3934""
","
","null","<p></p>","null","","","","","","","","","","","","","","","","","","","","","","",""
"","do_trial","134","641523","0.0-76.0-0.0","""event"",""trial"",""time""
""fullscreenenter"",""0"",""3934""
","
","
","""event"",""trial"",""time""
""fullscreenenter"",""0"",""3934""
","
","1482.900001525879","","","","","","","","49","1,0,0","0","mountain","21","probe-31","0.7530943335904156","0.24174035927608833","0.17179125582821225","1","","","","","","","",""
"","html-keyboard-response","135","642539","0.0-76.0-1.0","""event"",""trial"",""time""
""fullscreenenter"",""0"",""3934""
","
","
","""event"",""trial"",""time""
""fullscreenenter"",""0"",""3934""
","
","null","<p></p>","null","","","","","","","","","","","","","","","","","","","","","","",""
"","do_trial","136","647683","0.0-77.0-0.0","""event"",""trial"",""time""
""fullscreenenter"",""0"",""3934""
","
","
","""event"",""trial"",""time""
""fullscreenenter"",""0"",""3934""
","
","592.9000015258789","","","","","","","","49","1,1,0","0","mountain","22","probe-162","0.8515484849955758","0.2888977905833411","0.15015917028013098","1","","","","","","","",""
"","html-keyboard-response","137","648688","0.0-77.0-1.0","""event"",""trial"",""time""
""fullscreenenter"",""0"",""3934""
","
","
","""event"",""trial"",""time""
""fullscreenenter"",""0"",""3934""
","
","null","<p></p>","null","","","","","","","","","","","","","","","","","","","","","","",""
"","do_trial","138","653538","0.0-78.0-0.0","""event"",""trial"",""time""
""fullscreenenter"",""0"",""3934""
","
","
","""event"",""trial"",""time""
""fullscreenenter"",""0"",""3934""
","
","299.8000011444092","","","","","","","","49","0,0,1","0","mountain","23","probe-69","0.7391218167837453","0.34239481532684024","0.19274669741164277","0","","","","","","","",""
"","html-keyboard-response","139","654540","0.0-78.0-1.0","""event"",""trial"",""time""
""fullscreenenter"",""0"",""3934""
","
","
","""event"",""trial"",""time""
""fullscreenenter"",""0"",""3934""
","
","null","<p></p>","null","","","","","","","","","","","","","","","","","","","","","","",""
"","do_trial","140","659390","0.0-79.0-0.0","""event"",""trial"",""time""
""fullscreenenter"",""0"",""3934""
","
","
","""event"",""trial"",""time""
""fullscreenenter"",""0"",""3934""
","
","303.79999923706055","","","","","","","","49","1,0,0","0","mountain","24","probe-33","0.6859328471210072","0.36667841381319455","0.225462150066042","1","","","","","","","",""
"","html-keyboard-response","141","660406","0.0-79.0-1.0","""event"",""trial"",""time""
""fullscreenenter"",""0"",""3934""
","
","
","""event"",""trial"",""time""
""fullscreenenter"",""0"",""3934""
","
","null","<p></p>","null","","","","","","","","","","","","","","","","","","","","","","",""
"","do_trial","142","665281","0.0-80.0-0.0","""event"",""trial"",""time""
""fullscreenenter"",""0"",""3934""
","
","
","""event"",""trial"",""time""
""fullscreenenter"",""0"",""3934""
","
","326.4000015258789","","","","","","","","49","0,1,0","0","mountain","25","probe-79","0.6569825504971715","0.37465226935040363","0.25883556607837127","0","","","","","","","",""
"","html-keyboard-response","143","666288","0.0-80.0-1.0","""event"",""trial"",""time""
""fullscreenenter"",""0"",""3934""
","
","
","""event"",""trial"",""time""
""fullscreenenter"",""0"",""3934""
","
","null","<p></p>","null","","","","","","","","","","","","","","","","","","","","","","",""
"","do_trial","144","671274","0.0-81.0-0.0","""event"",""trial"",""time""
""fullscreenenter"",""0"",""3934""
","
","
","""event"",""trial"",""time""
""fullscreenenter"",""0"",""3934""
","
","442.6000003814697","","","","","","","","49","0,1,0","0","mountain","26","probe-163","0.6800953583620691","0.32495832205742686","0.24584065075072492","0","","","","","","","",""
"","html-keyboard-response","145","672288","0.0-81.0-1.0","""event"",""trial"",""time""
""fullscreenenter"",""0"",""3934""
","
","
","""event"",""trial"",""time""
""fullscreenenter"",""0"",""3934""
","
","null","<p></p>","null","","","","","","","","","","","","","","","","","","","","","","",""
"","do_trial","146","677390","0.0-82.0-0.0","""event"",""trial"",""time""
""fullscreenenter"",""0"",""3934""
","
","
","""event"",""trial"",""time""
""fullscreenenter"",""0"",""3934""
","
","555.8000011444092","","","","","","","","49","1,0,1","0","mountain","27","probe-19","0.6482601037296161","0.36281330360078196","0.238374215084931","1","","","","","","","",""
"","html-keyboard-response","147","678405","0.0-82.0-1.0","""event"",""trial"",""time""
""fullscreenenter"",""0"",""3934""
","
","
","""event"",""trial"",""time""
""fullscreenenter"",""0"",""3934""
","
","null","<p></p>","null","","","","","","","","","","","","","","","","","","","","","","",""
"","do_trial","148","683689","0.0-83.0-0.0","""event"",""trial"",""time""
""fullscreenenter"",""0"",""3934""
","
","
","""event"",""trial"",""time""
""fullscreenenter"",""0"",""3934""
","
","743.3000011444092","","","","","","","","49","1,1,0","0","mountain","28","probe-131","0.817105334719075","0.31019458048802234","0.1728371457255604","1","","","","","","","",""
"","html-keyboard-response","149","684706","0.0-83.0-1.0","""event"",""trial"",""time""
""fullscreenenter"",""0"",""3934""
","
","
","""event"",""trial"",""time""
""fullscreenenter"",""0"",""3934""
","
","null","<p></p>","null","","","","","","","","","","","","","","","","","","","","","","",""
"","do_trial","150","690148","0.0-84.0-0.0","""event"",""trial"",""time""
""fullscreenenter"",""0"",""3934""
","
","
","""event"",""trial"",""time""
""fullscreenenter"",""0"",""3934""
","
","886","","","","","","","","49","0,0,0","0","mountain","29","probe-102","0.7042116180325821","0.32000625240355457","0.08733644391150801","0","","","","","","","",""
"","html-keyboard-response","151","691156","0.0-84.0-1.0","""event"",""trial"",""time""
""fullscreenenter"",""0"",""3934""
","
","
","""event"",""trial"",""time""
""fullscreenenter"",""0"",""3934""
","
","null","<p></p>","null","","","","","","","","","","","","","","","","","","","","","","",""
"","do_bye","152","692672","0.0-85.0-0.0","""event"",""trial"",""time""
""fullscreenenter"",""0"",""3934""
","
","
","""event"",""trial"",""time""
""fullscreenenter"",""0"",""3934""
","
","null","","","","","","","","null","","","","","","","","","","","","","","","","",""
"","break","153","695313","0.0-85.0-1.0","""event"",""trial"",""time""
""fullscreenenter"",""0"",""3934""
","
","
","""event"",""trial"",""time""
""fullscreenenter"",""0"",""3934""
","
","2640.3999996185303","<div class='center'><p>Time to take a quick break! You have 2 minutes to rest, but you can move on sooner if you'd like.</p><p> Press the <b>space bar</b> to continue.</p></div>","32","","","","","","","","","","","","","","","","","","","","","","",""
"","do_travel","154","704316","0.0-86.0-0.0","""event"",""trial"",""time""
""fullscreenenter"",""0"",""3934""
","
","
","""event"",""trial"",""time""
""fullscreenenter"",""0"",""3934""
","
","null","","","","","","","","null","","","","","","","","","","","","","","","","",""
"","do_welcome","155","708325","0.0-86.0-1.0","""event"",""trial"",""time""
""fullscreenenter"",""0"",""3934""
","
","
","""event"",""trial"",""time""
""fullscreenenter"",""0"",""3934""
","
","null","","","","","","","","null","","","","","","","","","","","","","","","","",""
"","do_trial","156","715225","0.0-87.0-0.0","""event"",""trial"",""time""
""fullscreenenter"",""0"",""3934""
","
","
","""event"",""trial"",""time""
""fullscreenenter"",""0"",""3934""
","
","2359","","","","","","","","50","1,0,0","1","forest","30","probe-210","1","0.2976065187944134","0.07910940065847999","0","","","","","","","",""
"","html-keyboard-response","157","716230","0.0-87.0-1.0","""event"",""trial"",""time""
""fullscreenenter"",""0"",""3934""
","
","
","""event"",""trial"",""time""
""fullscreenenter"",""0"",""3934""
","
","null","<p></p>","null","","","","","","","","","","","","","","","","","","","","","","",""
"","do_trial","158","722728","0.0-88.0-0.0","""event"",""trial"",""time""
""fullscreenenter"",""0"",""3934""
","
","
","""event"",""trial"",""time""
""fullscreenenter"",""0"",""3934""
","
","1957.6999988555908","","","","","","","","50","1,1,0","1","forest","31","probe-16","1","0.25590450917415664","0.2220946470859292","1","","","","","","","",""
"","html-keyboard-response","159","723744","0.0-88.0-1.0","""event"",""trial"",""time""
""fullscreenenter"",""0"",""3934""
","
","
","""event"",""trial"",""time""
""fullscreenenter"",""0"",""3934""
","
","null","<p></p>","null","","","","","","","","","","","","","","","","","","","","","","",""
"","do_trial","160","728940","0.0-89.0-0.0","""event"",""trial"",""time""
""fullscreenenter"",""0"",""3934""
","
","
","""event"",""trial"",""time""
""fullscreenenter"",""0"",""3934""
","
","651.1000003814697","","","","","","","","50","1,0,0","1","forest","32","probe-87","1","0.29394065634756344","0.25413288722294525","0","","","","","","","",""
"","html-keyboard-response","161","729956","0.0-89.0-1.0","""event"",""trial"",""time""
""fullscreenenter"",""0"",""3934""
","
","
","""event"",""trial"",""time""
""fullscreenenter"",""0"",""3934""
","
","null","<p></p>","null","","","","","","","","","","","","","","","","","","","","","","",""
"","do_trial","162","734926","0.0-90.0-0.0","""event"",""trial"",""time""
""fullscreenenter"",""0"",""3934""
","
","
","""event"",""trial"",""time""
""fullscreenenter"",""0"",""3934""
","
","423.79999923706055","","","","","","","","51","0,1,1","1","forest","33","probe-218","0.6873358127529849","0.3710145165469153","0.20181211677884797","1","","","","","","","",""
"","html-keyboard-response","163","735939","0.0-90.0-1.0","""event"",""trial"",""time""
""fullscreenenter"",""0"",""3934""
","
","
","""event"",""trial"",""time""
""fullscreenenter"",""0"",""3934""
","
","null","<p></p>","null","","","","","","","","","","","","","","","","","","","","","","",""
"","do_trial","164","741139","0.0-91.0-0.0","""event"",""trial"",""time""
""fullscreenenter"",""0"",""3934""
","
","
","""event"",""trial"",""time""
""fullscreenenter"",""0"",""3934""
","
","648.3999996185303","","","","","","","","51","1,0,0","1","forest","34","probe-73","0.7180058831054943","0.22851359199958501","0.2301797310045598","0","","","","","","","",""
"","html-keyboard-response","165","742146","0.0-91.0-1.0","""event"",""trial"",""time""
""fullscreenenter"",""0"",""3934""
","
","
","""event"",""trial"",""time""
""fullscreenenter"",""0"",""3934""
","
","null","<p></p>","null","","","","","","","","","","","","","","","","","","","","","","",""
"","do_trial","166","747159","0.0-92.0-0.0","""event"",""trial"",""time""
""fullscreenenter"",""0"",""3934""
","
","
","""event"",""trial"",""time""
""fullscreenenter"",""0"",""3934""
","
","473.3999996185303","","","","","","","","51","1,0,0","1","forest","35","probe-123","0.6352238879487723","0.18097373942139441","0.08808173468531952","0","","","","","","","",""
"","html-keyboard-response","167","748165","0.0-92.0-1.0","""event"",""trial"",""time""
""fullscreenenter"",""0"",""3934""
","
","
","""event"",""trial"",""time""
""fullscreenenter"",""0"",""3934""
","
","null","<p></p>","null","","","","","","","","","","","","","","","","","","","","","","",""
"","do_trial","168","753090","0.0-93.0-0.0","""event"",""trial"",""time""
""fullscreenenter"",""0"",""3934""
","
","
","""event"",""trial"",""time""
""fullscreenenter"",""0"",""3934""
","
","374.6999988555908","","","","","","","","49","1,0,0","1","forest","36","probe-223","0.577557907118832","0.055594018922293036","0.10734039922031344","1","","","","","","","",""
"","html-keyboard-response","169","754106","0.0-93.0-1.0","""event"",""trial"",""time""
""fullscreenenter"",""0"",""3934""
","
","
","""event"",""trial"",""time""
""fullscreenenter"",""0"",""3934""
","
","null","<p></p>","null","","","","","","","","","","","","","","","","","","","","","","",""
"","do_trial","170","759000","0.0-94.0-0.0","""event"",""trial"",""time""
""fullscreenenter"",""0"",""3934""
","
","
","""event"",""trial"",""time""
""fullscreenenter"",""0"",""3934""
","
","354.0999984741211","","","","","","","","49","1,0,0","1","forest","37","probe-42","0.6738209750160449","0.2267299401856951","0.1605925337260743","1","","","","","","","",""
"","html-keyboard-response","171","760005","0.0-94.0-1.0","""event"",""trial"",""time""
""fullscreenenter"",""0"",""3934""
","
","
","""event"",""trial"",""time""
""fullscreenenter"",""0"",""3934""
","
","null","<p></p>","null","","","","","","","","","","","","","","","","","","","","","","",""
"","do_trial","172","764934","0.0-95.0-0.0","""event"",""trial"",""time""
""fullscreenenter"",""0"",""3934""
","
","
","""event"",""trial"",""time""
""fullscreenenter"",""0"",""3934""
","
","390.3000011444092","","","","","","","","49","1,0,0","1","forest","38","probe-134","0.7111670957634907","0.3246447295100203","0.10031775856919113","1","","","","","","","",""
"","html-keyboard-response","173","765939","0.0-95.0-1.0","""event"",""trial"",""time""
""fullscreenenter"",""0"",""3934""
","
","
","""event"",""trial"",""time""
""fullscreenenter"",""0"",""3934""
","
","null","<p></p>","null","","","","","","","","","","","","","","","","","","","","","","",""
"","do_trial","174","771240","0.0-96.0-0.0","""event"",""trial"",""time""
""fullscreenenter"",""0"",""3934""
","
","
","""event"",""trial"",""time""
""fullscreenenter"",""0"",""3934""
","
","760","","","","","","","","49","1,1,0","1","forest","39","probe-25","0.628385484285542","0.24888587173222015","0.18635396751453112","1","","","","","","","",""
"","html-keyboard-response","175","772244","0.0-96.0-1.0","""event"",""trial"",""time""
""fullscreenenter"",""0"",""3934""
","
","
","""event"",""trial"",""time""
""fullscreenenter"",""0"",""3934""
","
","null","<p></p>","null","","","","","","","","","","","","","","","","","","","","","","",""
"","do_trial","176","777372","0.0-97.0-0.0","""event"",""trial"",""time""
""fullscreenenter"",""0"",""3934""
","
","
","""event"",""trial"",""time""
""fullscreenenter"",""0"",""3934""
","
","583.8999996185303","","","","","","","","49","1,0,0","1","forest","40","probe-76","0.6295335631991977","0.24905808423315878","0.14729045798350768","1","","","","","","","",""
"","html-keyboard-response","177","778373","0.0-97.0-1.0","""event"",""trial"",""time""
""fullscreenenter"",""0"",""3934""
","
","
","""event"",""trial"",""time""
""fullscreenenter"",""0"",""3934""
","
","null","<p></p>","null","","","","","","","","","","","","","","","","","","","","","","",""
"","do_trial","178","783357","0.0-98.0-0.0","""event"",""trial"",""time""
""fullscreenenter"",""0"",""3934""
","
","
","""event"",""trial"",""time""
""fullscreenenter"",""0"",""3934""
","
","438.1000003814697","","","","","","","","49","0,0,0","1","forest","41","probe-68","0.5392401454347034","0.2454792364164244","0.12399720638331857","0","","","","","","","",""
"","html-keyboard-response","179","784372","0.0-98.0-1.0","""event"",""trial"",""time""
""fullscreenenter"",""0"",""3934""
","
","
","""event"",""trial"",""time""
""fullscreenenter"",""0"",""3934""
","
","null","<p></p>","null","","","","","","","","","","","","","","","","","","","","","","",""
"","do_trial","180","789224","0.0-99.0-0.0","""event"",""trial"",""time""
""fullscreenenter"",""0"",""3934""
","
","
","""event"",""trial"",""time""
""fullscreenenter"",""0"",""3934""
","
","311.20000076293945","","","","","","","","49","0,0,0","1","forest","42","probe-217","0.5379822248314988","0.06566478694775554","0.348647602836543","0","","","","","","","",""
"","html-keyboard-response","181","790239","0.0-99.0-1.0","""event"",""trial"",""time""
""fullscreenenter"",""0"",""3934""
","
","
","""event"",""trial"",""time""
""fullscreenenter"",""0"",""3934""
","
","null","<p></p>","null","","","","","","","","","","","","","","","","","","","","","","",""
"","do_trial","182","795257","0.0-100.0-0.0","""event"",""trial"",""time""
""fullscreenenter"",""0"",""3934""
","
","
","""event"",""trial"",""time""
""fullscreenenter"",""0"",""3934""
","
","476.70000076293945","","","","","","","","49","0,1,0","1","forest","43","probe-130","0.5149255807309151","0.11256284721195119","0.36856707056361665","0","","","","","","","",""
"","html-keyboard-response","183","796272","0.0-100.0-1.0","""event"",""trial"",""time""
""fullscreenenter"",""0"",""3934""
","
","
","""event"",""trial"",""time""
""fullscreenenter"",""0"",""3934""
","
","null","<p></p>","null","","","","","","","","","","","","","","","","","","","","","","",""
"","do_trial","184","801191","0.0-101.0-0.0","""event"",""trial"",""time""
""fullscreenenter"",""0"",""3934""
","
","
","""event"",""trial"",""time""
""fullscreenenter"",""0"",""3934""
","
","379","","","","","","","","50","0,0,1","1","forest","44","probe-221","0.3647217487043438","0.15349263850246656","0.6190170011670426","0","","","","","","","",""
"","html-keyboard-response","185","802194","0.0-101.0-1.0","""event"",""trial"",""time""
""fullscreenenter"",""0"",""3934""
","
","
","""event"",""trial"",""time""
""fullscreenenter"",""0"",""3934""
","
","null","<p></p>","null","","","","","","","","","","","","","","","","","","","","","","",""
"","do_trial","186","807190","0.0-102.0-0.0","""event"",""trial"",""time""
""fullscreenenter"",""0"",""3934""
","
","
","""event"",""trial"",""time""
""fullscreenenter"",""0"",""3934""
","
","457","","","","","","","","51","1,0,1","1","forest","45","probe-78","0.3920335563132936","0.13922310899577928","0.7305730588221764","1","","","","","","","",""
"","html-keyboard-response","187","808200","0.0-102.0-1.0","""event"",""trial"",""time""
""fullscreenenter"",""0"",""3934""
","
","
","""event"",""trial"",""time""
""fullscreenenter"",""0"",""3934""
","
","null","<p></p>","null","","","","","","","","","","","","","","","","","","","","","","",""
"","do_trial","188","813723","0.0-103.0-0.0","""event"",""trial"",""time""
""fullscreenenter"",""0"",""3934""
","
","
","""event"",""trial"",""time""
""fullscreenenter"",""0"",""3934""
","
","979.2999992370605","","","","","","","","51","1,0,1","1","forest","46","probe-167","0.43279512863890474","0.16120432539938484","0.7487557321624853","1","","","","","","","",""
"","html-keyboard-response","189","814739","0.0-103.0-1.0","""event"",""trial"",""time""
""fullscreenenter"",""0"",""3934""
","
","
","""event"",""trial"",""time""
""fullscreenenter"",""0"",""3934""
","
","null","<p></p>","null","","","","","","","","","","","","","","","","","","","","","","",""
"","do_trial","190","820424","0.0-104.0-0.0","""event"",""trial"",""time""
""fullscreenenter"",""0"",""3934""
","
","
","""event"",""trial"",""time""
""fullscreenenter"",""0"",""3934""
","
","1144.2000007629395","","","","","","","","51","0,1,1","1","forest","47","probe-110","0.27212003407657587","0.18835890789854895","0.6805577407532978","1","","","","","","","",""
"","html-keyboard-response","191","821439","0.0-104.0-1.0","""event"",""trial"",""time""
""fullscreenenter"",""0"",""3934""
","
","
","""event"",""trial"",""time""
""fullscreenenter"",""0"",""3934""
","
","null","<p></p>","null","","","","","","","","","","","","","","","","","","","","","","",""
"","do_trial","192","826340","0.0-105.0-0.0","""event"",""trial"",""time""
""fullscreenenter"",""0"",""3934""
","
","
","""event"",""trial"",""time""
""fullscreenenter"",""0"",""3934""
","
","349","","","","","","","","51","0,1,1","1","forest","48","probe-91","0.23102665456975124","0.19308347602155418","0.719094687734439","1","","","","","","","",""
"","html-keyboard-response","193","827356","0.0-105.0-1.0","""event"",""trial"",""time""
""fullscreenenter"",""0"",""3934""
","
","
","""event"",""trial"",""time""
""fullscreenenter"",""0"",""3934""
","
","null","<p></p>","null","","","","","","","","","","","","","","","","","","","","","","",""
"","do_trial","194","832359","0.0-106.0-0.0","""event"",""trial"",""time""
""fullscreenenter"",""0"",""3934""
","
","
","""event"",""trial"",""time""
""fullscreenenter"",""0"",""3934""
","
","463.8999996185303","","","","","","","","51","0,0,1","1","forest","49","probe-96","0.2957257946005432","0.13153247035417875","0.7196722629843736","1","","","","","","","",""
"","html-keyboard-response","195","833373","0.0-106.0-1.0","""event"",""trial"",""time""
""fullscreenenter"",""0"",""3934""
","
","
","""event"",""trial"",""time""
""fullscreenenter"",""0"",""3934""
","
","null","<p></p>","null","","","","","","","","","","","","","","","","","","","","","","",""
"","do_trial","196","838419","0.0-107.0-0.0","""event"",""trial"",""time""
""fullscreenenter"",""0"",""3934""
","
","
","""event"",""trial"",""time""
""fullscreenenter"",""0"",""3934""
","
","495.20000076293945","","","","","","","","51","0,1,1","1","forest","50","probe-43","0.2978537593438031","0.12212392453604913","0.7074669704164157","1","","","","","","","",""
"","html-keyboard-response","197","839424","0.0-107.0-1.0","""event"",""trial"",""time""
""fullscreenenter"",""0"",""3934""
","
","
","""event"",""trial"",""time""
""fullscreenenter"",""0"",""3934""
","
","null","<p></p>","null","","","","","","","","","","","","","","","","","","","","","","",""
"","do_trial","198","844435","0.0-108.0-0.0","""event"",""trial"",""time""
""fullscreenenter"",""0"",""3934""
","
","
","""event"",""trial"",""time""
""fullscreenenter"",""0"",""3934""
","
","459.70000076293945","","","","","","","","51","1,0,1","1","forest","51","probe-27","0.46283456901473585","0.09262145266338885","0.9150584064685409","1","","","","","","","",""
"","html-keyboard-response","199","845441","0.0-108.0-1.0","""event"",""trial"",""time""
""fullscreenenter"",""0"",""3934""
","
","
","""event"",""trial"",""time""
""fullscreenenter"",""0"",""3934""
","
","null","<p></p>","null","","","","","","","","","","","","","","","","","","","","","","",""
"","do_trial","200","852240","0.0-109.0-0.0","""event"",""trial"",""time""
""fullscreenenter"",""0"",""3934""
","
","
","""event"",""trial"",""time""
""fullscreenenter"",""0"",""3934""
","
","2251.5","","","","","","","","51","0,0,0","1","forest","52","probe-175","0.5282198378754582","0.15506628187775678","0.7115814823661328","0","","","","","","","",""
"","html-keyboard-response","201","853256","0.0-109.0-1.0","""event"",""trial"",""time""
""fullscreenenter"",""0"",""3934""
","
","
","""event"",""trial"",""time""
""fullscreenenter"",""0"",""3934""
","
","null","<p></p>","null","","","","","","","","","","","","","","","","","","","","","","",""
"","do_trial","202","858274","0.0-110.0-0.0","""event"",""trial"",""time""
""fullscreenenter"",""0"",""3934""
","
","
","""event"",""trial"",""time""
""fullscreenenter"",""0"",""3934""
","
","467.6000003814697","","","","","","","","51","1,0,0","1","forest","53","probe-198","0.45317233007096386","0.1406495799753896","0.7526441358132727","0","","","","","","","",""
"","html-keyboard-response","203","859289","0.0-110.0-1.0","""event"",""trial"",""time""
""fullscreenenter"",""0"",""3934""
","
","
","""event"",""trial"",""time""
""fullscreenenter"",""0"",""3934""
","
","null","<p></p>","null","","","","","","","","","","","","","","","","","","","","","","",""
"","do_trial","204","864388","0.0-111.0-0.0","""event"",""trial"",""time""
""fullscreenenter"",""0"",""3934""
","
","
","""event"",""trial"",""time""
""fullscreenenter"",""0"",""3934""
","
","546.7000007629395","","","","","","","","51","0,0,1","1","forest","54","probe-60","0.4575589464550825","0.06623254366364648","0.6748176971442229","1","","","","","","","",""
"","html-keyboard-response","205","865400","0.0-111.0-1.0","""event"",""trial"",""time""
""fullscreenenter"",""0"",""3934""
","
","
","""event"",""trial"",""time""
""fullscreenenter"",""0"",""3934""
","
","null","<p></p>","null","","","","","","","","","","","","","","","","","","","","","","",""
"","do_trial","206","870747","0.0-112.0-0.0","""event"",""trial"",""time""
""fullscreenenter"",""0"",""3934""
","
","
","""event"",""trial"",""time""
""fullscreenenter"",""0"",""3934""
","
","803.6000003814697","","","","","","","","51","0,0,0","1","forest","55","probe-39","0.22791808481653622","0.08876845303787347","0.5297111488084153","0","","","","","","","",""
"","html-keyboard-response","207","871755","0.0-112.0-1.0","""event"",""trial"",""time""
""fullscreenenter"",""0"",""3934""
","
","
","""event"",""trial"",""time""
""fullscreenenter"",""0"",""3934""
","
","null","<p></p>","null","","","","","","","","","","","","","","","","","","","","","","",""
"","do_trial","208","877357","0.0-113.0-0.0","""event"",""trial"",""time""
""fullscreenenter"",""0"",""3934""
","
","
","""event"",""trial"",""time""
""fullscreenenter"",""0"",""3934""
","
","1057","","","","","","","","51","0,0,1","1","forest","56","probe-120","0.3442249849432744","0.10430426801132633","0.5116069127547602","1","","","","","","","",""
"","html-keyboard-response","209","878372","0.0-113.0-1.0","""event"",""trial"",""time""
""fullscreenenter"",""0"",""3934""
","
","
","""event"",""trial"",""time""
""fullscreenenter"",""0"",""3934""
","
","null","<p></p>","null","","","","","","","","","","","","","","","","","","","","","","",""
"","do_trial","210","883340","0.0-114.0-0.0","""event"",""trial"",""time""
""fullscreenenter"",""0"",""3934""
","
","
","""event"",""trial"",""time""
""fullscreenenter"",""0"",""3934""
","
","423.29999923706055","","","","","","","","51","0,0,0","1","forest","57","probe-03","0.35011303907411595","0.13408099055318984","0.4185056718673306","0","","","","","","","",""
"","html-keyboard-response","211","884355","0.0-114.0-1.0","""event"",""trial"",""time""
""fullscreenenter"",""0"",""3934""
","
","
","""event"",""trial"",""time""
""fullscreenenter"",""0"",""3934""
","
","null","<p></p>","null","","","","","","","","","","","","","","","","","","","","","","",""
"","do_trial","212","889992","0.0-115.0-0.0","""event"",""trial"",""time""
""fullscreenenter"",""0"",""3934""
","
","
","""event"",""trial"",""time""
""fullscreenenter"",""0"",""3934""
","
","1095.7000007629395","","","","","","","","51","1,0,0","1","forest","58","probe-142","0.5449753502013569","0.1242622408073666","0.4167903234542056","0","","","","","","","",""
"","html-keyboard-response","213","891004","0.0-115.0-1.0","""event"",""trial"",""time""
""fullscreenenter"",""0"",""3934""
","
","
","""event"",""trial"",""time""
""fullscreenenter"",""0"",""3934""
","
","null","<p></p>","null","","","","","","","","","","","","","","","","","","","","","","",""
"","do_trial","214","895856","0.0-116.0-0.0","""event"",""trial"",""time""
""fullscreenenter"",""0"",""3934""
","
","
","""event"",""trial"",""time""
""fullscreenenter"",""0"",""3934""
","
","303","","","","","","","","50","0,0,0","1","forest","59","probe-135","0.2795189024264119","0.12219261908894208","0.49171163089137027","0","","","","","","","",""
"","html-keyboard-response","215","896873","0.0-116.0-1.0","""event"",""trial"",""time""
""fullscreenenter"",""0"",""3934""
","
","
","""event"",""trial"",""time""
""fullscreenenter"",""0"",""3934""
","
","null","<p></p>","null","","","","","","","","","","","","","","","","","","","","","","",""
"","do_trial","216","902041","0.0-117.0-0.0","""event"",""trial"",""time""
""fullscreenenter"",""0"",""3934""
","
","
","""event"",""trial"",""time""
""fullscreenenter"",""0"",""3934""
","
","626.1000003814697","","","","","","","","49","1,0,0","1","forest","60","probe-152","0.3017141258087652","0.09131210517801605","0.6086947856761467","1","","","","","","","",""
"","html-keyboard-response","217","903055","0.0-117.0-1.0","""event"",""trial"",""time""
""fullscreenenter"",""0"",""3934""
","
","
","""event"",""trial"",""time""
""fullscreenenter"",""0"",""3934""
","
","null","<p></p>","null","","","","","","","","","","","","","","","","","","","","","","",""
"","do_trial","218","908091","0.0-118.0-0.0","""event"",""trial"",""time""
""fullscreenenter"",""0"",""3934""
","
","
","""event"",""trial"",""time""
""fullscreenenter"",""0"",""3934""
","
","491.5","","","","","","","","49","0,0,1","1","forest","61","probe-84","0.29013155564116966","0.11517920919946752","0.5585004071639328","0","","","","","","","",""
"","html-keyboard-response","219","909105","0.0-118.0-1.0","""event"",""trial"",""time""
""fullscreenenter"",""0"",""3934""
","
","
","""event"",""trial"",""time""
""fullscreenenter"",""0"",""3934""
","
","null","<p></p>","null","","","","","","","","","","","","","","","","","","","","","","",""
"","do_trial","220","914056","0.0-119.0-0.0","""event"",""trial"",""time""
""fullscreenenter"",""0"",""3934""
","
","
","""event"",""trial"",""time""
""fullscreenenter"",""0"",""3934""
","
","410.1999988555908","","","","","","","","49","0,0,1","1","forest","62","probe-40","0.3609858730215719","0.15276372687772807","0.7420055553482806","0","","","","","","","",""
"","html-keyboard-response","221","915061","0.0-119.0-1.0","""event"",""trial"",""time""
""fullscreenenter"",""0"",""3934""
","
","
","""event"",""trial"",""time""
""fullscreenenter"",""0"",""3934""
","
","null","<p></p>","null","","","","","","","","","","","","","","","","","","","","","","",""
"","do_trial","222","919923","0.0-120.0-0.0","""event"",""trial"",""time""
""fullscreenenter"",""0"",""3934""
","
","
","""event"",""trial"",""time""
""fullscreenenter"",""0"",""3934""
","
","310","","","","","","","","50","0,0,1","1","forest","63","probe-194","0.3484364453782839","0.0513397417197794","0.6607517801940889","0","","","","","","","",""
"","html-keyboard-response","223","920939","0.0-120.0-1.0","""event"",""trial"",""time""
""fullscreenenter"",""0"",""3934""
","
","
","""event"",""trial"",""time""
""fullscreenenter"",""0"",""3934""
","
","null","<p></p>","null","","","","","","","","","","","","","","","","","","","","","","",""
"","do_trial","224","925990","0.0-121.0-0.0","""event"",""trial"",""time""
""fullscreenenter"",""0"",""3934""
","
","
","""event"",""trial"",""time""
""fullscreenenter"",""0"",""3934""
","
","512.5","","","","","","","","50","1,0,0","1","forest","64","probe-103","0.25763645665670964","0.08682180871807166","0.5211906474650068","0","","","","","","","",""
"","html-keyboard-response","225","926992","0.0-121.0-1.0","""event"",""trial"",""time""
""fullscreenenter"",""0"",""3934""
","
","
","""event"",""trial"",""time""
""fullscreenenter"",""0"",""3934""
","
","null","<p></p>","null","","","","","","","","","","","","","","","","","","","","","","",""
"","do_trial","226","931842","0.0-122.0-0.0","""event"",""trial"",""time""
""fullscreenenter"",""0"",""3934""
","
","
","""event"",""trial"",""time""
""fullscreenenter"",""0"",""3934""
","
","299.70000076293945","","","","","","","","49","0,0,0","1","forest","65","probe-136","0.2405431246466672","0.06302547392690501","0.5867795096711034","0","","","","","","","",""
"","html-keyboard-response","227","932855","0.0-122.0-1.0","""event"",""trial"",""time""
""fullscreenenter"",""0"",""3934""
","
","
","""event"",""trial"",""time""
""fullscreenenter"",""0"",""3934""
","
","null","<p></p>","null","","","","","","","","","","","","","","","","","","","","","","",""
"","do_trial","228","937855","0.0-123.0-0.0","""event"",""trial"",""time""
""fullscreenenter"",""0"",""3934""
","
","
","""event"",""trial"",""time""
""fullscreenenter"",""0"",""3934""
","
","451.70000076293945","","","","","","","","49","0,0,1","1","forest","66","probe-18","0.19848695905090064","0.09589964686040886","0.5336629784937016","0","","","","","","","",""
"","html-keyboard-response","229","938872","0.0-123.0-1.0","""event"",""trial"",""time""
""fullscreenenter"",""0"",""3934""
","
","
","""event"",""trial"",""time""
""fullscreenenter"",""0"",""3934""
","
","null","<p></p>","null","","","","","","","","","","","","","","","","","","","","","","",""
"","do_trial","230","943775","0.0-124.0-0.0","""event"",""trial"",""time""
""fullscreenenter"",""0"",""3934""
","
","
","""event"",""trial"",""time""
""fullscreenenter"",""0"",""3934""
","
","347.9000015258789","","","","","","","","51","0,0,0","1","forest","67","probe-121","0.3055811463982831","0.11730589126415442","0.4887583993144344","0","","","","","","","",""
"","html-keyboard-response","231","944788","0.0-124.0-1.0","""event"",""trial"",""time""
""fullscreenenter"",""0"",""3934""
","
","
","""event"",""trial"",""time""
""fullscreenenter"",""0"",""3934""
","
","null","<p></p>","null","","","","","","","","","","","","","","","","","","","","","","",""
"","do_trial","232","949922","0.0-125.0-0.0","""event"",""trial"",""time""
""fullscreenenter"",""0"",""3934""
","
","
","""event"",""trial"",""time""
""fullscreenenter"",""0"",""3934""
","
","583.5","","","","","","","","51","0,0,1","1","forest","68","probe-100","0.13525038519931248","0.05605669956157808","0.5713321230113432","1","","","","","","","",""
"","html-keyboard-response","233","950929","0.0-125.0-1.0","""event"",""trial"",""time""
""fullscreenenter"",""0"",""3934""
","
","
","""event"",""trial"",""time""
""fullscreenenter"",""0"",""3934""
","
","null","<p></p>","null","","","","","","","","","","","","","","","","","","","","","","",""
"","do_trial","234","956056","0.0-126.0-0.0","""event"",""trial"",""time""
""fullscreenenter"",""0"",""3934""
","
","
","""event"",""trial"",""time""
""fullscreenenter"",""0"",""3934""
","
","586.5","","","","","","","","51","0,0,0","1","forest","69","probe-177","0.21781138963812982","0.094185209646445","0.6275713136199472","0","","","","","","","",""
"","html-keyboard-response","235","957072","0.0-126.0-1.0","""event"",""trial"",""time""
""fullscreenenter"",""0"",""3934""
","
","
","""event"",""trial"",""time""
""fullscreenenter"",""0"",""3934""
","
","null","<p></p>","null","","","","","","","","","","","","","","","","","","","","","","",""
"","do_bye","236","958589","0.0-127.0-0.0","""event"",""trial"",""time""
""fullscreenenter"",""0"",""3934""
","
","
","""event"",""trial"",""time""
""fullscreenenter"",""0"",""3934""
","
","null","","","","","","","","null","","","","","","","","","","","","","","","","",""
"","break","237","960081","0.0-127.0-1.0","""event"",""trial"",""time""
""fullscreenenter"",""0"",""3934""
","
","
","""event"",""trial"",""time""
""fullscreenenter"",""0"",""3934""
","
","1491.400001525879","<div class='center'><p>Time to take a quick break! You have 2 minutes to rest, but you can move on sooner if you'd like.</p><p> Press the <b>space bar</b> to continue.</p></div>","32","","","","","","","","","","","","","","","","","","","","","","",""
"","do_travel","238","969095","0.0-128.0-0.0","""event"",""trial"",""time""
""fullscreenenter"",""0"",""3934""
","
","
","""event"",""trial"",""time""
""fullscreenenter"",""0"",""3934""
","
","null","","","","","","","","null","","","","","","","","","","","","","","","","",""
"","do_welcome","239","973111","0.0-128.0-1.0","""event"",""trial"",""time""
""fullscreenenter"",""0"",""3934""
","
","
","""event"",""trial"",""time""
""fullscreenenter"",""0"",""3934""
","
","null","","","","","","","","null","","","","","","","","","","","","","","","","",""
"","do_trial","240","979350","0.0-129.0-0.0","""event"",""trial"",""time""
""fullscreenenter"",""0"",""3934""
","
","
","""event"",""trial"",""time""
""fullscreenenter"",""0"",""3934""
","
","1683.900001525879","","","","","","","","50","0,0,1","2","countryside","70","probe-94","0.29263173010046467","0.0805051389569646","1","0","","","","","","","",""
"","html-keyboard-response","241","980365","0.0-129.0-1.0","""event"",""trial"",""time""
""fullscreenenter"",""0"",""3934""
","
","
","""event"",""trial"",""time""
""fullscreenenter"",""0"",""3934""
","
","null","<p></p>","null","","","","","","","","","","","","","","","","","","","","","","",""
"","do_trial","242","986439","0.0-130.0-0.0","""event"",""trial"",""time""
""fullscreenenter"",""0"",""3934""
","
","
","""event"",""trial"",""time""
""fullscreenenter"",""0"",""3934""
","
","1533.6000003814697","","","","","","","","50","0,0,1","2","countryside","71","probe-35","0.3376809913276143","0.0725916925604226","1","0","","","","","","","",""
"","html-keyboard-response","243","987441","0.0-130.0-1.0","""event"",""trial"",""time""
""fullscreenenter"",""0"",""3934""
","
","
","""event"",""trial"",""time""
""fullscreenenter"",""0"",""3934""
","
","null","<p></p>","null","","","","","","","","","","","","","","","","","","","","","","",""
"","do_trial","244","992956","0.0-131.0-0.0","""event"",""trial"",""time""
""fullscreenenter"",""0"",""3934""
","
","
","""event"",""trial"",""time""
""fullscreenenter"",""0"",""3934""
","
","970.1000003814697","","","","","","","","51","1,0,1","2","countryside","72","probe-180","0.33343574803844594","0.05048100824079821","0.8620113812930927","1","","","","","","","",""
"","html-keyboard-response","245","993963","0.0-131.0-1.0","""event"",""trial"",""time""
""fullscreenenter"",""0"",""3934""
","
","
","""event"",""trial"",""time""
""fullscreenenter"",""0"",""3934""
","
","null","<p></p>","null","","","","","","","","","","","","","","","","","","","","","","",""
"","do_trial","246","1000005","0.0-132.0-0.0","""event"",""trial"",""time""
""fullscreenenter"",""0"",""3934""
","
","
","""event"",""trial"",""time""
""fullscreenenter"",""0"",""3934""
","
","null","","","","","","","","null","0,0,1","2","countryside","73","probe-188","0.25236525674591326","0.06559299306682036","0.5935829081754848","","","","","","","","",""
"","html-keyboard-response","247","1001022","0.0-132.0-1.0","""event"",""trial"",""time""
""fullscreenenter"",""0"",""3934""
","
","
","""event"",""trial"",""time""
""fullscreenenter"",""0"",""3934""
","
","null","<p></p>","null","","","","","","","","","","","","","","","","","","","","","","",""
"","do_trial","248","1005972","0.0-133.0-0.0","""event"",""trial"",""time""
""fullscreenenter"",""0"",""3934""
","
","
","""event"",""trial"",""time""
""fullscreenenter"",""0"",""3934""
","
","397.1000003814697","","","","","","","","51","1,1,0","2","countryside","74","probe-62","0.18600415512273377","0.06331943411883857","0.5906920810155036","0","","","","","","","",""
"","html-keyboard-response","249","1006973","0.0-133.0-1.0","""event"",""trial"",""time""
""fullscreenenter"",""0"",""3934""
","
","
","""event"",""trial"",""time""
""fullscreenenter"",""0"",""3934""
","
","null","<p></p>","null","","","","","","","","","","","","","","","","","","","","","","",""
"","do_trial","250","1011997","0.0-134.0-0.0","""event"",""trial"",""time""
""fullscreenenter"",""0"",""3934""
","
","
","""event"",""trial"",""time""
""fullscreenenter"",""0"",""3934""
","
","478.20000076293945","","","","","","","","49","1,0,1","2","countryside","75","probe-77","0.2564408410611616","0.06284738479293567","0.6221615824690819","1","","","","","","","",""
"","html-keyboard-response","251","1013007","0.0-134.0-1.0","""event"",""trial"",""time""
""fullscreenenter"",""0"",""3934""
","
","
","""event"",""trial"",""time""
""fullscreenenter"",""0"",""3934""
","
","null","<p></p>","null","","","","","","","","","","","","","","","","","","","","","","",""
"","do_trial","252","1019840","0.0-135.0-0.0","""event"",""trial"",""time""
""fullscreenenter"",""0"",""3934""
","
","
","""event"",""trial"",""time""
""fullscreenenter"",""0"",""3934""
","
","2284","","","","","","","","49","1,0,1","2","countryside","76","probe-109","0.34782633808999186","0.14665441466961748","0.6467614219219873","1","","","","","","","",""
"","html-keyboard-response","253","1020855","0.0-135.0-1.0","""event"",""trial"",""time""
""fullscreenenter"",""0"",""3934""
","
","
","""event"",""trial"",""time""
""fullscreenenter"",""0"",""3934""
","
","null","<p></p>","null","","","","","","","","","","","","","","","","","","","","","","",""
"","do_trial","254","1025605","0.0-136.0-0.0","""event"",""trial"",""time""
""fullscreenenter"",""0"",""3934""
","
","
","""event"",""trial"",""time""
""fullscreenenter"",""0"",""3934""
","
","211.39999961853027","","","","","","","","49","0,1,1","2","countryside","77","probe-200","0.18753066443783895","0.273295460538856","0.7316190516479738","0","","","","","","","",""
"","html-keyboard-response","255","1026622","0.0-136.0-1.0","""event"",""trial"",""time""
""fullscreenenter"",""0"",""3934""
","
","
","""event"",""trial"",""time""
""fullscreenenter"",""0"",""3934""
","
","null","<p></p>","null","","","","","","","","","","","","","","","","","","","","","","",""
"","do_trial","256","1031423","0.0-137.0-0.0","""event"",""trial"",""time""
""fullscreenenter"",""0"",""3934""
","
","
","""event"",""trial"",""time""
""fullscreenenter"",""0"",""3934""
","
","253.20000076293945","","","","","","","","49","1,0,0","2","countryside","78","probe-32","0.2563052862757259","0.17658465117862507","0.6071213026954472","1","","","","","","","",""
"","html-keyboard-response","257","1032439","0.0-137.0-1.0","""event"",""trial"",""time""
""fullscreenenter"",""0"",""3934""
","
","
","""event"",""trial"",""time""
""fullscreenenter"",""0"",""3934""
","
","null","<p></p>","null","","","","","","","","","","","","","","","","","","","","","","",""
"","do_trial","258","1037606","0.0-138.0-0.0","""event"",""trial"",""time""
""fullscreenenter"",""0"",""3934""
","
","
","""event"",""trial"",""time""
""fullscreenenter"",""0"",""3934""
","
","628.1999988555908","","","","","","","","49","0,0,1","2","countryside","79","probe-178","0.19519582293816023","0.11743610585226438","0.6494625139174491","0","","","","","","","",""
"","html-keyboard-response","259","1038622","0.0-138.0-1.0","""event"",""trial"",""time""
""fullscreenenter"",""0"",""3934""
","
","
","""event"",""trial"",""time""
""fullscreenenter"",""0"",""3934""
","
","null","<p></p>","null","","","","","","","","","","","","","","","","","","","","","","",""
"","do_trial","260","1043639","0.0-139.0-0.0","""event"",""trial"",""time""
""fullscreenenter"",""0"",""3934""
","
","
","""event"",""trial"",""time""
""fullscreenenter"",""0"",""3934""
","
","477.6000003814697","","","","","","","","49","0,0,1","2","countryside","80","probe-169","0.19009794092570795","0.14011345269880132","0.6507641991210231","0","","","","","","","",""
"","html-keyboard-response","261","1044655","0.0-139.0-1.0","""event"",""trial"",""time""
""fullscreenenter"",""0"",""3934""
","
","
","""event"",""trial"",""time""
""fullscreenenter"",""0"",""3934""
","
","null","<p></p>","null","","","","","","","","","","","","","","","","","","","","","","",""
