"success","trial_type","trial_index","time_elapsed","internal_node_id","rt","stimulus","key_press","subject_id","response","choice_outcomes","context_n","context_img_id","trial_n","probe_img_id","pR_red","pR_white","pR_black","outcome","contextArray_ind","validImageProbes","invalidImageProbes","pRew_Red","pRew_White","pRew_Black","availableForMemProbe","choice_blocks"
"true","fullscreen","0","4503","0.0-0.0","","","","","","","","","","","","","","","","","","","","","",""
"","pavlovia","1","4508","0.0-1.0","","","","","","","","","","","","","","","","","","","","","",""
"","html-keyboard-response","2","23273","0.0-2.0","18765.079999924637","<div class='center'><p>Welcome! This is the first day of the experiment which will last ~30 minutes. In this experiment, you are the head captain of a pirate ship traveling around the world to different places. You will complete several different tasks during this experiment. Here is an overview of these tasks:</p><br><p>Day 1</p><p>1. Tutorial and quiz</p><p>2. Pick a pirate game in 6 different places</p><br><p>Day 2</p><p>3. Pick a pirate game and memory game</p><p>4. Final questions and payment</p><br><p>If you complete the entire experiment, you will receive $15 and a possible bonus payment.</p><p><b>[Press the space bar to begin the tutorial]</b></p></div>","32","615dd486a486a2cac95cd590","","","","","","","","","","","","","","","","","",""
"","html-keyboard-response","3","31832","0.0-3.0","8557.844999944791","<div class='center'><p>You’ll stop at these 6 islands on your journey. You'll be able to see them in the distance from your ship.</p><p><img src='run_exp/static/images/contexts/all_contexts.png' height='500'></p><p><b>[Press the space bar to continue]</b></p></div>","32","","","","","","","","","","","","","","","","","","",""
"","html-keyboard-response","4","39535","0.0-4.0","7702.705000061542","<div class='center'><p> The pirates on your ship will rob other ships as they leave island</p> These ships have just sold their things to the people living on the island, so they will have lots and lots of gold on them.</p><p><img src='run_exp/static/images/tutorial/ship_center.png' height='400'></p><p><b>[Press the space bar to continue]</b></p></div>","32","","","","","","","","","","","","","","","","","","",""
"","html-keyboard-response","5","51497","0.0-5.0","11960.790000041015","<div class='center'><p>As the head captain, you do not have to rob any ships yourself.</p><p>Another pirate will be doing the robbing for you. </p><p><img src='run_exp/static/images/tutorial/pirates_all_crop.png' height='200'></p><p>If they could rob the ship, then you will get a stack of gold coins like this:</p><p><img src='run_exp/static/images/tutorial/reward.png' height='150'></p><p> If they couldn't rob the ship, then you will get no gold coins and you'll see a big red x like this: </p><p><img src='run_exp/static/images/tutorial/reward_no.png' height='150'></p><p> How much bonus money you make is based on how many gold coins you collect.</p><p><b>[Press the space bar to continue]</b></p><div>","32","","","","","","","","","","","","","","","","","","",""
"","html-keyboard-response","6","66160","0.0-6.0","14663.085000007413","<div class='center'><p>Even the most skilled pirate can not rob EVERY ship.</p><p> Some ships will have very strong defenses against pirate attacks.</p><p> For example, blue beard, here, is very, very good at robbing ships.</p><p> You can press the <b>‘1’</b> button on the keyboard to choose him.</p><p> Try choosing him 10 times to see how often he can rob a ship. </p><p><img src='run_exp/static/images/tutorial/blue.png' height='500'></p></div>","49","","","","","","","","","","","","","","","","","","",""
"","html-keyboard-response","7","67664","0.0-7.0","null","<div class='center'><p><img src='run_exp/static/images/tutorial/blue_win.png' height='500'></p></div>","null","","","","","","","","","","","","","","","","","","",""
"","html-keyboard-response","8","69031","0.0-8.0","1366.660000057891","<div class='center'><img src='run_exp/static/images/tutorial/blue.png' height='500'></p></div>","49","","","","","","","","","","","","","","","","","","",""
"","html-keyboard-response","9","70537","0.0-9.0","null","<div class='center'><p><img src='run_exp/static/images/tutorial/blue_win.png' height='500'></p></div>","null","","","","","","","","","","","","","","","","","","",""
"","html-keyboard-response","10","70791","0.0-10.0","253.48499999381602","<div class='center'><img src='run_exp/static/images/tutorial/blue.png' height='500'></p></div>","49","","","","","","","","","","","","","","","","","","",""
"","html-keyboard-response","11","72297","0.0-11.0","null","<div class='center'><p><img src='run_exp/static/images/tutorial/blue_win.png' height='500'></p></div>","null","","","","","","","","","","","","","","","","","","",""
"","html-keyboard-response","12","72871","0.0-12.0","573.1799999484792","<div class='center'><img src='run_exp/static/images/tutorial/blue.png' height='500'></p></div>","49","","","","","","","","","","","","","","","","","","",""
"","html-keyboard-response","13","74372","0.0-13.0","null","<div class='center'><p><img src='run_exp/static/images/tutorial/blue_no_win.png' height='500'></p></div>","null","","","","","","","","","","","","","","","","","","",""
"","html-keyboard-response","14","74719","0.0-14.0","346.1450000759214","<div class='center'><img src='run_exp/static/images/tutorial/blue.png' height='500'></p></div>","49","","","","","","","","","","","","","","","","","","",""
"","html-keyboard-response","15","76223","0.0-15.0","null","<div class='center'><p><img src='run_exp/static/images/tutorial/blue_win.png' height='500'></p></div>","null","","","","","","","","","","","","","","","","","","",""
"","html-keyboard-response","16","76624","0.0-16.0","399.5349999750033","<div class='center'><img src='run_exp/static/images/tutorial/blue.png' height='500'></p></div>","49","","","","","","","","","","","","","","","","","","",""
"","html-keyboard-response","17","78129","0.0-17.0","null","<div class='center'><p><img src='run_exp/static/images/tutorial/blue_win.png' height='500'></p></div>","null","","","","","","","","","","","","","","","","","","",""
"","html-keyboard-response","18","78479","0.0-18.0","349.0349999628961","<div class='center'><img src='run_exp/static/images/tutorial/blue.png' height='500'></p></div>","49","","","","","","","","","","","","","","","","","","",""
"","html-keyboard-response","19","79982","0.0-19.0","null","<div class='center'><p><img src='run_exp/static/images/tutorial/blue_win.png' height='500'></p></div>","null","","","","","","","","","","","","","","","","","","",""
"","html-keyboard-response","20","80319","0.0-20.0","335.5450000381097","<div class='center'><img src='run_exp/static/images/tutorial/blue.png' height='500'></p></div>","49","","","","","","","","","","","","","","","","","","",""
"","html-keyboard-response","21","81825","0.0-21.0","null","<div class='center'><p><img src='run_exp/static/images/tutorial/blue_no_win.png' height='500'></p></div>","null","","","","","","","","","","","","","","","","","","",""
"","html-keyboard-response","22","82143","0.0-22.0","317.41000001784414","<div class='center'><img src='run_exp/static/images/tutorial/blue.png' height='500'></p></div>","49","","","","","","","","","","","","","","","","","","",""
"","html-keyboard-response","23","83649","0.0-23.0","null","<div class='center'><p><img src='run_exp/static/images/tutorial/blue_win.png' height='500'></p></div>","null","","","","","","","","","","","","","","","","","","",""
"","html-keyboard-response","24","83959","0.0-24.0","309.26499993074685","<div class='center'><img src='run_exp/static/images/tutorial/blue.png' height='500'></p></div>","49","","","","","","","","","","","","","","","","","","",""
"","html-keyboard-response","25","85462","0.0-25.0","null","<div class='center'><p><img src='run_exp/static/images/tutorial/blue_win.png' height='500'></p></div>","null","","","","","","","","","","","","","","","","","","",""
"","html-keyboard-response","26","90295","0.0-26.0","4832.870000042021","<div class='center'><p> See, he could rob the ships most of the time but not every time. </p><p><b>[Press the space bar to continue]</b></p></div>","32","","","","","","","","","","","","","","","","","","",""
"","html-keyboard-response","27","99446","0.0-27.0","9150.324999936856","<div class='center'><p>You will get to choose which of three pirates you want to rob the next ship. <p>Press the <b>‘1’</b> button on your keyboard to pick the pirate with the red beard.</p><p> Press <b>‘2’</b> to pick the pirate with the white beard.</p><p> Press <b>‘3’</b> to pick the pirate with the black beard.</p><p>Try picking a pirate now!</p><p><img src='run_exp/static/images/tutorial/all_pirates.png' height='500'></p></div>","49","","","","","","","","","","","","","","","","","","",""
"","html-keyboard-response","28","101743","0.0-28.0-0.0","2294.71500008367","<div class='center'><p>This pirate could rob the ship!</p><p><img src='run_exp/static/images/tutorial/red_win.png' height='500'></p><p><b>[Press the space bar to continue]</b></p></div>","32","","","","","","","","","","","","","","","","","","",""
"","html-keyboard-response","29","102814","0.0-28.0-1.0","1070.6100000534207","<div class='center'><p>Now try choosing another</p><p><img src='run_exp/static/images/tutorial/all_pirates.png' height='500'></p></div>","49","","","","","","","","","","","","","","","","","","",""
"","html-keyboard-response","30","103686","0.0-29.0-0.0","870.8600000245497","<div class='center'><p>This pirate could not rob the ship.</p><p><img src='run_exp/static/images/tutorial/red_no_win.png' height='500'></p><p><b>[Press the space bar to continue]</b></p></div>","32","","","","","","","","","","","","","","","","","","",""
"","html-keyboard-response","31","111214","0.0-30.0-0.0","7527.684999979101","<div class='center'><p>If you don’t make your choice fast enough, you’ll have to wait a few seconds before you can make another one. </p><p>You can’t collect more gold coins. You just have to sit and wait.</p><p><img src='run_exp/static/images/miscellaneous/hurry_up.png' height='500'></p><p><b>[Press the space bar to continue]</b></p></div>","32","","","","","","","","","","","","","","","","","","",""
"","html-keyboard-response","32","133206","0.0-30.0-1.0","21992.144999909215","<div class='center'><p>Once you choose a pirate, you’ll be shown the ship they are robbing.</p><p>You will never rob the same ship twice.</p><p>Ships can be told apart from one another by the image on them.</p><p> Every time you see a ship, you will have to remember on which island you saw it.</p><p> Remembering correctly will help you win more bonus money!</p><p>A helpful strategy is to try to come up with a story of the object on the ship interacting with the current island scene.</p><p> For example, here, you could imagine a mug full of water in the desert. </p><p>For a ship with an apple on it on the forest island, you could imagine an apple falling from a tree in the forest.</p><p><img src='run_exp/static/images/tutorial/example_probe.png' height='500'></p><p><b>[Press the space bar to continue]</b></p></div>","32","","","","","","","","","","","","","","","","","","",""
"","html-keyboard-response","33","139325","0.0-30.0-2.0","6118.680000072345","<div class='center'><p>How good a pirate is at robbing ships will depend on the current island.</p><p> A pirate may have visited the island many times before and gained a lot of practice robbing ships there.</p><p>So, they're more likely to bring back gold coins than a pirate who has never visited this island before. </p><p><b>[Press the space bar to continue]</b></p></div>","32","","","","","","","","","","","","","","","","","","",""
"","html-keyboard-response","34","151101","0.0-30.0-3.0","11775.970000075176","<div class='center'><p>How good a pirate is at robbing ships can also change over the time spent on the island<p> Ships may hear from islanders about the pirates coming and will improve their protection against the attack. This may make it harder to rob them.</p><p> Ships may also become lazy and lower their protection. This may make it easier to rob them.</p><br><p>Things are always changing on the high seas! So, try your best to pay attention!</p><p><img src='run_exp/static/images/tutorial/contingency.png' height='500'></p><p><b>[Press the space bar to continue]</b></p></div>","32","","","","","","","","","","","","","","","","","","",""
"","html-keyboard-response","35","172380","0.0-30.0-4.0","21279.099999926984","<div class='center'><p>Let's go over the instructions quickly again.You have two important things to do: </p><b><p> 1. Pick the pirate who is the best at robbing ships on the current island.</p></b><b><p> 2. Remember on which island a ship was robbed.</p> </b><p>How much bonus money you make is based on both. </p><br><p>Let’s try a practice game. The game will start by showing you the pirates. First pick a pirate using the <b> 1, 2, 3 </b> buttons on your keyboard. When you are shown a ship, try to remember the island you’re on by making up a story.</p><p> You only have 3 seconds to pick a pirate, so please make a choice quickly! If you are too slow, you’ll have to wait a bit during the time out.</p><p> Don’t feel rushed, but please do try to make a choice every time.</p><p>This is just a practice game, so you’re not playing for money. </p><p> Good luck, remember press <b>'1'</b> to choose red beard, <b>'2'</b> to choose white beard, and <b>'3'</b> to choose black beard</p><p><b>[Press the space bar to begin the practice game]</b></p></div>","32","","","","","","","","","","","","","","","","","","",""
"","do_welcome","36","173890","0.0-30.0-5.0","null","","","","null","","","","","","","","","","","","","","","","",""
"","do_trial","37","179318","0.0-30.0-6.0","915.2349999640137","","","","49","1,0,0","","","","","","","","","","","","","","","",""
"","html-keyboard-response","38","180322","0.0-31.0-0.0","null","<p></p>","null","","","","","","","","","","","","","","","","","","",""
"","do_trial","39","185717","0.0-31.0-1.0","883.559999987483","","","","49","1,1,0","","","","","","","","","","","","","","","",""
"","html-keyboard-response","40","186721","0.0-32.0-0.0","null","<p></p>","null","","","","","","","","","","","","","","","","","","",""
"","do_trial","41","191725","0.0-32.0-1.0","493.6449999222532","","","","49","1,0,1","","","","","","","","","","","","","","","",""
"","html-keyboard-response","42","192729","0.0-33.0-0.0","null","<p></p>","null","","","","","","","","","","","","","","","","","","",""
"","do_trial","43","198194","0.0-33.0-1.0","956.2050000531599","","","","49","0,1,0","","","","","","","","","","","","","","","",""
"","html-keyboard-response","44","199198","0.0-34.0-0.0","null","<p></p>","null","","","","","","","","","","","","","","","","","","",""
"","do_trial","45","204013","0.0-34.0-1.0","304.03999995905906","","","","49","1,0,0","","","","","","","","","","","","","","","",""
"","do_bye","46","205518","0.0-35.0-0.0","null","","","","null","","","","","","","","","","","","","","","","",""
"","do_travel","47","211521","0.0-35.0-1.0","null","","","","null","","","","","","","","","","","","","","","","",""
"","do_welcome","48","213028","0.0-35.0-2.0","null","","","","null","","","","","","","","","","","","","","","","",""
"","do_trial","49","218253","0.0-35.0-3.0","713.9099999330938","","","","49","1,0,0","","","","","","","","","","","","","","","",""
"","html-keyboard-response","50","219258","0.0-36.0-0.0","null","<p></p>","null","","","","","","","","","","","","","","","","","","",""
"","do_trial","51","224415","0.0-36.0-1.0","650.5249999463558","","","","49","1,0,1","","","","","","","","","","","","","","","",""
"","html-keyboard-response","52","225419","0.0-37.0-0.0","null","<p></p>","null","","","","","","","","","","","","","","","","","","",""
"","do_trial","53","230284","0.0-37.0-1.0","353.7800000049174","","","","49","1,1,0","","","","","","","","","","","","","","","",""
"","html-keyboard-response","54","231288","0.0-38.0-0.0","null","<p></p>","null","","","","","","","","","","","","","","","","","","",""
"","do_trial","55","236147","0.0-38.0-1.0","348.230000003241","","","","49","0,0,1","","","","","","","","","","","","","","","",""
"","html-keyboard-response","56","237151","0.0-39.0-0.0","null","<p></p>","null","","","","","","","","","","","","","","","","","","",""
"","do_trial","57","241987","0.0-39.0-1.0","326.0649999137968","","","","49","1,0,1","","","","","","","","","","","","","","","",""
"","html-keyboard-response","58","243873","0.0-40.0-0.0","1884.5899999141693","<div class='center'><p><img src='run_exp/static/images/tutorial/prac_best_pirate.png'  height='500'></p></div>","49","","","","","","","","","","","","","","","","","","",""
"","html-keyboard-response","59","245818","0.0-41.0-0.0","1943.210000055842","<div class='center'><p>That's correct! Red beard was the best.</p><p><b>[Press the space bar to continue]</b></p></div>","32","","","","","","","","","","","","","","","","","","",""
"","html-keyboard-response","60","250402","0.0-41.0-1.0","4583.549999981187","<div class='center'><p><img src='run_exp/static/images/tutorial/prac_source.png'  height='500'></p></div>","50","","","","","","","","","","","","","","","","","","",""
"","html-keyboard-response","61","252121","0.0-42.0-0.0","1718.5900000622496","<div class='center'><p>That's correct! You saw this ship on the cavern island.</p><p><b>[Press the space bar to continue]</b></p></div>","32","","","","","","","","","","","","","","","","","","",""
"","html-keyboard-response","62","258217","0.0-42.0-1.0","6095.035000005737","<div class='center'><p>Good job on the practice game! Now, you will be asked you some true or false questions to make sure you really understand the rules of the game.</p><p> Press <b>'1'</b> on the keyboard for true and press <b>'2'</b> for false.</p><p><b>[Press the space bar to begin the quiz]</b></p></div>","32","","","","","","","","","","","","","","","","","","",""
"","html-keyboard-response","63","261913","0.0-42.0-2.0","3695.5650000600144","<div class='center'><p>You win bonus money by making choices as fast as possible.</p><p>Press 1 for true and press  2 for false.</p></div>","50","","","","","","","","","","","","","","","","","","",""
"","html-keyboard-response","64","263217","0.0-43.0-0.0","1303.264999995008","<div class='center'><p>That's correct!</p> <p><b>[press the space bar to continue with the quiz]</b></p></div>","32","","","","","","","","","","","","","","","","","","",""
"","html-keyboard-response","65","267561","0.0-43.0-1.0","4343.600000021979","<div class='center'><p>You press the <b>‘3’</b> button on the keyboard to choose the red bearded pirate. </p><p>Press 1 for true and press  2 for false.</p></div>","50","","","","","","","","","","","","","","","","","","",""
"","html-keyboard-response","66","268857","0.0-44.0-0.0","1295.0949999503791","<div class='center'><p>That's correct!</p> <p><b>[press the space bar to continue with the quiz]</b></p></div>","32","","","","","","","","","","","","","","","","","","",""
"","html-keyboard-response","67","272729","0.0-44.0-1.0","3872.0749999629334","<div class='center'><p>The pirate who is the best at robbing ships on the first island will be the best on every other island.</p><p>Press 1 for true and press  2 for false.</p></div>","50","","","","","","","","","","","","","","","","","","",""
"","html-keyboard-response","68","273720","0.0-45.0-0.0","990.3049999848008","<div class='center'><p>That's correct!</p> <p><b>[press the space bar to continue with the quiz]</b></p></div>","32","","","","","","","","","","","","","","","","","","",""
"","html-keyboard-response","69","278160","0.0-45.0-1.0","4438.504999969155","<div class='center'><p>You should remember the island where a pirate robbed a ship.</p><p>Press 1 for true and press  2 for false.</p></div>","49","","","","","","","","","","","","","","","","","","",""
"","html-keyboard-response","70","278984","0.0-46.0-0.0","816.4249999681488","<div class='center'><p>That's correct!</p> <p><b>[press the space bar to continue with the quiz]</b></p></div>","32","","","","","","","","","","","","","","","","","","",""
"","html-keyboard-response","71","280928","0.0-47.0-0.0","1943.295000004582","<div class='center'><p>Good job! You’re now ready to move on to the real game!</p> <p><br>[press the space bar to begin!]</br></p></div>","32","","","","","","","","","","","","","","","","","","",""
"","do_welcome","72","282437","0.0-48.0-0.0","null","","","","null","","","","","","","","","","","","","","","","",""
"","do_trial","73","287802","0.0-49.0-0.0","819.6400000015274","","","","49","0,0,0","0","city","0","probe-63","0.6","0.3","0.1","0","","","","","","","",""
"","html-keyboard-response","74","288807","0.0-49.0-1.0","null","<p></p>","null","","","","","","","","","","","","","","","","","","",""
"","do_trial","75","294137","0.0-50.0-0.0","786.3650000654161","","","","49","1,1,1","0","city","1","probe-200","0.6861758214748833","0.24276587083004467","0.11211558801340432","1","","","","","","","",""
"","html-keyboard-response","76","295141","0.0-50.0-1.0","null","<p></p>","null","","","","","","","","","","","","","","","","","","",""
"","do_trial","77","300049","0.0-51.0-0.0","365.5949999811128","","","","49","1,0,0","0","city","2","probe-96","0.6486833102514735","0.30569204333084055","0.05933110175542179","1","","","","","","","",""
"","html-keyboard-response","78","301053","0.0-51.0-1.0","null","<p></p>","null","","","","","","","","","","","","","","","","","","",""
"","do_trial","79","305943","0.0-52.0-0.0","347.79999998863786","","","","49","0,1,0","0","city","3","probe-20","0.6093296931213044","0.3789695632833861","0.056477455763848154","0","","","","","","","",""
"","html-keyboard-response","80","306947","0.0-52.0-1.0","null","<p></p>","null","","","","","","","","","","","","","","","","","","",""
"","do_trial","81","311781","0.0-53.0-0.0","294.96000008657575","","","","49","0,1,0","0","city","4","probe-169","0.5422691756387463","0.4665279116771464","0.05470773878437211","0","","","","","","","",""
"","html-keyboard-response","82","312786","0.0-53.0-1.0","null","<p></p>","null","","","","","","","","","","","","","","","","","","",""
"","do_trial","83","317717","0.0-54.0-0.0","391.71999995596707","","","","50","1,0,0","0","city","5","probe-141","0.5600623636616231","0.4987397848279065","0.1316938222796967","0","","","","","","","",""
"","html-keyboard-response","84","318722","0.0-54.0-1.0","null","<p></p>","null","","","","","","","","","","","","","","","","","","",""
"","do_trial","85","323574","0.0-55.0-0.0","311.3599999342114","","","","50","1,1,0","0","city","6","probe-97","0.687679830260942","0.4002387828549124","0.05019497977923949","1","","","","","","","",""
"","html-keyboard-response","86","324578","0.0-55.0-1.0","null","<p></p>","null","","","","","","","","","","","","","","","","","","",""
"","do_trial","87","329449","0.0-56.0-0.0","326.450000051409","","","","50","0,0,0","0","city","7","probe-130","0.6666339155477681","0.3356544479418266","0.18275974026396014","0","","","","","","","",""
"","html-keyboard-response","88","330452","0.0-56.0-1.0","null","<p></p>","null","","","","","","","","","","","","","","","","","","",""
"","do_trial","89","335337","0.0-57.0-0.0","341.3299999665469","","","","50","1,0,0","0","city","8","probe-111","0.6776529339026677","0.2691687109193683","0.21466067396997077","0","","","","","","","",""
"","html-keyboard-response","90","336341","0.0-57.0-1.0","null","<p></p>","null","","","","","","","","","","","","","","","","","","",""
"","do_trial","91","341246","0.0-58.0-0.0","362.8399999579415","","","","51","0,0,1","0","city","9","probe-157","0.7116744176941745","0.2493886497541594","0.1337152850058164","1","","","","","","","",""
"","html-keyboard-response","92","342250","0.0-58.0-1.0","null","<p></p>","null","","","","","","","","","","","","","","","","","","",""
"","do_trial","93","347184","0.0-59.0-0.0","390.514999977313","","","","51","1,0,0","0","city","10","probe-107","0.6451921994445066","0.3046202073506045","0.16536127887557509","0","","","","","","","",""
"","html-keyboard-response","94","348188","0.0-59.0-1.0","null","<p></p>","null","","","","","","","","","","","","","","","","","","",""
"","do_trial","95","353063","0.0-60.0-0.0","331.4099999843165","","","","51","1,0,0","0","city","11","probe-77","0.6599642199719433","0.20015188563433384","0.10003841480466129","0","","","","","","","",""
"","html-keyboard-response","96","354067","0.0-60.0-1.0","null","<p></p>","null","","","","","","","","","","","","","","","","","","",""
"","do_trial","97","358928","0.0-61.0-0.0","317.77999992482364","","","","49","1,0,0","0","city","12","probe-24","0.7805755612123888","0.2876158766214337","0.10914811056020607","1","","","","","","","",""
"","html-keyboard-response","98","359932","0.0-61.0-1.0","null","<p></p>","null","","","","","","","","","","","","","","","","","","",""
"","do_trial","99","364894","0.0-62.0-0.0","418.8500000163913","","","","49","1,0,0","0","city","13","probe-65","0.69381160316494","0.35297666120962057","0.15617496042092602","1","","","","","","","",""
"","html-keyboard-response","100","365898","0.0-62.0-1.0","null","<p></p>","null","","","","","","","","","","","","","","","","","","",""
"","do_trial","101","370742","0.0-63.0-0.0","301.1049999622628","","","","49","0,0,0","0","city","14","probe-34","0.7195763776173445","0.3331528082641577","0.05758947939094178","0","","","","","","","",""
"","html-keyboard-response","102","371747","0.0-63.0-1.0","null","<p></p>","null","","","","","","","","","","","","","","","","","","",""
"","do_trial","103","376293","0.0-64.0-0.0","0.11999998241662979","","","","49","1,0,0","0","city","15","probe-168","0.7886908039134686","0.3883989007238256","0.23930640220897034","1","","","","","","","",""
"","html-keyboard-response","104","377297","0.0-64.0-1.0","null","<p></p>","null","","","","","","","","","","","","","","","","","","",""
"","do_trial","105","382172","0.0-65.0-0.0","334.5749999862164","","","","49","1,0,1","0","city","16","probe-49","0.6774691967700356","0.2769349244282471","0.28540770271345783","1","","","","","","","",""
"","html-keyboard-response","106","383174","0.0-65.0-1.0","null","<p></p>","null","","","","","","","","","","","","","","","","","","",""
"","do_trial","107","388059","0.0-66.0-0.0","345.2400000533089","","","","49","1,1,0","0","city","17","probe-40","0.6449115414117367","0.46241066997776986","0.11242420221247791","1","","","","","","","",""
"","html-keyboard-response","108","389063","0.0-66.0-1.0","null","<p></p>","null","","","","","","","","","","","","","","","","","","",""
"","do_trial","109","393970","0.0-67.0-0.0","367.63500003144145","","","","49","1,0,0","0","city","18","probe-05","0.6470650515712718","0.3881208255567994","0.13940542754953775","1","","","","","","","",""
"","html-keyboard-response","110","394974","0.0-67.0-1.0","null","<p></p>","null","","","","","","","","","","","","","","","","","","",""
"","do_trial","111","399826","0.0-68.0-0.0","315.7349999528378","","","","49","0,1,0","0","city","19","probe-28","0.675836074967375","0.3656575239848644","0.0751483130691818","0","","","","","","","",""
"","html-keyboard-response","112","400831","0.0-68.0-1.0","null","<p></p>","null","","","","","","","","","","","","","","","","","","",""
"","do_trial","113","405719","0.0-69.0-0.0","344.2450000438839","","","","49","0,0,0","0","city","20","probe-121","0.6336851517072946","0.32476627974678457","0.12384050228824188","0","","","","","","","",""
"","html-keyboard-response","114","406723","0.0-69.0-1.0","null","<p></p>","null","","","","","","","","","","","","","","","","","","",""
"","do_trial","115","411606","0.0-70.0-0.0","339.1800000099465","","","","49","1,1,0","0","city","21","probe-74","0.5324716378049468","0.2886147253523734","0.11013768455340472","1","","","","","","","",""
"","html-keyboard-response","116","412610","0.0-70.0-1.0","null","<p></p>","null","","","","","","","","","","","","","","","","","","",""
"","do_trial","117","417526","0.0-71.0-0.0","372.48499994166195","","","","49","1,1,1","0","city","22","probe-30","0.6037657242995572","0.33764846923725406","0.15924195009906428","1","","","","","","","",""
"","html-keyboard-response","118","418530","0.0-71.0-1.0","null","<p></p>","null","","","","","","","","","","","","","","","","","","",""
"","do_trial","119","423388","0.0-72.0-0.0","315.82999997772276","","","","49","1,0,1","0","city","23","probe-122","0.6754616573850912","0.3385793053848306","0.06365191870909345","1","","","","","","","",""
"","html-keyboard-response","120","424392","0.0-72.0-1.0","null","<p></p>","null","","","","","","","","","","","","","","","","","","",""
"","do_trial","121","429306","0.0-73.0-0.0","373.7599999876693","","","","49","0,0,0","0","city","24","probe-109","0.4705793250251184","0.07537925755488686","0.0745350725147602","0","","","","","","","",""
"","html-keyboard-response","122","430310","0.0-73.0-1.0","null","<p></p>","null","","","","","","","","","","","","","","","","","","",""
"","do_trial","123","435245","0.0-74.0-0.0","391.5699999779463","","","","49","0,0,0","0","city","25","probe-134","0.4469427512357424","0.07438691115335494","0.0704097271952376","0","","","","","","","",""
"","html-keyboard-response","124","436249","0.0-74.0-1.0","null","<p></p>","null","","","","","","","","","","","","","","","","","","",""
"","do_trial","125","441142","0.0-75.0-0.0","348.78000000026077","","","","49","1,0,0","0","city","26","probe-13","0.5468491796628524","0.19857754355371987","0.051615899954867574","1","","","","","","","",""
"","html-keyboard-response","126","442146","0.0-75.0-1.0","null","<p></p>","null","","","","","","","","","","","","","","","","","","",""
"","do_trial","127","447044","0.0-76.0-0.0","354.215000057593","","","","49","1,1,0","0","city","27","probe-212","0.5680192107158131","0.3655061835264188","0.061067572582959535","1","","","","","","","",""
"","html-keyboard-response","128","448048","0.0-76.0-1.0","null","<p></p>","null","","","","","","","","","","","","","","","","","","",""
"","do_trial","129","452957","0.0-77.0-0.0","364.69499999657273","","","","49","0,1,0","0","city","28","probe-58","0.5336505948219585","0.34699657348694296","0.11203445861059187","0","","","","","","","",""
"","html-keyboard-response","130","453961","0.0-77.0-1.0","null","<p></p>","null","","","","","","","","","","","","","","","","","","",""
"","do_trial","131","458848","0.0-78.0-0.0","347.7849999908358","","","","49","0,0,0","0","city","29","probe-190","0.6984642728191747","0.31853638502750714","0.10866069318721869","0","","","","","","","",""
"","html-keyboard-response","132","459852","0.0-78.0-1.0","null","<p></p>","null","","","","","","","","","","","","","","","","","","",""
"","do_bye","133","461360","0.0-79.0-0.0","null","","","","null","","","","","","","","","","","","","","","","",""
"","do_travel","134","467366","0.0-80.0-0.0","null","","","","null","","","","","","","","","","","","","","","","",""
"","do_welcome","135","468876","0.0-80.0-1.0","null","","","","null","","","","","","","","","","","","","","","","",""
"","do_trial","136","473871","0.0-81.0-0.0","455.19999996759","","","","50","1,0,0","1","forest","30","probe-194","1","0.3011435134533455","0.10986080503167546","0","","","","","","","",""
"","html-keyboard-response","137","474875","0.0-81.0-1.0","null","<p></p>","null","","","","","","","","","","","","","","","","","","",""
"","do_trial","138","479732","0.0-82.0-0.0","313.6200000299141","","","","50","1,0,0","1","forest","31","probe-160","1","0.29238304647101754","0.15768561273694853","0","","","","","","","",""
"","html-keyboard-response","139","480736","0.0-82.0-1.0","null","<p></p>","null","","","","","","","","","","","","","","","","","","",""
"","do_trial","140","485635","0.0-83.0-0.0","354.93999999016523","","","","51","1,0,1","1","forest","32","probe-187","1","0.3059280081086008","0.08278729185796747","1","","","","","","","",""
"","html-keyboard-response","141","486639","0.0-83.0-1.0","null","<p></p>","null","","","","","","","","","","","","","","","","","","",""
"","do_trial","142","491586","0.0-84.0-0.0","404.3250000104308","","","","51","1,0,0","1","forest","33","probe-09","0.8287551084568979","0.20570473242933263","0.19080467864373493","0","","","","","","","",""
"","html-keyboard-response","143","492589","0.0-84.0-1.0","null","<p></p>","null","","","","","","","","","","","","","","","","","","",""
"","do_trial","144","497522","0.0-85.0-0.0","388.7749999994412","","","","51","1,1,0","1","forest","34","probe-14","0.8804990487866209","0.05360093427318521","0.16482247257199448","0","","","","","","","",""
"","html-keyboard-response","145","498526","0.0-85.0-1.0","null","<p></p>","null","","","","","","","","","","","","","","","","","","",""
"","do_trial","146","503394","0.0-86.0-0.0","324.79500002227724","","","","49","1,0,0","1","forest","35","probe-220","0.8066919213635658","0.1707799741914074","0.28425590691919345","1","","","","","","","",""
"","html-keyboard-response","147","504398","0.0-86.0-1.0","null","<p></p>","null","","","","","","","","","","","","","","","","","","",""
"","do_trial","148","509861","0.0-87.0-0.0","921.1900000227615","","","","49","1,0,0","1","forest","36","probe-91","0.7112289830678679","0.14175017323172898","0.0526093995291339","1","","","","","","","",""
"","html-keyboard-response","149","510865","0.0-87.0-1.0","null","<p></p>","null","","","","","","","","","","","","","","","","","","",""
"","do_trial","150","515944","0.0-88.0-0.0","533.5350000532344","","","","49","0,0,0","1","forest","37","probe-135","0.5777792230011094","0.29527560412783427","0.13746852092176873","0","","","","","","","",""
"","html-keyboard-response","151","516946","0.0-88.0-1.0","null","<p></p>","null","","","","","","","","","","","","","","","","","","",""
"","do_trial","152","521799","0.0-89.0-0.0","308.94500005524606","","","","49","1,0,0","1","forest","38","probe-192","0.4506129386949158","0.2818615378001992","0.1413847550135984","1","","","","","","","",""
"","html-keyboard-response","153","522802","0.0-89.0-1.0","null","<p></p>","null","","","","","","","","","","","","","","","","","","",""
"","do_trial","154","527645","0.0-90.0-0.0","301.0699999285862","","","","49","1,1,0","1","forest","39","probe-153","0.558722401842286","0.333304641449228","0.19843935169626004","1","","","","","","","",""
"","html-keyboard-response","155","528649","0.0-90.0-1.0","null","<p></p>","null","","","","","","","","","","","","","","","","","","",""
"","do_trial","156","533516","0.0-91.0-0.0","324.775000102818","","","","49","0,1,0","1","forest","40","probe-182","0.43162275878838474","0.35672322112680094","0.253993426957659","0","","","","","","","",""
"","html-keyboard-response","157","534520","0.0-91.0-1.0","null","<p></p>","null","","","","","","","","","","","","","","","","","","",""
"","do_trial","158","539374","0.0-92.0-0.0","313.97999997716397","","","","49","0,1,0","1","forest","41","probe-43","0.3499000675460836","0.5214008132632839","0.15749707270147523","0","","","","","","","",""
"","html-keyboard-response","159","540378","0.0-92.0-1.0","null","<p></p>","null","","","","","","","","","","","","","","","","","","",""
"","do_trial","160","545275","0.0-93.0-0.0","354.0849999990314","","","","51","0,1,0","1","forest","42","probe-188","0.20837477132588197","0.6392388565453557","0.14876208636790614","0","","","","","","","",""
"","html-keyboard-response","161","546279","0.0-93.0-1.0","null","<p></p>","null","","","","","","","","","","","","","","","","","","",""
"","do_trial","162","551158","0.0-94.0-0.0","334.2299999203533","","","","51","0,0,0","1","forest","43","probe-87","0.2461687311917546","0.621171756871099","0.11103037573663745","0","","","","","","","",""
"","html-keyboard-response","163","552162","0.0-94.0-1.0","null","<p></p>","null","","","","","","","","","","","","","","","","","","",""
"","do_trial","164","557024","0.0-95.0-0.0","323.0350000085309","","","","50","0,0,0","1","forest","44","probe-41","0.22274095162717453","0.5342835706994234","0.2649145417057399","0","","","","","","","",""
"","html-keyboard-response","165","558028","0.0-95.0-1.0","null","<p></p>","null","","","","","","","","","","","","","","","","","","",""
"","do_trial","166","562876","0.0-96.0-0.0","305.21999998018146","","","","50","0,1,0","1","forest","45","probe-95","0.12456482507863718","0.5401009468137927","0.33336711078233744","1","","","","","","","",""
"","html-keyboard-response","167","563880","0.0-96.0-1.0","null","<p></p>","null","","","","","","","","","","","","","","","","","","",""
"","do_trial","168","568706","0.0-97.0-0.0","284.69500003848225","","","","50","0,1,1","1","forest","46","probe-172","0.224208289443457","0.5687625909282658","0.4052662108412339","1","","","","","","","",""
"","html-keyboard-response","169","569710","0.0-97.0-1.0","null","<p></p>","null","","","","","","","","","","","","","","","","","","",""
"","do_trial","170","574557","0.0-98.0-0.0","302.5099999504164","","","","50","1,0,0","1","forest","47","probe-38","0.13409952338350756","0.5905710626218426","0.3438269407210203","0","","","","","","","",""
"","html-keyboard-response","171","575561","0.0-98.0-1.0","null","<p></p>","null","","","","","","","","","","","","","","","","","","",""
"","do_trial","172","580433","0.0-99.0-0.0","330.87499998509884","","","","50","0,1,0","1","forest","48","probe-04","0.1553605446982119","0.6036647087859477","0.36621931540962427","1","","","","","","","",""
"","html-keyboard-response","173","581436","0.0-99.0-1.0","null","<p></p>","null","","","","","","","","","","","","","","","","","","",""
"","do_trial","174","586299","0.0-100.0-0.0","320.4050000058487","","","","50","0,1,1","1","forest","49","probe-123","0.1908092286017824","0.5183661791102729","0.3585050548234316","1","","","","","","","",""
"","html-keyboard-response","175","587302","0.0-100.0-1.0","null","<p></p>","null","","","","","","","","","","","","","","","","","","",""
"","do_trial","176","592447","0.0-101.0-0.0","605.4000000003725","","","","50","1,1,0","1","forest","50","probe-137","0.22095002819576837","0.3676244291814622","0.12540877005655277","1","","","","","","","",""
"","html-keyboard-response","177","593451","0.0-101.0-1.0","null","<p></p>","null","","","","","","","","","","","","","","","","","","",""
"","do_trial","178","598298","0.0-102.0-0.0","305.53000001236796","","","","50","0,0,0","1","forest","51","probe-210","0.2854551590600401","0.3979253777512689","0.2331611812528364","0","","","","","","","",""
"","html-keyboard-response","179","599302","0.0-102.0-1.0","null","<p></p>","null","","","","","","","","","","","","","","","","","","",""
"","do_trial","180","604144","0.0-103.0-0.0","300.9699999820441","","","","50","0,1,0","1","forest","52","probe-127","0.2547924858400528","0.4298172302295027","0.36406171211451066","1","","","","","","","",""
"","html-keyboard-response","181","605148","0.0-103.0-1.0","null","<p></p>","null","","","","","","","","","","","","","","","","","","",""
"","do_trial","182","610011","0.0-104.0-0.0","319.5850000483915","","","","50","0,0,0","1","forest","53","probe-144","0.17324263416320645","0.37417627888769167","0.3049927819142449","0","","","","","","","",""
"","html-keyboard-response","183","611016","0.0-104.0-1.0","null","<p></p>","null","","","","","","","","","","","","","","","","","","",""
"","do_trial","184","615891","0.0-105.0-0.0","331.1399999074638","","","","50","1,0,0","1","forest","54","probe-15","0.08143916687056857","0.5302545878403715","0.24908833355927726","0","","","","","","","",""
"","html-keyboard-response","185","616895","0.0-105.0-1.0","null","<p></p>","null","","","","","","","","","","","","","","","","","","",""
"","do_trial","186","621767","0.0-106.0-0.0","332.13999995496124","","","","50","1,1,0","1","forest","55","probe-209","0.08147155667391509","0.618483215305871","0.36006997552764797","1","","","","","","","",""
"","html-keyboard-response","187","622772","0.0-106.0-1.0","null","<p></p>","null","","","","","","","","","","","","","","","","","","",""
"","do_trial","188","627754","0.0-107.0-0.0","438.4550000540912","","","","50","1,0,1","1","forest","56","probe-67","0.1756900580969235","0.6421570584958118","0.4555895621339514","0","","","","","","","",""
"","html-keyboard-response","189","628758","0.0-107.0-1.0","null","<p></p>","null","","","","","","","","","","","","","","","","","","",""
"","do_trial","190","633609","0.0-108.0-0.0","308.7750000413507","","","","50","0,0,1","1","forest","57","probe-125","0.13372978288452378","0.4330467066475772","0.28039646448457367","0","","","","","","","",""
"","html-keyboard-response","191","634613","0.0-108.0-1.0","null","<p></p>","null","","","","","","","","","","","","","","","","","","",""
"","do_trial","192","639634","0.0-109.0-0.0","476.7549999523908","","","","50","0,0,0","1","forest","58","probe-183","0.21204010845872895","0.578086724925886","0.23634502999526105","0","","","","","","","",""
"","html-keyboard-response","193","640638","0.0-109.0-1.0","null","<p></p>","null","","","","","","","","","","","","","","","","","","",""
"","do_trial","194","645482","0.0-110.0-0.0","300.30500004068017","","","","49","0,0,1","1","forest","59","probe-51","0.22734933568374074","0.5273799686440812","0.32394945932731195","0","","","","","","","",""
"","html-keyboard-response","195","646486","0.0-110.0-1.0","null","<p></p>","null","","","","","","","","","","","","","","","","","","",""
"","do_trial","196","651485","0.0-111.0-0.0","458.710000035353","","","","49","0,1,0","1","forest","60","probe-79","0.2038097807651287","0.6167111138023228","0.4290850808121752","0","","","","","","","",""
"","html-keyboard-response","197","652489","0.0-111.0-1.0","null","<p></p>","null","","","","","","","","","","","","","","","","","","",""
"","do_trial","198","657370","0.0-112.0-0.0","336.57000004313886","","","","51","1,1,0","1","forest","61","probe-202","0.10456212270732923","0.5560521405904356","0.3887396612652438","0","","","","","","","",""
"","html-keyboard-response","199","658374","0.0-112.0-1.0","null","<p></p>","null","","","","","","","","","","","","","","","","","","",""
"","do_trial","200","663216","0.0-113.0-0.0","298.97999996319413","","","","51","0,1,0","1","forest","62","probe-136","0.1265930499402735","0.6657036904677771","0.43004688511041017","0","","","","","","","",""
"","html-keyboard-response","201","664219","0.0-113.0-1.0","null","<p></p>","null","","","","","","","","","","","","","","","","","","",""
"","do_trial","202","669066","0.0-114.0-0.0","302.1500000031665","","","","50","0,1,0","1","forest","63","probe-226","0.05449667413002813","0.6040917561528487","0.33812516199588644","1","","","","","","","",""
"","html-keyboard-response","203","670070","0.0-114.0-1.0","null","<p></p>","null","","","","","","","","","","","","","","","","","","",""
"","do_trial","204","674953","0.0-115.0-0.0","338.70000008028","","","","50","1,0,0","1","forest","64","probe-205","0.06440832750077834","0.690085498628003","0.3296510817371211","0","","","","","","","",""
"","html-keyboard-response","205","675955","0.0-115.0-1.0","null","<p></p>","null","","","","","","","","","","","","","","","","","","",""
"","do_trial","206","680807","0.0-116.0-0.0","310.17500010784715","","","","50","0,0,0","1","forest","65","probe-29","0.06833492992351436","0.6501014811022683","0.2910021223942678","0","","","","","","","",""
"","html-keyboard-response","207","681812","0.0-116.0-1.0","null","<p></p>","null","","","","","","","","","","","","","","","","","","",""
"","do_trial","208","686644","0.0-117.0-0.0","293.08500001206994","","","","50","0,1,0","1","forest","66","probe-26","0.20700934581517963","0.5947699967976022","0.28954619629773864","1","","","","","","","",""
"","html-keyboard-response","209","687649","0.0-117.0-1.0","null","<p></p>","null","","","","","","","","","","","","","","","","","","",""
"","do_trial","210","692537","0.0-118.0-0.0","344.8649999918416","","","","50","0,0,1","1","forest","67","probe-166","0.11939079136883143","0.6079763410029441","0.37102362122139937","0","","","","","","","",""
"","html-keyboard-response","211","693541","0.0-118.0-1.0","null","<p></p>","null","","","","","","","","","","","","","","","","","","",""
"","do_trial","212","698424","0.0-119.0-0.0","338.5499999858439","","","","50","0,0,0","1","forest","68","probe-179","0.07768357058131864","0.5703736933600169","0.30301948729627287","0","","","","","","","",""
"","html-keyboard-response","213","699428","0.0-119.0-1.0","null","<p></p>","null","","","","","","","","","","","","","","","","","","",""
"","do_trial","214","704384","0.0-120.0-0.0","411.6650000214577","","","","50","0,1,0","1","forest","69","probe-17","0.17020274346105585","0.6066433801727087","0.40184963968748416","1","","","","","","","",""
"","html-keyboard-response","215","705388","0.0-120.0-1.0","null","<p></p>","null","","","","","","","","","","","","","","","","","","",""
"","do_bye","216","706893","0.0-121.0-0.0","null","","","","null","","","","","","","","","","","","","","","","",""
"","do_travel","217","712899","0.0-122.0-0.0","null","","","","null","","","","","","","","","","","","","","","","",""
"","do_welcome","218","714408","0.0-122.0-1.0","null","","","","null","","","","","","","","","","","","","","","","",""
"","do_trial","219","720607","0.0-123.0-0.0","1656.044999952428","","","","51","0,1,0","2","coast","70","probe-216","0.060791178812118964","1","0.3898166220764825","0","","","","","","","",""
"","html-keyboard-response","220","721611","0.0-123.0-1.0","null","<p></p>","null","","","","","","","","","","","","","","","","","","",""
"","do_trial","221","726522","0.0-124.0-0.0","370.8549999864772","","","","51","0,1,0","2","coast","71","probe-112","0.06518118519516661","1","0.5154804194579974","0","","","","","","","",""
"","html-keyboard-response","222","727526","0.0-124.0-1.0","null","<p></p>","null","","","","","","","","","","","","","","","","","","",""
"","do_trial","223","732470","0.0-125.0-0.0","401.58000006340444","","","","50","0,1,0","2","coast","72","probe-57","0.11267057254379495","0.8321136988044188","0.4741059077966937","1","","","","","","","",""
"","html-keyboard-response","224","733474","0.0-125.0-1.0","null","<p></p>","null","","","","","","","","","","","","","","","","","","",""
"","do_trial","225","738438","0.0-126.0-0.0","419.92999997455627","","","","50","0,1,0","2","coast","73","probe-86","0.07933242875764795","0.8405218627421291","0.46318958735903815","1","","","","","","","",""
"","html-keyboard-response","226","739442","0.0-126.0-1.0","null","<p></p>","null","","","","","","","","","","","","","","","","","","",""
"","do_trial","227","744399","0.0-127.0-0.0","412.9500000271946","","","","50","0,1,0","2","coast","74","probe-62","0.07825683799744967","0.7933110791801892","0.3375255368267572","1","","","","","","","",""
"","html-keyboard-response","228","745403","0.0-127.0-1.0","null","<p></p>","null","","","","","","","","","","","","","","","","","","",""
"","do_trial","229","750294","0.0-128.0-0.0","346.6900000348687","","","","50","0,1,0","2","coast","75","probe-90","0.20995300544696804","0.7920164788702487","0.359227416712076","1","","","","","","","",""
"","html-keyboard-response","230","751298","0.0-128.0-1.0","null","<p></p>","null","","","","","","","","","","","","","","","","","","",""
"","do_trial","231","756897","0.0-129.0-0.0","1060.8750000828877","","","","50","1,0,0","2","coast","76","probe-99","0.292940686922824","0.7214668118827839","0.37671804974968054","0","","","","","","","",""
"","html-keyboard-response","232","757900","0.0-129.0-1.0","null","<p></p>","null","","","","","","","","","","","","","","","","","","",""
"","do_trial","233","762868","0.0-130.0-0.0","423.43500000424683","","","","50","1,1,1","2","coast","77","probe-105","0.2767269587389124","0.6561070313760022","0.35671920358811604","1","","","","","","","",""
"","html-keyboard-response","234","763873","0.0-130.0-1.0","null","<p></p>","null","","","","","","","","","","","","","","","","","","",""
"","do_trial","235","768742","0.0-131.0-0.0","325.15000004787","","","","50","0,1,0","2","coast","78","probe-27","0.17247263364512555","0.6321633261000027","0.2578645957317856","1","","","","","","","",""
"","html-keyboard-response","236","769746","0.0-131.0-1.0","null","<p></p>","null","","","","","","","","","","","","","","","","","","",""
"","do_trial","237","774580","0.0-132.0-0.0","290.2750000357628","","","","50","0,1,0","2","coast","79","probe-44","0.1739652395196227","0.723656232671796","0.21330617116879283","1","","","","","","","",""
"","html-keyboard-response","238","775584","0.0-132.0-1.0","null","<p></p>","null","","","","","","","","","","","","","","","","","","",""
"","do_trial","239","780457","0.0-133.0-0.0","333.2899999804795","","","","50","0,1,0","2","coast","80","probe-108","0.16130967493727572","0.6728528840451056","0.2370631600222048","1","","","","","","","",""
"","html-keyboard-response","240","781462","0.0-133.0-1.0","null","<p></p>","null","","","","","","","","","","","","","","","","","","",""
"","do_trial","241","786313","0.0-134.0-0.0","313.55000007897615","","","","50","0,1,0","2","coast","81","probe-12","0.22397978841131794","0.5931901251563148","0.21021974078056194","1","","","","","","","",""
"","html-keyboard-response","242","787317","0.0-134.0-1.0","null","<p></p>","null","","","","","","","","","","","","","","","","","","",""
"","do_trial","243","792187","0.0-135.0-0.0","327.5650000432506","","","","50","1,1,1","2","coast","82","probe-161","0.22961213817674214","0.5029227434462648","0.43023738157134306","1","","","","","","","",""
"","html-keyboard-response","244","793191","0.0-135.0-1.0","null","<p></p>","null","","","","","","","","","","","","","","","","","","",""
"","do_trial","245","798066","0.0-136.0-0.0","333.96499999798834","","","","50","0,0,0","2","coast","83","probe-83","0.13868499922564714","0.27611664334558567","0.41734455909191726","0","","","","","","","",""
"","html-keyboard-response","246","799070","0.0-136.0-1.0","null","<p></p>","null","","","","","","","","","","","","","","","","","","",""
"","do_trial","247","803893","0.0-137.0-0.0","278.3799999160692","","","","50","0,0,1","2","coast","84","probe-181","0.20534497220245904","0.15833216222087815","0.47401645297328016","0","","","","","","","",""
"","html-keyboard-response","248","804896","0.0-137.0-1.0","null","<p></p>","null","","","","","","","","","","","","","","","","","","",""
"","do_trial","249","809983","0.0-138.0-0.0","547.3400000482798","","","","50","1,0,0","2","coast","85","probe-176","0.21685438897541812","0.3580882931604468","0.5958029293830118","0","","","","","","","",""
"","html-keyboard-response","250","810987","0.0-138.0-1.0","null","<p></p>","null","","","","","","","","","","","","","","","","","","",""
"","do_trial","251","815740","0.0-139.0-0.0","209.15000000968575","","","","50","0,0,1","2","coast","86","probe-225","0.07230431918420313","0.35024136476831863","0.5645879187026588","0","","","","","","","",""
"","html-keyboard-response","252","816744","0.0-139.0-1.0","null","<p></p>","null","","","","","","","","","","","","","","","","","","",""
"","do_trial","253","821594","0.0-140.0-0.0","306.0250000562519","","","","49","0,0,0","2","coast","87","probe-03","0.09498879003092679","0.31970676998804115","0.46342073660664107","0","","","","","","","",""
"","html-keyboard-response","254","822598","0.0-140.0-1.0","null","<p></p>","null","","","","","","","","","","","","","","","","","","",""
"","do_trial","255","827424","0.0-141.0-0.0","285.6100000208244","","","","49","0,0,1","2","coast","88","probe-163","0.17104865936013242","0.2983190266434481","0.4211161625534629","0","","","","","","","",""
"","html-keyboard-response","256","828428","0.0-141.0-1.0","null","<p></p>","null","","","","","","","","","","","","","","","","","","",""
"","do_trial","257","833329","0.0-142.0-0.0","357.0649999892339","","","","51","1,1,0","2","coast","89","probe-56","0.2655067279625618","0.3370360579867685","0.4150327175095272","0","","","","","","","",""
"","html-keyboard-response","258","834333","0.0-142.0-1.0","null","<p></p>","null","","","","","","","","","","","","","","","","","","",""
"","do_trial","259","839372","0.0-143.0-0.0","494.9999999953434","","","","51","0,1,0","2","coast","90","probe-224","0.1800213282411904","0.2882558379404345","0.4499303836323592","0","","","","","","","",""
"","html-keyboard-response","260","840376","0.0-143.0-1.0","null","<p></p>","null","","","","","","","","","","","","","","","","","","",""
"","do_trial","261","845199","0.0-144.0-0.0","280.8049999875948","","","","50","0,0,1","2","coast","91","probe-11","0.1545725748806634","0.31474248924757525","0.4038118643365456","0","","","","","","","",""
"","html-keyboard-response","262","846203","0.0-144.0-1.0","null","<p></p>","null","","","","","","","","","","","","","","","","","","",""
"","do_trial","263","850995","0.0-145.0-0.0","248.51499998476356","","","","50","0,0,1","2","coast","92","probe-197","0.1610191298383962","0.3375572801577467","0.5909917601303648","0","","","","","","","",""
"","html-keyboard-response","264","851999","0.0-145.0-1.0","null","<p></p>","null","","","","","","","","","","","","","","","","","","",""
"","do_trial","265","856846","0.0-146.0-0.0","304.9700000556186","","","","50","0,0,1","2","coast","93","probe-45","0.20051218449851554","0.35863049688967474","0.6158351977262805","0","","","","","","","",""
"","html-keyboard-response","266","857850","0.0-146.0-1.0","null","<p></p>","null","","","","","","","","","","","","","","","","","","",""
"","do_trial","267","862691","0.0-147.0-0.0","296.58500000368804","","","","50","0,0,1","2","coast","94","probe-117","0.10043587635468022","0.3713843921791527","0.8839692199533028","0","","","","","","","",""
"","html-keyboard-response","268","863696","0.0-147.0-1.0","null","<p></p>","null","","","","","","","","","","","","","","","","","","",""
"","do_trial","269","868538","0.0-148.0-0.0","298.3050000621006","","","","50","1,1,1","2","coast","95","probe-19","0.12284650576686877","0.2401473578238783","0.7850318470974056","1","","","","","","","",""
"","html-keyboard-response","270","869542","0.0-148.0-1.0","null","<p></p>","null","","","","","","","","","","","","","","","","","","",""
"","do_trial","271","874434","0.0-149.0-0.0","348.61999994609505","","","","50","0,1,0","2","coast","96","probe-81","0.10799227990466999","0.35975949800391943","0.5204452329749815","1","","","","","","","",""
"","html-keyboard-response","272","875437","0.0-149.0-1.0","null","<p></p>","null","","","","","","","","","","","","","","","","","","",""
"","do_trial","273","880322","0.0-150.0-0.0","341.30000008735806","","","","50","0,0,1","2","coast","97","probe-215","0.054159565838282395","0.3000993943398177","0.5645622873134076","0","","","","","","","",""
"","html-keyboard-response","274","881325","0.0-150.0-1.0","null","<p></p>","null","","","","","","","","","","","","","","","","","","",""
"","do_trial","275","886166","0.0-151.0-0.0","299.6450000209734","","","","50","0,0,0","2","coast","98","probe-21","0.07476553454824378","0.15781282017704754","0.5572855034333347","0","","","","","","","",""
"","html-keyboard-response","276","887170","0.0-151.0-1.0","null","<p></p>","null","","","","","","","","","","","","","","","","","","",""
"","do_trial","277","892004","0.0-152.0-0.0","294.5300000719726","","","","50","1,1,1","2","coast","99","probe-186","0.08691190309592994","0.23541600646359903","0.44794114806855","1","","","","","","","",""
"","html-keyboard-response","278","893008","0.0-152.0-1.0","null","<p></p>","null","","","","","","","","","","","","","","","","","","",""
"","do_trial","279","897913","0.0-153.0-0.0","361.185000045225","","","","50","0,0,0","2","coast","100","probe-201","0.12483323138651481","0.13815000459476123","0.4971397938153689","0","","","","","","","",""
"","html-keyboard-response","280","898917","0.0-153.0-1.0","null","<p></p>","null","","","","","","","","","","","","","","","","","","",""
"","do_trial","281","903769","0.0-154.0-0.0","307.78000003192574","","","","50","0,0,1","2","coast","101","probe-116","0.1036412900534277","0.17477574265177126","0.6167639105605478","0","","","","","","","",""
"","html-keyboard-response","282","904773","0.0-154.0-1.0","null","<p></p>","null","","","","","","","","","","","","","","","","","","",""
"","do_trial","283","909654","0.0-155.0-0.0","340.265000006184","","","","50","0,0,1","2","coast","102","probe-171","0.08788236522173033","0.20263120313241628","0.5863058068919677","0","","","","","","","",""
"","html-keyboard-response","284","910658","0.0-155.0-1.0","null","<p></p>","null","","","","","","","","","","","","","","","","","","",""
"","do_trial","285","915536","0.0-156.0-0.0","334.06500006094575","","","","50","0,0,0","2","coast","103","probe-191","0.07199011564310785","0.32152458434975756","0.5195402146906836","0","","","","","","","",""
"","html-keyboard-response","286","916540","0.0-156.0-1.0","null","<p></p>","null","","","","","","","","","","","","","","","","","","",""
"","do_trial","287","921433","0.0-157.0-0.0","348.79499999806285","","","","50","0,0,0","2","coast","104","probe-217","0.08691779430445833","0.1825772540900791","0.6035928705643121","0","","","","","","","",""
"","html-keyboard-response","288","922437","0.0-157.0-1.0","null","<p></p>","null","","","","","","","","","","","","","","","","","","",""
"","do_trial","289","927293","0.0-158.0-0.0","314.9950000224635","","","","50","0,0,0","2","coast","105","probe-180","0.06657420853227584","0.2616542583416794","0.6913358964761875","0","","","","","","","",""
"","html-keyboard-response","290","928297","0.0-158.0-1.0","null","<p></p>","null","","","","","","","","","","","","","","","","","","",""
"","do_trial","291","933176","0.0-159.0-0.0","335.9600000549108","","","","50","0,0,1","2","coast","106","probe-230","0.15516601006125774","0.05449194070705534","0.6870898772697431","0","","","","","","","",""
"","html-keyboard-response","292","934180","0.0-159.0-1.0","null","<p></p>","null","","","","","","","","","","","","","","","","","","",""
"","do_trial","293","939053","0.0-160.0-0.0","329.99500003643334","","","","50","1,0,1","2","coast","107","probe-02","0.14825186866840132","0.07843443440506077","0.6437170550064881","0","","","","","","","",""
"","html-keyboard-response","294","940057","0.0-160.0-1.0","null","<p></p>","null","","","","","","","","","","","","","","","","","","",""
"","do_trial","295","944988","0.0-161.0-0.0","390.44499990995973","","","","50","0,0,1","2","coast","108","probe-98","0.12052499152387856","0.22060155723830938","0.533554406393903","0","","","","","","","",""
"","html-keyboard-response","296","945992","0.0-161.0-1.0","null","<p></p>","null","","","","","","","","","","","","","","","","","","",""
"","do_trial","297","950837","0.0-162.0-0.0","303.40000009164214","","","","50","1,0,0","2","coast","109","probe-100","0.10908986668182037","0.2815004433671482","0.4942267069242634","0","","","","","","","",""
"","html-keyboard-response","298","951843","0.0-162.0-1.0","null","<p></p>","null","","","","","","","","","","","","","","","","","","",""
"","do_bye","299","953353","0.0-163.0-0.0","null","","","","null","","","","","","","","","","","","","","","","",""
"","do_travel","300","959359","0.0-164.0-0.0","null","","","","null","","","","","","","","","","","","","","","","",""
"","do_welcome","301","960865","0.0-164.0-1.0","null","","","","null","","","","","","","","","","","","","","","","",""
"","do_trial","302","966031","0.0-165.0-0.0","621.1549999425188","","","","50","0,0,1","3","highway","110","probe-64","0.08921429416467971","0.3122370043024806","1","0","","","","","","","",""
"","html-keyboard-response","303","967034","0.0-165.0-1.0","null","<p></p>","null","","","","","","","","","","","","","","","","","","",""
"","do_trial","304","971887","0.0-166.0-0.0","308.65999998059124","","","","50","0,0,1","3","highway","111","probe-70","0.12230712926691618","0.30362209042337873","1","0","","","","","","","",""
"","html-keyboard-response","305","972892","0.0-166.0-1.0","null","<p></p>","null","","","","","","","","","","","","","","","","","","",""
"","do_trial","306","977742","0.0-167.0-0.0","307.1300000883639","","","","49","0,0,1","3","highway","112","probe-88","0.2158736443176992","0.22374157780124468","0.7761224259825309","0","","","","","","","",""
"","html-keyboard-response","307","978746","0.0-167.0-1.0","null","<p></p>","null","","","","","","","","","","","","","","","","","","",""
"","do_trial","308","983659","0.0-168.0-0.0","372.3399998852983","","","","49","0,0,0","3","highway","113","probe-52","0.24487180647654297","0.22473024524297766","0.7097141556138887","0","","","","","","","",""
"","html-keyboard-response","309","984663","0.0-168.0-1.0","null","<p></p>","null","","","","","","","","","","","","","","","","","","",""
"","do_trial","310","989540","0.0-169.0-0.0","335.26500000152737","","","","51","0,0,0","3","highway","114","probe-228","0.2870610661697197","0.3392044720709575","0.5734850025886989","0","","","","","","","",""
"","html-keyboard-response","311","990545","0.0-169.0-1.0","null","<p></p>","null","","","","","","","","","","","","","","","","","","",""
"","do_trial","312","995398","0.0-170.0-0.0","309.15499990805984","","","","51","0,0,0","3","highway","115","probe-10","0.06239825850383019","0.43160127904166573","0.509358919087259","0","","","","","","","",""
"","html-keyboard-response","313","996402","0.0-170.0-1.0","null","<p></p>","null","","","","","","","","","","","","","","","","","","",""
"","do_trial","314","1001253","0.0-171.0-0.0","307.2449999162927","","","","50","0,0,1","3","highway","116","probe-102","0.0703747511162303","0.2770117371807196","0.5334369657254063","0","","","","","","","",""
"","html-keyboard-response","315","1002257","0.0-171.0-1.0","null","<p></p>","null","","","","","","","","","","","","","","","","","","",""
"","do_trial","316","1007098","0.0-172.0-0.0","300.59500003699213","","","","50","0,0,1","3","highway","117","probe-158","0.16945213408145882","0.227046690024157","0.4847805115595998","0","","","","","","","",""
"","html-keyboard-response","317","1008102","0.0-172.0-1.0","null","<p></p>","null","","","","","","","","","","","","","","","","","","",""
"","do_trial","318","1012925","0.0-173.0-0.0","278.9700001012534","","","","50","0,0,1","3","highway","118","probe-119","0.10892638024928505","0.2482217429180665","0.5472005883943624","0","","","","","","","",""
"","html-keyboard-response","319","1013929","0.0-173.0-1.0","null","<p></p>","null","","","","","","","","","","","","","","","","","","",""
"","do_trial","320","1018769","0.0-174.0-0.0","300.58999999891967","","","","50","0,0,1","3","highway","119","probe-73","0.1485076691084129","0.21170884909701854","0.6169568837910884","0","","","","","","","",""
"","html-keyboard-response","321","1019773","0.0-174.0-1.0","null","<p></p>","null","","","","","","","","","","","","","","","","","","",""
"","do_trial","322","1024452","0.0-175.0-0.0","134.8899999866262","","","","50","1,0,0","3","highway","120","probe-203","0.15575890731080344","0.22332182679064574","0.6831899166710607","0","","","","","","","",""
"","html-keyboard-response","323","1025455","0.0-175.0-1.0","null","<p></p>","null","","","","","","","","","","","","","","","","","","",""
"","do_trial","324","1030314","0.0-176.0-0.0","317.18499993439764","","","","50","1,0,0","3","highway","121","probe-156","0.2098878199960371","0.297462775152194","0.7829913974365049","0","","","","","","","",""
"","html-keyboard-response","325","1031316","0.0-176.0-1.0","null","<p></p>","null","","","","","","","","","","","","","","","","","","",""
"","do_trial","326","1036308","0.0-177.0-0.0","445.754999993369","","","","49","0,0,1","3","highway","122","probe-206","0.32377949729540184","0.4755552317021984","0.43750603641574687","0","","","","","","","",""
"","html-keyboard-response","327","1037311","0.0-177.0-1.0","null","<p></p>","null","","","","","","","","","","","","","","","","","","",""
"","do_trial","328","1042132","0.0-178.0-0.0","276.13000001292676","","","","51","1,1,0","3","highway","123","probe-178","0.26925377500184994","0.5631646414854575","0.18016302832234252","0","","","","","","","",""
"","html-keyboard-response","329","1043137","0.0-178.0-1.0","null","<p></p>","null","","","","","","","","","","","","","","","","","","",""
"","do_trial","330","1047947","0.0-179.0-0.0","267.0500000240281","","","","50","0,1,0","3","highway","124","probe-142","0.2775280979545733","0.6117588397981993","0.0999455181071478","1","","","","","","","",""
"","html-keyboard-response","331","1048951","0.0-179.0-1.0","null","<p></p>","null","","","","","","","","","","","","","","","","","","",""
"","do_trial","332","1053780","0.0-180.0-0.0","285.36500001791865","","","","50","0,1,0","3","highway","125","probe-155","0.3793132063824951","0.7259772679456729","0.05910145871070152","1","","","","","","","",""
"","html-keyboard-response","333","1054784","0.0-180.0-1.0","null","<p></p>","null","","","","","","","","","","","","","","","","","","",""
"","do_trial","334","1059638","0.0-181.0-0.0","314.7850000532344","","","","50","1,1,0","3","highway","126","probe-208","0.32691493322676485","0.7747089211583366","0.06578942001845446","1","","","","","","","",""
"","html-keyboard-response","335","1060642","0.0-181.0-1.0","null","<p></p>","null","","","","","","","","","","","","","","","","","","",""
"","do_trial","336","1065512","0.0-182.0-0.0","329.4900000328198","","","","50","1,1,0","3","highway","127","probe-82","0.40718006023288994","0.6925336190115359","0.27116746313754553","1","","","","","","","",""
"","html-keyboard-response","337","1066516","0.0-182.0-1.0","null","<p></p>","null","","","","","","","","","","","","","","","","","","",""
"","do_trial","338","1071367","0.0-183.0-0.0","310.4799999855459","","","","50","1,1,0","3","highway","128","probe-138","0.3840095163498878","0.6518094428615702","0.3140913107170488","1","","","","","","","",""
"","html-keyboard-response","339","1072371","0.0-183.0-1.0","null","<p></p>","null","","","","","","","","","","","","","","","","","","",""
"","do_trial","340","1077286","0.0-184.0-0.0","375.1449999399483","","","","50","0,1,0","3","highway","129","probe-165","0.2620692613719211","0.48247744855409125","0.2333457073728426","1","","","","","","","",""
"","html-keyboard-response","341","1078290","0.0-184.0-1.0","null","<p></p>","null","","","","","","","","","","","","","","","","","","",""
"","do_trial","342","1083193","0.0-185.0-0.0","360.2299999911338","","","","50","0,0,1","3","highway","130","probe-113","0.46283106148640607","0.5138435762822953","0.22220488135323022","0","","","","","","","",""
"","html-keyboard-response","343","1084197","0.0-185.0-1.0","null","<p></p>","null","","","","","","","","","","","","","","","","","","",""
"","do_trial","344","1089073","0.0-186.0-0.0","333.82499997969717","","","","50","1,0,0","3","highway","131","probe-131","0.43886279161781916","0.5349448856674983","0.16806264806366597","0","","","","","","","",""
"","html-keyboard-response","345","1090076","0.0-186.0-1.0","null","<p></p>","null","","","","","","","","","","","","","","","","","","",""
"","do_trial","346","1094914","0.0-187.0-0.0","293.86500001419336","","","","50","0,0,0","3","highway","132","probe-93","0.4714537624949864","0.6171945397662968","0.20315401883783626","0","","","","","","","",""
"","html-keyboard-response","347","1095918","0.0-187.0-1.0","null","<p></p>","null","","","","","","","","","","","","","","","","","","",""
"","do_trial","348","1100778","0.0-188.0-0.0","315.5149999074638","","","","50","1,0,0","3","highway","133","probe-84","0.3675611062840942","0.4833042492750126","0.1586565710563524","0","","","","","","","",""
"","html-keyboard-response","349","1101782","0.0-188.0-1.0","null","<p></p>","null","","","","","","","","","","","","","","","","","","",""
"","do_trial","350","1106638","0.0-189.0-0.0","314.96500002685934","","","","50","0,0,1","3","highway","134","probe-66","0.44538231831047237","0.586340434242269","0.14274341304304838","0","","","","","","","",""
"","html-keyboard-response","351","1107642","0.0-189.0-1.0","null","<p></p>","null","","","","","","","","","","","","","","","","","","",""
"","do_trial","352","1112562","0.0-190.0-0.0","375.13500009663403","","","","50","0,1,0","3","highway","135","probe-124","0.4820519055465101","0.5403570801956843","0.28500102273061984","1","","","","","","","",""
"","html-keyboard-response","353","1113566","0.0-190.0-1.0","null","<p></p>","null","","","","","","","","","","","","","","","","","","",""
"","do_trial","354","1118557","0.0-191.0-0.0","451.70500001404434","","","","50","0,1,0","3","highway","136","probe-129","0.4118191362863805","0.6902207853495906","0.24647452966343378","1","","","","","","","",""
"","html-keyboard-response","355","1119560","0.0-191.0-1.0","null","<p></p>","null","","","","","","","","","","","","","","","","","","",""
"","do_trial","356","1124449","0.0-192.0-0.0","345.13499995227903","","","","50","0,0,0","3","highway","137","probe-132","0.45089788253967433","0.7334770113472107","0.224376795199856","0","","","","","","","",""
"","html-keyboard-response","357","1125455","0.0-192.0-1.0","null","<p></p>","null","","","","","","","","","","","","","","","","","","",""
"","do_trial","358","1130300","0.0-193.0-0.0","306.13000004086643","","","","50","0,1,0","3","highway","138","probe-170","0.36018944010635007","0.7652821383994984","0.12566706508419168","1","","","","","","","",""
"","html-keyboard-response","359","1131304","0.0-193.0-1.0","null","<p></p>","null","","","","","","","","","","","","","","","","","","",""
"","do_trial","360","1136249","0.0-194.0-0.0","399.4149999925867","","","","50","0,0,0","3","highway","139","probe-110","0.30215253572865913","0.7031264700374089","0.06478631323849678","0","","","","","","","",""
"","html-keyboard-response","361","1137253","0.0-194.0-1.0","null","<p></p>","null","","","","","","","","","","","","","","","","","","",""
"","do_trial","362","1142113","0.0-195.0-0.0","315.1300000026822","","","","50","0,1,0","3","highway","140","probe-162","0.3450901643391693","0.6095088605237663","0.12552020884726978","1","","","","","","","",""
"","html-keyboard-response","363","1143117","0.0-195.0-1.0","null","<p></p>","null","","","","","","","","","","","","","","","","","","",""
"","do_trial","364","1148041","0.0-196.0-0.0","379.3399999849498","","","","50","1,0,0","3","highway","141","probe-174","0.37631579968903406","0.4995913709230442","0.09068665924503844","0","","","","","","","",""
"","html-keyboard-response","365","1149045","0.0-196.0-1.0","null","<p></p>","null","","","","","","","","","","","","","","","","","","",""
"","do_trial","366","1153928","0.0-197.0-0.0","338.9700000407174","","","","50","1,1,0","3","highway","142","probe-175","0.45433173773926855","0.490481706063281","0.08317640748166134","1","","","","","","","",""
"","html-keyboard-response","367","1154931","0.0-197.0-1.0","null","<p></p>","null","","","","","","","","","","","","","","","","","","",""
"","do_trial","368","1159876","0.0-198.0-0.0","405.3200000198558","","","","50","0,1,0","3","highway","143","probe-152","0.4384477337040214","0.6676691151320061","0.2032689821222815","1","","","","","","","",""
"","html-keyboard-response","369","1160880","0.0-198.0-1.0","null","<p></p>","null","","","","","","","","","","","","","","","","","","",""
"","do_trial","370","1165744","0.0-199.0-0.0","319.8250000132248","","","","50","0,0,0","3","highway","144","probe-85","0.31891266963875353","0.5133678472432742","0.05547246173866146","0","","","","","","","",""
"","html-keyboard-response","371","1166748","0.0-199.0-1.0","null","<p></p>","null","","","","","","","","","","","","","","","","","","",""
"","do_trial","372","1171632","0.0-200.0-0.0","339.94500001426786","","","","50","0,0,0","3","highway","145","probe-145","0.22713083352708655","0.5163628863510445","0.072655581878194","0","","","","","","","",""
"","html-keyboard-response","373","1172634","0.0-200.0-1.0","null","<p></p>","null","","","","","","","","","","","","","","","","","","",""
"","do_trial","374","1177508","0.0-201.0-0.0","333.03500001784414","","","","50","1,1,0","3","highway","146","probe-68","0.4247131757600566","0.6168368804977121","0.14136708837944384","1","","","","","","","",""
"","html-keyboard-response","375","1178512","0.0-201.0-1.0","null","<p></p>","null","","","","","","","","","","","","","","","","","","",""
"","do_trial","376","1183487","0.0-202.0-0.0","431.294999900274","","","","50","0,1,0","3","highway","147","probe-61","0.41434625043196815","0.7099049013284907","0.0676076720730455","1","","","","","","","",""
"","html-keyboard-response","377","1184491","0.0-202.0-1.0","null","<p></p>","null","","","","","","","","","","","","","","","","","","",""
"","do_trial","378","1189381","0.0-203.0-0.0","346.8300000531599","","","","50","0,0,0","3","highway","148","probe-47","0.3377723682070034","0.6190452619125703","0.06144855452387237","0","","","","","","","",""
"","html-keyboard-response","379","1190385","0.0-203.0-1.0","null","<p></p>","null","","","","","","","","","","","","","","","","","","",""
"","do_trial","380","1195207","0.0-204.0-0.0","278.04000000469387","","","","50","0,1,0","3","highway","149","probe-55","0.411750783165751","0.44469652287709127","0.0988357299803447","1","","","","","","","",""
"","html-keyboard-response","381","1196211","0.0-204.0-1.0","null","<p></p>","null","","","","","","","","","","","","","","","","","","",""
"","do_bye","382","1197717","0.0-205.0-0.0","null","","","","null","","","","","","","","","","","","","","","","",""
"","do_travel","383","1203723","0.0-206.0-0.0","null","","","","null","","","","","","","","","","","","","","","","",""
"","do_welcome","384","1205228","0.0-206.0-1.0","null","","","","null","","","","","","","","","","","","","","","","",""
"","do_trial","385","1210246","0.0-207.0-0.0","471.86000004876405","","","","50","1,1,0","4","mountain","150","probe-118","0.4519511052474443","1","0.1169479424501272","1","","","","","","","",""
"","html-keyboard-response","386","1211250","0.0-207.0-1.0","null","<p></p>","null","","","","","","","","","","","","","","","","","","",""
"","do_trial","387","1216366","0.0-208.0-0.0","572.3200000356883","","","","50","0,1,0","4","mountain","151","probe-219","0.47592086937507566","1","0.07364594392265536","1","","","","","","","",""
"","html-keyboard-response","388","1217369","0.0-208.0-1.0","null","<p></p>","null","","","","","","","","","","","","","","","","","","",""
"","do_trial","389","1222209","0.0-209.0-0.0","301.1199999600649","","","","50","0,1,0","4","mountain","152","probe-89","0.4029674542017479","0.7441021536113774","0.08619248687425168","1","","","","","","","",""
"","html-keyboard-response","390","1223212","0.0-209.0-1.0","null","<p></p>","null","","","","","","","","","","","","","","","","","","",""
"","do_trial","391","1228052","0.0-210.0-0.0","296.9100000336766","","","","50","0,1,0","4","mountain","153","probe-16","0.36525127784800276","0.5860606858138576","0.12041985317356199","1","","","","","","","",""
"","html-keyboard-response","392","1229056","0.0-210.0-1.0","null","<p></p>","null","","","","","","","","","","","","","","","","","","",""
"","do_trial","393","1233949","0.0-211.0-0.0","349.3950000265613","","","","50","0,1,0","4","mountain","154","probe-214","0.2586209260209754","0.5590699744707106","0.15310011161172368","1","","","","","","","",""
"","html-keyboard-response","394","1234954","0.0-211.0-1.0","null","<p></p>","null","","","","","","","","","","","","","","","","","","",""
"","do_trial","395","1239835","0.0-212.0-0.0","339.22500000335276","","","","50","0,0,0","4","mountain","155","probe-199","0.3006648803808521","0.3920902706575337","0.2363448396033703","0","","","","","","","",""
"","html-keyboard-response","396","1240839","0.0-212.0-1.0","null","<p></p>","null","","","","","","","","","","","","","","","","","","",""
"","do_trial","397","1245821","0.0-213.0-0.0","438.1450000219047","","","","50","0,1,0","4","mountain","156","probe-42","0.3209884652924873","0.4681279528165789","0.06233863319915331","1","","","","","","","",""
"","html-keyboard-response","398","1246825","0.0-213.0-1.0","null","<p></p>","null","","","","","","","","","","","","","","","","","","",""
"","do_trial","399","1251764","0.0-214.0-0.0","394.910000031814","","","","50","0,1,0","4","mountain","157","probe-213","0.37024082584444756","0.6634313725947618","0.10535214454268502","1","","","","","","","",""
"","html-keyboard-response","400","1252768","0.0-214.0-1.0","null","<p></p>","null","","","","","","","","","","","","","","","","","","",""
"","do_trial","401","1257633","0.0-215.0-0.0","322.5300000049174","","","","50","0,0,0","4","mountain","158","probe-140","0.41418820668087314","0.6816066629866019","0.18116264392472448","0","","","","","","","",""
"","html-keyboard-response","402","1258636","0.0-215.0-1.0","null","<p></p>","null","","","","","","","","","","","","","","","","","","",""
"","do_trial","403","1263484","0.0-216.0-0.0","304.05500007327646","","","","50","1,1,1","4","mountain","159","probe-92","0.41282612168428173","0.6514865777858019","0.11013975554398188","1","","","","","","","",""
"","html-keyboard-response","404","1264488","0.0-216.0-1.0","null","<p></p>","null","","","","","","","","","","","","","","","","","","",""
"","do_trial","405","1269378","0.0-217.0-0.0","347.2250000340864","","","","50","0,1,0","4","mountain","160","probe-94","0.3604522204931999","0.55848105767152","0.13506370602579423","1","","","","","","","",""
"","html-keyboard-response","406","1270383","0.0-217.0-1.0","null","<p></p>","null","","","","","","","","","","","","","","","","","","",""
"","do_trial","407","1275308","0.0-218.0-0.0","381.2450000550598","","","","50","0,0,0","4","mountain","161","probe-103","0.1796564125377541","0.5668422233712955","0.09735562902896559","0","","","","","","","",""
"","html-keyboard-response","408","1276312","0.0-218.0-1.0","null","<p></p>","null","","","","","","","","","","","","","","","","","","",""
"","do_trial","409","1281316","0.0-219.0-0.0","460.8850000659004","","","","50","0,0,0","4","mountain","162","probe-126","0.24861455400553462","0.5067924426495084","0.3562753729065501","0","","","","","","","",""
"","html-keyboard-response","410","1282320","0.0-219.0-1.0","null","<p></p>","null","","","","","","","","","","","","","","","","","","",""
"","do_trial","411","1287247","0.0-220.0-0.0","386.9249999988824","","","","50","0,0,1","4","mountain","163","probe-46","0.29173744196338514","0.3732558373627714","0.3673996144356452","0","","","","","","","",""
"","html-keyboard-response","412","1288251","0.0-220.0-1.0","null","<p></p>","null","","","","","","","","","","","","","","","","","","",""
"","do_trial","413","1293218","0.0-221.0-0.0","425.165000022389","","","","50","0,1,0","4","mountain","164","probe-147","0.2597513605028576","0.48647871020942546","0.3529756351470805","1","","","","","","","",""
"","html-keyboard-response","414","1294222","0.0-221.0-1.0","null","<p></p>","null","","","","","","","","","","","","","","","","","","",""
"","do_trial","415","1299139","0.0-222.0-0.0","372.11500003468245","","","","50","1,0,0","4","mountain","165","probe-148","0.10393429874663204","0.5708040629367411","0.5172900213482255","0","","","","","","","",""
"","html-keyboard-response","416","1300143","0.0-222.0-1.0","null","<p></p>","null","","","","","","","","","","","","","","","","","","",""
"","do_trial","417","1305043","0.0-223.0-0.0","356.25499999150634","","","","50","0,1,0","4","mountain","166","probe-104","0.1355461747927034","0.3467499569792788","0.4295743638894129","1","","","","","","","",""
"","html-keyboard-response","418","1306047","0.0-223.0-1.0","null","<p></p>","null","","","","","","","","","","","","","","","","","","",""
"","do_trial","419","1310971","0.0-224.0-0.0","379.39000001642853","","","","50","0,1,0","4","mountain","167","probe-101","0.12096054032869978","0.3612935681835645","0.39399438339331144","1","","","","","","","",""
"","html-keyboard-response","420","1311975","0.0-224.0-1.0","null","<p></p>","null","","","","","","","","","","","","","","","","","","",""
"","do_trial","421","1316931","0.0-225.0-0.0","412.1450000675395","","","","50","0,0,1","4","mountain","168","probe-31","0.1577900740783954","0.2906152346309944","0.45246160101515287","0","","","","","","","",""
"","html-keyboard-response","422","1317935","0.0-225.0-1.0","null","<p></p>","null","","","","","","","","","","","","","","","","","","",""
"","do_trial","423","1322849","0.0-226.0-0.0","371.030000038445","","","","50","0,0,0","4","mountain","169","probe-22","0.13319588151696732","0.21912812899293216","0.40252130558918325","0","","","","","","","",""
"","html-keyboard-response","424","1323853","0.0-226.0-1.0","null","<p></p>","null","","","","","","","","","","","","","","","","","","",""
"","do_trial","425","1328787","0.0-227.0-0.0","389.6599999861792","","","","50","0,0,1","4","mountain","170","probe-139","0.15343355165819716","0.25430810367988504","0.5658700073913517","0","","","","","","","",""
"","html-keyboard-response","426","1329789","0.0-227.0-1.0","null","<p></p>","null","","","","","","","","","","","","","","","","","","",""
"","do_trial","427","1334727","0.0-228.0-0.0","396.0199999855831","","","","50","0,0,0","4","mountain","171","probe-76","0.1565630206839954","0.29696291684407866","0.6500908899813602","0","","","","","","","",""
"","html-keyboard-response","428","1335731","0.0-228.0-1.0","null","<p></p>","null","","","","","","","","","","","","","","","","","","",""
"","do_trial","429","1340657","0.0-229.0-0.0","381.1050000367686","","","","50","0,1,1","4","mountain","172","probe-78","0.06914033197563045","0.4819062022126586","0.6212177126018847","1","","","","","","","",""
"","html-keyboard-response","430","1341661","0.0-229.0-1.0","null","<p></p>","null","","","","","","","","","","","","","","","","","","",""
"","do_trial","431","1347809","0.0-230.0-0.0","1603.4800000488758","","","","50","1,0,1","4","mountain","173","probe-50","0.11654830841668291","0.47438506657020435","0.5554233987981065","0","","","","","","","",""
"","html-keyboard-response","432","1348813","0.0-230.0-1.0","null","<p></p>","null","","","","","","","","","","","","","","","","","","",""
"","do_trial","433","1353722","0.0-231.0-0.0","367.339999997057","","","","50","0,1,1","4","mountain","174","probe-221","0.15152507491599185","0.39367509252293914","0.5380916783732214","1","","","","","","","",""
"","html-keyboard-response","434","1354726","0.0-231.0-1.0","null","<p></p>","null","","","","","","","","","","","","","","","","","","",""
"","do_trial","435","1359937","0.0-232.0-0.0","666.9649999821559","","","","50","1,0,1","4","mountain","175","probe-60","0.17075027503801246","0.24005791797853498","0.7211182653503826","0","","","","","","","",""
"","html-keyboard-response","436","1360940","0.0-232.0-1.0","null","<p></p>","null","","","","","","","","","","","","","","","","","","",""
"","do_trial","437","1365959","0.0-233.0-0.0","477.11999993771315","","","","50","0,1,1","4","mountain","176","probe-115","0.11162666450862833","0.2112466751078566","0.6408899167992007","1","","","","","","","",""
"","html-keyboard-response","438","1366963","0.0-233.0-1.0","null","<p></p>","null","","","","","","","","","","","","","","","","","","",""
"","do_trial","439","1371992","0.0-234.0-0.0","484.8200000124052","","","","50","0,0,1","4","mountain","177","probe-08","0.12330674281242872","0.3642400151485217","0.732699329655237","0","","","","","","","",""
"","html-keyboard-response","440","1372996","0.0-234.0-1.0","null","<p></p>","null","","","","","","","","","","","","","","","","","","",""
"","do_trial","441","1377893","0.0-235.0-0.0","357.42000001482666","","","","50","0,0,0","4","mountain","178","probe-18","0.057841614746810044","0.36668086518428744","0.8453298648721073","0","","","","","","","",""
"","html-keyboard-response","442","1378897","0.0-235.0-1.0","null","<p></p>","null","","","","","","","","","","","","","","","","","","",""
"","do_trial","443","1383724","0.0-236.0-0.0","285.6649999739602","","","","50","0,1,1","4","mountain","179","probe-222","0.2068517208389156","0.3175354819167261","0.760659024430952","1","","","","","","","",""
"","html-keyboard-response","444","1384728","0.0-236.0-1.0","null","<p></p>","null","","","","","","","","","","","","","","","","","","",""
"","do_trial","445","1389705","0.0-237.0-0.0","432.3749999748543","","","","50","0,0,1","4","mountain","180","probe-35","0.11624032025659309","0.26021736047946625","0.7959559628341337","0","","","","","","","",""
"","html-keyboard-response","446","1390709","0.0-237.0-1.0","null","<p></p>","null","","","","","","","","","","","","","","","","","","",""
"","do_trial","447","1395635","0.0-238.0-0.0","386.7750000208616","","","","50","0,0,1","4","mountain","181","probe-204","0.05266000559952718","0.2779681103255798","0.696069653848189","0","","","","","","","",""
"","html-keyboard-response","448","1396640","0.0-238.0-1.0","null","<p></p>","null","","","","","","","","","","","","","","","","","","",""
"","do_trial","449","1401504","0.0-239.0-0.0","320.2850000234321","","","","50","0,0,0","4","mountain","182","probe-151","0.10279257144479301","0.2639830560044265","0.5881421924440358","0","","","","","","","",""
"","html-keyboard-response","450","1402509","0.0-239.0-1.0","null","<p></p>","null","","","","","","","","","","","","","","","","","","",""
"","do_trial","451","1407407","0.0-240.0-0.0","354.6700000297278","","","","50","0,0,1","4","mountain","183","probe-39","0.07765413640107999","0.34955602211019665","0.6411600451483621","0","","","","","","","",""
"","html-keyboard-response","452","1408411","0.0-240.0-1.0","null","<p></p>","null","","","","","","","","","","","","","","","","","","",""
"","do_trial","453","1413392","0.0-241.0-0.0","436.1949999583885","","","","50","0,0,1","4","mountain","184","probe-149","0.17172713144384305","0.3157209099639166","0.6132979342830599","0","","","","","","","",""
"","html-keyboard-response","454","1414395","0.0-241.0-1.0","null","<p></p>","null","","","","","","","","","","","","","","","","","","",""
"","do_trial","455","1419306","0.0-242.0-0.0","371.96500005666167","","","","50","0,1,1","4","mountain","185","probe-150","0.24851595634405116","0.30241630716032264","0.5312613475109043","1","","","","","","","",""
"","html-keyboard-response","456","1420310","0.0-242.0-1.0","null","<p></p>","null","","","","","","","","","","","","","","","","","","",""
"","do_trial","457","1425204","0.0-243.0-0.0","353.00000000279397","","","","50","0,1,0","4","mountain","186","probe-48","0.25375782512081296","0.333690503089138","0.5360656788472455","1","","","","","","","",""
"","html-keyboard-response","458","1426208","0.0-243.0-1.0","null","<p></p>","null","","","","","","","","","","","","","","","","","","",""
"","do_trial","459","1431334","0.0-244.0-0.0","581.9749999791384","","","","50","1,1,1","4","mountain","187","probe-184","0.2392098991629384","0.5172137803354339","0.5428047825156631","1","","","","","","","",""
"","html-keyboard-response","460","1432339","0.0-244.0-1.0","null","<p></p>","null","","","","","","","","","","","","","","","","","","",""
"","do_trial","461","1437221","0.0-245.0-0.0","339.81000003404915","","","","50","1,0,0","4","mountain","188","probe-159","0.21950915611479205","0.46923220914856134","0.49848254241452816","0","","","","","","","",""
"","html-keyboard-response","462","1438225","0.0-245.0-1.0","null","<p></p>","null","","","","","","","","","","","","","","","","","","",""
"","do_trial","463","1443078","0.0-246.0-0.0","308.8550000684336","","","","50","0,1,0","4","mountain","189","probe-133","0.30055599648031556","0.347323032705266","0.5386065284542574","1","","","","","","","",""
"","html-keyboard-response","464","1444082","0.0-246.0-1.0","null","<p></p>","null","","","","","","","","","","","","","","","","","","",""
"","do_bye","465","1445591","0.0-247.0-0.0","null","","","","null","","","","","","","","","","","","","","","","",""
"","do_travel","466","1451594","0.0-248.0-0.0","null","","","","null","","","","","","","","","","","","","","","","",""
"","do_welcome","467","1453102","0.0-248.0-1.0","null","","","","null","","","","","","","","","","","","","","","","",""
"","do_trial","468","1458094","0.0-249.0-0.0","447.8649999946356","","","","50","1,0,1","5","countryside","190","probe-114","0.2785752232383008","0.2469377305915699","1","0","","","","","","","",""
"","html-keyboard-response","469","1459097","0.0-249.0-1.0","null","<p></p>","null","","","","","","","","","","","","","","","","","","",""
"","do_trial","470","1463769","0.0-250.0-0.0","131.62000000011176","","","","50","0,0,1","5","countryside","191","probe-69","0.18042241682293156","0.2410532299652807","1","0","","","","","","","",""
"","html-keyboard-response","471","1464774","0.0-250.0-1.0","null","<p></p>","null","","","","","","","","","","","","","","","","","","",""
"","do_trial","472","1469318","0.0-251.0-0.0","0.12499990407377481","","","","50","0,0,1","5","countryside","192","probe-223","0.14290473845132412","0.21855447712974777","0.8366716071873519","0","","","","","","","",""
"","html-keyboard-response","473","1470323","0.0-251.0-1.0","null","<p></p>","null","","","","","","","","","","","","","","","","","","",""
"","do_trial","474","1474865","0.0-252.0-0.0","0.11000002268701792","","","","50","0,0,1","5","countryside","193","probe-25","0.09817574807319845","0.10723018630948322","0.7598579656776405","0","","","","","","","",""
"","html-keyboard-response","475","1475868","0.0-252.0-1.0","null","<p></p>","null","","","","","","","","","","","","","","","","","","",""
"","do_trial","476","1480467","0.0-253.0-0.0","56.14500003866851","","","","50","0,1,1","5","countryside","194","probe-164","0.13831301544773675","0.1644077937625297","0.6078796679951664","1","","","","","","","",""
"","html-keyboard-response","477","1481471","0.0-253.0-1.0","null","<p></p>","null","","","","","","","","","","","","","","","","","","",""
"","do_trial","478","1486129","0.0-254.0-0.0","116.27999995835125","","","","50","1,0,1","5","countryside","195","probe-128","0.1758568884598003","0.1848562162790285","0.6313296114617007","0","","","","","","","",""
"","html-keyboard-response","479","1487131","0.0-254.0-1.0","null","<p></p>","null","","","","","","","","","","","","","","","","","","",""
"","do_trial","480","1491815","0.0-255.0-0.0","144.16499994695187","","","","50","0,0,1","5","countryside","196","probe-36","0.11859759516438284","0.37619133829662477","0.6222776754219975","0","","","","","","","",""
"","html-keyboard-response","481","1492819","0.0-255.0-1.0","null","<p></p>","null","","","","","","","","","","","","","","","","","","",""
"","do_trial","482","1497461","0.0-256.0-0.0","102.62000001966953","","","","50","0,1,0","5","countryside","197","probe-72","0.18426668860015205","0.49861496760225604","0.6118159618271392","1","","","","","","","",""
"","html-keyboard-response","483","1498465","0.0-256.0-1.0","null","<p></p>","null","","","","","","","","","","","","","","","","","","",""
"","do_trial","484","1503035","0.0-257.0-0.0","25.815000059083104","","","","50","0,1,1","5","countryside","198","probe-211","0.20204004585721863","0.33649117765196607","0.52004913578758","1","","","","","","","",""
"","html-keyboard-response","485","1504041","0.0-257.0-1.0","null","<p></p>","null","","","","","","","","","","","","","","","","","","",""
"","do_trial","486","1508847","0.0-258.0-0.0","264.07999999355525","","","","50","0,1,0","5","countryside","199","probe-146","0.05048831749923213","0.3107892624988788","0.5678597167939644","1","","","","","","","",""
"","html-keyboard-response","487","1509851","0.0-258.0-1.0","null","<p></p>","null","","","","","","","","","","","","","","","","","","",""
"","do_trial","488","1515109","0.0-259.0-0.0","719.124999945052","","","","50","0,1,0","5","countryside","200","probe-80","0.09562913882405828","0.3977021352796328","0.5279120831625942","1","","","","","","","",""
"","html-keyboard-response","489","1516113","0.0-259.0-1.0","null","<p></p>","null","","","","","","","","","","","","","","","","","","",""
"","do_trial","490","1520917","0.0-260.0-0.0","264.2699999269098","","","","50","0,0,1","5","countryside","201","probe-32","0.15284727827734293","0.3448424143734768","0.6745097805002223","0","","","","","","","",""
"","html-keyboard-response","491","1521921","0.0-260.0-1.0","null","<p></p>","null","","","","","","","","","","","","","","","","","","",""
"","do_trial","492","1526736","0.0-261.0-0.0","270.9150000009686","","","","50","1,0,1","5","countryside","202","probe-23","0.13536912219173142","0.5229939432586123","0.5622254192370192","0","","","","","","","",""
"","html-keyboard-response","493","1527738","0.0-261.0-1.0","null","<p></p>","null","","","","","","","","","","","","","","","","","","",""
"","do_trial","494","1532323","0.0-262.0-0.0","45.79000000376254","","","","50","0,0,1","5","countryside","203","probe-01","0.09527325717586571","0.492591171849178","0.5555178894811582","0","","","","","","","",""
"","html-keyboard-response","495","1533328","0.0-262.0-1.0","null","<p></p>","null","","","","","","","","","","","","","","","","","","",""
"","do_trial","496","1537917","0.0-263.0-0.0","47.52999998163432","","","","50","0,1,0","5","countryside","204","probe-177","0.062456563858648215","0.4730968977819836","0.41739866948283566","1","","","","","","","",""
"","html-keyboard-response","497","1538921","0.0-263.0-1.0","null","<p></p>","null","","","","","","","","","","","","","","","","","","",""
"","do_trial","498","1543551","0.0-264.0-0.0","86.59500000067055","","","","50","0,1,0","5","countryside","205","probe-195","0.08177528913743967","0.4620906349900155","0.25861097488738627","1","","","","","","","",""
"","html-keyboard-response","499","1544556","0.0-264.0-1.0","null","<p></p>","null","","","","","","","","","","","","","","","","","","",""
"","do_trial","500","1549116","0.0-265.0-0.0","20.64000000245869","","","","50","0,1,1","5","countryside","206","probe-167","0.07056773447978143","0.5212106240459519","0.30333398691687036","1","","","","","","","",""
"","html-keyboard-response","501","1550120","0.0-265.0-1.0","null","<p></p>","null","","","","","","","","","","","","","","","","","","",""
"","do_trial","502","1554723","0.0-266.0-0.0","63.30999999772757","","","","50","0,0,0","5","countryside","207","probe-189","0.09250711746192891","0.45707766216968126","0.2013130400123812","0","","","","","","","",""
"","html-keyboard-response","503","1555725","0.0-266.0-1.0","null","<p></p>","null","","","","","","","","","","","","","","","","","","",""
"","do_trial","504","1560340","0.0-267.0-0.0","74.50499990954995","","","","50","0,1,0","5","countryside","208","probe-198","0.05424136621923806","0.6939904946256096","0.200358578607374","1","","","","","","","",""
"","html-keyboard-response","505","1561344","0.0-267.0-1.0","null","<p></p>","null","","","","","","","","","","","","","","","","","","",""
"","do_trial","506","1565943","0.0-268.0-0.0","54.88000006880611","","","","50","0,1,1","5","countryside","209","probe-173","0.1842353335371141","0.6421827014486701","0.12998573067671867","1","","","","","","","",""
"","html-keyboard-response","507","1566947","0.0-268.0-1.0","null","<p></p>","null","","","","","","","","","","","","","","","","","","",""
"","do_trial","508","1571645","0.0-269.0-0.0","155.28499998617917","","","","50","0,0,0","5","countryside","210","probe-06","0.06006117983131489","0.6064926775657843","0.2449530289159603","0","","","","","","","",""
"","html-keyboard-response","509","1572646","0.0-269.0-1.0","null","<p></p>","null","","","","","","","","","","","","","","","","","","",""
"","do_trial","510","1577412","0.0-270.0-0.0","226.22000006958842","","","","50","0,1,0","5","countryside","211","probe-218","0.07692603841511945","0.6836327205690033","0.288783790874831","1","","","","","","","",""
"","html-keyboard-response","511","1578416","0.0-270.0-1.0","null","<p></p>","null","","","","","","","","","","","","","","","","","","",""
"","do_trial","512","1582956","0.0-271.0-0.0","0.13499998021870852","","","","50","0,1,0","5","countryside","212","probe-143","0.057199447366647206","0.705957376200964","0.23214819756138177","1","","","","","","","",""
"","html-keyboard-response","513","1583959","0.0-271.0-1.0","null","<p></p>","null","","","","","","","","","","","","","","","","","","",""
"","do_trial","514","1588504","0.0-272.0-0.0","0.12500002048909664","","","","50","0,1,0","5","countryside","213","probe-07","0.05128192393997976","0.5610216897615671","0.19762522309899713","1","","","","","","","",""
"","html-keyboard-response","515","1589508","0.0-272.0-1.0","null","<p></p>","null","","","","","","","","","","","","","","","","","","",""
"","do_trial","516","1594242","0.0-273.0-0.0","192.41999997757375","","","","50","0,0,0","5","countryside","214","probe-154","0.1633340508346589","0.46112516528561887","0.4069872353913903","0","","","","","","","",""
"","html-keyboard-response","517","1595244","0.0-273.0-1.0","null","<p></p>","null","","","","","","","","","","","","","","","","","","",""
"","do_trial","518","1599881","0.0-274.0-0.0","99.1099999519065","","","","50","0,0,0","5","countryside","215","probe-106","0.06006766333767861","0.4988736049769633","0.33140027888926454","0","","","","","","","",""
"","html-keyboard-response","519","1600885","0.0-274.0-1.0","null","<p></p>","null","","","","","","","","","","","","","","","","","","",""
"","do_trial","520","1605521","0.0-275.0-0.0","94.63499998673797","","","","50","0,1,1","5","countryside","216","probe-37","0.05988470283281411","0.5838988517605198","0.4585788458037821","1","","","","","","","",""
"","html-keyboard-response","521","1606527","0.0-275.0-1.0","null","<p></p>","null","","","","","","","","","","","","","","","","","","",""
"","do_trial","522","1611140","0.0-276.0-0.0","69.26999997813255","","","","50","0,0,0","5","countryside","217","probe-196","0.16406290086338865","0.5057036928121543","0.47284529580434803","0","","","","","","","",""
"","html-keyboard-response","523","1612144","0.0-276.0-1.0","null","<p></p>","null","","","","","","","","","","","","","","","","","","",""
"","do_trial","524","1616872","0.0-277.0-0.0","188.59499995596707","","","","50","0,1,0","5","countryside","218","probe-59","0.06491707095581434","0.6753879979721978","0.33470990196019434","1","","","","","","","",""
"","html-keyboard-response","525","1617876","0.0-277.0-1.0","null","<p></p>","null","","","","","","","","","","","","","","","","","","",""
"","do_trial","526","1622452","0.0-278.0-0.0","34.22499995213002","","","","50","0,1,1","5","countryside","219","probe-193","0.1454279522870794","0.6052678437870245","0.17562163420835325","1","","","","","","","",""
