"success","trial_type","trial_index","time_elapsed","internal_node_id","interactions","blur_events","focus_events","fullscreenenter_events","fullscreenexit_events","rt","stimulus","key_press","subject_id","participant_id","age","gender","prompt","response","choice_outcomes","context_n","context_img_id","trial_n","probe_img_id","pR_red","pR_white","pR_black","outcome","contextArray_ind","validImageProbes","invalidImageProbes","pRew_Red","pRew_White","pRew_Black","availableForMemProbe","choice_blocks"
"true","fullscreen","0","3130","0.0-0.0","""event"",""trial"",""time""
""fullscreenenter"",""0"",""2143""
","
","
","""event"",""trial"",""time""
""fullscreenenter"",""0"",""2143""
","
","","","","","","","","","","","","","","","","","","","","","","","","","",""
"","pavlovia","1","3131","0.0-1.0","""event"",""trial"",""time""
""fullscreenenter"",""0"",""2143""
","
","
","""event"",""trial"",""time""
""fullscreenenter"",""0"",""2143""
","
","","","","","","","","","","","","","","","","","","","","","","","","","",""
"","instruc1","2","48212","0.0-2.0","""event"",""trial"",""time""
""fullscreenenter"",""0"",""2143""
","
","
","""event"",""trial"",""time""
""fullscreenenter"",""0"",""2143""
","
","null","run_exp/static/audio/clip_1_welcome.m4a","null","930","1006","23","Male","<div class='center'><p>Welcome! This is the first part of the study. It will last ~30 minutes. In part 1 and part 2 of the study, you are the head captain of a pirate ship traveling around the world to different islands. You will play a few different games throughout these two parts. Here is an overview of them:</p><br><p>Part 1 (today)</p><p>1. Instructions, practice game, and quiz</p><p>2. Pick a pirate game on 6 different islands</p><br><p>Part 2 (tomorrow)</p><p>3. Pick a pirate game and memory game</p><p>4. Where did you see this ship? </p></div>","","","","","","","","","","","","","","","","","",""
"","html-keyboard-response","3","48881","0.0-3.0","""event"",""trial"",""time""
""fullscreenenter"",""0"",""2143""
","
","
","""event"",""trial"",""time""
""fullscreenenter"",""0"",""2143""
","
","668.7999999523163","<div class='center'><p>Welcome! This is the first part of the study. It will last ~30 minutes. In part 1 and part 2 of the study, you are the head captain of a pirate ship traveling around the world to different islands. You will play a few different games throughout these two parts. Here is an overview of them:</p><br><p>Part 1 (today)</p><p>1. Instructions, practice game, and quiz</p><p>2. Pick a pirate game on 6 different islands</p><br><p>Part 2 (tomorrow)</p><p>3. Pick a pirate game and memory game</p><p>4. Where did you see this ship? </p><p><b>[Press the space bar to continue]</b></p></div>","32","","","","","","","","","","","","","","","","","","","","","","",""
"","instruc2","4","54191","0.0-4.0","""event"",""trial"",""time""
""fullscreenenter"",""0"",""2143""
","
","
","""event"",""trial"",""time""
""fullscreenenter"",""0"",""2143""
","
","null","run_exp/static/audio/clip_2_different_places.m4a","null","","","","","<div class='center'><p>Today, you’ll visit these 6 islands on your journey. You'll be able to see these islands from your ship.</p><p><img src='run_exp/static/images/contexts/all_contexts.png' height='500'></p></div>","","","","","","","","","","","","","","","","","",""
"","html-keyboard-response","5","55293","0.0-5.0","""event"",""trial"",""time""
""fullscreenenter"",""0"",""2143""
","
","
","""event"",""trial"",""time""
""fullscreenenter"",""0"",""2143""
","
","1100.6000000238419","<div class='center'><p>Today, you’ll visit these 6 islands on your journey. You'll be able to see these islands from your ship.</p><p><img src='run_exp/static/images/contexts/all_contexts.png' height='500'></p><p><b>[Press the space bar to continue]</b></p></div>","32","","","","","","","","","","","","","","","","","","","","","","",""
"","instruc3","6","64971","0.0-6.0","""event"",""trial"",""time""
""fullscreenenter"",""0"",""2143""
","
","
","""event"",""trial"",""time""
""fullscreenenter"",""0"",""2143""
","
","null","run_exp/static/audio/clip_3_goal_of_game_1.m4a","null","","","","","<div class='center'><p> The pirates on your ship will rob other ships as they leave the island.</p> These ships have just sold their goods to the islanders, so they will be filled with lots and lots of gold.</p><p><img src='run_exp/static/images/tutorial/ship_center.png' height='400'></p></div>","","","","","","","","","","","","","","","","","",""
"","html-keyboard-response","7","65692","0.0-7.0","""event"",""trial"",""time""
""fullscreenenter"",""0"",""2143""
","
","
","""event"",""trial"",""time""
""fullscreenenter"",""0"",""2143""
","
","719.8999999761581","<div class='center'><p> The pirates on your ship will rob other ships as they leave the island.</p> These ships have just sold their goods to the islanders, so they will be filled with lots and lots of gold.</p><p><img src='run_exp/static/images/tutorial/ship_center.png' height='400'></p><p><b>[Press the space bar to continue]</b></p></div>","32","","","","","","","","","","","","","","","","","","","","","","",""
"","instruc4","8","93671","0.0-8.0","""event"",""trial"",""time""
""fullscreenenter"",""0"",""2143""
","
","
","""event"",""trial"",""time""
""fullscreenenter"",""0"",""2143""
","
","null","run_exp/static/audio/clip_4_goal_of_game_2.m4a","null","","","","","<div class='center'><p>As the head captain, you do not have to rob any ships yourself. Another pirate will be doing the robbing for you. First, you will choose a pirate to rob the next ship.</p><p><img src='run_exp/static/images/tutorial/pirates_all_crop.png' height='200'></p><p>Then, you'll see if the pirate successfully robbed the ship of their gold. If they were successful, then you'll get a stack of gold coins like this:</p><p><img src='run_exp/static/images/tutorial/reward.png' height='150'></p><p> If they were <b>not</b> successful, then you'll get no gold coins, and you'll see a big red x like this: </p><p><img src='run_exp/static/images/tutorial/reward_no.png' height='150'></p><p> How much bonus money you make is based on how many gold coins you collect.</p><div>","","","","","","","","","","","","","","","","","",""
"","html-keyboard-response","9","94886","0.0-9.0","""event"",""trial"",""time""
""fullscreenenter"",""0"",""2143""
","
","
","""event"",""trial"",""time""
""fullscreenenter"",""0"",""2143""
","
","1213.3999999761581","<div class='center'><p>As the head captain, you do not have to rob any ships yourself. Another pirate will be doing the robbing for you. First, you will choose a pirate to rob the next ship.</p><p><img src='run_exp/static/images/tutorial/pirates_all_crop.png' height='200'></p><p>Then, you'll see if the pirate successfully robbed the ship of their gold. If they were successful, then you'll get a stack of gold coins like this:</p><p><img src='run_exp/static/images/tutorial/reward.png' height='150'></p><p> If they were <b>not</b> successful, then you'll get no gold coins, and you'll see a big red x like this: </p><p><img src='run_exp/static/images/tutorial/reward_no.png' height='150'></p><p> How much bonus money you make is based on how many gold coins you collect.</p<p><b>[Press the space bar to continue]</b></p></div>","32","","","","","","","","","","","","","","","","","","","","","","",""
"","instruc5","10","110326","0.0-10.0","""event"",""trial"",""time""
""fullscreenenter"",""0"",""2143""
","
","
","""event"",""trial"",""time""
""fullscreenenter"",""0"",""2143""
","
","15439.300000011921","run_exp/static/audio/clip_5_probabilistic.m4a","49","","","","","<div class='center'><p>Even the most skilled pirate can not rob EVERY ship.</p><p> Some ships will have very strong protections against pirate attacks.</p><p> Blue beard, here, is very, very good at robbing ships, but he won't be successful every time he tries to rob one.</p><p> You can press the <b>‘1’</b> key on the keyboard to choose him.</p><p> Try choosing him 10 times to see how often he succeeds at robbing a ship. </p><p><img src='run_exp/static/images/tutorial/blue.png' height='500'></p></div>","","","","","","","","","","","","","","","","","",""
"","html-keyboard-response","11","111828","0.0-11.0","""event"",""trial"",""time""
""fullscreenenter"",""0"",""2143""
","
","
","""event"",""trial"",""time""
""fullscreenenter"",""0"",""2143""
","
","null","<div class='center'><p><img src='run_exp/static/images/tutorial/blue_win.png' height='500'></p></div>","null","","","","","","","","","","","","","","","","","","","","","","",""
"","html-keyboard-response","12","112522","0.0-12.0","""event"",""trial"",""time""
""fullscreenenter"",""0"",""2143""
","
","
","""event"",""trial"",""time""
""fullscreenenter"",""0"",""2143""
","
","694.0999999642372","<div class='center'><img src='run_exp/static/images/tutorial/blue.png' height='500'></p></div>","49","","","","","","","","","","","","","","","","","","","","","","",""
"","html-keyboard-response","13","114024","0.0-13.0","""event"",""trial"",""time""
""fullscreenenter"",""0"",""2143""
","
","
","""event"",""trial"",""time""
""fullscreenenter"",""0"",""2143""
","
","null","<div class='center'><p><img src='run_exp/static/images/tutorial/blue_win.png' height='500'></p></div>","null","","","","","","","","","","","","","","","","","","","","","","",""
"","html-keyboard-response","14","114235","0.0-14.0","""event"",""trial"",""time""
""fullscreenenter"",""0"",""2143""
","
","
","""event"",""trial"",""time""
""fullscreenenter"",""0"",""2143""
","
","210.60000002384186","<div class='center'><img src='run_exp/static/images/tutorial/blue.png' height='500'></p></div>","49","","","","","","","","","","","","","","","","","","","","","","",""
"","html-keyboard-response","15","115737","0.0-15.0","""event"",""trial"",""time""
""fullscreenenter"",""0"",""2143""
","
","
","""event"",""trial"",""time""
""fullscreenenter"",""0"",""2143""
","
","null","<div class='center'><p><img src='run_exp/static/images/tutorial/blue_win.png' height='500'></p></div>","null","","","","","","","","","","","","","","","","","","","","","","",""
"","html-keyboard-response","16","115943","0.0-16.0","""event"",""trial"",""time""
""fullscreenenter"",""0"",""2143""
","
","
","""event"",""trial"",""time""
""fullscreenenter"",""0"",""2143""
","
","205.10000002384186","<div class='center'><img src='run_exp/static/images/tutorial/blue.png' height='500'></p></div>","49","","","","","","","","","","","","","","","","","","","","","","",""
"","html-keyboard-response","17","117444","0.0-17.0","""event"",""trial"",""time""
""fullscreenenter"",""0"",""2143""
","
","
","""event"",""trial"",""time""
""fullscreenenter"",""0"",""2143""
","
","null","<div class='center'><p><img src='run_exp/static/images/tutorial/blue_no_win.png' height='500'></p></div>","null","","","","","","","","","","","","","","","","","","","","","","",""
"","html-keyboard-response","18","117633","0.0-18.0","""event"",""trial"",""time""
""fullscreenenter"",""0"",""2143""
","
","
","""event"",""trial"",""time""
""fullscreenenter"",""0"",""2143""
","
","189.0999999642372","<div class='center'><img src='run_exp/static/images/tutorial/blue.png' height='500'></p></div>","49","","","","","","","","","","","","","","","","","","","","","","",""
"","html-keyboard-response","19","119160","0.0-19.0","""event"",""trial"",""time""
""fullscreenenter"",""0"",""2143""
","
","
","""event"",""trial"",""time""
""fullscreenenter"",""0"",""2143""
","
","null","<div class='center'><p><img src='run_exp/static/images/tutorial/blue_win.png' height='500'></p></div>","null","","","","","","","","","","","","","","","","","","","","","","",""
"","html-keyboard-response","20","119361","0.0-20.0","""event"",""trial"",""time""
""fullscreenenter"",""0"",""2143""
","
","
","""event"",""trial"",""time""
""fullscreenenter"",""0"",""2143""
","
","200","<div class='center'><img src='run_exp/static/images/tutorial/blue.png' height='500'></p></div>","49","","","","","","","","","","","","","","","","","","","","","","",""
"","html-keyboard-response","21","120862","0.0-21.0","""event"",""trial"",""time""
""fullscreenenter"",""0"",""2143""
","
","
","""event"",""trial"",""time""
""fullscreenenter"",""0"",""2143""
","
","null","<div class='center'><p><img src='run_exp/static/images/tutorial/blue_win.png' height='500'></p></div>","null","","","","","","","","","","","","","","","","","","","","","","",""
"","html-keyboard-response","22","121054","0.0-22.0","""event"",""trial"",""time""
""fullscreenenter"",""0"",""2143""
","
","
","""event"",""trial"",""time""
""fullscreenenter"",""0"",""2143""
","
","191.69999998807907","<div class='center'><img src='run_exp/static/images/tutorial/blue.png' height='500'></p></div>","49","","","","","","","","","","","","","","","","","","","","","","",""
"","html-keyboard-response","23","122556","0.0-23.0","""event"",""trial"",""time""
""fullscreenenter"",""0"",""2143""
","
","
","""event"",""trial"",""time""
""fullscreenenter"",""0"",""2143""
","
","null","<div class='center'><p><img src='run_exp/static/images/tutorial/blue_win.png' height='500'></p></div>","null","","","","","","","","","","","","","","","","","","","","","","",""
"","html-keyboard-response","24","122753","0.0-24.0","""event"",""trial"",""time""
""fullscreenenter"",""0"",""2143""
","
","
","""event"",""trial"",""time""
""fullscreenenter"",""0"",""2143""
","
","197.4000000357628","<div class='center'><img src='run_exp/static/images/tutorial/blue.png' height='500'></p></div>","49","","","","","","","","","","","","","","","","","","","","","","",""
"","html-keyboard-response","25","124255","0.0-25.0","""event"",""trial"",""time""
""fullscreenenter"",""0"",""2143""
","
","
","""event"",""trial"",""time""
""fullscreenenter"",""0"",""2143""
","
","null","<div class='center'><p><img src='run_exp/static/images/tutorial/blue_no_win.png' height='500'></p></div>","null","","","","","","","","","","","","","","","","","","","","","","",""
"","html-keyboard-response","26","124459","0.0-26.0","""event"",""trial"",""time""
""fullscreenenter"",""0"",""2143""
","
","
","""event"",""trial"",""time""
""fullscreenenter"",""0"",""2143""
","
","203.60000002384186","<div class='center'><img src='run_exp/static/images/tutorial/blue.png' height='500'></p></div>","49","","","","","","","","","","","","","","","","","","","","","","",""
"","html-keyboard-response","27","125960","0.0-27.0","""event"",""trial"",""time""
""fullscreenenter"",""0"",""2143""
","
","
","""event"",""trial"",""time""
""fullscreenenter"",""0"",""2143""
","
","null","<div class='center'><p><img src='run_exp/static/images/tutorial/blue_win.png' height='500'></p></div>","null","","","","","","","","","","","","","","","","","","","","","","",""
"","html-keyboard-response","28","126166","0.0-28.0","""event"",""trial"",""time""
""fullscreenenter"",""0"",""2143""
","
","
","""event"",""trial"",""time""
""fullscreenenter"",""0"",""2143""
","
","205.0999999642372","<div class='center'><img src='run_exp/static/images/tutorial/blue.png' height='500'></p></div>","49","","","","","","","","","","","","","","","","","","","","","","",""
"","html-keyboard-response","29","127667","0.0-29.0","""event"",""trial"",""time""
""fullscreenenter"",""0"",""2143""
","
","
","""event"",""trial"",""time""
""fullscreenenter"",""0"",""2143""
","
","null","<div class='center'><p><img src='run_exp/static/images/tutorial/blue_win.png' height='500'></p></div>","null","","","","","","","","","","","","","","","","","","","","","","",""
"","instruc6","30","133044","0.0-30.0","""event"",""trial"",""time""
""fullscreenenter"",""0"",""2143""
","
","
","""event"",""trial"",""time""
""fullscreenenter"",""0"",""2143""
","
","null","run_exp/static/audio/clip_6_blue_beard_outcome.m4a","null","","","","","<div class='center'><p> See, he succeeded in robbing the ships most of the time but not every time. </p></div>","","","","","","","","","","","","","","","","","",""
"","html-keyboard-response","31","133700","0.0-31.0","""event"",""trial"",""time""
""fullscreenenter"",""0"",""2143""
","
","
","""event"",""trial"",""time""
""fullscreenenter"",""0"",""2143""
","
","655","<div class='center'><p> See, he succeeded in robbing the ships most of the time but not every time. </p><p><b>[Press the space bar to continue]</b></p></div>","32","","","","","","","","","","","","","","","","","","","","","","",""
"","audio-keyboard-response","32","142861","0.0-32.0","""event"",""trial"",""time""
""fullscreenenter"",""0"",""2143""
","
","
","""event"",""trial"",""time""
""fullscreenenter"",""0"",""2143""
","
","9161","run_exp/static/audio/clip_7_pick_pirate.m4a","49","","","","","","","","","","","","","","","","","","","","","","",""
"","audio-keyboard-response","33","147241","0.0-33.0-0.0","""event"",""trial"",""time""
""fullscreenenter"",""0"",""2143""
","
","
","""event"",""trial"",""time""
""fullscreenenter"",""0"",""2143""
","
","4378.599999964237","run_exp/static/audio/clip_8_chosen_pirate_win.m4a","32","","","","","","","","","","","","","","","","","","","","","","",""
"","audio-keyboard-response","34","149509","0.0-33.0-1.0","""event"",""trial"",""time""
""fullscreenenter"",""0"",""2143""
","
","
","""event"",""trial"",""time""
""fullscreenenter"",""0"",""2143""
","
","2266.800000011921","run_exp/static/audio/clip_9_pick_a_pirate_again.m4a","51","","","","","","","","","","","","","","","","","","","","","","",""
"","audio-keyboard-response","35","153891","0.0-34.0-0.0","""event"",""trial"",""time""
""fullscreenenter"",""0"",""2143""
","
","
","""event"",""trial"",""time""
""fullscreenenter"",""0"",""2143""
","
","4381.300000011921","run_exp/static/audio/clip_10_chosen_pirate_loss.m4a","32","","","","","","","","","","","","","","","","","","","","","","",""
"","instruc9","36","159384","0.0-35.0-0.0","""event"",""trial"",""time""
""fullscreenenter"",""0"",""2143""
","
","
","""event"",""trial"",""time""
""fullscreenenter"",""0"",""2143""
","
","null","run_exp/static/audio/clip_11_time_out.m4a","null","","","","","<div class='center'><p>If you don’t make your choice fast enough, you’ll have to wait a few seconds before you can make another one. </p><p><img src='run_exp/static/images/miscellaneous/hurry_up.png' height='500'></p></div>","","","","","","","","","","","","","","","","","",""
"","html-keyboard-response","37","160847","0.0-35.0-1.0","""event"",""trial"",""time""
""fullscreenenter"",""0"",""2143""
","
","
","""event"",""trial"",""time""
""fullscreenenter"",""0"",""2143""
","
","1461.9000000357628","<div class='center'><p>If you don’t make your choice fast enough, you’ll have to wait a few seconds before you can make another one. </p><p><img src='run_exp/static/images/miscellaneous/hurry_up.png' height='500'></p><p><b>[Press the space bar to continue]</b></p></div>","32","","","","","","","","","","","","","","","","","","","","","","",""
"","instruc10","38","199924","0.0-35.0-2.0","""event"",""trial"",""time""
""fullscreenenter"",""0"",""2143""
","
","
","""event"",""trial"",""time""
""fullscreenenter"",""0"",""2143""
","
","null","run_exp/static/audio/clip_12_probe.m4a","null","","","","","<div class='center'><p>Once you've chosen a pirate, you’ll be shown the ship they are robbing. You will never rob the same ship twice. Ships can be told apart from one another by the image on them. These are the goods that they sell. See, this ship has a travel mug on it. </p><p> You’ll have to remember which island you saw each ship on. You will win more gold coins and hence more bonus money if you remember correctly! To help you remember, you can imagine a story. For example, here, you could imagine a mug full of water in the desert. Or, as another example, if on the forest island, your pirate robbed a ship with an apple on it, you could imagine an apple falling from a tree in the forest. </p><p><img src='run_exp/static/images/tutorial/example_probe.png' height='500'></p></div>","","","","","","","","","","","","","","","","","",""
"","html-keyboard-response","39","200691","0.0-35.0-3.0","""event"",""trial"",""time""
""fullscreenenter"",""0"",""2143""
","
","
","""event"",""trial"",""time""
""fullscreenenter"",""0"",""2143""
","
","766.5","<div class='center'><p>Once you've chosen a pirate, you’ll be shown the ship they are robbing. You will never rob the same ship twice. Ships can be told apart from one another by the image on them. These are the goods that they sell. See, this ship has a travel mug on it. </p><p> You’ll have to remember which island you saw each ship on. You will win more gold coins and hence more bonus money if you remember correctly! To help you remember, you can imagine a story. For example, here, you could imagine a mug full of water in the desert. Or, as another example, if on the forest island, your pirate robbed a ship with an apple on it, you could imagine an apple falling from a tree in the forest. </p><p><img src='run_exp/static/images/tutorial/example_probe.png' height='500'></p><p><b>[Press the space bar to continue]</b></p></div>","32","","","","","","","","","","","","","","","","","","","","","","",""
"","instruc11","40","217124","0.0-35.0-4.0","""event"",""trial"",""time""
""fullscreenenter"",""0"",""2143""
","
","
","""event"",""trial"",""time""
""fullscreenenter"",""0"",""2143""
","
","null","run_exp/static/audio/clip_13_changepoint.m4a","null","","","","","<div class='center'><p>How successful a pirate is at robbing ships will depend on the island you’re on.</p><p> A pirate may have visited this island many times before and gained a lot of practice robbing ships there.</p><p>So, they’re more likely to be successful than a pirate who has never visited the island before.</p></div>","","","","","","","","","","","","","","","","","",""
"","html-keyboard-response","41","217974","0.0-35.0-5.0","""event"",""trial"",""time""
""fullscreenenter"",""0"",""2143""
","
","
","""event"",""trial"",""time""
""fullscreenenter"",""0"",""2143""
","
","849.8000000119209","<div class='center'><p>How successful a pirate is at robbing ships will depend on the island you’re on.</p><p> A pirate may have visited this island many times before and gained a lot of practice robbing ships there.</p><p>So, they’re more likely to be successful than a pirate who has never visited the island before.</p><p><b>[Press the space bar to continue]</b></p></div>","32","","","","","","","","","","","","","","","","","","","","","","",""
"","instruc12","42","259064","0.0-35.0-6.0","""event"",""trial"",""time""
""fullscreenenter"",""0"",""2143""
","
","
","""event"",""trial"",""time""
""fullscreenenter"",""0"",""2143""
","
","null","run_exp/static/audio/clip_14_drift.m4a","null","","","","","<div class='center'><p>How successful a pirate is at robbing ships can also change over the time spent on the island. </p><p> Ships may hear from islanders about the pirates coming and will improve their protections against the attack. This may make it harder to rob them.</p><p> Ships may also become lazy and weaken the strength of their protections. This may make it easier to rob them.</p><br><p>Things are always changing on the high seas! So, try your best to pay attention!</p><p><img src='run_exp/static/images/tutorial/contingency.png' height='500'></p></div>","","","","","","","","","","","","","","","","","",""
"","html-keyboard-response","43","260376","0.0-35.0-7.0","""event"",""trial"",""time""
""fullscreenenter"",""0"",""2143""
","
","
","""event"",""trial"",""time""
""fullscreenenter"",""0"",""2143""
","
","1311.5999999642372","<div class='center'><p>How successful a pirate is at robbing ships can also change over the time spent on the island. </p><p> Ships may hear from islanders about the pirates coming and will improve their protections against the attack. This may make it harder to rob them.</p><p> Ships may also become lazy and weaken the strength of their protections. This may make it easier to rob them.</p><br><p>Things are always changing on the high seas! So, try your best to pay attention!</p><p><img src='run_exp/static/images/tutorial/contingency.png' height='500'></p><p><b>[Press the space bar to continue]</b></p></div>","32","","","","","","","","","","","","","","","","","","","","","","",""
"","instruc13","44","295563","0.0-35.0-8.0","""event"",""trial"",""time""
""fullscreenenter"",""0"",""2143""
","
","
","""event"",""trial"",""time""
""fullscreenenter"",""0"",""2143""
","
","null","run_exp/static/audio/clip_15_summary.m4a","null","","","","","<div class='center'><p>Let's go over the instructions quickly again. You have two important things to do: </p><b><p> 1. Pick the pirate who is the best at robbing ships on the current island. </p></b><b><p> 2. Remember on which island a ship was robbed.</p> </b><p>The amount of bonus money you can win depends on both.</p><p><br><p>Let’s try a practice game. The game will start by showing you the pirates. First, pick a pirate using the <b> 1, 2, 3 </b> keys on your keyboard. When you are shown a ship, try to remember which island you’re on by making up a story.</p><p>This is just a practice game, so you’re not playing for money. </p><p> Good luck! This game will be very difficult but try your best!</p></div>","","","","","","","","","","","","","","","","","",""
"","html-keyboard-response","45","296189","0.0-35.0-9.0","""event"",""trial"",""time""
""fullscreenenter"",""0"",""2143""
","
","
","""event"",""trial"",""time""
""fullscreenenter"",""0"",""2143""
","
","624.8000000119209","<div class='center'><p>Let's go over the instructions quickly again. You have two important things to do: </p><b><p> 1. Pick the pirate who is the best at robbing ships on the current island. </p></b><b><p> 2. Remember on which island a ship was robbed.</p> </b><p>The amount of bonus money you can win depends on both.</p><p><br><p>Let’s try a practice game. The game will start by showing you the pirates. First, pick a pirate using the <b> 1, 2, 3 </b> keys on your keyboard. When you are shown a ship, try to remember which island you’re on by making up a story.</p><p>This is just a practice game, so you’re not playing for money. </p><p> Good luck! This game will be very difficult but try your best!</p><p><b>[Press the space bar to continue]</b></p></div>","32","","","","","","","","","","","","","","","","","","","","","","",""
"","do_welcome","46","300193","0.0-35.0-10.0","""event"",""trial"",""time""
""fullscreenenter"",""0"",""2143""
","
","
","""event"",""trial"",""time""
""fullscreenenter"",""0"",""2143""
","
","null","","","","","","","","null","","","","","","","","","","","","","","","","",""
"","do_trial","47","305461","0.0-35.0-11.0","""event"",""trial"",""time""
""fullscreenenter"",""0"",""2143""
","
","
","""event"",""trial"",""time""
""fullscreenenter"",""0"",""2143""
","
","764.1000000238419","","","","","","","","49","1,0,0","","","","","","","","","","","","","","","",""
"","html-keyboard-response","48","306462","0.0-36.0-0.0","""event"",""trial"",""time""
""fullscreenenter"",""0"",""2143""
","
","
","""event"",""trial"",""time""
""fullscreenenter"",""0"",""2143""
","
","null","<p></p>","null","","","","","","","","","","","","","","","","","","","","","","",""
"","do_trial","49","311541","0.0-36.0-1.0","""event"",""trial"",""time""
""fullscreenenter"",""0"",""2143""
","
","
","""event"",""trial"",""time""
""fullscreenenter"",""0"",""2143""
","
","575.5","","","","","","","","50","1,1,0","","","","","","","","","","","","","","","",""
"","html-keyboard-response","50","312542","0.0-37.0-0.0","""event"",""trial"",""time""
""fullscreenenter"",""0"",""2143""
","
","
","""event"",""trial"",""time""
""fullscreenenter"",""0"",""2143""
","
","null","<p></p>","null","","","","","","","","","","","","","","","","","","","","","","",""
"","do_trial","51","317406","0.0-37.0-1.0","""event"",""trial"",""time""
""fullscreenenter"",""0"",""2143""
","
","
","""event"",""trial"",""time""
""fullscreenenter"",""0"",""2143""
","
","360","","","","","","","","50","1,0,1","","","","","","","","","","","","","","","",""
"","html-keyboard-response","52","318408","0.0-38.0-0.0","""event"",""trial"",""time""
""fullscreenenter"",""0"",""2143""
","
","
","""event"",""trial"",""time""
""fullscreenenter"",""0"",""2143""
","
","null","<p></p>","null","","","","","","","","","","","","","","","","","","","","","","",""
"","do_trial","53","323124","0.0-38.0-1.0","""event"",""trial"",""time""
""fullscreenenter"",""0"",""2143""
","
","
","""event"",""trial"",""time""
""fullscreenenter"",""0"",""2143""
","
","213.4000000357628","","","","","","","","51","0,1,0","","","","","","","","","","","","","","","",""
"","html-keyboard-response","54","324126","0.0-39.0-0.0","""event"",""trial"",""time""
""fullscreenenter"",""0"",""2143""
","
","
","""event"",""trial"",""time""
""fullscreenenter"",""0"",""2143""
","
","null","<p></p>","null","","","","","","","","","","","","","","","","","","","","","","",""
"","do_trial","55","329506","0.0-39.0-1.0","""event"",""trial"",""time""
""fullscreenenter"",""0"",""2143""
","
","
","""event"",""trial"",""time""
""fullscreenenter"",""0"",""2143""
","
","875.8000000119209","","","","","","","","49","1,0,0","","","","","","","","","","","","","","","",""
"","do_bye","56","331008","0.0-40.0-0.0","""event"",""trial"",""time""
""fullscreenenter"",""0"",""2143""
","
","
","""event"",""trial"",""time""
""fullscreenenter"",""0"",""2143""
","
","null","","","","","","","","null","","","","","","","","","","","","","","","","",""
"","do_travel","57","340011","0.0-40.0-1.0","""event"",""trial"",""time""
""fullscreenenter"",""0"",""2143""
","
","
","""event"",""trial"",""time""
""fullscreenenter"",""0"",""2143""
","
","null","","","","","","","","null","","","","","","","","","","","","","","","","",""
"","do_welcome","58","344013","0.0-40.0-2.0","""event"",""trial"",""time""
""fullscreenenter"",""0"",""2143""
","
","
","""event"",""trial"",""time""
""fullscreenenter"",""0"",""2143""
","
","null","","","","","","","","null","","","","","","","","","","","","","","","","",""
"","do_trial","59","349125","0.0-40.0-3.0","""event"",""trial"",""time""
""fullscreenenter"",""0"",""2143""
","
","
","""event"",""trial"",""time""
""fullscreenenter"",""0"",""2143""
","
","608.6999999880791","","","","","","","","49","1,0,0","","","","","","","","","","","","","","","",""
"","html-keyboard-response","60","350127","0.0-41.0-0.0","""event"",""trial"",""time""
""fullscreenenter"",""0"",""2143""
","
","
","""event"",""trial"",""time""
""fullscreenenter"",""0"",""2143""
","
","null","<p></p>","null","","","","","","","","","","","","","","","","","","","","","","",""
"","do_trial","61","354830","0.0-41.0-1.0","""event"",""trial"",""time""
""fullscreenenter"",""0"",""2143""
","
","
","""event"",""trial"",""time""
""fullscreenenter"",""0"",""2143""
","
","198.69999998807907","","","","","","","","50","1,0,1","","","","","","","","","","","","","","","",""
"","html-keyboard-response","62","355831","0.0-42.0-0.0","""event"",""trial"",""time""
""fullscreenenter"",""0"",""2143""
","
","
","""event"",""trial"",""time""
""fullscreenenter"",""0"",""2143""
","
","null","<p></p>","null","","","","","","","","","","","","","","","","","","","","","","",""
"","do_trial","63","360360","0.0-42.0-1.0","""event"",""trial"",""time""
""fullscreenenter"",""0"",""2143""
","
","
","""event"",""trial"",""time""
""fullscreenenter"",""0"",""2143""
","
","25.399999976158142","","","","","","","","50","1,1,0","","","","","","","","","","","","","","","",""
"","html-keyboard-response","64","361362","0.0-43.0-0.0","""event"",""trial"",""time""
""fullscreenenter"",""0"",""2143""
","
","
","""event"",""trial"",""time""
""fullscreenenter"",""0"",""2143""
","
","null","<p></p>","null","","","","","","","","","","","","","","","","","","","","","","",""
"","do_trial","65","366095","0.0-43.0-1.0","""event"",""trial"",""time""
""fullscreenenter"",""0"",""2143""
","
","
","""event"",""trial"",""time""
""fullscreenenter"",""0"",""2143""
","
","228.5","","","","","","","","51","0,0,1","","","","","","","","","","","","","","","",""
"","html-keyboard-response","66","367096","0.0-44.0-0.0","""event"",""trial"",""time""
""fullscreenenter"",""0"",""2143""
","
","
","""event"",""trial"",""time""
""fullscreenenter"",""0"",""2143""
","
","null","<p></p>","null","","","","","","","","","","","","","","","","","","","","","","",""
"","do_trial","67","372080","0.0-44.0-1.0","""event"",""trial"",""time""
""fullscreenenter"",""0"",""2143""
","
","
","""event"",""trial"",""time""
""fullscreenenter"",""0"",""2143""
","
","480.5","","","","","","","","50","1,0,1","","","","","","","","","","","","","","","",""
"","html-keyboard-response","68","376610","0.0-45.0-0.0","""event"",""trial"",""time""
""fullscreenenter"",""0"",""2143""
","
","
","""event"",""trial"",""time""
""fullscreenenter"",""0"",""2143""
","
","4529.599999964237","<div class='center'><p><img src='run_exp/static/images/tutorial/prac_best_pirate.png'  height='500'></p></div>","49","","","","","","","","","","","","","","","","","","","","","","",""
"","html-keyboard-response","69","378604","0.0-46.0-0.0","""event"",""trial"",""time""
""fullscreenenter"",""0"",""2143""
","
","
","""event"",""trial"",""time""
""fullscreenenter"",""0"",""2143""
","
","1992.7000000476837","<div class='center'><p>That's correct! Red beard was the best.</p><p><b>[Press the space bar to continue]</b></p></div>","32","","","","","","","","","","","","","","","","","","","","","","",""
"","html-keyboard-response","70","386925","0.0-46.0-1.0","""event"",""trial"",""time""
""fullscreenenter"",""0"",""2143""
","
","
","""event"",""trial"",""time""
""fullscreenenter"",""0"",""2143""
","
","8321.300000011921","<div class='center'><p><img src='run_exp/static/images/tutorial/prac_source.png'  height='500'></p></div>","50","","","","","","","","","","","","","","","","","","","","","","",""
"","html-keyboard-response","71","388574","0.0-47.0-0.0","""event"",""trial"",""time""
""fullscreenenter"",""0"",""2143""
","
","
","""event"",""trial"",""time""
""fullscreenenter"",""0"",""2143""
","
","1648.5","<div class='center'><p>That's correct! You saw this ship on the cavern island.</p><p><b>[Press the space bar to continue]</b></p></div>","32","","","","","","","","","","","","","","","","","","","","","","",""
"","quiz_beginning","72","399817","0.0-47.0-1.0","""event"",""trial"",""time""
""fullscreenenter"",""0"",""2143""
","
","
","""event"",""trial"",""time""
""fullscreenenter"",""0"",""2143""
","
","null","run_exp/static/audio/clip_16_quiz_intro.m4a","null","","","","","<div class='center'><p>Good job on the practice game! Now, you will be asked some true or false questions to make sure you really understand the rules of the game.</p><p> Press <b>'1'</b> on the keyboard for true and press <b>'2'</b> for false.</p></div>","","","","","","","","","","","","","","","","","",""
"","audio-keyboard-response","73","402798","0.0-47.0-2.0","""event"",""trial"",""time""
""fullscreenenter"",""0"",""2143""
","
","
","""event"",""trial"",""time""
""fullscreenenter"",""0"",""2143""
","
","2979.599999964237","run_exp/static/audio/clip_17_q1.m4a","49","","","","","","","","","","","","","","","","","","","","","","",""
"","correct","74","405197","0.0-48.0-0.0","""event"",""trial"",""time""
""fullscreenenter"",""0"",""2143""
","
","
","""event"",""trial"",""time""
""fullscreenenter"",""0"",""2143""
","
","null","run_exp/static/audio/clip_18_correct.m4a","null","","","","","<div class='center'><p>That's correct!</p></div>","","","","","","","","","","","","","","","","","",""
"","html-keyboard-response","75","405945","0.0-48.0-1.0","""event"",""trial"",""time""
""fullscreenenter"",""0"",""2143""
","
","
","""event"",""trial"",""time""
""fullscreenenter"",""0"",""2143""
","
","748","<div class='center'><p>That's correct!</p><p><b>[Press the space bar to continue]</b></p></div>","32","","","","","","","","","","","","","","","","","","","","","","",""
"","audio-keyboard-response","76","413088","0.0-48.0-2.0","""event"",""trial"",""time""
""fullscreenenter"",""0"",""2143""
","
","
","""event"",""trial"",""time""
""fullscreenenter"",""0"",""2143""
","
","7141.699999988079","run_exp/static/audio/clip_20_q2.m4a","50","","","","","","","","","","","","","","","","","","","","","","",""
"","correct","77","415477","0.0-49.0-0.0","""event"",""trial"",""time""
""fullscreenenter"",""0"",""2143""
","
","
","""event"",""trial"",""time""
""fullscreenenter"",""0"",""2143""
","
","null","run_exp/static/audio/clip_18_correct.m4a","null","","","","","<div class='center'><p>That's correct!</p></div>","","","","","","","","","","","","","","","","","",""
"","html-keyboard-response","78","415664","0.0-49.0-1.0","""event"",""trial"",""time""
""fullscreenenter"",""0"",""2143""
","
","
","""event"",""trial"",""time""
""fullscreenenter"",""0"",""2143""
","
","186.89999997615814","<div class='center'><p>That's correct!</p><p><b>[Press the space bar to continue]</b></p></div>","32","","","","","","","","","","","","","","","","","","","","","","",""
"","audio-keyboard-response","79","421099","0.0-49.0-2.0","""event"",""trial"",""time""
""fullscreenenter"",""0"",""2143""
","
","
","""event"",""trial"",""time""
""fullscreenenter"",""0"",""2143""
","
","5434.5","run_exp/static/audio/clip_22_q3.m4a","50","","","","","","","","","","","","","","","","","","","","","","",""
"","correct","80","423497","0.0-50.0-0.0","""event"",""trial"",""time""
""fullscreenenter"",""0"",""2143""
","
","
","""event"",""trial"",""time""
""fullscreenenter"",""0"",""2143""
","
","null","run_exp/static/audio/clip_18_correct.m4a","null","","","","","<div class='center'><p>That's correct!</p></div>","","","","","","","","","","","","","","","","","",""
"","html-keyboard-response","81","424037","0.0-50.0-1.0","""event"",""trial"",""time""
""fullscreenenter"",""0"",""2143""
","
","
","""event"",""trial"",""time""
""fullscreenenter"",""0"",""2143""
","
","540.1000000238419","<div class='center'><p>That's correct!</p><p><b>[Press the space bar to continue]</b></p></div>","32","","","","","","","","","","","","","","","","","","","","","","",""
"","audio-keyboard-response","82","430748","0.0-50.0-2.0","""event"",""trial"",""time""
""fullscreenenter"",""0"",""2143""
","
","
","""event"",""trial"",""time""
""fullscreenenter"",""0"",""2143""
","
","6710.300000011921","run_exp/static/audio/clip_24_q4.m4a","49","","","","","","","","","","","","","","","","","","","","","","",""
"","correct","83","433157","0.0-51.0-0.0","""event"",""trial"",""time""
""fullscreenenter"",""0"",""2143""
","
","
","""event"",""trial"",""time""
""fullscreenenter"",""0"",""2143""
","
","null","run_exp/static/audio/clip_18_correct.m4a","null","","","","","<div class='center'><p>That's correct!</p></div>","","","","","","","","","","","","","","","","","",""
"","html-keyboard-response","84","433777","0.0-51.0-1.0","""event"",""trial"",""time""
""fullscreenenter"",""0"",""2143""
","
","
","""event"",""trial"",""time""
""fullscreenenter"",""0"",""2143""
","
","619.7000000476837","<div class='center'><p>That's correct!</p><p><b>[Press the space bar to continue]</b></p></div>","32","","","","","","","","","","","","","","","","","","","","","","",""
"","q_all_corr","85","442257","0.0-52.0-0.0","""event"",""trial"",""time""
""fullscreenenter"",""0"",""2143""
","
","
","""event"",""trial"",""time""
""fullscreenenter"",""0"",""2143""
","
","null","run_exp/static/audio/clip_27_quiz_all_correct.m4a","null","","","","","<div class='center'><p>Good job! You’re now ready to move on to the real game! Remember this game will be difficult but don't get discouraged and try your best!</p></div>","","","","","","","","","","","","","","","","","",""
"","html-keyboard-response","86","442915","0.0-52.0-1.0","""event"",""trial"",""time""
""fullscreenenter"",""0"",""2143""
","
","
","""event"",""trial"",""time""
""fullscreenenter"",""0"",""2143""
","
","657.5","<div class='center'><p>Good job! You’re now ready to move on to the real game! Remember this game will be difficult but don't get discouraged and try your best!</p><p><b>[Press the space bar to continue]</b></p></div>","32","","","","","","","","","","","","","","","","","","","","","","",""
"","do_welcome","87","446919","0.0-53.0-0.0","""event"",""trial"",""time""
""fullscreenenter"",""0"",""2143""
","
","
","""event"",""trial"",""time""
""fullscreenenter"",""0"",""2143""
","
","null","","","","","","","","null","","","","","","","","","","","","","","","","",""
"","do_trial","88","452210","0.0-54.0-0.0","""event"",""trial"",""time""
""fullscreenenter"",""0"",""2143""
","
","
","""event"",""trial"",""time""
""fullscreenenter"",""0"",""2143""
","
","758.8999999761581","","","","","","","","49","0,0,0","0","mountain","0","probe-45","0.6","0.3","0.1","0","","","","","","","",""
"","html-keyboard-response","89","453212","0.0-54.0-1.0","""event"",""trial"",""time""
""fullscreenenter"",""0"",""2143""
","
","
","""event"",""trial"",""time""
""fullscreenenter"",""0"",""2143""
","
","null","<p></p>","null","","","","","","","","","","","","","","","","","","","","","","",""
"","do_trial","90","457939","0.0-55.0-0.0","""event"",""trial"",""time""
""fullscreenenter"",""0"",""2143""
","
","
","""event"",""trial"",""time""
""fullscreenenter"",""0"",""2143""
","
","198.89999997615814","","","","","","","","50","1,1,0","0","mountain","1","probe-65","0.5830094046799394","0.38870636825788824","0.10809443292345025","1","","","","","","","",""
"","html-keyboard-response","91","458940","0.0-55.0-1.0","""event"",""trial"",""time""
""fullscreenenter"",""0"",""2143""
","
","
","""event"",""trial"",""time""
""fullscreenenter"",""0"",""2143""
","
","null","<p></p>","null","","","","","","","","","","","","","","","","","","","","","","",""
"","do_trial","92","463785","0.0-56.0-0.0","""event"",""trial"",""time""
""fullscreenenter"",""0"",""2143""
","
","
","""event"",""trial"",""time""
""fullscreenenter"",""0"",""2143""
","
","313.5","","","","","","","","50","1,0,0","0","mountain","2","probe-168","0.5926027201981429","0.3150802022817079","0.1485435540811472","0","","","","","","","",""
"","html-keyboard-response","93","464786","0.0-56.0-1.0","""event"",""trial"",""time""
""fullscreenenter"",""0"",""2143""
","
","
","""event"",""trial"",""time""
""fullscreenenter"",""0"",""2143""
","
","null","<p></p>","null","","","","","","","","","","","","","","","","","","","","","","",""
"","do_trial","94","469490","0.0-57.0-0.0","""event"",""trial"",""time""
""fullscreenenter"",""0"",""2143""
","
","
","""event"",""trial"",""time""
""fullscreenenter"",""0"",""2143""
","
","176.80000001192093","","","","","","","","50","0,0,0","0","mountain","3","probe-29","0.5852149942060129","0.260678789499736","0.17295098182207966","0","","","","","","","",""
"","html-keyboard-response","95","470491","0.0-57.0-1.0","""event"",""trial"",""time""
""fullscreenenter"",""0"",""2143""
","
","
","""event"",""trial"",""time""
""fullscreenenter"",""0"",""2143""
","
","null","<p></p>","null","","","","","","","","","","","","","","","","","","","","","","",""
"","do_trial","96","475191","0.0-58.0-0.0","""event"",""trial"",""time""
""fullscreenenter"",""0"",""2143""
","
","
","""event"",""trial"",""time""
""fullscreenenter"",""0"",""2143""
","
","171.70000004768372","","","","","","","","51","1,0,1","0","mountain","4","probe-01","0.6831952979109077","0.4392856402539791","0.17341773928753526","1","","","","","","","",""
"","html-keyboard-response","97","476193","0.0-58.0-1.0","""event"",""trial"",""time""
""fullscreenenter"",""0"",""2143""
","
","
","""event"",""trial"",""time""
""fullscreenenter"",""0"",""2143""
","
","null","<p></p>","null","","","","","","","","","","","","","","","","","","","","","","",""
"","do_trial","98","480893","0.0-59.0-0.0","""event"",""trial"",""time""
""fullscreenenter"",""0"",""2143""
","
","
","""event"",""trial"",""time""
""fullscreenenter"",""0"",""2143""
","
","173","","","","","","","","51","1,1,0","0","mountain","5","probe-16","0.6399138082735268","0.3645190546498152","0.05837664492043116","0","","","","","","","",""
"","html-keyboard-response","99","481894","0.0-59.0-1.0","""event"",""trial"",""time""
""fullscreenenter"",""0"",""2143""
","
","
","""event"",""trial"",""time""
""fullscreenenter"",""0"",""2143""
","
","null","<p></p>","null","","","","","","","","","","","","","","","","","","","","","","",""
"","do_trial","100","486545","0.0-60.0-0.0","""event"",""trial"",""time""
""fullscreenenter"",""0"",""2143""
","
","
","""event"",""trial"",""time""
""fullscreenenter"",""0"",""2143""
","
","123.5","","","","","","","","51","0,0,0","0","mountain","6","probe-166","0.6403493585363264","0.13218860912896482","0.13003917902231968","0","","","","","","","",""
"","html-keyboard-response","101","487546","0.0-60.0-1.0","""event"",""trial"",""time""
""fullscreenenter"",""0"",""2143""
","
","
","""event"",""trial"",""time""
""fullscreenenter"",""0"",""2143""
","
","null","<p></p>","null","","","","","","","","","","","","","","","","","","","","","","",""
"","do_trial","102","492206","0.0-61.0-0.0","""event"",""trial"",""time""
""fullscreenenter"",""0"",""2143""
","
","
","""event"",""trial"",""time""
""fullscreenenter"",""0"",""2143""
","
","133.39999997615814","","","","","","","","49","0,0,0","0","mountain","7","probe-114","0.5761790670901514","0.14493937236661292","0.1438002345082335","0","","","","","","","",""
"","html-keyboard-response","103","493210","0.0-61.0-1.0","""event"",""trial"",""time""
""fullscreenenter"",""0"",""2143""
","
","
","""event"",""trial"",""time""
""fullscreenenter"",""0"",""2143""
","
","null","<p></p>","null","","","","","","","","","","","","","","","","","","","","","","",""
"","do_trial","104","497949","0.0-62.0-0.0","""event"",""trial"",""time""
""fullscreenenter"",""0"",""2143""
","
","
","""event"",""trial"",""time""
""fullscreenenter"",""0"",""2143""
","
","207.9000000357628","","","","","","","","49","0,0,0","0","mountain","8","probe-42","0.5193582356297923","0.23634095401902552","0.24015974803539833","0","","","","","","","",""
"","html-keyboard-response","105","498951","0.0-62.0-1.0","""event"",""trial"",""time""
""fullscreenenter"",""0"",""2143""
","
","
","""event"",""trial"",""time""
""fullscreenenter"",""0"",""2143""
","
","null","<p></p>","null","","","","","","","","","","","","","","","","","","","","","","",""
"","do_trial","106","503720","0.0-63.0-0.0","""event"",""trial"",""time""
""fullscreenenter"",""0"",""2143""
","
","
","""event"",""trial"",""time""
""fullscreenenter"",""0"",""2143""
","
","241.29999995231628","","","","","","","","51","0,0,0","0","mountain","9","probe-63","0.5392738448869218","0.31699971280054606","0.11564171782932302","0","","","","","","","",""
"","html-keyboard-response","107","504722","0.0-63.0-1.0","""event"",""trial"",""time""
""fullscreenenter"",""0"",""2143""
","
","
","""event"",""trial"",""time""
""fullscreenenter"",""0"",""2143""
","
","null","<p></p>","null","","","","","","","","","","","","","","","","","","","","","","",""
"","do_trial","108","509414","0.0-64.0-0.0","""event"",""trial"",""time""
""fullscreenenter"",""0"",""2143""
","
","
","""event"",""trial"",""time""
""fullscreenenter"",""0"",""2143""
","
","164.30000001192093","","","","","","","","51","1,1,0","0","mountain","10","probe-116","0.6288239880511778","0.33609291781246065","0.10048324358553672","0","","","","","","","",""
"","html-keyboard-response","109","510415","0.0-64.0-1.0","""event"",""trial"",""time""
""fullscreenenter"",""0"",""2143""
","
","
","""event"",""trial"",""time""
""fullscreenenter"",""0"",""2143""
","
","null","<p></p>","null","","","","","","","","","","","","","","","","","","","","","","",""
"","do_trial","110","515038","0.0-65.0-0.0","""event"",""trial"",""time""
""fullscreenenter"",""0"",""2143""
","
","
","""event"",""trial"",""time""
""fullscreenenter"",""0"",""2143""
","
","95.30000001192093","","","","","","","","51","1,0,0","0","mountain","11","probe-86","0.63019613139391","0.3142414121231705","0.06258540852106435","0","","","","","","","",""
"","html-keyboard-response","111","516039","0.0-65.0-1.0","""event"",""trial"",""time""
""fullscreenenter"",""0"",""2143""
","
","
","""event"",""trial"",""time""
""fullscreenenter"",""0"",""2143""
","
","null","<p></p>","null","","","","","","","","","","","","","","","","","","","","","","",""
"","do_trial","112","520762","0.0-66.0-0.0","""event"",""trial"",""time""
""fullscreenenter"",""0"",""2143""
","
","
","""event"",""trial"",""time""
""fullscreenenter"",""0"",""2143""
","
","194.69999998807907","","","","","","","","50","0,0,0","0","mountain","12","probe-96","0.5422710520395081","0.35970430427077665","0.0957201860576201","0","","","","","","","",""
"","html-keyboard-response","113","521764","0.0-66.0-1.0","""event"",""trial"",""time""
""fullscreenenter"",""0"",""2143""
","
","
","""event"",""trial"",""time""
""fullscreenenter"",""0"",""2143""
","
","null","<p></p>","null","","","","","","","","","","","","","","","","","","","","","","",""
"","do_trial","114","526520","0.0-67.0-0.0","""event"",""trial"",""time""
""fullscreenenter"",""0"",""2143""
","
","
","""event"",""trial"",""time""
""fullscreenenter"",""0"",""2143""
","
","227.69999998807907","","","","","","","","50","1,0,0","0","mountain","13","probe-33","0.44964330434651595","0.40679540766799777","0.06512057021087451","0","","","","","","","",""
"","html-keyboard-response","115","527521","0.0-67.0-1.0","""event"",""trial"",""time""
""fullscreenenter"",""0"",""2143""
","
","
","""event"",""trial"",""time""
""fullscreenenter"",""0"",""2143""
","
","null","<p></p>","null","","","","","","","","","","","","","","","","","","","","","","",""
"","do_trial","116","532393","0.0-68.0-0.0","""event"",""trial"",""time""
""fullscreenenter"",""0"",""2143""
","
","
","""event"",""trial"",""time""
""fullscreenenter"",""0"",""2143""
","
","342.80000001192093","","","","","","","","50","1,0,0","0","mountain","14","probe-207","0.5826293885950308","0.318786803579518","0.07355099171969535","0","","","","","","","",""
"","html-keyboard-response","117","533394","0.0-68.0-1.0","""event"",""trial"",""time""
""fullscreenenter"",""0"",""2143""
","
","
","""event"",""trial"",""time""
""fullscreenenter"",""0"",""2143""
","
","null","<p></p>","null","","","","","","","","","","","","","","","","","","","","","","",""
"","do_trial","118","538245","0.0-69.0-0.0","""event"",""trial"",""time""
""fullscreenenter"",""0"",""2143""
","
","
","""event"",""trial"",""time""
""fullscreenenter"",""0"",""2143""
","
","322.69999998807907","","","","","","","","50","1,0,0","0","mountain","15","probe-146","0.45939522338001065","0.27604120318424896","0.10023104230677438","0","","","","","","","",""
"","html-keyboard-response","119","539246","0.0-69.0-1.0","""event"",""trial"",""time""
""fullscreenenter"",""0"",""2143""
","
","
","""event"",""trial"",""time""
""fullscreenenter"",""0"",""2143""
","
","null","<p></p>","null","","","","","","","","","","","","","","","","","","","","","","",""
"","do_trial","120","544005","0.0-70.0-0.0","""event"",""trial"",""time""
""fullscreenenter"",""0"",""2143""
","
","
","""event"",""trial"",""time""
""fullscreenenter"",""0"",""2143""
","
","231.30000001192093","","","","","","","","50","1,0,0","0","mountain","16","probe-179","0.5465104155795629","0.30117017873640567","0.20514427763400073","0","","","","","","","",""
"","html-keyboard-response","121","545007","0.0-70.0-1.0","""event"",""trial"",""time""
""fullscreenenter"",""0"",""2143""
","
","
","""event"",""trial"",""time""
""fullscreenenter"",""0"",""2143""
","
","null","<p></p>","null","","","","","","","","","","","","","","","","","","","","","","",""
"","do_trial","122","549673","0.0-71.0-0.0","""event"",""trial"",""time""
""fullscreenenter"",""0"",""2143""
","
","
","""event"",""trial"",""time""
""fullscreenenter"",""0"",""2143""
","
","138.69999998807907","","","","","","","","49","1,0,0","0","mountain","17","probe-225","0.6320094731381434","0.2937757479227192","0.2453410983402202","1","","","","","","","",""
"","html-keyboard-response","123","550674","0.0-71.0-1.0","""event"",""trial"",""time""
""fullscreenenter"",""0"",""2143""
","
","
","""event"",""trial"",""time""
""fullscreenenter"",""0"",""2143""
","
","null","<p></p>","null","","","","","","","","","","","","","","","","","","","","","","",""
"","do_trial","124","555202","0.0-72.0-0.0","""event"",""trial"",""time""
""fullscreenenter"",""0"",""2143""
","
","
","""event"",""trial"",""time""
""fullscreenenter"",""0"",""2143""
","
","0","","","","","","","","49","1,1,0","0","mountain","18","probe-124","0.6404748670977979","0.36203146851690354","0.3414036686417648","1","","","","","","","",""
"","html-keyboard-response","125","556204","0.0-72.0-1.0","""event"",""trial"",""time""
""fullscreenenter"",""0"",""2143""
","
","
","""event"",""trial"",""time""
""fullscreenenter"",""0"",""2143""
","
","null","<p></p>","null","","","","","","","","","","","","","","","","","","","","","","",""
"","do_trial","126","560735","0.0-73.0-0.0","""event"",""trial"",""time""
""fullscreenenter"",""0"",""2143""
","
","
","""event"",""trial"",""time""
""fullscreenenter"",""0"",""2143""
","
","3.699999988079071","","","","","","","","49","0,1,1","0","mountain","19","probe-05","0.6695781230646565","0.3494545981439168","0.24126133796632268","0","","","","","","","",""
"","html-keyboard-response","127","561736","0.0-73.0-1.0","""event"",""trial"",""time""
""fullscreenenter"",""0"",""2143""
","
","
","""event"",""trial"",""time""
""fullscreenenter"",""0"",""2143""
","
","null","<p></p>","null","","","","","","","","","","","","","","","","","","","","","","",""
"","do_trial","128","566512","0.0-74.0-0.0","""event"",""trial"",""time""
""fullscreenenter"",""0"",""2143""
","
","
","""event"",""trial"",""time""
""fullscreenenter"",""0"",""2143""
","
","248","","","","","","","","49","0,0,0","0","mountain","20","probe-150","0.5831688808685616","0.30677413985995794","0.14987517704015652","0","","","","","","","",""
"","html-keyboard-response","129","567513","0.0-74.0-1.0","""event"",""trial"",""time""
""fullscreenenter"",""0"",""2143""
","
","
","""event"",""trial"",""time""
""fullscreenenter"",""0"",""2143""
","
","null","<p></p>","null","","","","","","","","","","","","","","","","","","","","","","",""
"","do_trial","130","572279","0.0-75.0-0.0","""event"",""trial"",""time""
""fullscreenenter"",""0"",""2143""
","
","
","""event"",""trial"",""time""
""fullscreenenter"",""0"",""2143""
","
","238.5","","","","","","","","49","0,0,1","0","mountain","21","probe-36","0.4616289424016772","0.29425756581709833","0.08456510978452599","0","","","","","","","",""
"","html-keyboard-response","131","573280","0.0-75.0-1.0","""event"",""trial"",""time""
""fullscreenenter"",""0"",""2143""
","
","
","""event"",""trial"",""time""
""fullscreenenter"",""0"",""2143""
","
","null","<p></p>","null","","","","","","","","","","","","","","","","","","","","","","",""
"","do_trial","132","577940","0.0-76.0-0.0","""event"",""trial"",""time""
""fullscreenenter"",""0"",""2143""
","
","
","""event"",""trial"",""time""
""fullscreenenter"",""0"",""2143""
","
","132.89999997615814","","","","","","","","49","1,1,0","0","mountain","22","probe-13","0.491418927498386","0.4553259446386668","0.0503244056027779","1","","","","","","","",""
"","html-keyboard-response","133","578942","0.0-76.0-1.0","""event"",""trial"",""time""
""fullscreenenter"",""0"",""2143""
","
","
","""event"",""trial"",""time""
""fullscreenenter"",""0"",""2143""
","
","null","<p></p>","null","","","","","","","","","","","","","","","","","","","","","","",""
"","do_trial","134","583609","0.0-77.0-0.0","""event"",""trial"",""time""
""fullscreenenter"",""0"",""2143""
","
","
","""event"",""trial"",""time""
""fullscreenenter"",""0"",""2143""
","
","138.9000000357628","","","","","","","","49","0,0,0","0","mountain","23","probe-77","0.5800368280803967","0.3813427526594058","0.11913164678985996","0","","","","","","","",""
"","html-keyboard-response","135","584611","0.0-77.0-1.0","""event"",""trial"",""time""
""fullscreenenter"",""0"",""2143""
","
","
","""event"",""trial"",""time""
""fullscreenenter"",""0"",""2143""
","
","null","<p></p>","null","","","","","","","","","","","","","","","","","","","","","","",""
"","do_trial","136","589236","0.0-78.0-0.0","""event"",""trial"",""time""
""fullscreenenter"",""0"",""2143""
","
","
","""event"",""trial"",""time""
""fullscreenenter"",""0"",""2143""
","
","97.39999997615814","","","","","","","","50","0,0,0","0","mountain","24","probe-17","0.6679884087981068","0.28861567444491165","0.19918158240192355","0","","","","","","","",""
"","html-keyboard-response","137","590237","0.0-78.0-1.0","""event"",""trial"",""time""
""fullscreenenter"",""0"",""2143""
","
","
","""event"",""trial"",""time""
""fullscreenenter"",""0"",""2143""
","
","null","<p></p>","null","","","","","","","","","","","","","","","","","","","","","","",""
"","do_trial","138","594972","0.0-79.0-0.0","""event"",""trial"",""time""
""fullscreenenter"",""0"",""2143""
","
","
","""event"",""trial"",""time""
""fullscreenenter"",""0"",""2143""
","
","208","","","","","","","","49","1,1,1","0","mountain","25","probe-09","0.6475630694577885","0.17334402563660362","0.16175321065600048","1","","","","","","","",""
"","html-keyboard-response","139","595973","0.0-79.0-1.0","""event"",""trial"",""time""
""fullscreenenter"",""0"",""2143""
","
","
","""event"",""trial"",""time""
""fullscreenenter"",""0"",""2143""
","
","null","<p></p>","null","","","","","","","","","","","","","","","","","","","","","","",""
"","do_trial","140","600673","0.0-80.0-0.0","""event"",""trial"",""time""
""fullscreenenter"",""0"",""2143""
","
","
","""event"",""trial"",""time""
""fullscreenenter"",""0"",""2143""
","
","170.80000001192093","","","","","","","","49","1,0,1","0","mountain","26","probe-172","0.5778321665743493","0.17543066984190384","0.29342306188775297","1","","","","","","","",""
"","html-keyboard-response","141","601673","0.0-80.0-1.0","""event"",""trial"",""time""
""fullscreenenter"",""0"",""2143""
","
","
","""event"",""trial"",""time""
""fullscreenenter"",""0"",""2143""
","
","null","<p></p>","null","","","","","","","","","","","","","","","","","","","","","","",""
"","do_trial","142","606242","0.0-81.0-0.0","""event"",""trial"",""time""
""fullscreenenter"",""0"",""2143""
","
","
","""event"",""trial"",""time""
""fullscreenenter"",""0"",""2143""
","
","40.39999997615814","","","","","","","","49","1,1,1","0","mountain","27","probe-18","0.5973254750864553","0.12425867850998847","0.22639827284876102","1","","","","","","","",""
"","html-keyboard-response","143","607243","0.0-81.0-1.0","""event"",""trial"",""time""
""fullscreenenter"",""0"",""2143""
","
","
","""event"",""trial"",""time""
""fullscreenenter"",""0"",""2143""
","
","null","<p></p>","null","","","","","","","","","","","","","","","","","","","","","","",""
"","do_trial","144","612016","0.0-82.0-0.0","""event"",""trial"",""time""
""fullscreenenter"",""0"",""2143""
","
","
","""event"",""trial"",""time""
""fullscreenenter"",""0"",""2143""
","
","243.5","","","","","","","","49","1,0,0","0","mountain","28","probe-109","0.7163835722169745","0.21031593903894774","0.21807409002110018","1","","","","","","","",""
"","html-keyboard-response","145","613017","0.0-82.0-1.0","""event"",""trial"",""time""
""fullscreenenter"",""0"",""2143""
","
","
","""event"",""trial"",""time""
""fullscreenenter"",""0"",""2143""
","
","null","<p></p>","null","","","","","","","","","","","","","","","","","","","","","","",""
"","do_trial","146","617562","0.0-83.0-0.0","""event"",""trial"",""time""
""fullscreenenter"",""0"",""2143""
","
","
","""event"",""trial"",""time""
""fullscreenenter"",""0"",""2143""
","
","16.700000047683716","","","","","","","","49","1,0,0","0","mountain","29","probe-187","0.6506715237361681","0.12324177533991847","0.1059001448077506","1","","","","","","","",""
"","html-keyboard-response","147","618564","0.0-83.0-1.0","""event"",""trial"",""time""
""fullscreenenter"",""0"",""2143""
","
","
","""event"",""trial"",""time""
""fullscreenenter"",""0"",""2143""
","
","null","<p></p>","null","","","","","","","","","","","","","","","","","","","","","","",""
"","do_bye","148","620067","0.0-84.0-0.0","""event"",""trial"",""time""
""fullscreenenter"",""0"",""2143""
","
","
","""event"",""trial"",""time""
""fullscreenenter"",""0"",""2143""
","
","null","","","","","","","","null","","","","","","","","","","","","","","","","",""
"","break","149","623734","0.0-84.0-1.0","""event"",""trial"",""time""
""fullscreenenter"",""0"",""2143""
","
","
","""event"",""trial"",""time""
""fullscreenenter"",""0"",""2143""
","
","3666.5","<div class='center'><p>Time to take a quick break! You have 2 minutes to rest, but you can move on sooner if you'd like.</p><p> Press the <b>space bar</b> to continue.</p></div>","32","","","","","","","","","","","","","","","","","","","","","","",""
"","do_travel","150","632736","0.0-85.0-0.0","""event"",""trial"",""time""
""fullscreenenter"",""0"",""2143""
","
","
","""event"",""trial"",""time""
""fullscreenenter"",""0"",""2143""
","
","null","","","","","","","","null","","","","","","","","","","","","","","","","",""
"","do_welcome","151","636739","0.0-85.0-1.0","""event"",""trial"",""time""
""fullscreenenter"",""0"",""2143""
","
","
","""event"",""trial"",""time""
""fullscreenenter"",""0"",""2143""
","
","null","","","","","","","","null","","","","","","","","","","","","","","","","",""
"","do_trial","152","642113","0.0-86.0-0.0","""event"",""trial"",""time""
""fullscreenenter"",""0"",""2143""
","
","
","""event"",""trial"",""time""
""fullscreenenter"",""0"",""2143""
","
","843.8999999761581","","","","","","","","49","1,0,0","1","countryside","30","probe-113","1","0.19736919683783097","0.06000761182993013","1","","","","","","","",""
"","html-keyboard-response","153","643114","0.0-86.0-1.0","""event"",""trial"",""time""
""fullscreenenter"",""0"",""2143""
","
","
","""event"",""trial"",""time""
""fullscreenenter"",""0"",""2143""
","
","null","<p></p>","null","","","","","","","","","","","","","","","","","","","","","","",""
"","do_trial","154","647643","0.0-87.0-0.0","""event"",""trial"",""time""
""fullscreenenter"",""0"",""2143""
","
","
","""event"",""trial"",""time""
""fullscreenenter"",""0"",""2143""
","
","0.10000002384185791","","","","","","","","49","1,0,1","1","countryside","31","probe-46","1","0.1890061241782316","0.24704854223977585","1","","","","","","","",""
"","html-keyboard-response","155","648645","0.0-87.0-1.0","""event"",""trial"",""time""
""fullscreenenter"",""0"",""2143""
","
","
","""event"",""trial"",""time""
""fullscreenenter"",""0"",""2143""
","
","null","<p></p>","null","","","","","","","","","","","","","","","","","","","","","","",""
"","do_trial","156","653173","0.0-88.0-0.0","""event"",""trial"",""time""
""fullscreenenter"",""0"",""2143""
","
","
","""event"",""trial"",""time""
""fullscreenenter"",""0"",""2143""
","
","0.19999998807907104","","","","","","","","49","1,0,1","1","countryside","32","probe-83","1","0.20107727514353613","0.29930015192480436","1","","","","","","","",""
"","html-keyboard-response","157","654174","0.0-88.0-1.0","""event"",""trial"",""time""
""fullscreenenter"",""0"",""2143""
","
","
","""event"",""trial"",""time""
""fullscreenenter"",""0"",""2143""
","
","null","<p></p>","null","","","","","","","","","","","","","","","","","","","","","","",""
"","do_trial","158","658795","0.0-89.0-0.0","""event"",""trial"",""time""
""fullscreenenter"",""0"",""2143""
","
","
","""event"",""trial"",""time""
""fullscreenenter"",""0"",""2143""
","
","93.69999998807907","","","","","","","","49","1,0,0","1","countryside","33","probe-218","0.8949783326000587","0.27512563073890944","0.1969005632389354","1","","","","","","","",""
"","html-keyboard-response","159","659796","0.0-89.0-1.0","""event"",""trial"",""time""
""fullscreenenter"",""0"",""2143""
","
","
","""event"",""trial"",""time""
""fullscreenenter"",""0"",""2143""
","
","null","<p></p>","null","","","","","","","","","","","","","","","","","","","","","","",""
"","do_trial","160","664396","0.0-90.0-0.0","""event"",""trial"",""time""
""fullscreenenter"",""0"",""2143""
","
","
","""event"",""trial"",""time""
""fullscreenenter"",""0"",""2143""
","
","72.69999998807907","","","","","","","","49","0,1,0","1","countryside","34","probe-44","0.8351760161787054","0.3623272040080175","0.09567199186074095","0","","","","","","","",""
"","html-keyboard-response","161","665398","0.0-90.0-1.0","""event"",""trial"",""time""
""fullscreenenter"",""0"",""2143""
","
","
","""event"",""trial"",""time""
""fullscreenenter"",""0"",""2143""
","
","null","<p></p>","null","","","","","","","","","","","","","","","","","","","","","","",""
"","do_trial","162","670105","0.0-91.0-0.0","""event"",""trial"",""time""
""fullscreenenter"",""0"",""2143""
","
","
","""event"",""trial"",""time""
""fullscreenenter"",""0"",""2143""
","
","179.60000002384186","","","","","","","","49","1,0,0","1","countryside","35","probe-55","0.7194089036292425","0.39807908536614023","0.144567165415266","1","","","","","","","",""
"","html-keyboard-response","163","671106","0.0-91.0-1.0","""event"",""trial"",""time""
""fullscreenenter"",""0"",""2143""
","
","
","""event"",""trial"",""time""
""fullscreenenter"",""0"",""2143""
","
","null","<p></p>","null","","","","","","","","","","","","","","","","","","","","","","",""
"","do_trial","164","675635","0.0-92.0-0.0","""event"",""trial"",""time""
""fullscreenenter"",""0"",""2143""
","
","
","""event"",""trial"",""time""
""fullscreenenter"",""0"",""2143""
","
","0","","","","","","","","49","1,0,0","1","countryside","36","probe-112","0.6850342150949693","0.31131270901780006","0.19261013809716226","1","","","","","","","",""
"","html-keyboard-response","165","676636","0.0-92.0-1.0","""event"",""trial"",""time""
""fullscreenenter"",""0"",""2143""
","
","
","""event"",""trial"",""time""
""fullscreenenter"",""0"",""2143""
","
","null","<p></p>","null","","","","","","","","","","","","","","","","","","","","","","",""
"","do_trial","166","681373","0.0-93.0-0.0","""event"",""trial"",""time""
""fullscreenenter"",""0"",""2143""
","
","
","""event"",""trial"",""time""
""fullscreenenter"",""0"",""2143""
","
","209.0999999642372","","","","","","","","49","0,1,0","1","countryside","37","probe-164","0.789394464257811","0.24796421705553592","0.14032972738697613","0","","","","","","","",""
"","html-keyboard-response","167","682373","0.0-93.0-1.0","""event"",""trial"",""time""
""fullscreenenter"",""0"",""2143""
","
","
","""event"",""trial"",""time""
""fullscreenenter"",""0"",""2143""
","
","null","<p></p>","null","","","","","","","","","","","","","","","","","","","","","","",""
"","do_trial","168","686906","0.0-94.0-0.0","""event"",""trial"",""time""
""fullscreenenter"",""0"",""2143""
","
","
","""event"",""trial"",""time""
""fullscreenenter"",""0"",""2143""
","
","5.399999976158142","","","","","","","","49","1,0,0","1","countryside","38","probe-105","0.7946046571290082","0.16935141375770266","0.19642320575285716","1","","","","","","","",""
"","html-keyboard-response","169","687907","0.0-94.0-1.0","""event"",""trial"",""time""
""fullscreenenter"",""0"",""2143""
","
","
","""event"",""trial"",""time""
""fullscreenenter"",""0"",""2143""
","
","null","<p></p>","null","","","","","","","","","","","","","","","","","","","","","","",""
"","do_trial","170","692765","0.0-95.0-0.0","""event"",""trial"",""time""
""fullscreenenter"",""0"",""2143""
","
","
","""event"",""trial"",""time""
""fullscreenenter"",""0"",""2143""
","
","330.30000001192093","","","","","","","","49","1,0,0","1","countryside","39","probe-190","0.7821996439136117","0.23192965059266765","0.1204448571803479","1","","","","","","","",""
"","html-keyboard-response","171","693767","0.0-95.0-1.0","""event"",""trial"",""time""
""fullscreenenter"",""0"",""2143""
","
","
","""event"",""trial"",""time""
""fullscreenenter"",""0"",""2143""
","
","null","<p></p>","null","","","","","","","","","","","","","","","","","","","","","","",""
"","do_trial","172","698455","0.0-96.0-0.0","""event"",""trial"",""time""
""fullscreenenter"",""0"",""2143""
","
","
","""event"",""trial"",""time""
""fullscreenenter"",""0"",""2143""
","
","158.9000000357628","","","","","","","","49","1,0,0","1","countryside","40","probe-39","0.7729892918417248","0.14958427332799676","0.0616632804261436","1","","","","","","","",""
"","html-keyboard-response","173","699457","0.0-96.0-1.0","""event"",""trial"",""time""
""fullscreenenter"",""0"",""2143""
","
","
","""event"",""trial"",""time""
""fullscreenenter"",""0"",""2143""
","
","null","<p></p>","null","","","","","","","","","","","","","","","","","","","","","","",""
"","do_trial","174","703985","0.0-97.0-0.0","""event"",""trial"",""time""
""fullscreenenter"",""0"",""2143""
","
","
","""event"",""trial"",""time""
""fullscreenenter"",""0"",""2143""
","
","0","","","","","","","","49","1,0,0","1","countryside","41","probe-215","0.7929634923881489","0.21957077896794552","0.1481438765775811","1","","","","","","","",""
"","html-keyboard-response","175","704987","0.0-97.0-1.0","""event"",""trial"",""time""
""fullscreenenter"",""0"",""2143""
","
","
","""event"",""trial"",""time""
""fullscreenenter"",""0"",""2143""
","
","null","<p></p>","null","","","","","","","","","","","","","","","","","","","","","","",""
"","do_trial","176","709626","0.0-98.0-0.0","""event"",""trial"",""time""
""fullscreenenter"",""0"",""2143""
","
","
","""event"",""trial"",""time""
""fullscreenenter"",""0"",""2143""
","
","110.39999997615814","","","","","","","","49","0,1,0","1","countryside","42","probe-184","0.5019972092734301","0.3322959627126275","0.23769522550798827","0","","","","","","","",""
"","html-keyboard-response","177","710627","0.0-98.0-1.0","""event"",""trial"",""time""
""fullscreenenter"",""0"",""2143""
","
","
","""event"",""trial"",""time""
""fullscreenenter"",""0"",""2143""
","
","null","<p></p>","null","","","","","","","","","","","","","","","","","","","","","","",""
"","do_trial","178","715365","0.0-99.0-0.0","""event"",""trial"",""time""
""fullscreenenter"",""0"",""2143""
","
","
","""event"",""trial"",""time""
""fullscreenenter"",""0"",""2143""
","
","210.80000001192093","","","","","","","","49","1,0,0","1","countryside","43","probe-82","0.4212070529713048","0.20648174184921683","0.37582191508399443","1","","","","","","","",""
"","html-keyboard-response","179","716366","0.0-99.0-1.0","""event"",""trial"",""time""
""fullscreenenter"",""0"",""2143""
","
","
","""event"",""trial"",""time""
""fullscreenenter"",""0"",""2143""
","
","null","<p></p>","null","","","","","","","","","","","","","","","","","","","","","","",""
"","do_trial","180","721007","0.0-100.0-0.0","""event"",""trial"",""time""
""fullscreenenter"",""0"",""2143""
","
","
","""event"",""trial"",""time""
""fullscreenenter"",""0"",""2143""
","
","113.5","","","","","","","","49","0,0,0","1","countryside","44","probe-131","0.41620484985513856","0.42735887198382944","0.431675761072736","0","","","","","","","",""
"","html-keyboard-response","181","722009","0.0-100.0-1.0","""event"",""trial"",""time""
""fullscreenenter"",""0"",""2143""
","
","
","""event"",""trial"",""time""
""fullscreenenter"",""0"",""2143""
","
","null","<p></p>","null","","","","","","","","","","","","","","","","","","","","","","",""
"","do_trial","182","726924","0.0-101.0-0.0","""event"",""trial"",""time""
""fullscreenenter"",""0"",""2143""
","
","
","""event"",""trial"",""time""
""fullscreenenter"",""0"",""2143""
","
","387.10000002384186","","","","","","","","49","0,1,1","1","countryside","45","probe-104","0.31559047444079946","0.6300703805487443","0.5498442532861765","0","","","","","","","",""
"","html-keyboard-response","183","727925","0.0-101.0-1.0","""event"",""trial"",""time""
""fullscreenenter"",""0"",""2143""
","
","
","""event"",""trial"",""time""
""fullscreenenter"",""0"",""2143""
","
","null","<p></p>","null","","","","","","","","","","","","","","","","","","","","","","",""
"","do_trial","184","732802","0.0-102.0-0.0","""event"",""trial"",""time""
""fullscreenenter"",""0"",""2143""
","
","
","""event"",""trial"",""time""
""fullscreenenter"",""0"",""2143""
","
","349.19999998807907","","","","","","","","49","1,1,0","1","countryside","46","probe-06","0.24318912703916354","0.6084431324325165","0.27394782430340814","1","","","","","","","",""
"","html-keyboard-response","185","733803","0.0-102.0-1.0","""event"",""trial"",""time""
""fullscreenenter"",""0"",""2143""
","
","
","""event"",""trial"",""time""
""fullscreenenter"",""0"",""2143""
","
","null","<p></p>","null","","","","","","","","","","","","","","","","","","","","","","",""
"","do_trial","186","738367","0.0-103.0-0.0","""event"",""trial"",""time""
""fullscreenenter"",""0"",""2143""
","
","
","""event"",""trial"",""time""
""fullscreenenter"",""0"",""2143""
","
","36.200000047683716","","","","","","","","49","0,0,0","1","countryside","47","probe-127","0.2957214588361513","0.3322468737849016","0.3526265279491891","0","","","","","","","",""
"","html-keyboard-response","187","739368","0.0-103.0-1.0","""event"",""trial"",""time""
""fullscreenenter"",""0"",""2143""
","
","
","""event"",""trial"",""time""
""fullscreenenter"",""0"",""2143""
","
","null","<p></p>","null","","","","","","","","","","","","","","","","","","","","","","",""
"","do_trial","188","744252","0.0-104.0-0.0","""event"",""trial"",""time""
""fullscreenenter"",""0"",""2143""
","
","
","""event"",""trial"",""time""
""fullscreenenter"",""0"",""2143""
","
","356.89999997615814","","","","","","","","49","0,1,0","1","countryside","48","probe-169","0.352788438815562","0.4375406499664846","0.21445639618864523","0","","","","","","","",""
"","html-keyboard-response","189","745253","0.0-104.0-1.0","""event"",""trial"",""time""
""fullscreenenter"",""0"",""2143""
","
","
","""event"",""trial"",""time""
""fullscreenenter"",""0"",""2143""
","
","null","<p></p>","null","","","","","","","","","","","","","","","","","","","","","","",""
"","do_trial","190","749907","0.0-105.0-0.0","""event"",""trial"",""time""
""fullscreenenter"",""0"",""2143""
","
","
","""event"",""trial"",""time""
""fullscreenenter"",""0"",""2143""
","
","125.30000001192093","","","","","","","","50","0,1,0","1","countryside","49","probe-79","0.2178502168499086","0.4223877219347502","0.22438821703517348","1","","","","","","","",""
"","html-keyboard-response","191","750908","0.0-105.0-1.0","""event"",""trial"",""time""
""fullscreenenter"",""0"",""2143""
","
","
","""event"",""trial"",""time""
""fullscreenenter"",""0"",""2143""
","
","null","<p></p>","null","","","","","","","","","","","","","","","","","","","","","","",""
"","do_trial","192","755879","0.0-106.0-0.0","""event"",""trial"",""time""
""fullscreenenter"",""0"",""2143""
","
","
","""event"",""trial"",""time""
""fullscreenenter"",""0"",""2143""
","
","444.19999998807907","","","","","","","","50","0,0,1","1","countryside","50","probe-180","0.11406046730702203","0.418845765926763","0.3181185075044289","0","","","","","","","",""
"","html-keyboard-response","193","756880","0.0-106.0-1.0","""event"",""trial"",""time""
""fullscreenenter"",""0"",""2143""
","
","
","""event"",""trial"",""time""
""fullscreenenter"",""0"",""2143""
","
","null","<p></p>","null","","","","","","","","","","","","","","","","","","","","","","",""
"","do_trial","194","761612","0.0-107.0-0.0","""event"",""trial"",""time""
""fullscreenenter"",""0"",""2143""
","
","
","""event"",""trial"",""time""
""fullscreenenter"",""0"",""2143""
","
","203.70000004768372","","","","","","","","49","0,0,0","1","countryside","51","probe-142","0.07052324771571462","0.5768382783262311","0.30229292609468045","0","","","","","","","",""
"","html-keyboard-response","195","762615","0.0-107.0-1.0","""event"",""trial"",""time""
""fullscreenenter"",""0"",""2143""
","
","
","""event"",""trial"",""time""
""fullscreenenter"",""0"",""2143""
","
","null","<p></p>","null","","","","","","","","","","","","","","","","","","","","","","",""
"","do_trial","196","767330","0.0-108.0-0.0","""event"",""trial"",""time""
""fullscreenenter"",""0"",""2143""
","
","
","""event"",""trial"",""time""
""fullscreenenter"",""0"",""2143""
","
","188","","","","","","","","50","0,1,1","1","countryside","52","probe-27","0.17544717628204076","0.5455579130159807","0.2784175503239834","1","","","","","","","",""
"","html-keyboard-response","197","768331","0.0-108.0-1.0","""event"",""trial"",""time""
""fullscreenenter"",""0"",""2143""
","
","
","""event"",""trial"",""time""
""fullscreenenter"",""0"",""2143""
","
","null","<p></p>","null","","","","","","","","","","","","","","","","","","","","","","",""
"","do_trial","198","772895","0.0-109.0-0.0","""event"",""trial"",""time""
""fullscreenenter"",""0"",""2143""
","
","
","""event"",""trial"",""time""
""fullscreenenter"",""0"",""2143""
","
","35.39999997615814","","","","","","","","50","1,1,1","1","countryside","53","probe-227","0.08777470666534398","0.5954663229311505","0.33229975920431526","1","","","","","","","",""
"","html-keyboard-response","199","773896","0.0-109.0-1.0","""event"",""trial"",""time""
""fullscreenenter"",""0"",""2143""
","
","
","""event"",""trial"",""time""
""fullscreenenter"",""0"",""2143""
","
","null","<p></p>","null","","","","","","","","","","","","","","","","","","","","","","",""
"","do_trial","200","778623","0.0-110.0-0.0","""event"",""trial"",""time""
""fullscreenenter"",""0"",""2143""
","
","
","""event"",""trial"",""time""
""fullscreenenter"",""0"",""2143""
","
","199.60000002384186","","","","","","","","50","0,0,0","1","countryside","54","probe-230","0.09995418885988722","0.5815064968370991","0.29462184882929865","0","","","","","","","",""
"","html-keyboard-response","201","779624","0.0-110.0-1.0","""event"",""trial"",""time""
""fullscreenenter"",""0"",""2143""
","
","
","""event"",""trial"",""time""
""fullscreenenter"",""0"",""2143""
","
","null","<p></p>","null","","","","","","","","","","","","","","","","","","","","","","",""
"","do_trial","202","784152","0.0-111.0-0.0","""event"",""trial"",""time""
""fullscreenenter"",""0"",""2143""
","
","
","""event"",""trial"",""time""
""fullscreenenter"",""0"",""2143""
","
","0","","","","","","","","49","0,0,1","1","countryside","55","probe-157","0.12210220173953337","0.43237837844519683","0.266259359047726","0","","","","","","","",""
"","html-keyboard-response","203","785153","0.0-111.0-1.0","""event"",""trial"",""time""
""fullscreenenter"",""0"",""2143""
","
","
","""event"",""trial"",""time""
""fullscreenenter"",""0"",""2143""
","
","null","<p></p>","null","","","","","","","","","","","","","","","","","","","","","","",""
"","do_trial","204","789740","0.0-112.0-0.0","""event"",""trial"",""time""
""fullscreenenter"",""0"",""2143""
","
","
","""event"",""trial"",""time""
""fullscreenenter"",""0"",""2143""
","
","59.60000002384186","","","","","","","","50","0,1,0","1","countryside","56","probe-20","0.13256071623162405","0.5760375546504246","0.2724248025991298","1","","","","","","","",""
"","html-keyboard-response","205","790741","0.0-112.0-1.0","""event"",""trial"",""time""
""fullscreenenter"",""0"",""2143""
","
","
","""event"",""trial"",""time""
""fullscreenenter"",""0"",""2143""
","
","null","<p></p>","null","","","","","","","","","","","","","","","","","","","","","","",""
"","do_trial","206","795268","0.0-113.0-0.0","""event"",""trial"",""time""
""fullscreenenter"",""0"",""2143""
","
","
","""event"",""trial"",""time""
""fullscreenenter"",""0"",""2143""
","
","0.10000002384185791","","","","","","","","50","0,0,1","1","countryside","57","probe-130","0.09005020775509312","0.5560141627037466","0.203944925284857","0","","","","","","","",""
"","html-keyboard-response","207","796269","0.0-113.0-1.0","""event"",""trial"",""time""
""fullscreenenter"",""0"",""2143""
","
","
","""event"",""trial"",""time""
""fullscreenenter"",""0"",""2143""
","
","null","<p></p>","null","","","","","","","","","","","","","","","","","","","","","","",""
"","do_trial","208","800943","0.0-114.0-0.0","""event"",""trial"",""time""
""fullscreenenter"",""0"",""2143""
","
","
","""event"",""trial"",""time""
""fullscreenenter"",""0"",""2143""
","
","144.30000001192093","","","","","","","","49","0,1,1","1","countryside","58","probe-87","0.12934847137065655","0.67368878546672","0.3203863116104504","0","","","","","","","",""
"","html-keyboard-response","209","801944","0.0-114.0-1.0","""event"",""trial"",""time""
""fullscreenenter"",""0"",""2143""
","
","
","""event"",""trial"",""time""
""fullscreenenter"",""0"",""2143""
","
","null","<p></p>","null","","","","","","","","","","","","","","","","","","","","","","",""
"","do_trial","210","806477","0.0-115.0-0.0","""event"",""trial"",""time""
""fullscreenenter"",""0"",""2143""
","
","
","""event"",""trial"",""time""
""fullscreenenter"",""0"",""2143""
","
","4.5","","","","","","","","49","0,1,1","1","countryside","59","probe-21","0.09977556899457454","0.6196178962840279","0.45081025390268514","0","","","","","","","",""
"","html-keyboard-response","211","807478","0.0-115.0-1.0","""event"",""trial"",""time""
""fullscreenenter"",""0"",""2143""
","
","
","""event"",""trial"",""time""
""fullscreenenter"",""0"",""2143""
","
","null","<p></p>","null","","","","","","","","","","","","","","","","","","","","","","",""
"","do_trial","212","812379","0.0-116.0-0.0","""event"",""trial"",""time""
""fullscreenenter"",""0"",""2143""
","
","
","""event"",""trial"",""time""
""fullscreenenter"",""0"",""2143""
","
","373.7000000476837","","","","","","","","50","0,0,0","1","countryside","60","probe-208","0.07407213960651153","0.5606125800957876","0.44247946573025887","0","","","","","","","",""
"","html-keyboard-response","213","813380","0.0-116.0-1.0","""event"",""trial"",""time""
""fullscreenenter"",""0"",""2143""
","
","
","""event"",""trial"",""time""
""fullscreenenter"",""0"",""2143""
","
","null","<p></p>","null","","","","","","","","","","","","","","","","","","","","","","",""
"","do_trial","214","818088","0.0-117.0-0.0","""event"",""trial"",""time""
""fullscreenenter"",""0"",""2143""
","
","
","""event"",""trial"",""time""
""fullscreenenter"",""0"",""2143""
","
","181.0999999642372","","","","","","","","50","0,0,1","1","countryside","61","probe-151","0.08119510371797156","0.5237665291182697","0.606290040300392","0","","","","","","","",""
"","html-keyboard-response","215","819089","0.0-117.0-1.0","""event"",""trial"",""time""
""fullscreenenter"",""0"",""2143""
","
","
","""event"",""trial"",""time""
""fullscreenenter"",""0"",""2143""
","
","null","<p></p>","null","","","","","","","","","","","","","","","","","","","","","","",""
"","do_trial","216","823700","0.0-118.0-0.0","""event"",""trial"",""time""
""fullscreenenter"",""0"",""2143""
","
","
","""event"",""trial"",""time""
""fullscreenenter"",""0"",""2143""
","
","84.10000002384186","","","","","","","","50","0,1,0","1","countryside","62","probe-60","0.136335704275628","0.5170328445515185","0.5366642747038057","1","","","","","","","",""
"","html-keyboard-response","217","824701","0.0-118.0-1.0","""event"",""trial"",""time""
""fullscreenenter"",""0"",""2143""
","
","
","""event"",""trial"",""time""
""fullscreenenter"",""0"",""2143""
","
","null","<p></p>","null","","","","","","","","","","","","","","","","","","","","","","",""
"","do_trial","218","829693","0.0-119.0-0.0","""event"",""trial"",""time""
""fullscreenenter"",""0"",""2143""
","
","
","""event"",""trial"",""time""
""fullscreenenter"",""0"",""2143""
","
","458.7999999523163","","","","","","","","50","0,1,1","1","countryside","63","probe-174","0.2439560152089966","0.532999885624044","0.4808167430564344","1","","","","","","","",""
"","html-keyboard-response","219","830695","0.0-119.0-1.0","""event"",""trial"",""time""
""fullscreenenter"",""0"",""2143""
","
","
","""event"",""trial"",""time""
""fullscreenenter"",""0"",""2143""
","
","null","<p></p>","null","","","","","","","","","","","","","","","","","","","","","","",""
"","do_trial","220","835411","0.0-120.0-0.0","""event"",""trial"",""time""
""fullscreenenter"",""0"",""2143""
","
","
","""event"",""trial"",""time""
""fullscreenenter"",""0"",""2143""
","
","188.4000000357628","","","","","","","","50","1,1,0","1","countryside","64","probe-210","0.14726467791771689","0.7216400181928078","0.44476930504898426","1","","","","","","","",""
"","html-keyboard-response","221","836412","0.0-120.0-1.0","""event"",""trial"",""time""
""fullscreenenter"",""0"",""2143""
","
","
","""event"",""trial"",""time""
""fullscreenenter"",""0"",""2143""
","
","null","<p></p>","null","","","","","","","","","","","","","","","","","","","","","","",""
"","do_trial","222","840994","0.0-121.0-0.0","""event"",""trial"",""time""
""fullscreenenter"",""0"",""2143""
","
","
","""event"",""trial"",""time""
""fullscreenenter"",""0"",""2143""
","
","55.40000003576279","","","","","","","","50","0,0,1","1","countryside","65","probe-64","0.16072024253265102","0.6672508494121127","0.38499334224425524","0","","","","","","","",""
"","html-keyboard-response","223","841996","0.0-121.0-1.0","""event"",""trial"",""time""
""fullscreenenter"",""0"",""2143""
","
","
","""event"",""trial"",""time""
""fullscreenenter"",""0"",""2143""
","
","null","<p></p>","null","","","","","","","","","","","","","","","","","","","","","","",""
"","do_trial","224","846895","0.0-122.0-0.0","""event"",""trial"",""time""
""fullscreenenter"",""0"",""2143""
","
","
","""event"",""trial"",""time""
""fullscreenenter"",""0"",""2143""
","
","371.19999998807907","","","","","","","","50","1,1,0","1","countryside","66","probe-110","0.21005554110184257","0.7504206971745905","0.26872318958951796","1","","","","","","","",""
"","html-keyboard-response","225","847897","0.0-122.0-1.0","""event"",""trial"",""time""
""fullscreenenter"",""0"",""2143""
","
","
","""event"",""trial"",""time""
""fullscreenenter"",""0"",""2143""
","
","null","<p></p>","null","","","","","","","","","","","","","","","","","","","","","","",""
"","do_trial","226","852615","0.0-123.0-0.0","""event"",""trial"",""time""
""fullscreenenter"",""0"",""2143""
","
","
","""event"",""trial"",""time""
""fullscreenenter"",""0"",""2143""
","
","190.29999995231628","","","","","","","","50","0,1,1","1","countryside","67","probe-49","0.07242238597543738","0.8372075852585209","0.3882082044298111","1","","","","","","","",""
"","html-keyboard-response","227","853616","0.0-123.0-1.0","""event"",""trial"",""time""
""fullscreenenter"",""0"",""2143""
","
","
","""event"",""trial"",""time""
""fullscreenenter"",""0"",""2143""
","
","null","<p></p>","null","","","","","","","","","","","","","","","","","","","","","","",""
"","do_trial","228","858312","0.0-124.0-0.0","""event"",""trial"",""time""
""fullscreenenter"",""0"",""2143""
","
","
","""event"",""trial"",""time""
""fullscreenenter"",""0"",""2143""
","
","167.89999997615814","","","","","","","","50","0,1,0","1","countryside","68","probe-185","0.08971016979427625","0.7112187011667528","0.317476693274633","1","","","","","","","",""
"","html-keyboard-response","229","859313","0.0-124.0-1.0","""event"",""trial"",""time""
""fullscreenenter"",""0"",""2143""
","
","
","""event"",""trial"",""time""
""fullscreenenter"",""0"",""2143""
","
","null","<p></p>","null","","","","","","","","","","","","","","","","","","","","","","",""
"","do_trial","230","863841","0.0-125.0-0.0","""event"",""trial"",""time""
""fullscreenenter"",""0"",""2143""
","
","
","""event"",""trial"",""time""
""fullscreenenter"",""0"",""2143""
","
","0.10000002384185791","","","","","","","","50","0,1,0","1","countryside","69","probe-35","0.18391560209494265","0.5261032528180695","0.32901603575973676","1","","","","","","","",""
"","html-keyboard-response","231","864842","0.0-125.0-1.0","""event"",""trial"",""time""
""fullscreenenter"",""0"",""2143""
","
","
","""event"",""trial"",""time""
""fullscreenenter"",""0"",""2143""
","
","null","<p></p>","null","","","","","","","","","","","","","","","","","","","","","","",""
"","do_bye","232","866344","0.0-126.0-0.0","""event"",""trial"",""time""
""fullscreenenter"",""0"",""2143""
","
","
","""event"",""trial"",""time""
""fullscreenenter"",""0"",""2143""
","
","null","","","","","","","","null","","","","","","","","","","","","","","","","",""
"","break","233","867243","0.0-126.0-1.0","""event"",""trial"",""time""
""fullscreenenter"",""0"",""2143""
","
","
","""event"",""trial"",""time""
""fullscreenenter"",""0"",""2143""
","
","897.8999999761581","<div class='center'><p>Time to take a quick break! You have 2 minutes to rest, but you can move on sooner if you'd like.</p><p> Press the <b>space bar</b> to continue.</p></div>","32","","","","","","","","","","","","","","","","","","","","","","",""
"","do_travel","234","876245","0.0-127.0-0.0","""event"",""trial"",""time""
""fullscreenenter"",""0"",""2143""
","
","
","""event"",""trial"",""time""
""fullscreenenter"",""0"",""2143""
","
","null","","","","","","","","null","","","","","","","","","","","","","","","","",""
"","do_welcome","235","880248","0.0-127.0-1.0","""event"",""trial"",""time""
""fullscreenenter"",""0"",""2143""
","
","
","""event"",""trial"",""time""
""fullscreenenter"",""0"",""2143""
","
","null","","","","","","","","null","","","","","","","","","","","","","","","","",""
"","do_trial","236","885413","0.0-128.0-0.0","""event"",""trial"",""time""
""fullscreenenter"",""0"",""2143""
","
","
","""event"",""trial"",""time""
""fullscreenenter"",""0"",""2143""
","
","637.1999999880791","","","","","","","","50","0,1,0","2","city","70","probe-78","0.06050035527667051","1","0.1514777053190944","1","","","","","","","",""
"","html-keyboard-response","237","886414","0.0-128.0-1.0","""event"",""trial"",""time""
""fullscreenenter"",""0"",""2143""
","
","
","""event"",""trial"",""time""
""fullscreenenter"",""0"",""2143""
","
","null","<p></p>","null","","","","","","","","","","","","","","","","","","","","","","",""
"","do_trial","238","891134","0.0-129.0-0.0","""event"",""trial"",""time""
""fullscreenenter"",""0"",""2143""
","
","
","""event"",""trial"",""time""
""fullscreenenter"",""0"",""2143""
","
","190.80000001192093","","","","","","","","50","0,1,0","2","city","71","probe-66","0.14284054488408618","1","0.10273507186527264","1","","","","","","","",""
"","html-keyboard-response","239","892135","0.0-129.0-1.0","""event"",""trial"",""time""
""fullscreenenter"",""0"",""2143""
","
","
","""event"",""trial"",""time""
""fullscreenenter"",""0"",""2143""
","
","null","<p></p>","null","","","","","","","","","","","","","","","","","","","","","","",""
"","do_trial","240","896713","0.0-130.0-0.0","""event"",""trial"",""time""
""fullscreenenter"",""0"",""2143""
","
","
","""event"",""trial"",""time""
""fullscreenenter"",""0"",""2143""
","
","48.19999998807907","","","","","","","","50","0,1,0","2","city","72","probe-214","0.16885408388149994","0.879284414538235","0.15971635775705967","1","","","","","","","",""
"","html-keyboard-response","241","897714","0.0-130.0-1.0","""event"",""trial"",""time""
""fullscreenenter"",""0"",""2143""
","
","
","""event"",""trial"",""time""
""fullscreenenter"",""0"",""2143""
","
","null","<p></p>","null","","","","","","","","","","","","","","","","","","","","","","",""
"","do_trial","242","902342","0.0-131.0-0.0","""event"",""trial"",""time""
""fullscreenenter"",""0"",""2143""
","
","
","""event"",""trial"",""time""
""fullscreenenter"",""0"",""2143""
","
","99.89999997615814","","","","","","","","50","0,0,0","2","city","73","probe-15","0.1790292682128611","0.7566420092316362","0.11403468469306044","0","","","","","","","",""
"","html-keyboard-response","243","903343","0.0-131.0-1.0","""event"",""trial"",""time""
""fullscreenenter"",""0"",""2143""
","
","
","""event"",""trial"",""time""
""fullscreenenter"",""0"",""2143""
","
","null","<p></p>","null","","","","","","","","","","","","","","","","","","","","","","",""
"","do_trial","244","907993","0.0-132.0-0.0","""event"",""trial"",""time""
""fullscreenenter"",""0"",""2143""
","
","
","""event"",""trial"",""time""
""fullscreenenter"",""0"",""2143""
","
","122.10000002384186","","","","","","","","50","0,1,1","2","city","74","probe-102","0.1668503932150792","0.7422359942506358","0.2956983620544787","1","","","","","","","",""
"","html-keyboard-response","245","908994","0.0-132.0-1.0","""event"",""trial"",""time""
""fullscreenenter"",""0"",""2143""
","
","
","""event"",""trial"",""time""
""fullscreenenter"",""0"",""2143""
","
","null","<p></p>","null","","","","","","","","","","","","","","","","","","","","","","",""
"","do_trial","246","913658","0.0-133.0-0.0","""event"",""trial"",""time""
""fullscreenenter"",""0"",""2143""
","
","
","""event"",""trial"",""time""
""fullscreenenter"",""0"",""2143""
","
","135.80000001192093","","","","","","","","50","0,1,0","2","city","75","probe-121","0.10574257354543187","0.5639971827317385","0.37723062213707004","1","","","","","","","",""
"","html-keyboard-response","247","914659","0.0-133.0-1.0","""event"",""trial"",""time""
""fullscreenenter"",""0"",""2143""
","
","
","""event"",""trial"",""time""
""fullscreenenter"",""0"",""2143""
","
","null","<p></p>","null","","","","","","","","","","","","","","","","","","","","","","",""
"","do_trial","248","919188","0.0-134.0-0.0","""event"",""trial"",""time""
""fullscreenenter"",""0"",""2143""
","
","
","""event"",""trial"",""time""
""fullscreenenter"",""0"",""2143""
","
","0.10000002384185791","","","","","","","","50","0,0,0","2","city","76","probe-138","0.06714751469380723","0.5121803049205125","0.41979757698022213","0","","","","","","","",""
"","html-keyboard-response","249","920189","0.0-134.0-1.0","""event"",""trial"",""time""
""fullscreenenter"",""0"",""2143""
","
","
","""event"",""trial"",""time""
""fullscreenenter"",""0"",""2143""
","
","null","<p></p>","null","","","","","","","","","","","","","","","","","","","","","","",""
"","do_trial","250","925142","0.0-135.0-0.0","""event"",""trial"",""time""
""fullscreenenter"",""0"",""2143""
","
","
","""event"",""trial"",""time""
""fullscreenenter"",""0"",""2143""
","
","423.69999998807907","","","","","","","","50","0,1,0","2","city","77","probe-167","0.17802927583713615","0.6394782350537709","0.32127095926156635","1","","","","","","","",""
"","html-keyboard-response","251","926143","0.0-135.0-1.0","""event"",""trial"",""time""
""fullscreenenter"",""0"",""2143""
","
","
","""event"",""trial"",""time""
""fullscreenenter"",""0"",""2143""
","
","null","<p></p>","null","","","","","","","","","","","","","","","","","","","","","","",""
"","do_trial","252","930747","0.0-136.0-0.0","""event"",""trial"",""time""
""fullscreenenter"",""0"",""2143""
","
","
","""event"",""trial"",""time""
""fullscreenenter"",""0"",""2143""
","
","75.69999998807907","","","","","","","","50","0,0,0","2","city","78","probe-188","0.10654259366626737","0.661379324437101","0.2856896709821178","0","","","","","","","",""
"","html-keyboard-response","253","931748","0.0-136.0-1.0","""event"",""trial"",""time""
""fullscreenenter"",""0"",""2143""
","
","
","""event"",""trial"",""time""
""fullscreenenter"",""0"",""2143""
","
","null","<p></p>","null","","","","","","","","","","","","","","","","","","","","","","",""
"","do_trial","254","936284","0.0-137.0-0.0","""event"",""trial"",""time""
""fullscreenenter"",""0"",""2143""
","
","
","""event"",""trial"",""time""
""fullscreenenter"",""0"",""2143""
","
","7.899999976158142","","","","","","","","50","0,0,0","2","city","79","probe-160","0.18307064629847872","0.6022112032674228","0.1401204710026551","0","","","","","","","",""
"","html-keyboard-response","255","937286","0.0-137.0-1.0","""event"",""trial"",""time""
""fullscreenenter"",""0"",""2143""
","
","
","""event"",""trial"",""time""
""fullscreenenter"",""0"",""2143""
","
","null","<p></p>","null","","","","","","","","","","","","","","","","","","","","","","",""
"","do_trial","256","941867","0.0-138.0-0.0","""event"",""trial"",""time""
""fullscreenenter"",""0"",""2143""
","
","
","""event"",""trial"",""time""
""fullscreenenter"",""0"",""2143""
","
","53.89999997615814","","","","","","","","50","0,0,1","2","city","80","probe-31","0.23840651046906033","0.5142476575851325","0.14854426864484752","0","","","","","","","",""
"","html-keyboard-response","257","942868","0.0-138.0-1.0","""event"",""trial"",""time""
""fullscreenenter"",""0"",""2143""
","
","
","""event"",""trial"",""time""
""fullscreenenter"",""0"",""2143""
","
","null","<p></p>","null","","","","","","","","","","","","","","","","","","","","","","",""
"","do_trial","258","947532","0.0-139.0-0.0","""event"",""trial"",""time""
""fullscreenenter"",""0"",""2143""
","
","
","""event"",""trial"",""time""
""fullscreenenter"",""0"",""2143""
","
","136.0999999642372","","","","","","","","50","0,1,0","2","city","81","probe-212","0.20088371512570177","0.5625261995930895","0.10405173058207275","1","","","","","","","",""
"","html-keyboard-response","259","948533","0.0-139.0-1.0","""event"",""trial"",""time""
""fullscreenenter"",""0"",""2143""
","
","
","""event"",""trial"",""time""
""fullscreenenter"",""0"",""2143""
","
","null","<p></p>","null","","","","","","","","","","","","","","","","","","","","","","",""
"","do_trial","260","953076","0.0-140.0-0.0","""event"",""trial"",""time""
""fullscreenenter"",""0"",""2143""
","
","
","""event"",""trial"",""time""
""fullscreenenter"",""0"",""2143""
","
","15.300000011920929","","","","","","","","50","0,0,0","2","city","82","probe-154","0.24200483905414938","0.2588765691866156","0.32242587661590527","0","","","","","","","",""
