"success","trial_type","trial_index","time_elapsed","internal_node_id","rt","stimulus","key_press","subject_id","response","choice_outcomes","context_n","context_img_id","trial_n","probe_img_id","pR_red","pR_white","pR_black","outcome","contextArray_ind","validImageProbes","invalidImageProbes","pRew_Red","pRew_White","pRew_Black","availableForMemProbe","choice_blocks"
"true","fullscreen","0","4209","0.0-0.0","","","","","","","","","","","","","","","","","","","","","",""
"","pavlovia","1","4212","0.0-1.0","","","","","","","","","","","","","","","","","","","","","",""
"","html-keyboard-response","2","23292","0.0-2.0","19078.400000095367","<div class='center'><p>Welcome! This is the first day of the experiment which will last ~30 minutes. In this experiment, you are the head captain of a pirate ship traveling around the world to different places. You will complete several different tasks during this experiment. Here is an overview of these tasks:</p><br><p>Day 1</p><p>1. Tutorial and quiz</p><p>2. Pick a pirate game in 6 different places</p><br><p>Day 2</p><p>3. Pick a pirate game and memory game</p><p>4. Final questions and payment</p><br><p>If you complete the entire experiment, you will receive $15 and a possible bonus payment.</p><p><b>[Press the space bar to begin the tutorial]</b></p></div>","32","6150f9d2770c3af81f080d10","","","","","","","","","","","","","","","","","",""
"","html-keyboard-response","3","31863","0.0-3.0","8569.599999904633","<div class='center'><p>You’ll stop at these 6 islands on your journey. You'll be able to see them in the distance from your ship.</p><p><img src='run_exp/static/images/contexts/all_contexts.png' height='500'></p><p><b>[Press the space bar to continue]</b></p></div>","32","","","","","","","","","","","","","","","","","","",""
"","html-keyboard-response","4","45154","0.0-4.0","13289.799999713898","<div class='center'><p> The pirates on your ship will rob other ships as they leave island</p> These ships have just sold their things to the people living on the island, so they will have lots and lots of gold on them.</p><p><img src='run_exp/static/images/tutorial/ship_center.png' height='400'></p><p><b>[Press the space bar to continue]</b></p></div>","32","","","","","","","","","","","","","","","","","","",""
"","html-keyboard-response","5","56053","0.0-5.0","10897.800000190735","<div class='center'><p>As the head captain, you do not have to rob any ships yourself.</p><p>Another pirate will be doing the robbing for you. </p><p><img src='run_exp/static/images/tutorial/pirates_all_crop.png' height='200'></p><p>If they could rob the ship, then you will get a stack of gold coins like this:</p><p><img src='run_exp/static/images/tutorial/reward.png' height='150'></p><p> If they couldn't rob the ship, then you will get no gold coins and you'll see a big red x like this: </p><p><img src='run_exp/static/images/tutorial/reward_no.png' height='150'></p><p> How much bonus money you make is based on how many gold coins you collect.</p><p><b>[Press the space bar to continue]</b></p><div>","32","","","","","","","","","","","","","","","","","","",""
"","html-keyboard-response","6","67131","0.0-6.0","11079.299999713898","<div class='center'><p>Even the most skilled pirate can not rob EVERY ship.</p><p> Some ships will have very strong defenses against pirate attacks.</p><p> For example, blue beard, here, is very, very good at robbing ships.</p><p> You can press the <b>‘1’</b> button on the keyboard to choose him.</p><p> Try choosing him 10 times to see how often he can rob a ship. </p><p><img src='run_exp/static/images/tutorial/blue.png' height='500'></p></div>","49","","","","","","","","","","","","","","","","","","",""
"","html-keyboard-response","7","68640","0.0-7.0","null","<div class='center'><p><img src='run_exp/static/images/tutorial/blue_win.png' height='500'></p></div>","null","","","","","","","","","","","","","","","","","","",""
"","html-keyboard-response","8","70907","0.0-8.0","2265.5999999046326","<div class='center'><img src='run_exp/static/images/tutorial/blue.png' height='500'></p></div>","49","","","","","","","","","","","","","","","","","","",""
"","html-keyboard-response","9","72418","0.0-9.0","null","<div class='center'><p><img src='run_exp/static/images/tutorial/blue_win.png' height='500'></p></div>","null","","","","","","","","","","","","","","","","","","",""
"","html-keyboard-response","10","73196","0.0-10.0","776.7000002861023","<div class='center'><img src='run_exp/static/images/tutorial/blue.png' height='500'></p></div>","49","","","","","","","","","","","","","","","","","","",""
"","html-keyboard-response","11","74697","0.0-11.0","null","<div class='center'><p><img src='run_exp/static/images/tutorial/blue_win.png' height='500'></p></div>","null","","","","","","","","","","","","","","","","","","",""
"","html-keyboard-response","12","75160","0.0-12.0","461.2999997138977","<div class='center'><img src='run_exp/static/images/tutorial/blue.png' height='500'></p></div>","49","","","","","","","","","","","","","","","","","","",""
"","html-keyboard-response","13","76668","0.0-13.0","null","<div class='center'><p><img src='run_exp/static/images/tutorial/blue_no_win.png' height='500'></p></div>","null","","","","","","","","","","","","","","","","","","",""
"","html-keyboard-response","14","77422","0.0-14.0","752.9000000953674","<div class='center'><img src='run_exp/static/images/tutorial/blue.png' height='500'></p></div>","49","","","","","","","","","","","","","","","","","","",""
"","html-keyboard-response","15","78925","0.0-15.0","null","<div class='center'><p><img src='run_exp/static/images/tutorial/blue_win.png' height='500'></p></div>","null","","","","","","","","","","","","","","","","","","",""
"","html-keyboard-response","16","79464","0.0-16.0","536.2999997138977","<div class='center'><img src='run_exp/static/images/tutorial/blue.png' height='500'></p></div>","49","","","","","","","","","","","","","","","","","","",""
"","html-keyboard-response","17","80970","0.0-17.0","null","<div class='center'><p><img src='run_exp/static/images/tutorial/blue_win.png' height='500'></p></div>","null","","","","","","","","","","","","","","","","","","",""
"","html-keyboard-response","18","81289","0.0-18.0","318.2999997138977","<div class='center'><img src='run_exp/static/images/tutorial/blue.png' height='500'></p></div>","49","","","","","","","","","","","","","","","","","","",""
"","html-keyboard-response","19","82794","0.0-19.0","null","<div class='center'><p><img src='run_exp/static/images/tutorial/blue_win.png' height='500'></p></div>","null","","","","","","","","","","","","","","","","","","",""
"","html-keyboard-response","20","82947","0.0-20.0","152.40000009536743","<div class='center'><img src='run_exp/static/images/tutorial/blue.png' height='500'></p></div>","49","","","","","","","","","","","","","","","","","","",""
"","html-keyboard-response","21","84456","0.0-21.0","null","<div class='center'><p><img src='run_exp/static/images/tutorial/blue_no_win.png' height='500'></p></div>","null","","","","","","","","","","","","","","","","","","",""
"","html-keyboard-response","22","84483","0.0-22.0","26.59999990463257","<div class='center'><img src='run_exp/static/images/tutorial/blue.png' height='500'></p></div>","49","","","","","","","","","","","","","","","","","","",""
"","html-keyboard-response","23","85990","0.0-23.0","null","<div class='center'><p><img src='run_exp/static/images/tutorial/blue_win.png' height='500'></p></div>","null","","","","","","","","","","","","","","","","","","",""
"","html-keyboard-response","24","86297","0.0-24.0","306.30000019073486","<div class='center'><img src='run_exp/static/images/tutorial/blue.png' height='500'></p></div>","49","","","","","","","","","","","","","","","","","","",""
"","html-keyboard-response","25","87800","0.0-25.0","null","<div class='center'><p><img src='run_exp/static/images/tutorial/blue_win.png' height='500'></p></div>","null","","","","","","","","","","","","","","","","","","",""
"","html-keyboard-response","26","89475","0.0-26.0","1674.5","<div class='center'><p> See, he could rob the ships most of the time but not every time. </p><p><b>[Press the space bar to continue]</b></p></div>","32","","","","","","","","","","","","","","","","","","",""
"","html-keyboard-response","27","97233","0.0-27.0","7756.900000095367","<div class='center'><p>You will get to choose which of three pirates you want to rob the next ship. <p>Press the <b>‘1’</b> button on your keyboard to pick the pirate with the red beard.</p><p> Press <b>‘2’</b> to pick the pirate with the white beard.</p><p> Press <b>‘3’</b> to pick the pirate with the black beard.</p><p>Try picking a pirate now!</p><p><img src='run_exp/static/images/tutorial/all_pirates.png' height='500'></p></div>","50","","","","","","","","","","","","","","","","","","",""
"","html-keyboard-response","28","98939","0.0-28.0-0.0","1703.5999999046326","<div class='center'><p>This pirate could rob the ship!</p><p><img src='run_exp/static/images/tutorial/white_win.png' height='500'></p><p><b>[Press the space bar to continue]</b></p></div>","32","","","","","","","","","","","","","","","","","","",""
"","html-keyboard-response","29","100485","0.0-28.0-1.0","1546","<div class='center'><p>Now try choosing another</p><p><img src='run_exp/static/images/tutorial/all_pirates.png' height='500'></p></div>","49","","","","","","","","","","","","","","","","","","",""
"","html-keyboard-response","30","102429","0.0-29.0-0.0","1942.0999999046326","<div class='center'><p>This pirate could not rob the ship.</p><p><img src='run_exp/static/images/tutorial/red_no_win.png' height='500'></p><p><b>[Press the space bar to continue]</b></p></div>","32","","","","","","","","","","","","","","","","","","",""
"","html-keyboard-response","31","107721","0.0-30.0-0.0","5291.5","<div class='center'><p>If you don’t make your choice fast enough, you’ll have to wait a few seconds before you can make another one. </p><p>You can’t collect more gold coins. You just have to sit and wait.</p><p><img src='run_exp/static/images/miscellaneous/hurry_up.png' height='500'></p><p><b>[Press the space bar to continue]</b></p></div>","32","","","","","","","","","","","","","","","","","","",""
"","html-keyboard-response","32","130321","0.0-30.0-1.0","22597.300000190735","<div class='center'><p>Once you choose a pirate, you’ll be shown the ship they are robbing.</p><p>You will never rob the same ship twice.</p><p>Ships can be told apart from one another by the image on them.</p><p> Every time you see a ship, you will have to remember on which island you saw it.</p><p> Remembering correctly will help you win more bonus money!</p><p>A helpful strategy is to try to come up with a story of the object on the ship interacting with the current island scene.</p><p> For example, here, you could imagine a mug full of water in the desert. </p><p>For a ship with an apple on it on the forest island, you could imagine an apple falling from a tree in the forest.</p><p><img src='run_exp/static/images/tutorial/example_probe.png' height='500'></p><p><b>[Press the space bar to continue]</b></p></div>","32","","","","","","","","","","","","","","","","","","",""
"","html-keyboard-response","33","142754","0.0-30.0-2.0","12432.700000286102","<div class='center'><p>How good a pirate is at robbing ships will depend on the current island.</p><p> A pirate may have visited the island many times before and gained a lot of practice robbing ships there.</p><p>So, they're more likely to bring back gold coins than a pirate who has never visited this island before. </p><p><b>[Press the space bar to continue]</b></p></div>","32","","","","","","","","","","","","","","","","","","",""
"","html-keyboard-response","34","161876","0.0-30.0-3.0","19120.599999904633","<div class='center'><p>How good a pirate is at robbing ships can also change over the time spent on the island<p> Ships may hear from islanders about the pirates coming and will improve their protection against the attack. This may make it harder to rob them.</p><p> Ships may also become lazy and lower their protection. This may make it easier to rob them.</p><br><p>Things are always changing on the high seas! So, try your best to pay attention!</p><p><img src='run_exp/static/images/tutorial/contingency.png' height='500'></p><p><b>[Press the space bar to continue]</b></p></div>","32","","","","","","","","","","","","","","","","","","",""
"","html-keyboard-response","35","182745","0.0-30.0-4.0","20867.799999713898","<div class='center'><p>Let's go over the instructions quickly again.You have two important things to do: </p><b><p> 1. Pick the pirate who is the best at robbing ships on the current island.</p></b><b><p> 2. Remember on which island a ship was robbed.</p> </b><p>How much bonus money you make is based on both. </p><br><p>Let’s try a practice game. The game will start by showing you the pirates. First pick a pirate using the <b> 1, 2, 3 </b> buttons on your keyboard. When you are shown a ship, try to remember the island you’re on by making up a story.</p><p> You only have 3 seconds to pick a pirate, so please make a choice quickly! If you are too slow, you’ll have to wait a bit during the time out.</p><p> Don’t feel rushed, but please do try to make a choice every time.</p><p>This is just a practice game, so you’re not playing for money. </p><p> Good luck, remember press <b>'1'</b> to choose red beard, <b>'2'</b> to choose white beard, and <b>'3'</b> to choose black beard</p><p><b>[Press the space bar to begin the practice game]</b></p></div>","32","","","","","","","","","","","","","","","","","","",""
"","do_welcome","36","184261","0.0-30.0-5.0","null","","","","null","","","","","","","","","","","","","","","","",""
"","do_trial","37","189779","0.0-30.0-6.0","1002","","","","49","1,0,0","","","","","","","","","","","","","","","",""
"","html-keyboard-response","38","190797","0.0-31.0-0.0","null","<p></p>","null","","","","","","","","","","","","","","","","","","",""
"","do_trial","39","196162","0.0-31.0-1.0","857.6000003814697","","","","49","1,1,0","","","","","","","","","","","","","","","",""
"","html-keyboard-response","40","197178","0.0-32.0-0.0","null","<p></p>","null","","","","","","","","","","","","","","","","","","",""
"","do_trial","41","202360","0.0-32.0-1.0","672.0999999046326","","","","49","1,0,1","","","","","","","","","","","","","","","",""
"","html-keyboard-response","42","203373","0.0-33.0-0.0","null","<p></p>","null","","","","","","","","","","","","","","","","","","",""
"","do_trial","43","208444","0.0-33.0-1.0","551.5","","","","49","0,1,0","","","","","","","","","","","","","","","",""
"","html-keyboard-response","44","209455","0.0-34.0-0.0","null","<p></p>","null","","","","","","","","","","","","","","","","","","",""
"","do_trial","45","214569","0.0-34.0-1.0","608.2000002861023","","","","49","1,0,0","","","","","","","","","","","","","","","",""
"","do_bye","46","216078","0.0-35.0-0.0","null","","","","null","","","","","","","","","","","","","","","","",""
"","do_travel","47","222088","0.0-35.0-1.0","null","","","","null","","","","","","","","","","","","","","","","",""
"","do_welcome","48","223601","0.0-35.0-2.0","null","","","","null","","","","","","","","","","","","","","","","",""
"","do_trial","49","229335","0.0-35.0-3.0","1204.7000002861023","","","","51","1,0,0","","","","","","","","","","","","","","","",""
"","html-keyboard-response","50","230340","0.0-36.0-0.0","null","<p></p>","null","","","","","","","","","","","","","","","","","","",""
"","do_trial","51","235429","0.0-36.0-1.0","582.4000000953674","","","","51","1,0,1","","","","","","","","","","","","","","","",""
"","html-keyboard-response","52","236446","0.0-37.0-0.0","null","<p></p>","null","","","","","","","","","","","","","","","","","","",""
"","do_trial","53","242880","0.0-37.0-1.0","1917.5","","","","51","1,1,0","","","","","","","","","","","","","","","",""
"","html-keyboard-response","54","243887","0.0-38.0-0.0","null","<p></p>","null","","","","","","","","","","","","","","","","","","",""
"","do_trial","55","248859","0.0-38.0-1.0","461.59999990463257","","","","51","0,0,1","","","","","","","","","","","","","","","",""
"","html-keyboard-response","56","249867","0.0-39.0-0.0","null","<p></p>","null","","","","","","","","","","","","","","","","","","",""
"","do_trial","57","256121","0.0-39.0-1.0","1745.0999999046326","","","","51","1,0,1","","","","","","","","","","","","","","","",""
"","html-keyboard-response","58","259331","0.0-40.0-0.0","3207.2999997138977","<div class='center'><p><img src='run_exp/static/images/tutorial/prac_best_pirate.png'  height='500'></p></div>","49","","","","","","","","","","","","","","","","","","",""
"","html-keyboard-response","59","261445","0.0-41.0-0.0","2112.2000002861023","<div class='center'><p>That's correct! Red beard was the best.</p><p><b>[Press the space bar to continue]</b></p></div>","32","","","","","","","","","","","","","","","","","","",""
"","html-keyboard-response","60","265130","0.0-41.0-1.0","3684.199999809265","<div class='center'><p><img src='run_exp/static/images/tutorial/prac_source.png'  height='500'></p></div>","50","","","","","","","","","","","","","","","","","","",""
"","html-keyboard-response","61","265909","0.0-42.0-0.0","778.0999999046326","<div class='center'><p>That's correct! You saw this ship on the cavern island.</p><p><b>[Press the space bar to continue]</b></p></div>","32","","","","","","","","","","","","","","","","","","",""
"","html-keyboard-response","62","270748","0.0-42.0-1.0","4837.699999809265","<div class='center'><p>Good job on the practice game! Now, you will be asked you some true or false questions to make sure you really understand the rules of the game.</p><p> Press <b>'1'</b> on the keyboard for true and press <b>'2'</b> for false.</p><p><b>[Press the space bar to begin the quiz]</b></p></div>","32","","","","","","","","","","","","","","","","","","",""
"","html-keyboard-response","63","273916","0.0-42.0-2.0","3167","<div class='center'><p>You win bonus money by making choices as fast as possible.</p><p>Press 1 for true and press  2 for false.</p></div>","49","","","","","","","","","","","","","","","","","","",""
"","html-keyboard-response","64","276097","0.0-43.0-0.0","2179.8999996185303","<<div class='center'><p>That’s incorrect! You win bonus money by collecting as many gold coins as possible!</p><p><b>[press the space bar to continue with the quiz]</b></p></div>","32","","","","","","","","","","","","","","","","","","",""
"","html-keyboard-response","65","282651","0.0-43.0-1.0","6553.599999904633","<div class='center'><p>You press the <b>‘3’</b> button on the keyboard to choose the red bearded pirate. </p><p>Press 1 for true and press  2 for false.</p></div>","50","","","","","","","","","","","","","","","","","","",""
"","html-keyboard-response","66","283828","0.0-44.0-0.0","1175.1999998092651","<div class='center'><p>That's correct!</p> <p><b>[press the space bar to continue with the quiz]</b></p></div>","32","","","","","","","","","","","","","","","","","","",""
"","html-keyboard-response","67","290085","0.0-44.0-1.0","6257.099999904633","<div class='center'><p>The pirate who is the best at robbing ships on the first island will be the best on every other island.</p><p>Press 1 for true and press  2 for false.</p></div>","50","","","","","","","","","","","","","","","","","","",""
"","html-keyboard-response","68","290970","0.0-45.0-0.0","883.5999999046326","<div class='center'><p>That's correct!</p> <p><b>[press the space bar to continue with the quiz]</b></p></div>","32","","","","","","","","","","","","","","","","","","",""
"","html-keyboard-response","69","293711","0.0-45.0-1.0","2739.9000000953674","<div class='center'><p>You should remember the island where a pirate robbed a ship.</p><p>Press 1 for true and press  2 for false.</p></div>","49","","","","","","","","","","","","","","","","","","",""
"","html-keyboard-response","70","294413","0.0-46.0-0.0","699.9000000953674","<div class='center'><p>That's correct!</p> <p><b>[press the space bar to continue with the quiz]</b></p></div>","32","","","","","","","","","","","","","","","","","","",""
"","html-keyboard-response","71","298096","0.0-47.0-0.0","3683.1000003814697","<div class='center'><p>Oops, you missed some questions. Now that you’ve heard the correct answers. Try the quiz again! If you fail the quiz too many times, you won’t be able to do the experiment. </p> <p><br>[press the space bar to repeat the quiz]</br></p></div>","32","","","","","","","","","","","","","","","","","","",""
"","html-keyboard-response","72","299839","0.0-47.0-1.0","1741.5","<div class='center'><p>You win bonus money by making choices as fast as possible.</p><p>Press 1 for true and press  2 for false.</p></div>","50","","","","","","","","","","","","","","","","","","",""
"","html-keyboard-response","73","300450","0.0-48.0-0.0","610.0999999046326","<div class='center'><p>That's correct!</p> <p><b>[press the space bar to continue with the quiz]</b></p></div>","32","","","","","","","","","","","","","","","","","","",""
"","html-keyboard-response","74","302310","0.0-48.0-1.0","1859.0999999046326","<div class='center'><p>You press the <b>‘3’</b> button on the keyboard to choose the red bearded pirate. </p><p>Press 1 for true and press  2 for false.</p></div>","50","","","","","","","","","","","","","","","","","","",""
"","html-keyboard-response","75","302797","0.0-49.0-0.0","486.40000009536743","<div class='center'><p>That's correct!</p> <p><b>[press the space bar to continue with the quiz]</b></p></div>","32","","","","","","","","","","","","","","","","","","",""
"","html-keyboard-response","76","305487","0.0-49.0-1.0","2689.7000002861023","<div class='center'><p>The pirate who is the best at robbing ships on the first island will be the best on every other island.</p><p>Press 1 for true and press  2 for false.</p></div>","50","","","","","","","","","","","","","","","","","","",""
"","html-keyboard-response","77","306153","0.0-50.0-0.0","664.8000001907349","<div class='center'><p>That's correct!</p> <p><b>[press the space bar to continue with the quiz]</b></p></div>","32","","","","","","","","","","","","","","","","","","",""
"","html-keyboard-response","78","307427","0.0-50.0-1.0","1273","<div class='center'><p>You should remember the island where a pirate robbed a ship.</p><p>Press 1 for true and press  2 for false.</p></div>","49","","","","","","","","","","","","","","","","","","",""
"","html-keyboard-response","79","307964","0.0-51.0-0.0","528.9000000953674","<div class='center'><p>That's correct!</p> <p><b>[press the space bar to continue with the quiz]</b></p></div>","32","","","","","","","","","","","","","","","","","","",""
"","html-keyboard-response","80","309156","0.0-52.0-0.0","1191.5","<div class='center'><p>Good job! You’re now ready to move on to the real game!</p> <p><br>[press the space bar to begin!]</br></p></div>","32","","","","","","","","","","","","","","","","","","",""
"","do_welcome","81","310667","0.0-53.0-0.0","null","","","","null","","","","","","","","","","","","","","","","",""
"","do_trial","82","316462","0.0-54.0-0.0","1235.5999999046326","","","","50","0,0,0","0","countryside","0","probe-193","0.6","0.3","0.1","0","","","","","","","",""
"","html-keyboard-response","83","317476","0.0-54.0-1.0","null","<p></p>","null","","","","","","","","","","","","","","","","","","",""
"","do_trial","84","322593","0.0-55.0-0.0","581.7000002861023","","","","50","1,0,0","0","countryside","1","probe-227","0.5971375376223524","0.22448330515011186","0.15245743098261472","0","","","","","","","",""
"","html-keyboard-response","85","323603","0.0-55.0-1.0","null","<p></p>","null","","","","","","","","","","","","","","","","","","",""
"","do_trial","86","328780","0.0-56.0-0.0","628.5999999046326","","","","50","0,0,0","0","countryside","2","probe-61","0.6159446964951322","0.30749762312869416","0.09897611623014989","0","","","","","","","",""
"","html-keyboard-response","87","329784","0.0-56.0-1.0","null","<p></p>","null","","","","","","","","","","","","","","","","","","",""
"","do_trial","88","334747","0.0-57.0-0.0","423.90000009536743","","","","51","0,0,0","0","countryside","3","probe-10","0.6465296342326045","0.3876625551223003","0.09300086507337044","0","","","","","","","",""
"","html-keyboard-response","89","335755","0.0-57.0-1.0","null","<p></p>","null","","","","","","","","","","","","","","","","","","",""
"","do_trial","90","340660","0.0-58.0-0.0","353.09999990463257","","","","50","0,0,0","0","countryside","4","probe-144","0.6226808164924728","0.43344906302675534","0.0654404376436512","0","","","","","","","",""
"","html-keyboard-response","91","341670","0.0-58.0-1.0","null","<p></p>","null","","","","","","","","","","","","","","","","","","",""
"","do_trial","92","346563","0.0-59.0-0.0","343","","","","50","1,1,0","0","countryside","5","probe-25","0.6515267850451362","0.6005906578216651","0.10658344850146899","1","","","","","","","",""
"","html-keyboard-response","93","347568","0.0-59.0-1.0","null","<p></p>","null","","","","","","","","","","","","","","","","","","",""
"","do_trial","94","352351","0.0-60.0-0.0","246.09999990463257","","","","50","1,1,0","0","countryside","6","probe-186","0.5528557523993837","0.5544688744293307","0.14561051826858393","1","","","","","","","",""
"","html-keyboard-response","95","353365","0.0-60.0-1.0","null","<p></p>","null","","","","","","","","","","","","","","","","","","",""
"","do_trial","96","358392","0.0-61.0-0.0","495.7999997138977","","","","50","0,0,0","0","countryside","7","probe-152","0.44988972038334446","0.4420434604837598","0.16361118686293977","0","","","","","","","",""
"","html-keyboard-response","97","359400","0.0-61.0-1.0","null","<p></p>","null","","","","","","","","","","","","","","","","","","",""
"","do_trial","98","364195","0.0-62.0-0.0","256.5","","","","50","1,1,0","0","countryside","8","probe-95","0.6304923388546079","0.36804792612829923","0.13075584751158834","1","","","","","","","",""
"","html-keyboard-response","99","365210","0.0-62.0-1.0","null","<p></p>","null","","","","","","","","","","","","","","","","","","",""
"","do_trial","100","370035","0.0-63.0-0.0","277.30000019073486","","","","50","1,0,0","0","countryside","9","probe-14","0.5791898369807166","0.3640659887245049","0.0775387661507971","0","","","","","","","",""
"","html-keyboard-response","101","371052","0.0-63.0-1.0","null","<p></p>","null","","","","","","","","","","","","","","","","","","",""
"","do_trial","102","376024","0.0-64.0-0.0","435.2999997138977","","","","50","1,0,0","0","countryside","10","probe-55","0.5363627501986443","0.3955400373806597","0.2279904746743037","0","","","","","","","",""
"","html-keyboard-response","103","377038","0.0-64.0-1.0","null","<p></p>","null","","","","","","","","","","","","","","","","","","",""
"","do_trial","104","381815","0.0-65.0-0.0","236.2999997138977","","","","49","1,0,0","0","countryside","11","probe-23","0.5220884142243295","0.42631006296886226","0.22546081834202036","1","","","","","","","",""
"","html-keyboard-response","105","382818","0.0-65.0-1.0","null","<p></p>","null","","","","","","","","","","","","","","","","","","",""
"","do_trial","106","387779","0.0-66.0-0.0","410.09999990463257","","","","49","1,0,0","0","countryside","12","probe-134","0.5997511630547984","0.29477000778421675","0.24772930579476585","1","","","","","","","",""
"","html-keyboard-response","107","388794","0.0-66.0-1.0","null","<p></p>","null","","","","","","","","","","","","","","","","","","",""
"","do_trial","108","393691","0.0-67.0-0.0","348.80000019073486","","","","50","0,0,0","0","countryside","13","probe-66","0.5625068890226681","0.4270272736527334","0.1784307052736396","0","","","","","","","",""
"","html-keyboard-response","109","394693","0.0-67.0-1.0","null","<p></p>","null","","","","","","","","","","","","","","","","","","",""
"","do_trial","110","400288","0.0-68.0-0.0","1037.5","","","","50","1,0,1","0","countryside","14","probe-168","0.7075437145574469","0.3956050774421089","0.1960572268855716","0","","","","","","","",""
"","html-keyboard-response","111","401292","0.0-68.0-1.0","null","<p></p>","null","","","","","","","","","","","","","","","","","","",""
"","do_trial","112","406117","0.0-69.0-0.0","290.40000009536743","","","","49","1,1,0","0","countryside","15","probe-44","0.6390344406445682","0.4080385438209536","0.2589715044195616","1","","","","","","","",""
"","html-keyboard-response","113","407123","0.0-69.0-1.0","null","<p></p>","null","","","","","","","","","","","","","","","","","","",""
"","do_trial","114","412075","0.0-70.0-0.0","415.7999997138977","","","","49","0,0,0","0","countryside","16","probe-46","0.4971788285442533","0.4154832314737085","0.1328972321630018","0","","","","","","","",""
"","html-keyboard-response","115","413089","0.0-70.0-1.0","null","<p></p>","null","","","","","","","","","","","","","","","","","","",""
"","do_trial","116","418354","0.0-71.0-0.0","729.3000001907349","","","","50","1,0,0","0","countryside","17","probe-86","0.4797043633551336","0.3067613750478638","0.05794769389704183","0","","","","","","","",""
"","html-keyboard-response","117","419367","0.0-71.0-1.0","null","<p></p>","null","","","","","","","","","","","","","","","","","","",""
"","do_trial","118","424225","0.0-72.0-0.0","314.5","","","","49","0,0,0","0","countryside","18","probe-05","0.4392855241969098","0.3325250858230254","0.07113937184903235","0","","","","","","","",""
"","html-keyboard-response","119","425230","0.0-72.0-1.0","null","<p></p>","null","","","","","","","","","","","","","","","","","","",""
"","do_trial","120","430170","0.0-73.0-0.0","391.30000019073486","","","","49","1,0,0","0","countryside","19","probe-150","0.5710377345292923","0.21477608349735028","0.07013746968589044","1","","","","","","","",""
"","html-keyboard-response","121","431178","0.0-73.0-1.0","null","<p></p>","null","","","","","","","","","","","","","","","","","","",""
"","do_trial","122","435943","0.0-74.0-0.0","220.69999980926514","","","","49","1,0,0","0","countryside","20","probe-173","0.6734238936170052","0.21734634829336444","0.1202378358284528","1","","","","","","","",""
"","html-keyboard-response","123","436945","0.0-74.0-1.0","null","<p></p>","null","","","","","","","","","","","","","","","","","","",""
"","do_trial","124","441734","0.0-75.0-0.0","246","","","","49","1,0,0","0","countryside","21","probe-116","0.5491408584455121","0.23549435690566878","0.10602560546550212","1","","","","","","","",""
"","html-keyboard-response","125","442741","0.0-75.0-1.0","null","<p></p>","null","","","","","","","","","","","","","","","","","","",""
"","do_trial","126","447474","0.0-76.0-0.0","182.59999990463257","","","","49","0,0,0","0","countryside","22","probe-83","0.5814664235390842","0.2410618003777412","0.1076620381361746","0","","","","","","","",""
"","html-keyboard-response","127","448480","0.0-76.0-1.0","null","<p></p>","null","","","","","","","","","","","","","","","","","","",""
"","do_trial","128","453445","0.0-77.0-0.0","428.6000003814697","","","","49","1,1,0","0","countryside","23","probe-90","0.6279035205536595","0.22637637228707266","0.05250643660203614","1","","","","","","","",""
"","html-keyboard-response","129","454463","0.0-77.0-1.0","null","<p></p>","null","","","","","","","","","","","","","","","","","","",""
"","do_trial","130","459561","0.0-78.0-0.0","538.4000000953674","","","","49","1,1,0","0","countryside","24","probe-70","0.6047089789241828","0.33862443908149603","0.19973879735181618","1","","","","","","","",""
"","html-keyboard-response","131","460564","0.0-78.0-1.0","null","<p></p>","null","","","","","","","","","","","","","","","","","","",""
"","do_trial","132","465508","0.0-79.0-0.0","402.80000019073486","","","","49","0,1,0","0","countryside","25","probe-123","0.6263869908249821","0.3140121199150747","0.2142418487989478","0","","","","","","","",""
"","html-keyboard-response","133","466525","0.0-79.0-1.0","null","<p></p>","null","","","","","","","","","","","","","","","","","","",""
"","do_trial","134","471503","0.0-80.0-0.0","437.80000019073486","","","","49","0,0,1","0","countryside","26","probe-230","0.662286202334592","0.179146991600322","0.1792326912550202","0","","","","","","","",""
"","html-keyboard-response","135","472518","0.0-80.0-1.0","null","<p></p>","null","","","","","","","","","","","","","","","","","","",""
"","do_trial","136","477379","0.0-81.0-0.0","323.09999990463257","","","","49","1,1,0","0","countryside","27","probe-51","0.6591867982562932","0.22585818451418024","0.20931337843807524","1","","","","","","","",""
"","html-keyboard-response","137","478392","0.0-81.0-1.0","null","<p></p>","null","","","","","","","","","","","","","","","","","","",""
"","do_trial","138","483257","0.0-82.0-0.0","311.59999990463257","","","","49","1,0,0","0","countryside","28","probe-97","0.6222327616237305","0.2991115061214281","0.22763338226211044","1","","","","","","","",""
"","html-keyboard-response","139","484273","0.0-82.0-1.0","null","<p></p>","null","","","","","","","","","","","","","","","","","","",""
"","do_trial","140","489347","0.0-83.0-0.0","537","","","","49","1,1,0","0","countryside","29","probe-151","0.5862454005194565","0.1999722767032197","0.12740272582032527","1","","","","","","","",""
"","html-keyboard-response","141","490353","0.0-83.0-1.0","null","<p></p>","null","","","","","","","","","","","","","","","","","","",""
"","do_bye","142","491858","0.0-84.0-0.0","null","","","","null","","","","","","","","","","","","","","","","",""
"","do_travel","143","497862","0.0-85.0-0.0","null","","","","null","","","","","","","","","","","","","","","","",""
"","do_welcome","144","499372","0.0-85.0-1.0","null","","","","null","","","","","","","","","","","","","","","","",""
"","do_trial","145","506109","0.0-86.0-0.0","2176.5999999046326","","","","50","1,1,0","1","coast","30","probe-126","1","0.3778624987859158","0.08003603797800848","1","","","","","","","",""
"","html-keyboard-response","146","507118","0.0-86.0-1.0","null","<p></p>","null","","","","","","","","","","","","","","","","","","",""
"","do_trial","147","512201","0.0-87.0-0.0","549","","","","50","1,0,0","1","coast","31","probe-64","1","0.24045618536339666","0.11603884754278848","0","","","","","","","",""
"","html-keyboard-response","148","513212","0.0-87.0-1.0","null","<p></p>","null","","","","","","","","","","","","","","","","","","",""
"","do_trial","149","518096","0.0-88.0-0.0","349","","","","50","1,0,0","1","coast","32","probe-125","1","0.265204888296667","0.13185290111198528","0","","","","","","","",""
"","html-keyboard-response","150","519104","0.0-88.0-1.0","null","<p></p>","null","","","","","","","","","","","","","","","","","","",""
"","do_trial","151","524205","0.0-89.0-0.0","571.0999999046326","","","","50","1,0,0","1","coast","33","probe-226","0.8777482918329288","0.2846609404155063","0.16759260432604914","0","","","","","","","",""
"","html-keyboard-response","152","525210","0.0-89.0-1.0","null","<p></p>","null","","","","","","","","","","","","","","","","","","",""
"","do_trial","153","530750","0.0-90.0-0.0","1010.9000000953674","","","","51","1,1,0","1","coast","34","probe-88","0.6936396051550352","0.2283788102592217","0.06308452230740139","0","","","","","","","",""
"","html-keyboard-response","154","531758","0.0-90.0-1.0","null","<p></p>","null","","","","","","","","","","","","","","","","","","",""
"","do_trial","155","536546","0.0-91.0-0.0","249.7000002861023","","","","51","1,1,0","1","coast","35","probe-143","0.6903918818124862","0.27204565915177176","0.11215796643424542","0","","","","","","","",""
"","html-keyboard-response","156","537554","0.0-91.0-1.0","null","<p></p>","null","","","","","","","","","","","","","","","","","","",""
"","do_trial","157","542346","0.0-92.0-0.0","258.40000009536743","","","","51","0,1,0","1","coast","36","probe-13","0.6710611927977067","0.3549164167027732","0.08429658938391206","0","","","","","","","",""
"","html-keyboard-response","158","543348","0.0-92.0-1.0","null","<p></p>","null","","","","","","","","","","","","","","","","","","",""
"","do_trial","159","548074","0.0-93.0-0.0","179.5","","","","49","0,0,0","1","coast","37","probe-68","0.6444022574361633","0.3827425135934675","0.10779499243763244","0","","","","","","","",""
"","html-keyboard-response","160","549082","0.0-93.0-1.0","null","<p></p>","null","","","","","","","","","","","","","","","","","","",""
"","do_trial","161","554204","0.0-94.0-0.0","582.2000002861023","","","","49","0,1,0","1","coast","38","probe-77","0.7154748203326972","0.31124906077251047","0.11657516237381549","0","","","","","","","",""
"","html-keyboard-response","162","555221","0.0-94.0-1.0","null","<p></p>","null","","","","","","","","","","","","","","","","","","",""
"","do_trial","163","559948","0.0-95.0-0.0","189.30000019073486","","","","50","1,0,0","1","coast","39","probe-207","0.5830899766355474","0.30071403764766474","0.07142830792452717","0","","","","","","","",""
"","html-keyboard-response","164","560964","0.0-95.0-1.0","null","<p></p>","null","","","","","","","","","","","","","","","","","","",""
"","do_trial","165","565625","0.0-96.0-0.0","124.39999961853027","","","","50","0,0,0","1","coast","40","probe-20","0.514212946817278","0.27192992419457584","0.0638531854726274","0","","","","","","","",""
"","html-keyboard-response","166","566642","0.0-96.0-1.0","null","<p></p>","null","","","","","","","","","","","","","","","","","","",""
"","do_trial","167","571558","0.0-97.0-0.0","364","","","","50","1,0,0","1","coast","41","probe-127","0.5783335021974597","0.15701816103236416","0.1469532512843239","0","","","","","","","",""
"","html-keyboard-response","168","572560","0.0-97.0-1.0","null","<p></p>","null","","","","","","","","","","","","","","","","","","",""
"","do_trial","169","578829","0.0-98.0-0.0","1733.6999998092651","","","","50","0,0,1","1","coast","42","probe-178","0.3561964176440936","0.18903468959709238","0.3523072802508551","0","","","","","","","",""
"","html-keyboard-response","170","579831","0.0-98.0-1.0","null","<p></p>","null","","","","","","","","","","","","","","","","","","",""
"","do_trial","171","584875","0.0-99.0-0.0","489.40000009536743","","","","50","0,0,0","1","coast","43","probe-01","0.26929830379173636","0.2836621663937088","0.42028463522916754","0","","","","","","","",""
"","html-keyboard-response","172","585893","0.0-99.0-1.0","null","<p></p>","null","","","","","","","","","","","","","","","","","","",""
"","do_trial","173","590617","0.0-100.0-0.0","175.19999980926514","","","","50","0,0,0","1","coast","44","probe-122","0.3232480444992496","0.30536015823757906","0.4416151264901671","0","","","","","","","",""
"","html-keyboard-response","174","591625","0.0-100.0-1.0","null","<p></p>","null","","","","","","","","","","","","","","","","","","",""
"","do_trial","175","596512","0.0-101.0-0.0","336.5","","","","50","0,1,0","1","coast","45","probe-214","0.4182298810636064","0.2581586667544744","0.6790185548711638","1","","","","","","","",""
"","html-keyboard-response","176","597514","0.0-101.0-1.0","null","<p></p>","null","","","","","","","","","","","","","","","","","","",""
"","do_trial","177","602395","0.0-102.0-0.0","338.59999990463257","","","","50","0,0,0","1","coast","46","probe-92","0.504153761117554","0.09487935074985643","0.484265061043361","0","","","","","","","",""
"","html-keyboard-response","178","603398","0.0-102.0-1.0","null","<p></p>","null","","","","","","","","","","","","","","","","","","",""
"","do_trial","179","608377","0.0-103.0-0.0","443.09999990463257","","","","50","1,0,0","1","coast","47","probe-80","0.45218742278454904","0.12067044576762662","0.5267072873355453","0","","","","","","","",""
"","html-keyboard-response","180","609391","0.0-103.0-1.0","null","<p></p>","null","","","","","","","","","","","","","","","","","","",""
"","do_trial","181","614231","0.0-104.0-0.0","308.5","","","","50","0,1,0","1","coast","48","probe-219","0.3940848730452656","0.19771445768013152","0.41949705364539497","1","","","","","","","",""
"","html-keyboard-response","182","615248","0.0-104.0-1.0","null","<p></p>","null","","","","","","","","","","","","","","","","","","",""
"","do_trial","183","620119","0.0-105.0-0.0","325.40000009536743","","","","50","1,0,0","1","coast","49","probe-185","0.5579314700376103","0.133726153736142","0.6459309458902891","0","","","","","","","",""
"","html-keyboard-response","184","621136","0.0-105.0-1.0","null","<p></p>","null","","","","","","","","","","","","","","","","","","",""
"","do_trial","185","626330","0.0-106.0-0.0","648.2000002861023","","","","50","1,0,1","1","coast","50","probe-31","0.4668333745285129","0.09663279584923848","0.7150881646695093","0","","","","","","","",""
"","html-keyboard-response","186","627346","0.0-106.0-1.0","null","<p></p>","null","","","","","","","","","","","","","","","","","","",""
"","do_trial","187","634185","0.0-107.0-0.0","2297.9000000953674","","","","50","0,0,1","1","coast","51","probe-131","0.48292650412294585","0.0984700601752604","0.7019647309516602","0","","","","","","","",""
"","html-keyboard-response","188","635187","0.0-107.0-1.0","null","<p></p>","null","","","","","","","","","","","","","","","","","","",""
"","do_trial","189","640001","0.0-108.0-0.0","272.2999997138977","","","","50","0,1,1","1","coast","52","probe-132","0.4244340117829636","0.1435258820198577","0.5839212268399401","1","","","","","","","",""
"","html-keyboard-response","190","641014","0.0-108.0-1.0","null","<p></p>","null","","","","","","","","","","","","","","","","","","",""
"","do_trial","191","646099","0.0-109.0-0.0","546.8999996185303","","","","50","0,0,0","1","coast","53","probe-163","0.3691165792545292","0.06647988472646033","0.6316070516967719","0","","","","","","","",""
"","html-keyboard-response","192","647109","0.0-109.0-1.0","null","<p></p>","null","","","","","","","","","","","","","","","","","","",""
"","do_trial","193","652019","0.0-110.0-0.0","361.90000009536743","","","","50","0,0,1","1","coast","54","probe-190","0.4685493093393922","0.1251101766536836","0.6574029067927682","0","","","","","","","",""
"","html-keyboard-response","194","653021","0.0-110.0-1.0","null","<p></p>","null","","","","","","","","","","","","","","","","","","",""
"","do_trial","195","660306","0.0-111.0-0.0","2753.699999809265","","","","50","0,0,1","1","coast","55","probe-07","0.37180245429939396","0.27682215590907744","0.7379302491706412","0","","","","","","","",""
"","html-keyboard-response","196","661323","0.0-111.0-1.0","null","<p></p>","null","","","","","","","","","","","","","","","","","","",""
"","do_trial","197","666222","0.0-112.0-0.0","357.30000019073486","","","","50","0,0,1","1","coast","56","probe-52","0.34108093096116193","0.1992749205881452","0.645491615042292","0","","","","","","","",""
"","html-keyboard-response","198","667238","0.0-112.0-1.0","null","<p></p>","null","","","","","","","","","","","","","","","","","","",""
"","do_trial","199","672125","0.0-113.0-0.0","349.7000002861023","","","","50","1,1,0","1","coast","57","probe-72","0.2344201335846222","0.12727316460750168","0.6149327504405538","1","","","","","","","",""
"","html-keyboard-response","200","673128","0.0-113.0-1.0","null","<p></p>","null","","","","","","","","","","","","","","","","","","",""
"","do_trial","201","677923","0.0-114.0-0.0","251.5","","","","50","1,1,1","1","coast","58","probe-43","0.3190316249703484","0.11345458746274435","0.7127583517909639","1","","","","","","","",""
"","html-keyboard-response","202","678931","0.0-114.0-1.0","null","<p></p>","null","","","","","","","","","","","","","","","","","","",""
"","do_trial","203","683779","0.0-115.0-0.0","302.8999996185303","","","","50","0,0,1","1","coast","59","probe-108","0.14712674093325462","0.06568504381979269","0.7780903384249294","0","","","","","","","",""
"","html-keyboard-response","204","684781","0.0-115.0-1.0","null","<p></p>","null","","","","","","","","","","","","","","","","","","",""
"","do_trial","205","689958","0.0-116.0-0.0","636.5","","","","50","1,0,1","1","coast","60","probe-205","0.36655610929528004","0.20368033870448735","0.725975082869022","0","","","","","","","",""
"","html-keyboard-response","206","690969","0.0-116.0-1.0","null","<p></p>","null","","","","","","","","","","","","","","","","","","",""
"","do_trial","207","695893","0.0-117.0-0.0","375.59999990463257","","","","50","0,0,0","1","coast","61","probe-74","0.4309765822283925","0.20009148163730714","0.5524501420178235","0","","","","","","","",""
"","html-keyboard-response","208","696906","0.0-117.0-1.0","null","<p></p>","null","","","","","","","","","","","","","","","","","","",""
"","do_trial","209","702085","0.0-118.0-0.0","634.9000000953674","","","","50","0,1,1","1","coast","62","probe-199","0.3385681559564505","0.1501331913962771","0.5521596541359753","1","","","","","","","",""
"","html-keyboard-response","210","703088","0.0-118.0-1.0","null","<p></p>","null","","","","","","","","","","","","","","","","","","",""
"","do_trial","211","707854","0.0-119.0-0.0","222.89999961853027","","","","50","0,1,1","1","coast","63","probe-124","0.24462304110032074","0.07238108804270205","0.6186488699750953","1","","","","","","","",""
"","html-keyboard-response","212","708856","0.0-119.0-1.0","null","<p></p>","null","","","","","","","","","","","","","","","","","","",""
"","do_trial","213","713634","0.0-120.0-0.0","237.59999990463257","","","","50","0,0,1","1","coast","64","probe-203","0.2323841323164568","0.14791191637288412","0.6590788393801372","0","","","","","","","",""
"","html-keyboard-response","214","714647","0.0-120.0-1.0","null","<p></p>","null","","","","","","","","","","","","","","","","","","",""
"","do_trial","215","719716","0.0-121.0-0.0","513.5999999046326","","","","50","0,0,1","1","coast","65","probe-04","0.35282991753217685","0.12357945200466974","0.496714969876467","0","","","","","","","",""
"","html-keyboard-response","216","720723","0.0-121.0-1.0","null","<p></p>","null","","","","","","","","","","","","","","","","","","",""
"","do_trial","217","725641","0.0-122.0-0.0","380.5","","","","50","0,0,1","1","coast","66","probe-148","0.3749488559079051","0.06870146073487039","0.5016736631655209","0","","","","","","","",""
"","html-keyboard-response","218","726647","0.0-122.0-1.0","null","<p></p>","null","","","","","","","","","","","","","","","","","","",""
"","do_trial","219","731597","0.0-123.0-0.0","403.19999980926514","","","","50","0,0,0","1","coast","67","probe-140","0.24417325465627185","0.1383091435472563","0.5696036801801585","0","","","","","","","",""
"","html-keyboard-response","220","732610","0.0-123.0-1.0","null","<p></p>","null","","","","","","","","","","","","","","","","","","",""
"","do_trial","221","737536","0.0-124.0-0.0","369","","","","50","0,0,0","1","coast","68","probe-11","0.22003016158123664","0.08557504728229086","0.5746125083068645","0","","","","","","","",""
"","html-keyboard-response","222","738555","0.0-124.0-1.0","null","<p></p>","null","","","","","","","","","","","","","","","","","","",""
"","do_trial","223","743431","0.0-125.0-0.0","344.5","","","","50","0,0,0","1","coast","69","probe-141","0.2813932156400649","0.17401409774949067","0.6382059998151803","0","","","","","","","",""
"","html-keyboard-response","224","744444","0.0-125.0-1.0","null","<p></p>","null","","","","","","","","","","","","","","","","","","",""
"","do_bye","225","745966","0.0-126.0-0.0","null","","","","null","","","","","","","","","","","","","","","","",""
"","do_travel","226","751973","0.0-127.0-0.0","null","","","","null","","","","","","","","","","","","","","","","",""
"","do_welcome","227","753483","0.0-127.0-1.0","null","","","","null","","","","","","","","","","","","","","","","",""
"","do_trial","228","759000","0.0-128.0-0.0","972.4000000953674","","","","51","0,1,1","2","city","70","probe-65","0.34768269349541825","0.13430663523762137","1","1","","","","","","","",""
"","html-keyboard-response","229","760004","0.0-128.0-1.0","null","<p></p>","null","","","","","","","","","","","","","","","","","","",""
"","do_trial","230","764817","0.0-129.0-0.0","265","","","","51","0,0,1","2","city","71","probe-54","0.4598512981306929","0.1141659138676688","1","1","","","","","","","",""
"","html-keyboard-response","231","765831","0.0-129.0-1.0","null","<p></p>","null","","","","","","","","","","","","","","","","","","",""
"","do_trial","232","770618","0.0-130.0-0.0","246.69999980926514","","","","51","0,0,1","2","city","72","probe-58","0.35996173861236685","0.14766713438283358","0.7440510502945353","1","","","","","","","",""
"","html-keyboard-response","233","771634","0.0-130.0-1.0","null","<p></p>","null","","","","","","","","","","","","","","","","","","",""
"","do_trial","234","776467","0.0-131.0-0.0","292.5","","","","51","0,1,0","2","city","73","probe-96","0.21953574284704744","0.09842313365965026","0.5961163182824737","0","","","","","","","",""
"","html-keyboard-response","235","777468","0.0-131.0-1.0","null","<p></p>","null","","","","","","","","","","","","","","","","","","",""
"","do_trial","236","782483","0.0-132.0-0.0","463.2999997138977","","","","51","0,0,0","2","city","74","probe-162","0.3328653635643108","0.06785501290800361","0.6457121243271269","0","","","","","","","",""
"","html-keyboard-response","237","783500","0.0-132.0-1.0","null","<p></p>","null","","","","","","","","","","","","","","","","","","",""
"","do_trial","238","789440","0.0-133.0-0.0","1397.5999999046326","","","","51","1,0,0","2","city","75","probe-171","0.3808537771199658","0.057452494051257325","0.674310512683904","0","","","","","","","",""
"","html-keyboard-response","239","790444","0.0-133.0-1.0","null","<p></p>","null","","","","","","","","","","","","","","","","","","",""
"","do_trial","240","795321","0.0-134.0-0.0","326.90000009536743","","","","51","0,0,0","2","city","76","probe-119","0.32960027390454755","0.20936715878779544","0.48260840295280205","0","","","","","","","",""
"","html-keyboard-response","241","796333","0.0-134.0-1.0","null","<p></p>","null","","","","","","","","","","","","","","","","","","",""
"","do_trial","242","801140","0.0-135.0-0.0","268.30000019073486","","","","51","1,0,1","2","city","77","probe-196","0.40654590253633077","0.057199012714346915","0.4879570109477868","1","","","","","","","",""
"","html-keyboard-response","243","802142","0.0-135.0-1.0","null","<p></p>","null","","","","","","","","","","","","","","","","","","",""
"","do_trial","244","807195","0.0-136.0-0.0","514","","","","51","0,0,1","2","city","78","probe-79","0.24053290771409935","0.07498500367134318","0.6441154268472922","1","","","","","","","",""
"","html-keyboard-response","245","808208","0.0-136.0-1.0","null","<p></p>","null","","","","","","","","","","","","","","","","","","",""
"","do_trial","246","813261","0.0-137.0-0.0","510.59999990463257","","","","51","0,0,1","2","city","79","probe-198","0.24701261043824718","0.1583069045737811","0.5895025836347173","1","","","","","","","",""
"","html-keyboard-response","247","814275","0.0-137.0-1.0","null","<p></p>","null","","","","","","","","","","","","","","","","","","",""
"","do_trial","248","819030","0.0-138.0-0.0","225.2000002861023","","","","51","1,0,0","2","city","80","probe-16","0.21616376348584518","0.12916547932447361","0.5961953825637692","0","","","","","","","",""
"","html-keyboard-response","249","820036","0.0-138.0-1.0","null","<p></p>","null","","","","","","","","","","","","","","","","","","",""
"","do_trial","250","825008","0.0-139.0-0.0","418.40000009536743","","","","51","1,0,1","2","city","81","probe-216","0.20573274141447012","0.07987078016867098","0.5205528182559533","1","","","","","","","",""
"","html-keyboard-response","251","826014","0.0-139.0-1.0","null","<p></p>","null","","","","","","","","","","","","","","","","","","",""
"","do_trial","252","831000","0.0-140.0-0.0","442.7000002861023","","","","51","0,0,0","2","city","82","probe-19","0.3148159537777413","0.22418263823185733","0.1754346988601101","0","","","","","","","",""
"","html-keyboard-response","253","832015","0.0-140.0-1.0","null","<p></p>","null","","","","","","","","","","","","","","","","","","",""
"","do_trial","254","836878","0.0-141.0-0.0","318.7000002861023","","","","51","1,0,0","2","city","83","probe-225","0.37795729769994757","0.4051191621880718","0.19977814336233735","0","","","","","","","",""
"","html-keyboard-response","255","837889","0.0-141.0-1.0","null","<p></p>","null","","","","","","","","","","","","","","","","","","",""
"","do_trial","256","844736","0.0-142.0-0.0","2307.0999999046326","","","","51","1,0,0","2","city","84","probe-59","0.194084751544133","0.4995076499006245","0.1437630308570985","0","","","","","","","",""
"","html-keyboard-response","257","845747","0.0-142.0-1.0","null","<p></p>","null","","","","","","","","","","","","","","","","","","",""
"","do_trial","258","850899","0.0-143.0-0.0","614.6999998092651","","","","51","0,1,0","2","city","85","probe-03","0.2531007213751477","0.6301273800679859","0.11609466537551608","0","","","","","","","",""
"","html-keyboard-response","259","851903","0.0-143.0-1.0","null","<p></p>","null","","","","","","","","","","","","","","","","","","",""
"","do_trial","260","857775","0.0-144.0-0.0","1330.4000000953674","","","","51","0,1,0","2","city","86","probe-78","0.47735572491001527","0.6386702622379692","0.08170467766227182","0","","","","","","","",""
"","html-keyboard-response","261","858780","0.0-144.0-1.0","null","<p></p>","null","","","","","","","","","","","","","","","","","","",""
"","do_trial","262","865925","0.0-145.0-0.0","2591.6000003814697","","","","51","1,0,0","2","city","87","probe-17","0.3464246849564087","0.5197409503889084","0.1195956708120998","0","","","","","","","",""
"","html-keyboard-response","263","866936","0.0-145.0-1.0","null","<p></p>","null","","","","","","","","","","","","","","","","","","",""
"","do_trial","264","873675","0.0-146.0-0.0","2189.199999809265","","","","51","0,0,0","2","city","88","probe-167","0.27679682801858646","0.5954940503737538","0.19866739930829533","0","","","","","","","",""
"","html-keyboard-response","265","874684","0.0-146.0-1.0","null","<p></p>","null","","","","","","","","","","","","","","","","","","",""
"","do_trial","266","880432","0.0-147.0-0.0","1201.0999999046326","","","","51","0,1,1","2","city","89","probe-35","0.42639745125527884","0.5583083165978758","0.1437120408672244","1","","","","","","","",""
"","html-keyboard-response","267","881441","0.0-147.0-1.0","null","<p></p>","null","","","","","","","","","","","","","","","","","","",""
"","do_trial","268","886696","0.0-148.0-0.0","708.0999999046326","","","","51","0,0,0","2","city","90","probe-155","0.24626080534199737","0.4135067785395113","0.07040170566859548","0","","","","","","","",""
"","html-keyboard-response","269","887701","0.0-148.0-1.0","null","<p></p>","null","","","","","","","","","","","","","","","","","","",""
"","do_trial","270","893137","0.0-149.0-0.0","885.7000002861023","","","","51","0,1,0","2","city","91","probe-187","0.4158659651535709","0.4647456407096414","0.11815310234249377","0","","","","","","","",""
"","html-keyboard-response","271","894141","0.0-149.0-1.0","null","<p></p>","null","","","","","","","","","","","","","","","","","","",""
"","do_trial","272","899147","0.0-150.0-0.0","475.59999990463257","","","","51","0,0,0","2","city","92","probe-158","0.3672544509443539","0.4544972209942564","0.2612635962071318","0","","","","","","","",""
"","html-keyboard-response","273","900150","0.0-150.0-1.0","null","<p></p>","null","","","","","","","","","","","","","","","","","","",""
"","do_trial","274","905085","0.0-151.0-0.0","356.7999997138977","","","","51","0,0,0","2","city","93","probe-112","0.2772418011447051","0.5155906756663579","0.21581713604915517","0","","","","","","","",""
"","html-keyboard-response","275","906100","0.0-151.0-1.0","null","<p></p>","null","","","","","","","","","","","","","","","","","","",""
"","do_trial","276","911160","0.0-152.0-0.0","513.9000000953674","","","","51","0,1,0","2","city","94","probe-111","0.38093334814248225","0.5305202773066509","0.12247630960432077","0","","","","","","","",""
"","html-keyboard-response","277","912170","0.0-152.0-1.0","null","<p></p>","null","","","","","","","","","","","","","","","","","","",""
"","do_trial","278","917157","0.0-153.0-0.0","447.80000019073486","","","","51","0,1,0","2","city","95","probe-161","0.2517841779183198","0.40821989330427","0.07947837809936452","0","","","","","","","",""
"","html-keyboard-response","279","918162","0.0-153.0-1.0","null","<p></p>","null","","","","","","","","","","","","","","","","","","",""
"","do_trial","280","923537","0.0-154.0-0.0","843.4000000953674","","","","51","0,1,0","2","city","96","probe-37","0.21896957350326524","0.4087326931059674","0.05642071621530615","0","","","","","","","",""
"","html-keyboard-response","281","924548","0.0-154.0-1.0","null","<p></p>","null","","","","","","","","","","","","","","","","","","",""
"","do_trial","282","929755","0.0-155.0-0.0","667.4000000953674","","","","51","0,0,1","2","city","97","probe-217","0.0643909186226784","0.5343352756199603","0.1519802001491847","1","","","","","","","",""
"","html-keyboard-response","283","930768","0.0-155.0-1.0","null","<p></p>","null","","","","","","","","","","","","","","","","","","",""
"","do_trial","284","935833","0.0-156.0-0.0","525.1000003814697","","","","51","0,1,0","2","city","98","probe-89","0.2768285332577508","0.5814434695642595","0.18285360918764987","0","","","","","","","",""
"","html-keyboard-response","285","936836","0.0-156.0-1.0","null","<p></p>","null","","","","","","","","","","","","","","","","","","",""
"","do_trial","286","941669","0.0-157.0-0.0","294.19999980926514","","","","51","1,1,0","2","city","99","probe-42","0.24899384414633313","0.6941343552522924","0.16499635327588777","0","","","","","","","",""
"","html-keyboard-response","287","942677","0.0-157.0-1.0","null","<p></p>","null","","","","","","","","","","","","","","","","","","",""
"","do_trial","288","947704","0.0-158.0-0.0","480.09999990463257","","","","51","1,1,1","2","city","100","probe-223","0.24499544647067456","0.6210900151304107","0.19358200714898355","1","","","","","","","",""
"","html-keyboard-response","289","948721","0.0-158.0-1.0","null","<p></p>","null","","","","","","","","","","","","","","","","","","",""
"","do_trial","290","955998","0.0-159.0-0.0","2737","","","","51","0,1,0","2","city","101","probe-208","0.2690652131215722","0.5821863962090715","0.18789524185511944","0","","","","","","","",""
"","html-keyboard-response","291","957008","0.0-159.0-1.0","null","<p></p>","null","","","","","","","","","","","","","","","","","","",""
"","do_trial","292","963015","0.0-160.0-0.0","1461.7999997138977","","","","51","0,1,0","2","city","102","probe-41","0.3443427102315912","0.5553632532110705","0.12421594554998583","0","","","","","","","",""
"","html-keyboard-response","293","964019","0.0-160.0-1.0","null","<p></p>","null","","","","","","","","","","","","","","","","","","",""
"","do_trial","294","969589","0.0-161.0-0.0","1036.1000003814697","","","","51","1,1,1","2","city","103","probe-142","0.45060449786761975","0.632631329686384","0.24118326234566237","1","","","","","","","",""
"","html-keyboard-response","295","970599","0.0-161.0-1.0","null","<p></p>","null","","","","","","","","","","","","","","","","","","",""
"","do_trial","296","975714","0.0-162.0-0.0","556.9000000953674","","","","51","1,0,0","2","city","104","probe-28","0.43976056188652995","0.7067041067755241","0.09246502702999601","0","","","","","","","",""
"","html-keyboard-response","297","976727","0.0-162.0-1.0","null","<p></p>","null","","","","","","","","","","","","","","","","","","",""
"","do_trial","298","982028","0.0-163.0-0.0","748.6000003814697","","","","51","0,1,0","2","city","105","probe-62","0.2574486019150596","0.6531706613176083","0.10510741957095754","0","","","","","","","",""
"","html-keyboard-response","299","983038","0.0-163.0-1.0","null","<p></p>","null","","","","","","","","","","","","","","","","","","",""
"","do_trial","300","987977","0.0-164.0-0.0","400.5","","","","51","0,0,0","2","city","106","probe-63","0.24712223490940233","0.626761874999424","0.11725217759223425","0","","","","","","","",""
"","html-keyboard-response","301","988986","0.0-164.0-1.0","null","<p></p>","null","","","","","","","","","","","","","","","","","","",""
"","do_trial","302","994107","0.0-165.0-0.0","570.2000002861023","","","","51","0,1,0","2","city","107","probe-57","0.33105876543655177","0.7412203522605745","0.148276210695318","0","","","","","","","",""
"","html-keyboard-response","303","995130","0.0-165.0-1.0","null","<p></p>","null","","","","","","","","","","","","","","","","","","",""
"","do_trial","304","1000205","0.0-166.0-0.0","536.2000002861023","","","","51","1,0,0","2","city","108","probe-60","0.33179187269084437","0.8198459693129553","0.09322243058419778","0","","","","","","","",""
"","html-keyboard-response","305","1001220","0.0-166.0-1.0","null","<p></p>","null","","","","","","","","","","","","","","","","","","",""
"","do_trial","306","1006753","0.0-167.0-0.0","988","","","","51","0,1,0","2","city","109","probe-220","0.2798332411567368","0.7486859805660242","0.12748181821550422","0","","","","","","","",""
"","html-keyboard-response","307","1007755","0.0-167.0-1.0","null","<p></p>","null","","","","","","","","","","","","","","","","","","",""
"","do_bye","308","1009266","0.0-168.0-0.0","null","","","","null","","","","","","","","","","","","","","","","",""
"","do_travel","309","1015272","0.0-169.0-0.0","null","","","","null","","","","","","","","","","","","","","","","",""
"","do_welcome","310","1016781","0.0-169.0-1.0","null","","","","null","","","","","","","","","","","","","","","","",""
"","do_trial","311","1023438","0.0-170.0-0.0","2111.199999809265","","","","50","0,1,0","3","highway","110","probe-130","0.2813404083092231","1","0.07773100676736895","1","","","","","","","",""
"","html-keyboard-response","312","1024450","0.0-170.0-1.0","null","<p></p>","null","","","","","","","","","","","","","","","","","","",""
"","do_trial","313","1029377","0.0-171.0-0.0","380.5","","","","51","0,1,1","3","highway","111","probe-30","0.2155736899956645","1","0.05455931782940034","1","","","","","","","",""
"","html-keyboard-response","314","1030381","0.0-171.0-1.0","null","<p></p>","null","","","","","","","","","","","","","","","","","","",""
"","do_trial","315","1035287","0.0-172.0-0.0","327.30000019073486","","","","49","0,1,0","3","highway","112","probe-213","0.14974819800389708","0.923893461612538","0.10407331932252492","0","","","","","","","",""
"","html-keyboard-response","316","1036301","0.0-172.0-1.0","null","<p></p>","null","","","","","","","","","","","","","","","","","","",""
"","do_trial","317","1041112","0.0-173.0-0.0","272.2000002861023","","","","51","1,1,1","3","highway","113","probe-229","0.26337851750498203","0.8650242345659976","0.1637722426809011","1","","","","","","","",""
"","html-keyboard-response","318","1042121","0.0-173.0-1.0","null","<p></p>","null","","","","","","","","","","","","","","","","","","",""
"","do_trial","319","1046923","0.0-174.0-0.0","258.30000019073486","","","","50","0,1,0","3","highway","114","probe-156","0.20966597837718792","0.8771646997801765","0.11636623431922406","1","","","","","","","",""
"","html-keyboard-response","320","1047939","0.0-174.0-1.0","null","<p></p>","null","","","","","","","","","","","","","","","","","","",""
"","do_trial","321","1053005","0.0-175.0-0.0","520.8000001907349","","","","50","0,0,0","3","highway","115","probe-182","0.27347391234433116","0.7354002807606793","0.06648515335148515","0","","","","","","","",""
"","html-keyboard-response","322","1054021","0.0-175.0-1.0","null","<p></p>","null","","","","","","","","","","","","","","","","","","",""
"","do_trial","323","1059066","0.0-176.0-0.0","512.4000000953674","","","","50","0,1,1","3","highway","116","probe-81","0.3386726796855622","0.9418270308128324","0.18534805695021875","1","","","","","","","",""
"","html-keyboard-response","324","1060074","0.0-176.0-1.0","null","<p></p>","null","","","","","","","","","","","","","","","","","","",""
"","do_trial","325","1065139","0.0-177.0-0.0","521.7000002861023","","","","50","0,1,0","3","highway","117","probe-146","0.29270146688589055","0.7263927617425182","0.2097316461781492","1","","","","","","","",""
"","html-keyboard-response","326","1066148","0.0-177.0-1.0","null","<p></p>","null","","","","","","","","","","","","","","","","","","",""
"","do_trial","327","1071943","0.0-178.0-0.0","1259.3000001907349","","","","50","0,1,0","3","highway","118","probe-106","0.18004379749892654","0.7009058512302272","0.12056430292511193","1","","","","","","","",""
"","html-keyboard-response","328","1072958","0.0-178.0-1.0","null","<p></p>","null","","","","","","","","","","","","","","","","","","",""
"","do_trial","329","1077957","0.0-179.0-0.0","460.5","","","","50","0,1,1","3","highway","119","probe-73","0.13309523886739863","0.656073148245291","0.24164470114509798","1","","","","","","","",""
"","html-keyboard-response","330","1078973","0.0-179.0-1.0","null","<p></p>","null","","","","","","","","","","","","","","","","","","",""
"","do_trial","331","1084021","0.0-180.0-0.0","508.40000009536743","","","","50","1,0,0","3","highway","120","probe-38","0.1733680714559109","0.5781351540673477","0.31933103579753824","0","","","","","","","",""
"","html-keyboard-response","332","1085026","0.0-180.0-1.0","null","<p></p>","null","","","","","","","","","","","","","","","","","","",""
"","do_trial","333","1090068","0.0-181.0-0.0","511.5","","","","50","0,1,0","3","highway","121","probe-50","0.10420413399816542","0.65404097754443","0.436112854154012","1","","","","","","","",""
"","html-keyboard-response","334","1091081","0.0-181.0-1.0","null","<p></p>","null","","","","","","","","","","","","","","","","","","",""
"","do_trial","335","1096153","0.0-182.0-0.0","521.2000002861023","","","","50","0,0,1","3","highway","122","probe-137","0.2249205957923207","0.5573022677688872","0.5663872074555122","0","","","","","","","",""
"","html-keyboard-response","336","1097161","0.0-182.0-1.0","null","<p></p>","null","","","","","","","","","","","","","","","","","","",""
"","do_trial","337","1101891","0.0-183.0-0.0","191.19999980926514","","","","50","0,1,0","3","highway","123","probe-180","0.29807692813309034","0.6075922949933233","0.5353104531554884","1","","","","","","","",""
"","html-keyboard-response","338","1102903","0.0-183.0-1.0","null","<p></p>","null","","","","","","","","","","","","","","","","","","",""
"","do_trial","339","1108108","0.0-184.0-0.0","663.6999998092651","","","","50","0,1,0","3","highway","124","probe-154","0.3164386199997054","0.597013126681852","0.6654413024027735","1","","","","","","","",""
"","html-keyboard-response","340","1109123","0.0-184.0-1.0","null","<p></p>","null","","","","","","","","","","","","","","","","","","",""
"","do_trial","341","1114389","0.0-185.0-0.0","734","","","","50","0,0,0","3","highway","125","probe-200","0.05278337836721427","0.3366389057876365","0.7428628660348459","0","","","","","","","",""
"","html-keyboard-response","342","1115397","0.0-185.0-1.0","null","<p></p>","null","","","","","","","","","","","","","","","","","","",""
"","do_trial","343","1120585","0.0-186.0-0.0","631.8999996185303","","","","50","1,1,1","3","highway","126","probe-181","0.09075230023559945","0.4185545470299114","0.8397152176592966","1","","","","","","","",""
"","html-keyboard-response","344","1121596","0.0-186.0-1.0","null","<p></p>","null","","","","","","","","","","","","","","","","","","",""
"","do_trial","345","1126475","0.0-187.0-0.0","320.30000019073486","","","","50","1,0,1","3","highway","127","probe-67","0.14202708534941652","0.2848445259074756","0.7090277645275183","0","","","","","","","",""
"","html-keyboard-response","346","1127485","0.0-187.0-1.0","null","<p></p>","null","","","","","","","","","","","","","","","","","","",""
"","do_trial","347","1132577","0.0-188.0-0.0","559.6999998092651","","","","50","0,1,1","3","highway","128","probe-53","0.058535768221270636","0.23501715245905","0.7655608265561719","1","","","","","","","",""
"","html-keyboard-response","348","1133579","0.0-188.0-1.0","null","<p></p>","null","","","","","","","","","","","","","","","","","","",""
"","do_trial","349","1138715","0.0-189.0-0.0","588.0999999046326","","","","50","0,0,1","3","highway","129","probe-49","0.05866180737059382","0.3044675206419289","0.7343830613576466","0","","","","","","","",""
"","html-keyboard-response","350","1139730","0.0-189.0-1.0","null","<p></p>","null","","","","","","","","","","","","","","","","","","",""
"","do_trial","351","1144860","0.0-190.0-0.0","577.2999997138977","","","","50","0,0,1","3","highway","130","probe-47","0.12068753876928608","0.2214754213543768","0.7093187638369065","0","","","","","","","",""
"","html-keyboard-response","352","1145872","0.0-190.0-1.0","null","<p></p>","null","","","","","","","","","","","","","","","","","","",""
"","do_trial","353","1151165","0.0-191.0-0.0","725.8000001907349","","","","50","0,0,1","3","highway","131","probe-48","0.20436807623603648","0.234464666400039","0.649562516195277","0","","","","","","","",""
"","html-keyboard-response","354","1152175","0.0-191.0-1.0","null","<p></p>","null","","","","","","","","","","","","","","","","","","",""
"","do_trial","355","1157834","0.0-192.0-0.0","1119.4000000953674","","","","50","0,1,0","3","highway","132","probe-103","0.07827925883360125","0.2200863596603726","0.42274800246029054","1","","","","","","","",""
"","html-keyboard-response","356","1158836","0.0-192.0-1.0","null","<p></p>","null","","","","","","","","","","","","","","","","","","",""
"","do_trial","357","1163859","0.0-193.0-0.0","473.7000002861023","","","","50","0,1,0","3","highway","133","probe-183","0.12759826714620917","0.30019710311557257","0.5575297305257224","1","","","","","","","",""
"","html-keyboard-response","358","1164864","0.0-193.0-1.0","null","<p></p>","null","","","","","","","","","","","","","","","","","","",""
"","do_trial","359","1169848","0.0-194.0-0.0","446.8999996185303","","","","50","0,1,1","3","highway","134","probe-98","0.09659916059342188","0.33170202777632557","0.37408113446985114","1","","","","","","","",""
"","html-keyboard-response","360","1170853","0.0-194.0-1.0","null","<p></p>","null","","","","","","","","","","","","","","","","","","",""
"","do_trial","361","1176079","0.0-195.0-0.0","648.0999999046326","","","","50","1,0,1","3","highway","135","probe-197","0.1897240853695264","0.24907968420598336","0.5374913334936925","0","","","","","","","",""
"","html-keyboard-response","362","1177092","0.0-195.0-1.0","null","<p></p>","null","","","","","","","","","","","","","","","","","","",""
"","do_trial","363","1182753","0.0-196.0-0.0","1119.6000003814697","","","","50","1,0,0","3","highway","136","probe-189","0.27338761260591593","0.1329461212824626","0.6325163795712225","0","","","","","","","",""
"","html-keyboard-response","364","1183761","0.0-196.0-1.0","null","<p></p>","null","","","","","","","","","","","","","","","","","","",""
"","do_trial","365","1189079","0.0-197.0-0.0","777.2000002861023","","","","50","0,1,1","3","highway","137","probe-29","0.10475928706459157","0.25969903627114693","0.5711216696164464","1","","","","","","","",""
"","html-keyboard-response","366","1190096","0.0-197.0-1.0","null","<p></p>","null","","","","","","","","","","","","","","","","","","",""
"","do_trial","367","1195153","0.0-198.0-0.0","518.4000000953674","","","","50","0,0,1","3","highway","138","probe-94","0.14138726122380824","0.2554444776900195","0.5544850780275159","0","","","","","","","",""
"","html-keyboard-response","368","1196156","0.0-198.0-1.0","null","<p></p>","null","","","","","","","","","","","","","","","","","","",""
"","do_trial","369","1202203","0.0-199.0-0.0","null","","","","null","0,0,1","3","highway","139","probe-153","0.08934970955095946","0.14594366737583905","0.6491805072639149","","","","","","","","",""
"","html-keyboard-response","370","1203214","0.0-199.0-1.0","null","<p></p>","null","","","","","","","","","","","","","","","","","","",""
"","do_trial","371","1208111","0.0-200.0-0.0","357.59999990463257","","","","50","0,0,1","3","highway","140","probe-129","0.17533880962246717","0.2429436806876294","0.5743967228383844","0","","","","","","","",""
"","html-keyboard-response","372","1209125","0.0-200.0-1.0","null","<p></p>","null","","","","","","","","","","","","","","","","","","",""
"","do_trial","373","1213803","0.0-201.0-0.0","135.40000009536743","","","","50","0,1,0","3","highway","141","probe-222","0.12255937884935512","0.22037878613202883","0.6680151153262375","1","","","","","","","",""
"","html-keyboard-response","374","1214809","0.0-201.0-1.0","null","<p></p>","null","","","","","","","","","","","","","","","","","","",""
"","do_trial","375","1219772","0.0-202.0-0.0","409.2000002861023","","","","50","0,1,0","3","highway","142","probe-169","0.07307954336485846","0.2933245408418986","0.7043351170971438","1","","","","","","","",""
"","html-keyboard-response","376","1220775","0.0-202.0-1.0","null","<p></p>","null","","","","","","","","","","","","","","","","","","",""
"","do_trial","377","1225782","0.0-203.0-0.0","450.69999980926514","","","","50","0,0,1","3","highway","143","probe-165","0.16933779478360844","0.3158289281934525","0.7901953965993389","0","","","","","","","",""
"","html-keyboard-response","378","1226783","0.0-203.0-1.0","null","<p></p>","null","","","","","","","","","","","","","","","","","","",""
"","do_trial","379","1231613","0.0-204.0-0.0","269.90000009536743","","","","50","0,0,0","3","highway","144","probe-221","0.1320090709735815","0.27526664319122335","0.7072114428619263","0","","","","","","","",""
"","html-keyboard-response","380","1232615","0.0-204.0-1.0","null","<p></p>","null","","","","","","","","","","","","","","","","","","",""
"","do_trial","381","1237513","0.0-205.0-0.0","349.90000009536743","","","","50","0,0,0","3","highway","145","probe-99","0.13608807585569654","0.2757169961289316","0.6945500297743886","0","","","","","","","",""
"","html-keyboard-response","382","1238524","0.0-205.0-1.0","null","<p></p>","null","","","","","","","","","","","","","","","","","","",""
"","do_trial","383","1243671","0.0-206.0-0.0","595.4000000953674","","","","50","0,0,0","3","highway","146","probe-87","0.06577098563566965","0.23867587519581243","0.5932078631342755","0","","","","","","","",""
"","html-keyboard-response","384","1244686","0.0-206.0-1.0","null","<p></p>","null","","","","","","","","","","","","","","","","","","",""
"","do_trial","385","1249856","0.0-207.0-0.0","624.4000000953674","","","","50","0,0,0","3","highway","147","probe-159","0.06974273535488601","0.23129465720228545","0.7043700653578708","0","","","","","","","",""
"","html-keyboard-response","386","1250871","0.0-207.0-1.0","null","<p></p>","null","","","","","","","","","","","","","","","","","","",""
"","do_trial","387","1255864","0.0-208.0-0.0","443.30000019073486","","","","50","0,1,1","3","highway","148","probe-113","0.10389594406316834","0.07905753927856374","0.6519875160905685","1","","","","","","","",""
"","html-keyboard-response","388","1256869","0.0-208.0-1.0","null","<p></p>","null","","","","","","","","","","","","","","","","","","",""
"","do_trial","389","1261840","0.0-209.0-0.0","423.7999997138977","","","","50","0,1,1","3","highway","149","probe-204","0.09746993787902933","0.22369099377156768","0.6940401960127857","1","","","","","","","",""
"","html-keyboard-response","390","1262843","0.0-209.0-1.0","null","<p></p>","null","","","","","","","","","","","","","","","","","","",""
"","do_bye","391","1264348","0.0-210.0-0.0","null","","","","null","","","","","","","","","","","","","","","","",""
"","do_travel","392","1270352","0.0-211.0-0.0","null","","","","null","","","","","","","","","","","","","","","","",""
"","do_welcome","393","1271872","0.0-211.0-1.0","null","","","","null","","","","","","","","","","","","","","","","",""
"","do_trial","394","1277568","0.0-212.0-0.0","1140.2000002861023","","","","49","0,0,1","4","forest","150","probe-24","0.13612142909416197","0.34656045224064097","1","0","","","","","","","",""
"","html-keyboard-response","395","1278571","0.0-212.0-1.0","null","<p></p>","null","","","","","","","","","","","","","","","","","","",""
"","do_trial","396","1283485","0.0-213.0-0.0","363.19999980926514","","","","51","0,0,1","4","forest","151","probe-179","0.16647141075754104","0.44309684358126744","1","1","","","","","","","",""
"","html-keyboard-response","397","1284495","0.0-213.0-1.0","null","<p></p>","null","","","","","","","","","","","","","","","","","","",""
"","do_trial","398","1289389","0.0-214.0-0.0","355.09999990463257","","","","51","0,0,1","4","forest","152","probe-211","0.07852432374322713","0.3705214912455868","0.7885257964027172","1","","","","","","","",""
"","html-keyboard-response","399","1290392","0.0-214.0-1.0","null","<p></p>","null","","","","","","","","","","","","","","","","","","",""
"","do_trial","400","1295194","0.0-215.0-0.0","266.2000002861023","","","","50","1,1,1","4","forest","153","probe-210","0.11632055422932323","0.3818589213935528","0.791634933561709","1","","","","","","","",""
"","html-keyboard-response","401","1296205","0.0-215.0-1.0","null","<p></p>","null","","","","","","","","","","","","","","","","","","",""
"","do_trial","402","1301005","0.0-216.0-0.0","262.40000009536743","","","","51","0,0,1","4","forest","154","probe-91","0.07915606549316265","0.24591284114821022","0.7802824640280036","1","","","","","","","",""
"","html-keyboard-response","403","1302019","0.0-216.0-1.0","null","<p></p>","null","","","","","","","","","","","","","","","","","","",""
"","do_trial","404","1306980","0.0-217.0-0.0","404.3999996185303","","","","51","0,0,1","4","forest","155","probe-85","0.11777295314340752","0.3581008423538349","0.6831213489098873","1","","","","","","","",""
"","html-keyboard-response","405","1307992","0.0-217.0-1.0","null","<p></p>","null","","","","","","","","","","","","","","","","","","",""
"","do_trial","406","1313211","0.0-218.0-0.0","675","","","","51","0,0,1","4","forest","156","probe-160","0.1583148146689477","0.31340997104772966","0.8238222897788954","1","","","","","","","",""
"","html-keyboard-response","407","1314212","0.0-218.0-1.0","null","<p></p>","null","","","","","","","","","","","","","","","","","","",""
"","do_trial","408","1319069","0.0-219.0-0.0","317.19999980926514","","","","51","0,0,1","4","forest","157","probe-02","0.12850375263116198","0.17968893496177998","0.7176970959434625","1","","","","","","","",""
"","html-keyboard-response","409","1320072","0.0-219.0-1.0","null","<p></p>","null","","","","","","","","","","","","","","","","","","",""
"","do_trial","410","1325020","0.0-220.0-0.0","416.59999990463257","","","","51","0,1,0","4","forest","158","probe-56","0.11874818109610956","0.21586467767547027","0.5773433751355113","0","","","","","","","",""
"","html-keyboard-response","411","1326030","0.0-220.0-1.0","null","<p></p>","null","","","","","","","","","","","","","","","","","","",""
"","do_trial","412","1330956","0.0-221.0-0.0","393.30000019073486","","","","51","0,0,1","4","forest","159","probe-209","0.11327509397264278","0.2822265213773859","0.7584022254161596","1","","","","","","","",""
"","html-keyboard-response","413","1331971","0.0-221.0-1.0","null","<p></p>","null","","","","","","","","","","","","","","","","","","",""
"","do_trial","414","1338004","0.0-222.0-0.0","null","","","","null","0,0,1","4","forest","160","probe-121","0.07020145041923825","0.19702098860205616","0.6736208752678549","","","","","","","","",""
"","html-keyboard-response","415","1339014","0.0-222.0-1.0","null","<p></p>","null","","","","","","","","","","","","","","","","","","",""
"","do_trial","416","1343567","0.0-223.0-0.0","0.09999990463256836","","","","51","0,1,0","4","forest","161","probe-93","0.13305727357321728","0.2776709160053639","0.5739302895756233","0","","","","","","","",""
"","html-keyboard-response","417","1344573","0.0-223.0-1.0","null","<p></p>","null","","","","","","","","","","","","","","","","","","",""
"","do_trial","418","1349377","0.0-224.0-0.0","256.30000019073486","","","","51","0,0,0","4","forest","162","probe-172","0.3176792974306303","0.2646948369573283","0.44431253315623204","0","","","","","","","",""
"","html-keyboard-response","419","1350392","0.0-224.0-1.0","null","<p></p>","null","","","","","","","","","","","","","","","","","","",""
"","do_trial","420","1355165","0.0-225.0-0.0","229.30000019073486","","","","51","0,1,1","4","forest","163","probe-128","0.35856067763580984","0.278060584629224","0.36355841870207445","1","","","","","","","",""
"","html-keyboard-response","421","1356178","0.0-225.0-1.0","null","<p></p>","null","","","","","","","","","","","","","","","","","","",""
"","do_trial","422","1361125","0.0-226.0-0.0","368.6000003814697","","","","51","0,0,0","4","forest","164","probe-201","0.4679880052883012","0.12911751455642836","0.12468433954546752","0","","","","","","","",""
"","html-keyboard-response","423","1362127","0.0-226.0-1.0","null","<p></p>","null","","","","","","","","","","","","","","","","","","",""
"","do_trial","424","1367105","0.0-227.0-0.0","433.6000003814697","","","","51","0,0,0","4","forest","165","probe-202","0.3797203966093467","0.18218557179615158","0.09904016779519091","0","","","","","","","",""
"","html-keyboard-response","425","1368108","0.0-227.0-1.0","null","<p></p>","null","","","","","","","","","","","","","","","","","","",""
"","do_trial","426","1373084","0.0-228.0-0.0","432.3999996185303","","","","51","0,0,0","4","forest","166","probe-195","0.43375679615812057","0.2134598664808844","0.05330144794372108","0","","","","","","","",""
"","html-keyboard-response","427","1374096","0.0-228.0-1.0","null","<p></p>","null","","","","","","","","","","","","","","","","","","",""
"","do_trial","428","1378808","0.0-229.0-0.0","166.40000009536743","","","","51","0,1,0","4","forest","167","probe-212","0.3693755304580549","0.31248337610845867","0.10522887188495174","0","","","","","","","",""
"","html-keyboard-response","429","1379818","0.0-229.0-1.0","null","<p></p>","null","","","","","","","","","","","","","","","","","","",""
"","do_trial","430","1384996","0.0-230.0-0.0","637.5","","","","51","0,0,0","4","forest","168","probe-191","0.3819146380352427","0.2429042215674388","0.055708686624843934","0","","","","","","","",""
"","html-keyboard-response","431","1386014","0.0-230.0-1.0","null","<p></p>","null","","","","","","","","","","","","","","","","","","",""
"","do_trial","432","1391401","0.0-231.0-0.0","846.0999999046326","","","","51","0,1,0","4","forest","169","probe-118","0.45333425658192106","0.28829796518519163","0.061419077640861505","0","","","","","","","",""
"","html-keyboard-response","433","1392409","0.0-231.0-1.0","null","<p></p>","null","","","","","","","","","","","","","","","","","","",""
"","do_trial","434","1397174","0.0-232.0-0.0","230.19999980926514","","","","51","0,0,0","4","forest","170","probe-188","0.6512967881682422","0.2939209049489021","0.06636524937036163","0","","","","","","","",""
"","html-keyboard-response","435","1398188","0.0-232.0-1.0","null","<p></p>","null","","","","","","","","","","","","","","","","","","",""
"","do_trial","436","1403071","0.0-233.0-0.0","344.30000019073486","","","","51","1,0,0","4","forest","171","probe-177","0.6336862874223497","0.3131589370457255","0.0562076350987092","0","","","","","","","",""
"","html-keyboard-response","437","1404087","0.0-233.0-1.0","null","<p></p>","null","","","","","","","","","","","","","","","","","","",""
"","do_trial","438","1408880","0.0-234.0-0.0","254.09999990463257","","","","51","0,0,1","4","forest","172","probe-206","0.702246046082902","0.32471681235490013","0.15605895911457338","1","","","","","","","",""
"","html-keyboard-response","439","1409896","0.0-234.0-1.0","null","<p></p>","null","","","","","","","","","","","","","","","","","","",""
"","do_trial","440","1414808","0.0-235.0-0.0","369.19999980926514","","","","51","1,0,0","4","forest","173","probe-139","0.6690210324148328","0.2666554255102234","0.07441397936548583","0","","","","","","","",""
"","html-keyboard-response","441","1415811","0.0-235.0-1.0","null","<p></p>","null","","","","","","","","","","","","","","","","","","",""
"","do_trial","442","1420828","0.0-236.0-0.0","456.5","","","","51","0,0,0","4","forest","174","probe-218","0.6457805407363861","0.3540593931042435","0.08009753940222783","0","","","","","","","",""
"","html-keyboard-response","443","1421842","0.0-236.0-1.0","null","<p></p>","null","","","","","","","","","","","","","","","","","","",""
"","do_trial","444","1426707","0.0-237.0-0.0","320.09999990463257","","","","51","0,1,0","4","forest","175","probe-136","0.5048290201423791","0.36712466697644486","0.0575798514881172","0","","","","","","","",""
"","html-keyboard-response","445","1427721","0.0-237.0-1.0","null","<p></p>","null","","","","","","","","","","","","","","","","","","",""
"","do_trial","446","1432878","0.0-238.0-0.0","606.8999996185303","","","","51","0,0,0","4","forest","176","probe-110","0.47978380870417014","0.32654543149347787","0.17115576494815515","0","","","","","","","",""
"","html-keyboard-response","447","1433883","0.0-238.0-1.0","null","<p></p>","null","","","","","","","","","","","","","","","","","","",""
"","do_trial","448","1438974","0.0-239.0-0.0","539.5","","","","51","0,0,0","4","forest","177","probe-157","0.4993535570296038","0.29923215233555883","0.195235358205768","0","","","","","","","",""
"","html-keyboard-response","449","1439987","0.0-239.0-1.0","null","<p></p>","null","","","","","","","","","","","","","","","","","","",""
"","do_trial","450","1444792","0.0-240.0-0.0","255.59999990463257","","","","51","0,0,0","4","forest","178","probe-104","0.6070408841206247","0.2618093339894201","0.05171214030428855","0","","","","","","","",""
"","html-keyboard-response","451","1445794","0.0-240.0-1.0","null","<p></p>","null","","","","","","","","","","","","","","","","","","",""
"","do_trial","452","1450612","0.0-241.0-0.0","276.59999990463257","","","","51","1,0,0","4","forest","179","probe-133","0.5880670319126032","0.20762644270469038","0.09998750223795554","0","","","","","","","",""
"","html-keyboard-response","453","1451624","0.0-241.0-1.0","null","<p></p>","null","","","","","","","","","","","","","","","","","","",""
"","do_trial","454","1456490","0.0-242.0-0.0","322.7999997138977","","","","51","0,0,0","4","forest","180","probe-40","0.5704637332425273","0.3040803549978307","0.07705819058906833","0","","","","","","","",""
"","html-keyboard-response","455","1457493","0.0-242.0-1.0","null","<p></p>","null","","","","","","","","","","","","","","","","","","",""
"","do_trial","456","1462518","0.0-243.0-0.0","492","","","","51","0,0,0","4","forest","181","probe-228","0.5477115749469192","0.43360939105423385","0.11685438199706416","0","","","","","","","",""
"","html-keyboard-response","457","1463528","0.0-243.0-1.0","null","<p></p>","null","","","","","","","","","","","","","","","","","","",""
"","do_trial","458","1468709","0.0-244.0-0.0","632.4000000953674","","","","51","0,1,0","4","forest","182","probe-164","0.5951988404348076","0.3732377223075022","0.08484447357490132","0","","","","","","","",""
"","html-keyboard-response","459","1469724","0.0-244.0-1.0","null","<p></p>","null","","","","","","","","","","","","","","","","","","",""
"","do_trial","460","1474952","0.0-245.0-0.0","686.0999999046326","","","","51","0,0,0","4","forest","183","probe-170","0.5917224943808006","0.35183360942283826","0.1251514108440365","0","","","","","","","",""
"","html-keyboard-response","461","1475962","0.0-245.0-1.0","null","<p></p>","null","","","","","","","","","","","","","","","","","","",""
"","do_trial","462","1480749","0.0-246.0-0.0","240.09999990463257","","","","51","1,1,0","4","forest","184","probe-12","0.6373152223687472","0.38013445639739696","0.07535768072697052","0","","","","","","","",""
"","html-keyboard-response","463","1481759","0.0-246.0-1.0","null","<p></p>","null","","","","","","","","","","","","","","","","","","",""
"","do_trial","464","1487146","0.0-247.0-0.0","832.0999999046326","","","","51","0,1,0","4","forest","185","probe-09","0.6304127915422452","0.24355780225980933","0.14031394682727608","0","","","","","","","",""
"","html-keyboard-response","465","1488149","0.0-247.0-1.0","null","<p></p>","null","","","","","","","","","","","","","","","","","","",""
"","do_trial","466","1493196","0.0-248.0-0.0","509.59999990463257","","","","51","1,1,0","4","forest","186","probe-33","0.7595091887782753","0.3182431236061672","0.14916900924506762","0","","","","","","","",""
"","html-keyboard-response","467","1494212","0.0-248.0-1.0","null","<p></p>","null","","","","","","","","","","","","","","","","","","",""
"","do_trial","468","1499377","0.0-249.0-0.0","622.0999999046326","","","","51","1,0,0","4","forest","187","probe-117","0.7246538383604366","0.3460027073466197","0.1314401927841002","0","","","","","","","",""
"","html-keyboard-response","469","1500391","0.0-249.0-1.0","null","<p></p>","null","","","","","","","","","","","","","","","","","","",""
"","do_trial","470","1505888","0.0-250.0-0.0","966.2999997138977","","","","51","0,0,0","4","forest","188","probe-82","0.682666778895402","0.29748878495172815","0.1008531309179522","0","","","","","","","",""
"","html-keyboard-response","471","1506898","0.0-250.0-1.0","null","<p></p>","null","","","","","","","","","","","","","","","","","","",""
"","do_trial","472","1512069","0.0-251.0-0.0","631.8999996185303","","","","51","0,0,1","4","forest","189","probe-08","0.8004299011847291","0.3026850616950212","0.15849982341039276","1","","","","","","","",""
"","html-keyboard-response","473","1513077","0.0-251.0-1.0","null","<p></p>","null","","","","","","","","","","","","","","","","","","",""
"","do_bye","474","1514594","0.0-252.0-0.0","null","","","","null","","","","","","","","","","","","","","","","",""
"","do_travel","475","1520599","0.0-253.0-0.0","null","","","","null","","","","","","","","","","","","","","","","",""
"","do_welcome","476","1522119","0.0-253.0-1.0","null","","","","null","","","","","","","","","","","","","","","","",""
"","do_trial","477","1527754","0.0-254.0-0.0","1088.6000003814697","","","","49","1,0,1","5","mountain","190","probe-45","1","0.3000020466065977","0.0643520884696228","1","","","","","","","",""
"","html-keyboard-response","478","1528757","0.0-254.0-1.0","null","<p></p>","null","","","","","","","","","","","","","","","","","","",""
"","do_trial","479","1533868","0.0-255.0-0.0","567.5","","","","49","1,0,0","5","mountain","191","probe-32","1","0.3034918907822033","0.23398113329085693","1","","","","","","","",""
"","html-keyboard-response","480","1534884","0.0-255.0-1.0","null","<p></p>","null","","","","","","","","","","","","","","","","","","",""
"","do_trial","481","1539695","0.0-256.0-0.0","267.90000009536743","","","","51","0,0,0","5","mountain","192","probe-192","0.8066446372644029","0.40566870126086313","0.25958084360899736","0","","","","","","","",""
"","html-keyboard-response","482","1540713","0.0-256.0-1.0","null","<p></p>","null","","","","","","","","","","","","","","","","","","",""
"","do_trial","483","1545576","0.0-257.0-0.0","309.69999980926514","","","","50","1,1,0","5","mountain","193","probe-76","0.7298933855103091","0.3664625872073641","0.30389521867916836","1","","","","","","","",""
"","html-keyboard-response","484","1546581","0.0-257.0-1.0","null","<p></p>","null","","","","","","","","","","","","","","","","","","",""
"","do_trial","485","1551436","0.0-258.0-0.0","307.30000019073486","","","","49","1,0,1","5","mountain","194","probe-39","0.6842860881615811","0.26743336410224433","0.3979809455177329","1","","","","","","","",""
"","html-keyboard-response","486","1552440","0.0-258.0-1.0","null","<p></p>","null","","","","","","","","","","","","","","","","","","",""
"","do_trial","487","1557289","0.0-259.0-0.0","315.80000019073486","","","","49","0,1,0","5","mountain","195","probe-147","0.702837185693285","0.29437256211948987","0.1628012225708703","0","","","","","","","",""
"","html-keyboard-response","488","1558305","0.0-259.0-1.0","null","<p></p>","null","","","","","","","","","","","","","","","","","","",""
"","do_trial","489","1563097","0.0-260.0-0.0","246.19999980926514","","","","49","1,1,0","5","mountain","196","probe-109","0.7086558846369814","0.3494666212605435","0.11258392443594549","1","","","","","","","",""
"","html-keyboard-response","490","1564109","0.0-260.0-1.0","null","<p></p>","null","","","","","","","","","","","","","","","","","","",""
"","do_trial","491","1569386","0.0-261.0-0.0","742.5","","","","49","1,1,0","5","mountain","197","probe-174","0.6640355718686712","0.33601902187309557","0.21505841234419307","1","","","","","","","",""
"","html-keyboard-response","492","1570389","0.0-261.0-1.0","null","<p></p>","null","","","","","","","","","","","","","","","","","","",""
"","do_trial","493","1575434","0.0-262.0-0.0","513.4000000953674","","","","49","0,1,0","5","mountain","198","probe-102","0.5606124653787594","0.452792378679145","0.058404474039680514","0","","","","","","","",""
"","html-keyboard-response","494","1576436","0.0-262.0-1.0","null","<p></p>","null","","","","","","","","","","","","","","","","","","",""
"","do_trial","495","1581301","0.0-263.0-0.0","319.19999980926514","","","","49","0,0,0","5","mountain","199","probe-215","0.5953500373204348","0.34051808108000464","0.18880652006734353","0","","","","","","","",""
"","html-keyboard-response","496","1582319","0.0-263.0-1.0","null","<p></p>","null","","","","","","","","","","","","","","","","","","",""
"","do_trial","497","1587342","0.0-264.0-0.0","472.6000003814697","","","","49","1,1,1","5","mountain","200","probe-105","0.5869288373015876","0.34174009633757857","0.24157144033037703","1","","","","","","","",""
"","html-keyboard-response","498","1588343","0.0-264.0-1.0","null","<p></p>","null","","","","","","","","","","","","","","","","","","",""
"","do_trial","499","1594411","0.0-265.0-0.0","1525.5999999046326","","","","49","1,0,0","5","mountain","201","probe-26","0.7086590546538903","0.3967314925146388","0.30623784142425486","1","","","","","","","",""
"","html-keyboard-response","500","1595414","0.0-265.0-1.0","null","<p></p>","null","","","","","","","","","","","","","","","","","","",""
"","do_trial","501","1600423","0.0-266.0-0.0","462.40000009536743","","","","49","1,0,0","5","mountain","202","probe-100","0.722504855581276","0.42137443358108917","0.15815575269654272","1","","","","","","","",""
"","html-keyboard-response","502","1601442","0.0-266.0-1.0","null","<p></p>","null","","","","","","","","","","","","","","","","","","",""
"","do_trial","503","1606272","0.0-267.0-0.0","284","","","","49","1,1,1","5","mountain","203","probe-176","0.6625583294703472","0.5125130207497337","0.23350021241764893","1","","","","","","","",""
"","html-keyboard-response","504","1607279","0.0-267.0-1.0","null","<p></p>","null","","","","","","","","","","","","","","","","","","",""
"","do_trial","505","1612295","0.0-268.0-0.0","481.7000002861023","","","","49","0,0,0","5","mountain","204","probe-175","0.38962526732434766","0.7306029582145965","0.18443161821156484","0","","","","","","","",""
"","html-keyboard-response","506","1613297","0.0-268.0-1.0","null","<p></p>","null","","","","","","","","","","","","","","","","","","",""
"","do_trial","507","1618147","0.0-269.0-0.0","320.3999996185303","","","","49","1,1,0","5","mountain","205","probe-75","0.32420898710024076","0.6770443329157524","0.2307857853073069","1","","","","","","","",""
"","html-keyboard-response","508","1619150","0.0-269.0-1.0","null","<p></p>","null","","","","","","","","","","","","","","","","","","",""
"","do_trial","509","1623928","0.0-270.0-0.0","237.09999990463257","","","","49","0,1,0","5","mountain","206","probe-184","0.16156863976568894","0.6954749525065532","0.25282590565655294","0","","","","","","","",""
"","html-keyboard-response","510","1624944","0.0-270.0-1.0","null","<p></p>","null","","","","","","","","","","","","","","","","","","",""
"","do_trial","511","1629791","0.0-271.0-0.0","302.90000009536743","","","","49","0,1,0","5","mountain","207","probe-84","0.12161360619323491","0.5675751157902142","0.0929818943903511","0","","","","","","","",""
"","html-keyboard-response","512","1630807","0.0-271.0-1.0","null","<p></p>","null","","","","","","","","","","","","","","","","","","",""
"","do_trial","513","1636350","0.0-272.0-0.0","1004.1999998092651","","","","49","1,0,0","5","mountain","208","probe-71","0.19614993026194572","0.5885194735452212","0.15857471716203939","1","","","","","","","",""
"","html-keyboard-response","514","1637353","0.0-272.0-1.0","null","<p></p>","null","","","","","","","","","","","","","","","","","","",""
"","do_trial","515","1642301","0.0-273.0-0.0","400.5","","","","49","0,1,0","5","mountain","209","probe-22","0.16299591599753158","0.46168232624353883","0.181116358816586","0","","","","","","","",""
"","html-keyboard-response","516","1643311","0.0-273.0-1.0","null","<p></p>","null","","","","","","","","","","","","","","","","","","",""
"","do_trial","517","1648471","0.0-274.0-0.0","609.2000002861023","","","","49","1,0,1","5","mountain","210","probe-138","0.14229163690280883","0.39461363564085994","0.1342012108097392","1","","","","","","","",""
"","html-keyboard-response","518","1649481","0.0-274.0-1.0","null","<p></p>","null","","","","","","","","","","","","","","","","","","",""
"","do_trial","519","1654322","0.0-275.0-0.0","305.19999980926514","","","","49","0,1,0","5","mountain","211","probe-34","0.15263536482084472","0.4371595246456229","0.06437775634184327","0","","","","","","","",""
"","html-keyboard-response","520","1655337","0.0-275.0-1.0","null","<p></p>","null","","","","","","","","","","","","","","","","","","",""
"","do_trial","521","1661308","0.0-276.0-0.0","1426.5","","","","49","0,1,0","5","mountain","212","probe-18","0.23338232917145482","0.4741382265765184","0.08865393706064818","0","","","","","","","",""
"","html-keyboard-response","522","1662316","0.0-276.0-1.0","null","<p></p>","null","","","","","","","","","","","","","","","","","","",""
"","do_trial","523","1667341","0.0-277.0-0.0","491.09999990463257","","","","49","0,0,1","5","mountain","213","probe-145","0.2617376666737038","0.5903492906181311","0.11678680342472192","0","","","","","","","",""
"","html-keyboard-response","524","1668351","0.0-277.0-1.0","null","<p></p>","null","","","","","","","","","","","","","","","","","","",""
