"success","trial_type","trial_index","time_elapsed","internal_node_id","rt","stimulus","key_press","subject_id","response","choice_outcomes","context_n","context_img_id","trial_n","probe_img_id","pR_red","pR_white","pR_black","outcome","contextArray_ind","validImageProbes","invalidImageProbes","pRew_Red","pRew_White","pRew_Black","availableForMemProbe","choice_blocks"
"true","fullscreen","0","6291","0.0-0.0","","","","","","","","","","","","","","","","","","","","","",""
"","pavlovia","1","6298","0.0-1.0","","","","","","","","","","","","","","","","","","","","","",""
"","html-keyboard-response","2","22727","0.0-2.0","16422","<div class='center'><p>Welcome! This is the first day of the experiment which will last ~30 minutes. In this experiment, you are the head captain of a pirate ship traveling around the world to different places. You will complete several different tasks during this experiment. Here is an overview of these tasks:</p><br><p>Day 1</p><p>1. Tutorial and quiz</p><p>2. Pick a pirate game in 6 different places</p><br><p>Day 2</p><p>3. Pick a pirate game and memory game</p><p>4. Final questions and payment</p><br><p>If you complete the entire experiment, you will receive $15 and a possible bonus payment.</p><p><b>[Press the space bar to begin the tutorial]</b></p></div>","32","61157d9ccbc29b6d2bfc63c9","","","","","","","","","","","","","","","","","",""
"","html-keyboard-response","3","28563","0.0-3.0","5830","<div class='center'><p>You’ll stop at these 6 islands on your journey. You'll be able to see them in the distance from your ship.</p><p><img src='run_exp/static/images/contexts/all_contexts.png' height='500'></p><p><b>[Press the space bar to continue]</b></p></div>","32","","","","","","","","","","","","","","","","","","",""
"","html-keyboard-response","4","40725","0.0-4.0","12160","<div class='center'><p> The pirates on your ship will rob other ships as they leave island</p> These ships have just sold their things to the people living on the island, so they will have lots and lots of gold on them.</p><p><img src='run_exp/static/images/tutorial/ship_center.png' height='400'></p><p><b>[Press the space bar to continue]</b></p></div>","32","","","","","","","","","","","","","","","","","","",""
"","html-keyboard-response","5","93954","0.0-5.0","53229.000000000015","<div class='center'><p>As the head captain, you do not have to rob any ships yourself.</p><p>Another pirate will be doing the robbing for you. </p><p><img src='run_exp/static/images/tutorial/pirates_all_crop.png' height='200'></p><p>If they could rob the ship, then you will get a stack of gold coins like this:</p><p><img src='run_exp/static/images/tutorial/reward.png' height='150'></p><p> If they couldn't rob the ship, then you will get no gold coins and you'll see a big red x like this: </p><p><img src='run_exp/static/images/tutorial/reward_no.png' height='150'></p><p> How much bonus money you make is based on how many gold coins you collect.</p><p><b>[Press the space bar to continue]</b></p><div>","32","","","","","","","","","","","","","","","","","","",""
"","html-keyboard-response","6","118151","0.0-6.0","24197.00000000003","<div class='center'><p>Even the most skilled pirate can not rob EVERY ship.</p><p> Some ships will have very strong defenses against pirate attacks.</p><p> For example, blue beard, here, is very, very good at robbing ships.</p><p> You can press the <b>‘1’</b> button on the keyboard to choose him.</p><p> Try choosing him 10 times to see how often he can rob a ship. </p><p><img src='run_exp/static/images/tutorial/blue.png' height='500'></p></div>","49","","","","","","","","","","","","","","","","","","",""
"","html-keyboard-response","7","119654","0.0-7.0","null","<div class='center'><p><img src='run_exp/static/images/tutorial/blue_win.png' height='500'></p></div>","null","","","","","","","","","","","","","","","","","","",""
"","html-keyboard-response","8","122689","0.0-8.0","3033","<div class='center'><img src='run_exp/static/images/tutorial/blue.png' height='500'></p></div>","49","","","","","","","","","","","","","","","","","","",""
"","html-keyboard-response","9","124190","0.0-9.0","null","<div class='center'><p><img src='run_exp/static/images/tutorial/blue_win.png' height='500'></p></div>","null","","","","","","","","","","","","","","","","","","",""
"","html-keyboard-response","10","124998","0.0-10.0","807","<div class='center'><img src='run_exp/static/images/tutorial/blue.png' height='500'></p></div>","49","","","","","","","","","","","","","","","","","","",""
"","html-keyboard-response","11","126501","0.0-11.0","null","<div class='center'><p><img src='run_exp/static/images/tutorial/blue_win.png' height='500'></p></div>","null","","","","","","","","","","","","","","","","","","",""
"","html-keyboard-response","12","127225","0.0-12.0","722","<div class='center'><img src='run_exp/static/images/tutorial/blue.png' height='500'></p></div>","49","","","","","","","","","","","","","","","","","","",""
"","html-keyboard-response","13","128727","0.0-13.0","null","<div class='center'><p><img src='run_exp/static/images/tutorial/blue_no_win.png' height='500'></p></div>","null","","","","","","","","","","","","","","","","","","",""
"","html-keyboard-response","14","129706","0.0-14.0","977","<div class='center'><img src='run_exp/static/images/tutorial/blue.png' height='500'></p></div>","49","","","","","","","","","","","","","","","","","","",""
"","html-keyboard-response","15","131208","0.0-15.0","null","<div class='center'><p><img src='run_exp/static/images/tutorial/blue_win.png' height='500'></p></div>","null","","","","","","","","","","","","","","","","","","",""
"","html-keyboard-response","16","131610","0.0-16.0","400","<div class='center'><img src='run_exp/static/images/tutorial/blue.png' height='500'></p></div>","49","","","","","","","","","","","","","","","","","","",""
"","html-keyboard-response","17","133113","0.0-17.0","null","<div class='center'><p><img src='run_exp/static/images/tutorial/blue_win.png' height='500'></p></div>","null","","","","","","","","","","","","","","","","","","",""
"","html-keyboard-response","18","133936","0.0-18.0","822","<div class='center'><img src='run_exp/static/images/tutorial/blue.png' height='500'></p></div>","49","","","","","","","","","","","","","","","","","","",""
"","html-keyboard-response","19","135439","0.0-19.0","null","<div class='center'><p><img src='run_exp/static/images/tutorial/blue_win.png' height='500'></p></div>","null","","","","","","","","","","","","","","","","","","",""
"","html-keyboard-response","20","136115","0.0-20.0","674","<div class='center'><img src='run_exp/static/images/tutorial/blue.png' height='500'></p></div>","49","","","","","","","","","","","","","","","","","","",""
"","html-keyboard-response","21","137617","0.0-21.0","null","<div class='center'><p><img src='run_exp/static/images/tutorial/blue_no_win.png' height='500'></p></div>","null","","","","","","","","","","","","","","","","","","",""
"","html-keyboard-response","22","138246","0.0-22.0","627","<div class='center'><img src='run_exp/static/images/tutorial/blue.png' height='500'></p></div>","49","","","","","","","","","","","","","","","","","","",""
"","html-keyboard-response","23","139749","0.0-23.0","null","<div class='center'><p><img src='run_exp/static/images/tutorial/blue_win.png' height='500'></p></div>","null","","","","","","","","","","","","","","","","","","",""
"","html-keyboard-response","24","140368","0.0-24.0","617.9999999999709","<div class='center'><img src='run_exp/static/images/tutorial/blue.png' height='500'></p></div>","49","","","","","","","","","","","","","","","","","","",""
"","html-keyboard-response","25","141870","0.0-25.0","null","<div class='center'><p><img src='run_exp/static/images/tutorial/blue_win.png' height='500'></p></div>","null","","","","","","","","","","","","","","","","","","",""
"","html-keyboard-response","26","146267","0.0-26.0","4396","<div class='center'><p> See, he could rob the ships most of the time but not every time. </p><p><b>[Press the space bar to continue]</b></p></div>","32","","","","","","","","","","","","","","","","","","",""
"","html-keyboard-response","27","154729","0.0-27.0","8461","<div class='center'><p>You will get to choose which of three pirates you want to rob the next ship. <p>Press the <b>‘1’</b> button on your keyboard to pick the pirate with the red beard.</p><p> Press <b>‘2’</b> to pick the pirate with the white beard.</p><p> Press <b>‘3’</b> to pick the pirate with the black beard.</p><p>Try picking a pirate now!</p><p><img src='run_exp/static/images/tutorial/all_pirates.png' height='500'></p></div>","49","","","","","","","","","","","","","","","","","","",""
"","html-keyboard-response","28","158689","0.0-28.0-0.0","3956","<div class='center'><p>This pirate could rob the ship!</p><p><img src='run_exp/static/images/tutorial/red_win.png' height='500'></p><p><b>[Press the space bar to continue]</b></p></div>","32","","","","","","","","","","","","","","","","","","",""
"","html-keyboard-response","29","161091","0.0-28.0-1.0","2400.999999999971","<div class='center'><p>Now try choosing another</p><p><img src='run_exp/static/images/tutorial/all_pirates.png' height='500'></p></div>","50","","","","","","","","","","","","","","","","","","",""
"","html-keyboard-response","30","162510","0.0-29.0-0.0","1417","<div class='center'><p>This pirate could not rob the ship!</p><p><img src='run_exp/static/images/tutorial/white_no_win.png' height='500'></p><p><b>[Press the space bar to continue]</b></p></div>","32","","","","","","","","","","","","","","","","","","",""
"","html-keyboard-response","31","170062","0.0-30.0-0.0","7550","<div class='center'><p>If you don’t make your choice fast enough, you’ll have to wait a few seconds before you can make another one. </p><p>You can’t collect more gold coins. You just have to sit and wait.</p><p><img src='run_exp/static/images/miscellaneous/hurry_up.png' height='500'></p><p><b>[Press the space bar to continue]</b></p></div>","32","","","","","","","","","","","","","","","","","","",""
"","html-keyboard-response","32","170227","0.0-30.0-1.0","164","<div class='center'><p>Once you choose a pirate, you’ll be shown the ship they are robbing.</p><p>You will never rob the same ship twice.</p><p>Ships can be told apart from one another by the image on them.</p><p> Every time you see a ship, you will have to remember on which island you saw it.</p><p> Remembering correctly will help you win more bonus money!</p><p>A helpful strategy is to try to come up with a story of the object on the ship interacting with the current island scene.</p><p> For example, here, you could imagine a mug full of water in the desert. </p><p>For a ship with an apple on it on the forest island, you could imagine an apple falling from a tree in the forest.</p><p><img src='run_exp/static/images/tutorial/example_probe.png' height='500'></p><p><b>[Press the space bar to continue]</b></p></div>","32","","","","","","","","","","","","","","","","","","",""
"","html-keyboard-response","33","185159","0.0-30.0-2.0","14931.00000000003","<div class='center'><p>How good a pirate is at robbing ships will depend on the current island.</p><p> A pirate may have visited the island many times before and gained a lot of practice robbing ships there.</p><p>So, they're more likely to bring back gold coins than a pirate who has never visited this island before. </p><p><b>[Press the space bar to continue]</b></p></div>","32","","","","","","","","","","","","","","","","","","",""
"","html-keyboard-response","34","214473","0.0-30.0-3.0","29314.00000000003","<div class='center'><p>How good a pirate is at robbing ships can also change over the time spent on the island<p> Ships may hear from islanders about the pirates coming and will improve their protection against the attack. This may make it harder to rob them.</p><p> Ships may also become lazy and lower their protection. This may make it easier to rob them.</p><br><p>Things are always changing on the high seas! So, try your best to pay attention!</p><p><img src='run_exp/static/images/tutorial/contingency.png' height='500'></p><p><b>[Press the space bar to continue]</b></p></div>","32","","","","","","","","","","","","","","","","","","",""
"","html-keyboard-response","35","255637","0.0-30.0-4.0","41165","<div class='center'><p>Let's go over the instructions quickly again.You have two important things to do: </p><b><p> 1. Pick the pirate who is the best at robbing ships on the current island.</p></b><b><p> 2. Remember on which island a ship was robbed.</p> </b><p>How much bonus money you make is based on both. </p><br><p>Let’s try a practice game. The game will start by showing you the pirates. First pick a pirate using the <b> 1, 2, 3 </b> buttons on your keyboard. When you are shown a ship, try to remember the island you’re on by making up a story.</p><p> You only have 3 seconds to pick a pirate, so please make a choice quickly! If you are too slow, you’ll have to wait a bit during the time out.</p><p> Don’t feel rushed, but please do try to make a choice every time.</p><p>This is just a practice game, so you’re not playing for money. </p><p> Good luck, remember press <b>'1'</b> to choose red beard, <b>'2'</b> to choose white beard, and <b>'3'</b> to choose black beard</p><p><b>[Press the space bar to begin the practice game]</b></p></div>","32","","","","","","","","","","","","","","","","","","",""
"","do_welcome","36","257144","0.0-30.0-5.0","null","","","","null","","","","","","","","","","","","","","","","",""
"","do_trial","37","263467","0.0-30.0-6.0","1813","","","","51","1,0,0","","","","","","","","","","","","","","","",""
"","html-keyboard-response","38","264470","0.0-31.0-0.0","null","<p></p>","null","","","","","","","","","","","","","","","","","","",""
"","do_trial","39","270696","0.0-31.0-1.0","1721","","","","50","1,1,0","","","","","","","","","","","","","","","",""
"","html-keyboard-response","40","271699","0.0-32.0-0.0","null","<p></p>","null","","","","","","","","","","","","","","","","","","",""
"","do_trial","41","277938","0.0-32.0-1.0","1732","","","","50","1,0,1","","","","","","","","","","","","","","","",""
"","html-keyboard-response","42","278941","0.0-33.0-0.0","null","<p></p>","null","","","","","","","","","","","","","","","","","","",""
"","do_trial","43","284462","0.0-33.0-1.0","1013","","","","49","0,1,0","","","","","","","","","","","","","","","",""
"","html-keyboard-response","44","285466","0.0-34.0-0.0","null","<p></p>","null","","","","","","","","","","","","","","","","","","",""
"","do_trial","45","291125","0.0-34.0-1.0","1153","","","","49","1,0,0","","","","","","","","","","","","","","","",""
"","do_bye","46","292633","0.0-35.0-0.0","null","","","","null","","","","","","","","","","","","","","","","",""
"","do_travel","47","298641","0.0-35.0-1.0","null","","","","null","","","","","","","","","","","","","","","","",""
"","do_welcome","48","300148","0.0-35.0-2.0","null","","","","null","","","","","","","","","","","","","","","","",""
"","do_trial","49","306531","0.0-35.0-3.0","1871.0000000000582","","","","51","1,0,0","","","","","","","","","","","","","","","",""
"","html-keyboard-response","50","307535","0.0-36.0-0.0","null","<p></p>","null","","","","","","","","","","","","","","","","","","",""
"","do_trial","51","312935","0.0-36.0-1.0","890.9999999999418","","","","50","1,0,1","","","","","","","","","","","","","","","",""
"","html-keyboard-response","52","313939","0.0-37.0-0.0","null","<p></p>","null","","","","","","","","","","","","","","","","","","",""
"","do_trial","53","319058","0.0-37.0-1.0","611","","","","50","1,1,0","","","","","","","","","","","","","","","",""
"","html-keyboard-response","54","320063","0.0-38.0-0.0","null","<p></p>","null","","","","","","","","","","","","","","","","","","",""
"","do_trial","55","325889","0.0-38.0-1.0","1317.0000000000582","","","","49","0,0,1","","","","","","","","","","","","","","","",""
"","html-keyboard-response","56","326893","0.0-39.0-0.0","null","<p></p>","null","","","","","","","","","","","","","","","","","","",""
"","do_trial","57","332199","0.0-39.0-1.0","793.9999999999418","","","","50","1,0,1","","","","","","","","","","","","","","","",""
"","html-keyboard-response","58","338390","0.0-40.0-0.0","6189.000000000058","<div class='center'><p><img src='run_exp/static/images/tutorial/prac_best_pirate.png'  height='500'></p></div>","50","","","","","","","","","","","","","","","","","","",""
"","html-keyboard-response","59","341551","0.0-41.0-0.0","3160.000000000058","<div class='center'><p>That's incorrect! Red beard was the best.</p><p><b>[Press the space bar to continue]</b></p></div>","32","","","","","","","","","","","","","","","","","","",""
"","html-keyboard-response","60","349689","0.0-41.0-1.0","8137","<div class='center'><p><img src='run_exp/static/images/tutorial/prac_source.png'  height='500'></p></div>","50","","","","","","","","","","","","","","","","","","",""
"","html-keyboard-response","61","352049","0.0-42.0-0.0","2358","<div class='center'><p>That's correct! You saw this ship on the cavern island.</p><p><b>[Press the space bar to continue]</b></p></div>","32","","","","","","","","","","","","","","","","","","",""
"","html-keyboard-response","62","361863","0.0-42.0-1.0","9811","<div class='center'><p>Good job on the practice game! Now, you will be asked you some true or false questions to make sure you really understand the rules of the game.</p><p> Press <b>'1'</b> on the keyboard for true and press <b>'2'</b> for false.</p><p><b>[Press the space bar to begin the quiz]</b></p></div>","32","","","","","","","","","","","","","","","","","","",""
"","html-keyboard-response","63","375233","0.0-42.0-2.0","13369","<div class='center'><p>You win bonus money by making choices as fast as possible.</p><p>Press 1 for true and press  2 for false.</p></div>","49","","","","","","","","","","","","","","","","","","",""
"","html-keyboard-response","64","379900","0.0-43.0-0.0","4664.999999999942","<<div class='center'><p>That’s incorrect! You win bonus money by collecting as many gold coins as possible!</p><p><b>[press the space bar to continue with the quiz]</b></p></div>","32","","","","","","","","","","","","","","","","","","",""
"","html-keyboard-response","65","384029","0.0-43.0-1.0","4128","<div class='center'><p>You press the <b>‘3’</b> button on the keyboard to choose the red bearded pirate. </p><p>Press 1 for true and press  2 for false.</p></div>","50","","","","","","","","","","","","","","","","","","",""
"","html-keyboard-response","66","387241","0.0-44.0-0.0","3210","<div class='center'><p>That's correct!</p> <p><b>[press the space bar to continue with the quiz]</b></p></div>","32","","","","","","","","","","","","","","","","","","",""
"","html-keyboard-response","67","393816","0.0-44.0-1.0","6574","<div class='center'><p>The pirate who is the best at robbing ships on the first island will be the best on every other island.</p><p>Press 1 for true and press  2 for false.</p></div>","50","","","","","","","","","","","","","","","","","","",""
"","html-keyboard-response","68","395346","0.0-45.0-0.0","1529","<div class='center'><p>That's correct!</p> <p><b>[press the space bar to continue with the quiz]</b></p></div>","32","","","","","","","","","","","","","","","","","","",""
"","html-keyboard-response","69","398086","0.0-45.0-1.0","2739.999999999942","<div class='center'><p>You should remember the island where a pirate robbed a ship.</p><p>Press 1 for true and press  2 for false.</p></div>","49","","","","","","","","","","","","","","","","","","",""
"","html-keyboard-response","70","398979","0.0-46.0-0.0","892","<div class='center'><p>That's correct!</p> <p><b>[press the space bar to continue with the quiz]</b></p></div>","32","","","","","","","","","","","","","","","","","","",""
"","html-keyboard-response","71","409698","0.0-47.0-0.0","10718","<div class='center'><p>Oops, you missed some questions. Now that you’ve heard the correct answers. Try the quiz again! If you fail the quiz too many times, you won’t be able to do the experiment. </p> <p><br>[press the space bar to repeat the quiz]</br></p></div>","32","","","","","","","","","","","","","","","","","","",""
"","html-keyboard-response","72","417197","0.0-47.0-1.0","7498","<div class='center'><p>You win bonus money by making choices as fast as possible.</p><p>Press 1 for true and press  2 for false.</p></div>","50","","","","","","","","","","","","","","","","","","",""
"","html-keyboard-response","73","418762","0.0-48.0-0.0","1564","<div class='center'><p>That's correct!</p> <p><b>[press the space bar to continue with the quiz]</b></p></div>","32","","","","","","","","","","","","","","","","","","",""
"","html-keyboard-response","74","420666","0.0-48.0-1.0","1902","<div class='center'><p>You press the <b>‘3’</b> button on the keyboard to choose the red bearded pirate. </p><p>Press 1 for true and press  2 for false.</p></div>","50","","","","","","","","","","","","","","","","","","",""
"","html-keyboard-response","75","422211","0.0-49.0-0.0","1543.9999999999418","<div class='center'><p>That's correct!</p> <p><b>[press the space bar to continue with the quiz]</b></p></div>","32","","","","","","","","","","","","","","","","","","",""
"","html-keyboard-response","76","425326","0.0-49.0-1.0","3113","<div class='center'><p>The pirate who is the best at robbing ships on the first island will be the best on every other island.</p><p>Press 1 for true and press  2 for false.</p></div>","50","","","","","","","","","","","","","","","","","","",""
"","html-keyboard-response","77","426372","0.0-50.0-0.0","1046","<div class='center'><p>That's correct!</p> <p><b>[press the space bar to continue with the quiz]</b></p></div>","32","","","","","","","","","","","","","","","","","","",""
"","html-keyboard-response","78","428000","0.0-50.0-1.0","1626.9999999999418","<div class='center'><p>You should remember the island where a pirate robbed a ship.</p><p>Press 1 for true and press  2 for false.</p></div>","49","","","","","","","","","","","","","","","","","","",""
"","html-keyboard-response","79","429430","0.0-51.0-0.0","1419.9999999999418","<div class='center'><p>That's correct!</p> <p><b>[press the space bar to continue with the quiz]</b></p></div>","32","","","","","","","","","","","","","","","","","","",""
"","html-keyboard-response","80","431971","0.0-52.0-0.0","2540","<div class='center'><p>Good job! You’re now ready to move on to the real game!</p> <p><br>[press the space bar to begin!]</br></p></div>","32","","","","","","","","","","","","","","","","","","",""
"","do_welcome","81","433480","0.0-53.0-0.0","null","","","","null","","","","","","","","","","","","","","","","",""
"","do_trial","82","439539","0.0-54.0-0.0","null","","","","null","1,0,0","0","forest","0","probe-133","0.6","0.3","0.1","","","","","","","","",""
"","html-keyboard-response","83","440545","0.0-54.0-1.0","null","<p></p>","null","","","","","","","","","","","","","","","","","","",""
"","do_trial","84","447607","0.0-55.0-0.0","2523","","","","50","1,1,0","0","forest","1","probe-181","0.6611257907065888","0.19346569357819257","0.19350212851934281","1","","","","","","","",""
"","html-keyboard-response","85","448610","0.0-55.0-1.0","null","<p></p>","null","","","","","","","","","","","","","","","","","","",""
"","do_trial","86","455271","0.0-56.0-0.0","2120","","","","50","1,1,0","0","forest","2","probe-159","0.5103991930539205","0.1912677898536735","0.08527862643229928","1","","","","","","","",""
"","html-keyboard-response","87","456274","0.0-56.0-1.0","null","<p></p>","null","","","","","","","","","","","","","","","","","","",""
"","do_trial","88","461984","0.0-57.0-0.0","1171","","","","50","1,0,0","0","forest","3","probe-187","0.4525911407957662","0.21446222132116885","0.06462710475809226","0","","","","","","","",""
"","html-keyboard-response","89","462988","0.0-57.0-1.0","null","<p></p>","null","","","","","","","","","","","","","","","","","","",""
"","do_trial","90","469031","0.0-58.0-0.0","null","","","","null","1,0,0","0","forest","4","probe-58","0.6461421993190666","0.2328024093825138","0.09656359511935271","","","","","","","","",""
"","html-keyboard-response","91","470034","0.0-58.0-1.0","null","<p></p>","null","","","","","","","","","","","","","","","","","","",""
"","do_trial","92","475188","0.0-59.0-0.0","613","","","","50","1,1,0","0","forest","5","probe-02","0.6768155530841093","0.20183470521099636","0.2193181006089322","1","","","","","","","",""
"","html-keyboard-response","93","476191","0.0-59.0-1.0","null","<p></p>","null","","","","","","","","","","","","","","","","","","",""
"","do_trial","94","481735","0.0-60.0-0.0","1004","","","","50","0,0,0","0","forest","6","probe-23","0.6386657091412171","0.2624114530324764","0.09007938712933085","0","","","","","","","",""
"","html-keyboard-response","95","482740","0.0-60.0-1.0","null","<p></p>","null","","","","","","","","","","","","","","","","","","",""
"","do_trial","96","487922","0.0-61.0-0.0","642","","","","50","1,0,0","0","forest","7","probe-09","0.7655933553145058","0.21502989475116288","0.10237642110939717","0","","","","","","","",""
"","html-keyboard-response","97","488928","0.0-61.0-1.0","null","<p></p>","null","","","","","","","","","","","","","","","","","","",""
"","do_trial","98","494327","0.0-62.0-0.0","856","","","","50","1,0,0","0","forest","8","probe-188","0.7005532447206995","0.21633896878130163","0.08757069490075801","0","","","","","","","",""
"","html-keyboard-response","99","495330","0.0-62.0-1.0","null","<p></p>","null","","","","","","","","","","","","","","","","","","",""
"","do_trial","100","500754","0.0-63.0-0.0","886.9999999999418","","","","51","1,0,0","0","forest","9","probe-212","0.6902290248909527","0.32910552772184","0.08178967407467132","0","","","","","","","",""
"","html-keyboard-response","101","501757","0.0-63.0-1.0","null","<p></p>","null","","","","","","","","","","","","","","","","","","",""
"","do_trial","102","507005","0.0-64.0-0.0","711.9999999999418","","","","49","0,1,0","0","forest","10","probe-180","0.48959130850395755","0.28377610852338236","0.059680770525773655","0","","","","","","","",""
"","html-keyboard-response","103","508010","0.0-64.0-1.0","null","<p></p>","null","","","","","","","","","","","","","","","","","","",""
"","do_trial","104","513219","0.0-65.0-0.0","671","","","","50","1,0,0","0","forest","11","probe-89","0.4919249393408927","0.4185029087856118","0.06480381780820285","0","","","","","","","",""
"","html-keyboard-response","105","514222","0.0-65.0-1.0","null","<p></p>","null","","","","","","","","","","","","","","","","","","",""
"","do_trial","106","519331","0.0-66.0-0.0","573","","","","50","1,0,0","0","forest","12","probe-12","0.67371196297906","0.2570205210683102","0.08958363900198563","0","","","","","","","",""
"","html-keyboard-response","107","520336","0.0-66.0-1.0","null","<p></p>","null","","","","","","","","","","","","","","","","","","",""
"","do_trial","108","525932","0.0-67.0-0.0","1059","","","","50","1,0,0","0","forest","13","probe-19","0.636215539183321","0.31418000054830336","0.16615941260082787","0","","","","","","","",""
"","html-keyboard-response","109","526934","0.0-67.0-1.0","null","<p></p>","null","","","","","","","","","","","","","","","","","","",""
"","do_trial","110","532037","0.0-68.0-0.0","564.9999999998836","","","","51","1,0,0","0","forest","14","probe-85","0.5078185376159453","0.2910401871854768","0.24522215566477293","0","","","","","","","",""
"","html-keyboard-response","111","533040","0.0-68.0-1.0","null","<p></p>","null","","","","","","","","","","","","","","","","","","",""
"","do_trial","112","538383","0.0-69.0-0.0","804","","","","50","1,1,0","0","forest","15","probe-135","0.43196039664938457","0.41913203491834977","0.2846930657026294","1","","","","","","","",""
"","html-keyboard-response","113","539385","0.0-69.0-1.0","null","<p></p>","null","","","","","","","","","","","","","","","","","","",""
"","do_trial","114","544769","0.0-70.0-0.0","840.0000000001164","","","","50","1,1,1","0","forest","16","probe-15","0.5143466241697924","0.2854543718936099","0.2399621596100595","1","","","","","","","",""
"","html-keyboard-response","115","545773","0.0-70.0-1.0","null","<p></p>","null","","","","","","","","","","","","","","","","","","",""
"","do_trial","116","551094","0.0-71.0-0.0","774","","","","50","0,1,1","0","forest","17","probe-141","0.5369481319048356","0.41083808547403544","0.14768238834148453","1","","","","","","","",""
"","html-keyboard-response","117","552100","0.0-71.0-1.0","null","<p></p>","null","","","","","","","","","","","","","","","","","","",""
"","do_trial","118","557355","0.0-72.0-0.0","701","","","","50","0,0,0","0","forest","18","probe-99","0.5140154920136613","0.3223078893200392","0.2126233810494901","0","","","","","","","",""
"","html-keyboard-response","119","558361","0.0-72.0-1.0","null","<p></p>","null","","","","","","","","","","","","","","","","","","",""
"","do_trial","120","565480","0.0-73.0-0.0","2563","","","","51","0,1,0","0","forest","19","probe-61","0.47254920545392315","0.31255962212624505","0.16312982673156334","0","","","","","","","",""
"","html-keyboard-response","121","566483","0.0-73.0-1.0","null","<p></p>","null","","","","","","","","","","","","","","","","","","",""
"","do_trial","122","572538","0.0-74.0-0.0","null","","","","null","1,0,0","0","forest","20","probe-110","0.5663901940320776","0.09817454518183283","0.13385662066229492","","","","","","","","",""
"","html-keyboard-response","123","573543","0.0-74.0-1.0","null","<p></p>","null","","","","","","","","","","","","","","","","","","",""
"","do_trial","124","578872","0.0-75.0-0.0","774","","","","50","1,0,0","0","forest","21","probe-90","0.5752269324757384","0.09233554740619314","0.18401215155457123","0","","","","","","","",""
"","html-keyboard-response","125","579875","0.0-75.0-1.0","null","<p></p>","null","","","","","","","","","","","","","","","","","","",""
"","do_trial","126","586489","0.0-76.0-0.0","2058","","","","49","1,0,0","0","forest","22","probe-13","0.6355060583285215","0.19627845153263568","0.09759095552221184","1","","","","","","","",""
"","html-keyboard-response","127","587492","0.0-76.0-1.0","null","<p></p>","null","","","","","","","","","","","","","","","","","","",""
"","do_trial","128","593024","0.0-77.0-0.0","977","","","","49","1,0,0","0","forest","23","probe-149","0.5297678997351363","0.16105741312117128","0.14892966645641453","1","","","","","","","",""
"","html-keyboard-response","129","594030","0.0-77.0-1.0","null","<p></p>","null","","","","","","","","","","","","","","","","","","",""
"","do_trial","130","599497","0.0-78.0-0.0","913","","","","49","0,0,0","0","forest","24","probe-224","0.4666987446891185","0.13947391024492686","0.26590129085245884","0","","","","","","","",""
"","html-keyboard-response","131","600500","0.0-78.0-1.0","null","<p></p>","null","","","","","","","","","","","","","","","","","","",""
"","do_trial","132","605650","0.0-79.0-0.0","596","","","","50","0,0,0","0","forest","25","probe-87","0.5262473057641853","0.1513814881234623","0.11732198101367361","0","","","","","","","",""
"","html-keyboard-response","133","606653","0.0-79.0-1.0","null","<p></p>","null","","","","","","","","","","","","","","","","","","",""
"","do_trial","134","612044","0.0-80.0-0.0","837","","","","51","0,0,1","0","forest","26","probe-155","0.5059586846166484","0.2918037334931384","0.19528655177881832","1","","","","","","","",""
"","html-keyboard-response","135","613047","0.0-80.0-1.0","null","<p></p>","null","","","","","","","","","","","","","","","","","","",""
"","do_trial","136","618382","0.0-81.0-0.0","779","","","","51","1,1,0","0","forest","27","probe-177","0.5484306741462653","0.41314587590702806","0.18258654610005493","0","","","","","","","",""
"","html-keyboard-response","137","619384","0.0-81.0-1.0","null","<p></p>","null","","","","","","","","","","","","","","","","","","",""
"","do_trial","138","625140","0.0-82.0-0.0","1201","","","","49","1,0,0","0","forest","28","probe-80","0.5254904798240154","0.3826062951196875","0.09583443352134081","1","","","","","","","",""
"","html-keyboard-response","139","626143","0.0-82.0-1.0","null","<p></p>","null","","","","","","","","","","","","","","","","","","",""
"","do_trial","140","631331","0.0-83.0-0.0","629","","","","49","1,0,0","0","forest","29","probe-167","0.4243376364084469","0.4016985190884197","0.1275083338244778","1","","","","","","","",""
"","html-keyboard-response","141","632335","0.0-83.0-1.0","null","<p></p>","null","","","","","","","","","","","","","","","","","","",""
"","do_bye","142","633842","0.0-84.0-0.0","null","","","","null","","","","","","","","","","","","","","","","",""
"","do_travel","143","639848","0.0-85.0-0.0","null","","","","null","","","","","","","","","","","","","","","","",""
"","do_welcome","144","641356","0.0-85.0-1.0","null","","","","null","","","","","","","","","","","","","","","","",""
"","do_trial","145","647517","0.0-86.0-0.0","1607","","","","50","1,0,0","1","highway","30","probe-197","1","0.3047467102296436","0.13598458120539303","0","","","","","","","",""
"","html-keyboard-response","146","648520","0.0-86.0-1.0","null","<p></p>","null","","","","","","","","","","","","","","","","","","",""
"","do_trial","147","653585","0.0-87.0-0.0","526","","","","51","1,0,0","1","highway","31","probe-118","1","0.30099457457087286","0.20416114675509","0","","","","","","","",""
"","html-keyboard-response","148","654588","0.0-87.0-1.0","null","<p></p>","null","","","","","","","","","","","","","","","","","","",""
"","do_trial","149","659878","0.0-88.0-0.0","749","","","","49","1,1,1","1","highway","32","probe-66","1","0.20662217975566602","0.12026019481683703","1","","","","","","","",""
"","html-keyboard-response","150","660882","0.0-88.0-1.0","null","<p></p>","null","","","","","","","","","","","","","","","","","","",""
"","do_trial","151","666116","0.0-89.0-0.0","696","","","","49","1,0,0","1","highway","33","probe-116","0.9385687742858555","0.21158357119455165","0.08079852723772177","1","","","","","","","",""
"","html-keyboard-response","152","667119","0.0-89.0-1.0","null","<p></p>","null","","","","","","","","","","","","","","","","","","",""
"","do_trial","153","672334","0.0-90.0-0.0","668","","","","49","1,0,0","1","highway","34","probe-38","0.7635451572049019","0.24689442291593472","0.07486864307798462","1","","","","","","","",""
"","html-keyboard-response","154","673337","0.0-90.0-1.0","null","<p></p>","null","","","","","","","","","","","","","","","","","","",""
"","do_trial","155","678655","0.0-91.0-0.0","781","","","","49","1,0,0","1","highway","35","probe-56","0.6697785968619951","0.35540520036834805","0.25286125098568907","1","","","","","","","",""
"","html-keyboard-response","156","679658","0.0-91.0-1.0","null","<p></p>","null","","","","","","","","","","","","","","","","","","",""
"","do_trial","157","684806","0.0-92.0-0.0","610","","","","49","1,1,0","1","highway","36","probe-134","0.7361753833517847","0.38040567682234033","0.24241832852106773","1","","","","","","","",""
"","html-keyboard-response","158","685809","0.0-92.0-1.0","null","<p></p>","null","","","","","","","","","","","","","","","","","","",""
"","do_trial","159","690892","0.0-93.0-0.0","546","","","","49","0,1,0","1","highway","37","probe-96","0.5464989465891293","0.4041360933269765","0.18587587134520306","0","","","","","","","",""
"","html-keyboard-response","160","691896","0.0-93.0-1.0","null","<p></p>","null","","","","","","","","","","","","","","","","","","",""
"","do_trial","161","698133","0.0-94.0-0.0","1695","","","","49","1,1,0","1","highway","38","probe-73","0.665351178006631","0.3929156928858161","0.18294369884971454","1","","","","","","","",""
"","html-keyboard-response","162","699139","0.0-94.0-1.0","null","<p></p>","null","","","","","","","","","","","","","","","","","","",""
"","do_trial","163","704218","0.0-95.0-0.0","542","","","","49","0,0,0","1","highway","39","probe-136","0.46931262630504345","0.3982417719645948","0.0880453050952805","0","","","","","","","",""
"","html-keyboard-response","164","705221","0.0-95.0-1.0","null","<p></p>","null","","","","","","","","","","","","","","","","","","",""
"","do_trial","165","711878","0.0-96.0-0.0","2120","","","","50","0,1,0","1","highway","40","probe-160","0.5315059408482524","0.40464084537770073","0.328404974361287","1","","","","","","","",""
"","html-keyboard-response","166","712881","0.0-96.0-1.0","null","<p></p>","null","","","","","","","","","","","","","","","","","","",""
"","do_trial","167","718118","0.0-97.0-0.0","700","","","","50","1,1,1","1","highway","41","probe-93","0.630241508128411","0.42739905071661305","0.3968475086992102","1","","","","","","","",""
"","html-keyboard-response","168","719123","0.0-97.0-1.0","null","<p></p>","null","","","","","","","","","","","","","","","","","","",""
"","do_trial","169","724228","0.0-98.0-0.0","569.0000000001164","","","","50","1,1,0","1","highway","42","probe-18","0.29122496702685463","0.5818459672394398","0.41641892671922415","1","","","","","","","",""
"","html-keyboard-response","170","725231","0.0-98.0-1.0","null","<p></p>","null","","","","","","","","","","","","","","","","","","",""
"","do_trial","171","730777","0.0-99.0-0.0","1011","","","","50","0,1,0","1","highway","43","probe-128","0.18357351579868897","0.5582997449252871","0.4937993981819372","1","","","","","","","",""
"","html-keyboard-response","172","731780","0.0-99.0-1.0","null","<p></p>","null","","","","","","","","","","","","","","","","","","",""
"","do_trial","173","737429","0.0-100.0-0.0","1112","","","","50","0,1,0","1","highway","44","probe-40","0.08351608405143572","0.536215218045173","0.353309474992477","1","","","","","","","",""
"","html-keyboard-response","174","738432","0.0-100.0-1.0","null","<p></p>","null","","","","","","","","","","","","","","","","","","",""
"","do_trial","175","743620","0.0-101.0-0.0","649","","","","50","0,1,1","1","highway","45","probe-199","0.07380893503690229","0.6104914874856425","0.4109038219541293","1","","","","","","","",""
"","html-keyboard-response","176","744623","0.0-101.0-1.0","null","<p></p>","null","","","","","","","","","","","","","","","","","","",""
"","do_trial","177","749658","0.0-102.0-0.0","496.9999999998836","","","","50","0,1,0","1","highway","46","probe-204","0.09547196255642884","0.5603331763600988","0.40837300544809835","1","","","","","","","",""
"","html-keyboard-response","178","750662","0.0-102.0-1.0","null","<p></p>","null","","","","","","","","","","","","","","","","","","",""
"","do_trial","179","755803","0.0-103.0-0.0","602","","","","50","0,1,1","1","highway","47","probe-16","0.10627009619123243","0.7518041899500186","0.5126610365458756","1","","","","","","","",""
"","html-keyboard-response","180","756807","0.0-103.0-1.0","null","<p></p>","null","","","","","","","","","","","","","","","","","","",""
"","do_trial","181","762334","0.0-104.0-0.0","991","","","","50","0,1,1","1","highway","48","probe-32","0.08544408822868078","0.7076159185227942","0.4742140925085391","1","","","","","","","",""
"","html-keyboard-response","182","763338","0.0-104.0-1.0","null","<p></p>","null","","","","","","","","","","","","","","","","","","",""
"","do_trial","183","768508","0.0-105.0-0.0","632","","","","50","0,1,1","1","highway","49","probe-100","0.14154195325519545","0.5969511138464028","0.4025515927416787","1","","","","","","","",""
"","html-keyboard-response","184","769510","0.0-105.0-1.0","null","<p></p>","null","","","","","","","","","","","","","","","","","","",""
"","do_trial","185","774585","0.0-106.0-0.0","537","","","","50","0,0,0","1","highway","50","probe-169","0.10338372181705978","0.5671537376231501","0.37713980307785056","0","","","","","","","",""
"","html-keyboard-response","186","775588","0.0-106.0-1.0","null","<p></p>","null","","","","","","","","","","","","","","","","","","",""
"","do_trial","187","780600","0.0-107.0-0.0","475","","","","49","0,0,0","1","highway","51","probe-31","0.1967437517743712","0.5340911244874073","0.37231690878365337","0","","","","","","","",""
"","html-keyboard-response","188","781603","0.0-107.0-1.0","null","<p></p>","null","","","","","","","","","","","","","","","","","","",""
"","do_trial","189","786572","0.0-108.0-0.0","433","","","","50","0,1,0","1","highway","52","probe-220","0.09658300112067383","0.5986679323818953","0.3268639909594176","1","","","","","","","",""
"","html-keyboard-response","190","787575","0.0-108.0-1.0","null","<p></p>","null","","","","","","","","","","","","","","","","","","",""
"","do_trial","191","792645","0.0-109.0-0.0","533","","","","50","0,1,1","1","highway","53","probe-06","0.08134596198909623","0.5969117906886056","0.36561234331470105","1","","","","","","","",""
"","html-keyboard-response","192","793648","0.0-109.0-1.0","null","<p></p>","null","","","","","","","","","","","","","","","","","","",""
"","do_trial","193","798661","0.0-110.0-0.0","474","","","","50","0,0,0","1","highway","54","probe-44","0.17960006347903082","0.6021794248365357","0.3284764798484182","0","","","","","","","",""
"","html-keyboard-response","194","799666","0.0-110.0-1.0","null","<p></p>","null","","","","","","","","","","","","","","","","","","",""
"","do_trial","195","804699","0.0-111.0-0.0","494","","","","49","0,1,0","1","highway","55","probe-193","0.17442231718276083","0.5715971227514706","0.3290696365507144","0","","","","","","","",""
"","html-keyboard-response","196","805702","0.0-111.0-1.0","null","<p></p>","null","","","","","","","","","","","","","","","","","","",""
"","do_trial","197","810906","0.0-112.0-0.0","667","","","","50","0,0,0","1","highway","56","probe-163","0.13287891123360746","0.46919365329389046","0.4523886544168998","0","","","","","","","",""
"","html-keyboard-response","198","811909","0.0-112.0-1.0","null","<p></p>","null","","","","","","","","","","","","","","","","","","",""
"","do_trial","199","817595","0.0-113.0-0.0","1147","","","","50","0,1,1","1","highway","57","probe-195","0.06891491633845481","0.5731647308002498","0.4051744551403962","1","","","","","","","",""
"","html-keyboard-response","200","818598","0.0-113.0-1.0","null","<p></p>","null","","","","","","","","","","","","","","","","","","",""
"","do_trial","201","823601","0.0-114.0-0.0","467","","","","50","0,1,0","1","highway","58","probe-138","0.1287780890571108","0.6671646969278783","0.2369388046060866","1","","","","","","","",""
"","html-keyboard-response","202","824605","0.0-114.0-1.0","null","<p></p>","null","","","","","","","","","","","","","","","","","","",""
"","do_trial","203","829725","0.0-115.0-0.0","584","","","","50","0,0,1","1","highway","59","probe-39","0.185115055613947","0.6269633870576792","0.16744721489651415","0","","","","","","","",""
"","html-keyboard-response","204","830727","0.0-115.0-1.0","null","<p></p>","null","","","","","","","","","","","","","","","","","","",""
"","do_trial","205","836391","0.0-116.0-0.0","1123","","","","50","0,0,0","1","highway","60","probe-129","0.16109907520191907","0.5628191792899717","0.17169896060199263","0","","","","","","","",""
"","html-keyboard-response","206","837394","0.0-116.0-1.0","null","<p></p>","null","","","","","","","","","","","","","","","","","","",""
"","do_trial","207","843412","0.0-117.0-0.0","1477","","","","49","0,1,0","1","highway","61","probe-108","0.1925055561952469","0.5902960673768348","0.16777420558417716","0","","","","","","","",""
"","html-keyboard-response","208","844416","0.0-117.0-1.0","null","<p></p>","null","","","","","","","","","","","","","","","","","","",""
"","do_trial","209","849446","0.0-118.0-0.0","491.0000000001164","","","","50","1,1,0","1","highway","62","probe-106","0.23957507622955854","0.6043637875387372","0.22946869758098687","1","","","","","","","",""
"","html-keyboard-response","210","850449","0.0-118.0-1.0","null","<p></p>","null","","","","","","","","","","","","","","","","","","",""
"","do_trial","211","855555","0.0-119.0-0.0","566","","","","50","1,1,0","1","highway","63","probe-196","0.18437828120737912","0.6091968010960674","0.33254310156350847","1","","","","","","","",""
"","html-keyboard-response","212","856560","0.0-119.0-1.0","null","<p></p>","null","","","","","","","","","","","","","","","","","","",""
"","do_trial","213","863392","0.0-120.0-0.0","2294","","","","50","1,1,1","1","highway","64","probe-67","0.10962563398268689","0.5956452841857679","0.4399785923726715","1","","","","","","","",""
"","html-keyboard-response","214","864395","0.0-120.0-1.0","null","<p></p>","null","","","","","","","","","","","","","","","","","","",""
"","do_trial","215","870281","0.0-121.0-0.0","1346","","","","50","0,0,0","1","highway","65","probe-35","0.08014464749900757","0.5389056458059982","0.369612017001291","0","","","","","","","",""
"","html-keyboard-response","216","871284","0.0-121.0-1.0","null","<p></p>","null","","","","","","","","","","","","","","","","","","",""
"","do_trial","217","876598","0.0-122.0-0.0","778","","","","51","0,1,0","1","highway","66","probe-03","0.14583759005700098","0.6743842947025935","0.23082931849666743","0","","","","","","","",""
"","html-keyboard-response","218","877601","0.0-122.0-1.0","null","<p></p>","null","","","","","","","","","","","","","","","","","","",""
"","do_trial","219","882679","0.0-123.0-0.0","525","","","","50","1,1,0","1","highway","67","probe-101","0.1665736706899079","0.6201765663123255","0.30843327513130664","1","","","","","","","",""
"","html-keyboard-response","220","883682","0.0-123.0-1.0","null","<p></p>","null","","","","","","","","","","","","","","","","","","",""
"","do_trial","221","888821","0.0-124.0-0.0","586","","","","50","0,0,0","1","highway","68","probe-34","0.07411557890678784","0.6145194750202504","0.42612604629365763","0","","","","","","","",""
"","html-keyboard-response","222","889825","0.0-124.0-1.0","null","<p></p>","null","","","","","","","","","","","","","","","","","","",""
"","do_trial","223","894614","0.0-125.0-0.0","253","","","","50","1,0,1","1","highway","69","probe-72","0.14567684185620206","0.576768340322725","0.4302318001647569","0","","","","","","","",""
"","html-keyboard-response","224","895617","0.0-125.0-1.0","null","<p></p>","null","","","","","","","","","","","","","","","","","","",""
"","do_bye","225","897125","0.0-126.0-0.0","null","","","","null","","","","","","","","","","","","","","","","",""
"","do_travel","226","903131","0.0-127.0-0.0","null","","","","null","","","","","","","","","","","","","","","","",""
"","do_welcome","227","904640","0.0-127.0-1.0","null","","","","null","","","","","","","","","","","","","","","","",""
"","do_trial","228","910677","0.0-128.0-0.0","null","","","","null","0,1,1","2","mountain","70","probe-28","0.11609356297146164","1","0.34545546213300105","","","","","","","","",""
"","html-keyboard-response","229","911681","0.0-128.0-1.0","null","<p></p>","null","","","","","","","","","","","","","","","","","","",""
"","do_trial","230","917415","0.0-129.0-0.0","1197.9999999998836","","","","51","0,1,0","2","mountain","71","probe-51","0.13638185602972072","1","0.38604033706075913","0","","","","","","","",""
"","html-keyboard-response","231","918418","0.0-129.0-1.0","null","<p></p>","null","","","","","","","","","","","","","","","","","","",""
"","do_trial","232","924021","0.0-130.0-0.0","1064","","","","50","0,1,1","2","mountain","72","probe-104","0.2675287336748704","0.9141299982077794","0.4453525002910365","1","","","","","","","",""
"","html-keyboard-response","233","925024","0.0-130.0-1.0","null","<p></p>","null","","","","","","","","","","","","","","","","","","",""
"","do_trial","234","930565","0.0-131.0-0.0","1005","","","","50","1,1,0","2","mountain","73","probe-207","0.3660295194425773","0.7624616983706196","0.38550083356665377","1","","","","","","","",""
"","html-keyboard-response","235","931568","0.0-131.0-1.0","null","<p></p>","null","","","","","","","","","","","","","","","","","","",""
"","do_trial","236","937150","0.0-132.0-0.0","1045","","","","50","0,1,0","2","mountain","74","probe-79","0.34865374682270245","0.8136043995678388","0.3804670492424978","1","","","","","","","",""
"","html-keyboard-response","237","938154","0.0-132.0-1.0","null","<p></p>","null","","","","","","","","","","","","","","","","","","",""
"","do_trial","238","943908","0.0-133.0-0.0","1217.0000000001164","","","","50","0,0,1","2","mountain","75","probe-170","0.23497741250524334","0.7349117561686191","0.4936779836669407","0","","","","","","","",""
"","html-keyboard-response","239","944912","0.0-133.0-1.0","null","<p></p>","null","","","","","","","","","","","","","","","","","","",""
"","do_trial","240","949997","0.0-134.0-0.0","548","","","","51","0,1,0","2","mountain","76","probe-185","0.2536492072019731","0.6619759584447695","0.3443859318462517","0","","","","","","","",""
"","html-keyboard-response","241","951001","0.0-134.0-1.0","null","<p></p>","null","","","","","","","","","","","","","","","","","","",""
"","do_trial","242","956586","0.0-135.0-0.0","1048","","","","51","0,1,0","2","mountain","77","probe-154","0.1831733264388558","0.7175897657254557","0.3715805230785842","0","","","","","","","",""
"","html-keyboard-response","243","957588","0.0-135.0-1.0","null","<p></p>","null","","","","","","","","","","","","","","","","","","",""
"","do_trial","244","962702","0.0-136.0-0.0","578","","","","50","1,1,0","2","mountain","78","probe-49","0.20168574685465607","0.7692066723057477","0.3107862235110414","1","","","","","","","",""
"","html-keyboard-response","245","963705","0.0-136.0-1.0","null","<p></p>","null","","","","","","","","","","","","","","","","","","",""
"","do_trial","246","968934","0.0-137.0-0.0","692","","","","50","0,1,1","2","mountain","79","probe-162","0.12563079623084128","0.5958040259079841","0.2860832914149806","1","","","","","","","",""
"","html-keyboard-response","247","969937","0.0-137.0-1.0","null","<p></p>","null","","","","","","","","","","","","","","","","","","",""
"","do_trial","248","975192","0.0-138.0-0.0","721.9999999998836","","","","50","0,1,0","2","mountain","80","probe-54","0.13979123773766056","0.6469284730246728","0.32208803372849365","1","","","","","","","",""
"","html-keyboard-response","249","976195","0.0-138.0-1.0","null","<p></p>","null","","","","","","","","","","","","","","","","","","",""
"","do_trial","250","982285","0.0-139.0-0.0","1554.0000000001164","","","","50","0,1,1","2","mountain","81","probe-102","0.0829277197609205","0.7382552324628934","0.45925392020655736","1","","","","","","","",""
"","html-keyboard-response","251","983287","0.0-139.0-1.0","null","<p></p>","null","","","","","","","","","","","","","","","","","","",""
"","do_trial","252","988487","0.0-140.0-0.0","665.0000000001164","","","","50","0,1,0","2","mountain","82","probe-63","0.09205671273077211","0.5529416642713729","0.335155514626634","1","","","","","","","",""
"","html-keyboard-response","253","989490","0.0-140.0-1.0","null","<p></p>","null","","","","","","","","","","","","","","","","","","",""
"","do_trial","254","994864","0.0-141.0-0.0","837","","","","50","0,0,0","2","mountain","83","probe-94","0.09058047319974696","0.3038978208496957","0.37466020074828876","0","","","","","","","",""
"","html-keyboard-response","255","995867","0.0-141.0-1.0","null","<p></p>","null","","","","","","","","","","","","","","","","","","",""
"","do_trial","256","1001073","0.0-142.0-0.0","668","","","","49","0,0,1","2","mountain","84","probe-216","0.05308989134929936","0.25274426953458234","0.48297648169655605","0","","","","","","","",""
"","html-keyboard-response","257","1002076","0.0-142.0-1.0","null","<p></p>","null","","","","","","","","","","","","","","","","","","",""
"","do_trial","258","1007203","0.0-143.0-0.0","588.0000000001164","","","","50","0,0,1","2","mountain","85","probe-01","0.19283698811999916","0.28754062502968725","0.5362201544378385","0","","","","","","","",""
"","html-keyboard-response","259","1008208","0.0-143.0-1.0","null","<p></p>","null","","","","","","","","","","","","","","","","","","",""
"","do_trial","260","1013505","0.0-144.0-0.0","760","","","","50","0,0,1","2","mountain","86","probe-10","0.270818795450421","0.19527705592878863","0.599346810524347","0","","","","","","","",""
"","html-keyboard-response","261","1014510","0.0-144.0-1.0","null","<p></p>","null","","","","","","","","","","","","","","","","","","",""
"","do_trial","262","1019557","0.0-145.0-0.0","511","","","","50","1,1,0","2","mountain","87","probe-226","0.2963170648508023","0.22922713109903492","0.5632773968171957","1","","","","","","","",""
"","html-keyboard-response","263","1020560","0.0-145.0-1.0","null","<p></p>","null","","","","","","","","","","","","","","","","","","",""
"","do_trial","264","1026382","0.0-146.0-0.0","1286.0000000001164","","","","51","1,0,0","2","mountain","88","probe-140","0.3154638434224536","0.15012787995060486","0.5647313208555392","0","","","","","","","",""
"","html-keyboard-response","265","1027384","0.0-146.0-1.0","null","<p></p>","null","","","","","","","","","","","","","","","","","","",""
"","do_trial","266","1032691","0.0-147.0-0.0","768.0000000001164","","","","50","1,0,0","2","mountain","89","probe-95","0.4559251495994712","0.14218119984825242","0.5411728661066244","0","","","","","","","",""
"","html-keyboard-response","267","1033695","0.0-147.0-1.0","null","<p></p>","null","","","","","","","","","","","","","","","","","","",""
"","do_trial","268","1038877","0.0-148.0-0.0","628","","","","49","0,0,1","2","mountain","90","probe-55","0.45015293593930644","0.11250684434392982","0.5794459745125828","0","","","","","","","",""
"","html-keyboard-response","269","1039880","0.0-148.0-1.0","null","<p></p>","null","","","","","","","","","","","","","","","","","","",""
"","do_trial","270","1044877","0.0-149.0-0.0","462","","","","50","0,0,1","2","mountain","91","probe-84","0.3155854419352304","0.11430805593087157","0.6159315896362828","0","","","","","","","",""
"","html-keyboard-response","271","1045880","0.0-149.0-1.0","null","<p></p>","null","","","","","","","","","","","","","","","","","","",""
"","do_trial","272","1051007","0.0-150.0-0.0","591","","","","51","0,0,0","2","mountain","92","probe-50","0.4176768043280712","0.06760882439162659","0.6833309850586534","0","","","","","","","",""
"","html-keyboard-response","273","1052011","0.0-150.0-1.0","null","<p></p>","null","","","","","","","","","","","","","","","","","","",""
"","do_trial","274","1057331","0.0-151.0-0.0","768","","","","50","1,0,1","2","mountain","93","probe-174","0.44134929807465256","0.12291239870747168","0.6710260331548166","0","","","","","","","",""
"","html-keyboard-response","275","1058334","0.0-151.0-1.0","null","<p></p>","null","","","","","","","","","","","","","","","","","","",""
"","do_trial","276","1063510","0.0-152.0-0.0","633","","","","51","1,0,1","2","mountain","94","probe-83","0.3977187765063993","0.16660652763961023","0.6857417277651193","1","","","","","","","",""
"","html-keyboard-response","277","1064514","0.0-152.0-1.0","null","<p></p>","null","","","","","","","","","","","","","","","","","","",""
"","do_trial","278","1072021","0.0-153.0-0.0","2971","","","","51","1,0,1","2","mountain","95","probe-36","0.31938830591328043","0.08636819500002788","0.7324282010041335","1","","","","","","","",""
"","html-keyboard-response","279","1073025","0.0-153.0-1.0","null","<p></p>","null","","","","","","","","","","","","","","","","","","",""
"","do_trial","280","1078338","0.0-154.0-0.0","776","","","","51","0,0,0","2","mountain","96","probe-04","0.2881791680601071","0.06170167468425006","0.6470483350356753","0","","","","","","","",""
"","html-keyboard-response","281","1079341","0.0-154.0-1.0","null","<p></p>","null","","","","","","","","","","","","","","","","","","",""
"","do_trial","282","1084551","0.0-155.0-0.0","670","","","","51","0,0,1","2","mountain","97","probe-20","0.139385058717767","0.12020100807834246","0.5727576401387732","1","","","","","","","",""
"","html-keyboard-response","283","1085557","0.0-155.0-1.0","null","<p></p>","null","","","","","","","","","","","","","","","","","","",""
"","do_trial","284","1091009","0.0-156.0-0.0","917","","","","51","0,0,1","2","mountain","98","probe-147","0.2419928466442505","0.06596765248134073","0.4537917090754003","1","","","","","","","",""
"","html-keyboard-response","285","1092012","0.0-156.0-1.0","null","<p></p>","null","","","","","","","","","","","","","","","","","","",""
"","do_trial","286","1097220","0.0-157.0-0.0","671","","","","51","0,0,0","2","mountain","99","probe-91","0.3324278539141223","0.05519587821970481","0.5487333361653088","0","","","","","","","",""
"","html-keyboard-response","287","1098223","0.0-157.0-1.0","null","<p></p>","null","","","","","","","","","","","","","","","","","","",""
"","do_trial","288","1104022","0.0-158.0-0.0","1263","","","","51","0,1,1","2","mountain","100","probe-217","0.23611696050997968","0.22471157232059277","0.5827561272768478","1","","","","","","","",""
"","html-keyboard-response","289","1105028","0.0-158.0-1.0","null","<p></p>","null","","","","","","","","","","","","","","","","","","",""
"","do_trial","290","1111067","0.0-159.0-0.0","null","","","","null","0,0,0","2","mountain","101","probe-52","0.10945468710118637","0.1774306077227645","0.4830941802056045","","","","","","","","",""
"","html-keyboard-response","291","1112071","0.0-159.0-1.0","null","<p></p>","null","","","","","","","","","","","","","","","","","","",""
"","do_trial","292","1117301","0.0-160.0-0.0","694","","","","51","0,0,0","2","mountain","102","probe-190","0.1888230179449356","0.18024815019686255","0.42337777051651065","0","","","","","","","",""
"","html-keyboard-response","293","1118303","0.0-160.0-1.0","null","<p></p>","null","","","","","","","","","","","","","","","","","","",""
"","do_trial","294","1124030","0.0-161.0-0.0","1190.0000000002328","","","","51","0,0,0","2","mountain","103","probe-205","0.12759185347313529","0.2667715426202579","0.42309204761422303","0","","","","","","","",""
"","html-keyboard-response","295","1125033","0.0-161.0-1.0","null","<p></p>","null","","","","","","","","","","","","","","","","","","",""
"","do_trial","296","1130404","0.0-162.0-0.0","819.0000000002328","","","","51","0,1,0","2","mountain","104","probe-11","0.0751425162048265","0.13045110173428567","0.38773031239263084","0","","","","","","","",""
"","html-keyboard-response","297","1131407","0.0-162.0-1.0","null","<p></p>","null","","","","","","","","","","","","","","","","","","",""
"","do_trial","298","1136650","0.0-163.0-0.0","707","","","","50","1,0,1","2","mountain","105","probe-88","0.2554619907315641","0.07479507375452235","0.5095586070268675","0","","","","","","","",""
"","html-keyboard-response","299","1137653","0.0-163.0-1.0","null","<p></p>","null","","","","","","","","","","","","","","","","","","",""
"","do_trial","300","1142803","0.0-164.0-0.0","614","","","","49","0,1,0","2","mountain","106","probe-210","0.28448790396008106","0.12111530341391681","0.4768275322171698","0","","","","","","","",""
"","html-keyboard-response","301","1143806","0.0-164.0-1.0","null","<p></p>","null","","","","","","","","","","","","","","","","","","",""
"","do_trial","302","1149031","0.0-165.0-0.0","688","","","","51","0,0,0","2","mountain","107","probe-65","0.31311543802328584","0.06116078823755423","0.5417207974741782","0","","","","","","","",""
"","html-keyboard-response","303","1150034","0.0-165.0-1.0","null","<p></p>","null","","","","","","","","","","","","","","","","","","",""
"","do_trial","304","1155072","0.0-166.0-0.0","501","","","","50","0,0,1","2","mountain","108","probe-07","0.38788183977379126","0.10341828205487602","0.4738821657585144","0","","","","","","","",""
"","html-keyboard-response","305","1156074","0.0-166.0-1.0","null","<p></p>","null","","","","","","","","","","","","","","","","","","",""
"","do_trial","306","1161670","0.0-167.0-0.0","1057","","","","51","1,0,0","2","mountain","109","probe-222","0.4320744199309335","0.07508255039431093","0.403267314798227","0","","","","","","","",""
"","html-keyboard-response","307","1162674","0.0-167.0-1.0","null","<p></p>","null","","","","","","","","","","","","","","","","","","",""
"","do_bye","308","1164182","0.0-168.0-0.0","null","","","","null","","","","","","","","","","","","","","","","",""
"","do_travel","309","1170186","0.0-169.0-0.0","null","","","","null","","","","","","","","","","","","","","","","",""
"","do_welcome","310","1171694","0.0-169.0-1.0","null","","","","null","","","","","","","","","","","","","","","","",""
"","do_trial","311","1178830","0.0-170.0-0.0","2602","","","","49","0,0,1","3","city","110","probe-24","0.32579617398428135","0.12163068601475523","1","0","","","","","","","",""
"","html-keyboard-response","312","1179832","0.0-170.0-1.0","null","<p></p>","null","","","","","","","","","","","","","","","","","","",""
"","do_trial","313","1184919","0.0-171.0-0.0","550","","","","51","1,0,1","3","city","111","probe-139","0.26117198855521184","0.0929032933377517","1","1","","","","","","","",""
"","html-keyboard-response","314","1185922","0.0-171.0-1.0","null","<p></p>","null","","","","","","","","","","","","","","","","","","",""
"","do_trial","315","1191909","0.0-172.0-0.0","1443","","","","51","0,0,1","3","city","112","probe-127","0.2628842029300708","0.11372216639460705","0.9156180106288675","1","","","","","","","",""
"","html-keyboard-response","316","1192912","0.0-172.0-1.0","null","<p></p>","null","","","","","","","","","","","","","","","","","","",""
"","do_trial","317","1198115","0.0-173.0-0.0","666","","","","51","0,0,1","3","city","113","probe-68","0.35342478262167176","0.10614711911548909","0.8354493021526881","1","","","","","","","",""
"","html-keyboard-response","318","1199119","0.0-173.0-1.0","null","<p></p>","null","","","","","","","","","","","","","","","","","","",""
"","do_trial","319","1204195","0.0-174.0-0.0","539","","","","51","0,1,1","3","city","114","probe-27","0.22744878085200737","0.15953708065996064","0.7593499560467641","1","","","","","","","",""
"","html-keyboard-response","320","1205198","0.0-174.0-1.0","null","<p></p>","null","","","","","","","","","","","","","","","","","","",""
"","do_trial","321","1210371","0.0-175.0-0.0","635.9999999997672","","","","51","0,1,1","3","city","115","probe-131","0.24283399046542342","0.2097906153589122","0.6425284652537916","1","","","","","","","",""
"","html-keyboard-response","322","1211375","0.0-175.0-1.0","null","<p></p>","null","","","","","","","","","","","","","","","","","","",""
"","do_trial","323","1216637","0.0-176.0-0.0","725","","","","51","0,0,1","3","city","116","probe-175","0.18979461062539316","0.28471230648166845","0.5304458488528537","1","","","","","","","",""
"","html-keyboard-response","324","1217640","0.0-176.0-1.0","null","<p></p>","null","","","","","","","","","","","","","","","","","","",""
"","do_trial","325","1222860","0.0-177.0-0.0","683","","","","51","0,0,0","3","city","117","probe-202","0.19321217593513923","0.30879679601582316","0.3796823294120467","0","","","","","","","",""
"","html-keyboard-response","326","1223863","0.0-177.0-1.0","null","<p></p>","null","","","","","","","","","","","","","","","","","","",""
"","do_trial","327","1228760","0.0-178.0-0.0","359","","","","51","0,0,0","3","city","118","probe-82","0.1986006878196909","0.15517913993218818","0.3854654123816708","0","","","","","","","",""
"","html-keyboard-response","328","1229763","0.0-178.0-1.0","null","<p></p>","null","","","","","","","","","","","","","","","","","","",""
"","do_trial","329","1235011","0.0-179.0-0.0","717","","","","51","1,0,1","3","city","119","probe-150","0.3505834443106861","0.1988069557944981","0.4291476580376971","1","","","","","","","",""
"","html-keyboard-response","330","1236015","0.0-179.0-1.0","null","<p></p>","null","","","","","","","","","","","","","","","","","","",""
"","do_trial","331","1241529","0.0-180.0-0.0","975","","","","51","0,0,0","3","city","120","probe-191","0.3513383521946347","0.3917570645511399","0.3897353085017252","0","","","","","","","",""
"","html-keyboard-response","332","1242533","0.0-180.0-1.0","null","<p></p>","null","","","","","","","","","","","","","","","","","","",""
"","do_trial","333","1247507","0.0-181.0-0.0","436","","","","51","0,0,0","3","city","121","probe-97","0.37046284791930534","0.34107664862496573","0.5048817555496077","0","","","","","","","",""
"","html-keyboard-response","334","1248511","0.0-181.0-1.0","null","<p></p>","null","","","","","","","","","","","","","","","","","","",""
"","do_trial","335","1253485","0.0-182.0-0.0","433.99999999976717","","","","50","0,1,1","3","city","122","probe-214","0.4894422861072246","0.4780604884719946","0.2885477096350285","1","","","","","","","",""
"","html-keyboard-response","336","1254488","0.0-182.0-1.0","null","<p></p>","null","","","","","","","","","","","","","","","","","","",""
"","do_trial","337","1259655","0.0-183.0-0.0","629.0000000002328","","","","50","1,1,0","3","city","123","probe-229","0.5286196193708264","0.47768096958996614","0.18475018164787685","1","","","","","","","",""
"","html-keyboard-response","338","1260658","0.0-183.0-1.0","null","<p></p>","null","","","","","","","","","","","","","","","","","","",""
"","do_trial","339","1265612","0.0-184.0-0.0","416","","","","50","1,0,0","3","city","124","probe-179","0.6124216902602186","0.3674992264181142","0.09297078757729688","0","","","","","","","",""
"","html-keyboard-response","340","1266615","0.0-184.0-1.0","null","<p></p>","null","","","","","","","","","","","","","","","","","","",""
"","do_trial","341","1271718","0.0-185.0-0.0","558","","","","51","1,0,0","3","city","125","probe-30","0.629069677271365","0.2962219876028314","0.10372287454612114","0","","","","","","","",""
"","html-keyboard-response","342","1272721","0.0-185.0-1.0","null","<p></p>","null","","","","","","","","","","","","","","","","","","",""
"","do_trial","343","1277946","0.0-186.0-0.0","684.9999999997672","","","","49","0,0,0","3","city","126","probe-189","0.5701089462473022","0.48664105148188597","0.05868714426756062","0","","","","","","","",""
"","html-keyboard-response","344","1278948","0.0-186.0-1.0","null","<p></p>","null","","","","","","","","","","","","","","","","","","",""
"","do_trial","345","1283872","0.0-187.0-0.0","385","","","","50","0,1,0","3","city","127","probe-171","0.5781796446429596","0.39016989897998344","0.08673156520883246","1","","","","","","","",""
"","html-keyboard-response","346","1284876","0.0-187.0-1.0","null","<p></p>","null","","","","","","","","","","","","","","","","","","",""
"","do_trial","347","1289887","0.0-188.0-0.0","471","","","","50","1,1,0","3","city","128","probe-213","0.7383268711402466","0.34182633185753253","0.17742338547012287","1","","","","","","","",""
"","html-keyboard-response","348","1290890","0.0-188.0-1.0","null","<p></p>","null","","","","","","","","","","","","","","","","","","",""
"","do_trial","349","1295780","0.0-189.0-0.0","351","","","","50","1,0,0","3","city","129","probe-53","0.6086099801726911","0.3316202237273764","0.15632235315968218","0","","","","","","","",""
"","html-keyboard-response","350","1296783","0.0-189.0-1.0","null","<p></p>","null","","","","","","","","","","","","","","","","","","",""
"","do_trial","351","1301827","0.0-190.0-0.0","506","","","","51","0,0,0","3","city","130","probe-198","0.6335074861251728","0.2994935578461882","0.22855505089309025","0","","","","","","","",""
"","html-keyboard-response","352","1302829","0.0-190.0-1.0","null","<p></p>","null","","","","","","","","","","","","","","","","","","",""
"","do_trial","353","1307780","0.0-191.0-0.0","411","","","","50","1,0,0","3","city","131","probe-86","0.7582653840186722","0.36029599676749097","0.36881836410035446","0","","","","","","","",""
"","html-keyboard-response","354","1308784","0.0-191.0-1.0","null","<p></p>","null","","","","","","","","","","","","","","","","","","",""
"","do_trial","355","1313849","0.0-192.0-0.0","525","","","","49","1,0,0","3","city","132","probe-98","0.7380109888217251","0.33509130910307006","0.27611792955446074","1","","","","","","","",""
"","html-keyboard-response","356","1314852","0.0-192.0-1.0","null","<p></p>","null","","","","","","","","","","","","","","","","","","",""
"","do_trial","357","1319800","0.0-193.0-0.0","395","","","","49","1,1,0","3","city","133","probe-76","0.7413650340536247","0.17620479517411625","0.25250517243784587","1","","","","","","","",""
"","html-keyboard-response","358","1320803","0.0-193.0-1.0","null","<p></p>","null","","","","","","","","","","","","","","","","","","",""
"","do_trial","359","1325912","0.0-194.0-0.0","541.0000000002328","","","","49","0,0,1","3","city","134","probe-119","0.6377971067676451","0.2636714934043263","0.17264137882420133","0","","","","","","","",""
"","html-keyboard-response","360","1326915","0.0-194.0-1.0","null","<p></p>","null","","","","","","","","","","","","","","","","","","",""
"","do_trial","361","1332037","0.0-195.0-0.0","579","","","","50","1,0,0","3","city","135","probe-57","0.5468158787801651","0.2211008884624696","0.09279232945590694","0","","","","","","","",""
"","html-keyboard-response","362","1333041","0.0-195.0-1.0","null","<p></p>","null","","","","","","","","","","","","","","","","","","",""
"","do_trial","363","1338141","0.0-196.0-0.0","562","","","","51","1,1,0","3","city","136","probe-153","0.577669192189485","0.28235535669101436","0.10581526678388586","0","","","","","","","",""
"","html-keyboard-response","364","1339144","0.0-196.0-1.0","null","<p></p>","null","","","","","","","","","","","","","","","","","","",""
"","do_trial","365","1344150","0.0-197.0-0.0","469.99999999976717","","","","50","0,1,0","3","city","137","probe-218","0.5741630974826609","0.29047354792362423","0.1286636752024979","1","","","","","","","",""
"","html-keyboard-response","366","1345153","0.0-197.0-1.0","null","<p></p>","null","","","","","","","","","","","","","","","","","","",""
"","do_trial","367","1350298","0.0-198.0-0.0","594","","","","50","0,0,1","3","city","138","probe-59","0.5839163370955296","0.4723898595482507","0.15817789556186657","0","","","","","","","",""
"","html-keyboard-response","368","1351301","0.0-198.0-1.0","null","<p></p>","null","","","","","","","","","","","","","","","","","","",""
"","do_trial","369","1357071","0.0-199.0-0.0","1234","","","","51","1,0,0","3","city","139","probe-184","0.546722623326145","0.30952143391106496","0.15094178458693513","0","","","","","","","",""
"","html-keyboard-response","370","1358075","0.0-199.0-1.0","null","<p></p>","null","","","","","","","","","","","","","","","","","","",""
"","do_trial","371","1363123","0.0-200.0-0.0","508","","","","50","0,0,0","3","city","140","probe-221","0.5227073118306068","0.2131261663246081","0.13155766751473214","0","","","","","","","",""
"","html-keyboard-response","372","1364126","0.0-200.0-1.0","null","<p></p>","null","","","","","","","","","","","","","","","","","","",""
"","do_trial","373","1369689","0.0-201.0-0.0","1028","","","","49","0,0,0","3","city","141","probe-178","0.7327905818330137","0.32523301672810206","0.09207195161788402","0","","","","","","","",""
"","html-keyboard-response","374","1370695","0.0-201.0-1.0","null","<p></p>","null","","","","","","","","","","","","","","","","","","",""
"","do_trial","375","1375654","0.0-202.0-0.0","422","","","","50","1,0,0","3","city","142","probe-78","0.6035972945639991","0.29489333846669896","0.062378559567522904","0","","","","","","","",""
"","html-keyboard-response","376","1376658","0.0-202.0-1.0","null","<p></p>","null","","","","","","","","","","","","","","","","","","",""
"","do_trial","377","1381684","0.0-203.0-0.0","490","","","","51","1,0,0","3","city","143","probe-209","0.6510366391342912","0.2716773295111898","0.07810826841056392","0","","","","","","","",""
"","html-keyboard-response","378","1382688","0.0-203.0-1.0","null","<p></p>","null","","","","","","","","","","","","","","","","","","",""
"","do_trial","379","1387586","0.0-204.0-0.0","362","","","","50","1,1,0","3","city","144","probe-206","0.69955141211395","0.3312123957529476","0.05614768875592383","1","","","","","","","",""
"","html-keyboard-response","380","1388590","0.0-204.0-1.0","null","<p></p>","null","","","","","","","","","","","","","","","","","","",""
"","do_trial","381","1394190","0.0-205.0-0.0","1061","","","","51","1,0,0","3","city","145","probe-103","0.5250072513257465","0.32344820152732057","0.12935041356218746","0","","","","","","","",""
"","html-keyboard-response","382","1395194","0.0-205.0-1.0","null","<p></p>","null","","","","","","","","","","","","","","","","","","",""
"","do_trial","383","1400329","0.0-206.0-0.0","599","","","","50","1,0,0","3","city","146","probe-14","0.6037710909011124","0.2819099537997229","0.1804147724289706","0","","","","","","","",""
"","html-keyboard-response","384","1401331","0.0-206.0-1.0","null","<p></p>","null","","","","","","","","","","","","","","","","","","",""
"","do_trial","385","1406332","0.0-207.0-0.0","460.99999999976717","","","","49","1,0,0","3","city","147","probe-60","0.6792936806928787","0.30882797408880197","0.05789064041053491","1","","","","","","","",""
"","html-keyboard-response","386","1407335","0.0-207.0-1.0","null","<p></p>","null","","","","","","","","","","","","","","","","","","",""
"","do_trial","387","1412538","0.0-208.0-0.0","666","","","","49","1,0,0","3","city","148","probe-62","0.6913367891818328","0.32543513754128045","0.16091216409104778","1","","","","","","","",""
"","html-keyboard-response","388","1413543","0.0-208.0-1.0","null","<p></p>","null","","","","","","","","","","","","","","","","","","",""
"","do_trial","389","1419150","0.0-209.0-0.0","1055","","","","49","0,0,0","3","city","149","probe-227","0.5946251659620306","0.34154068828995227","0.06912991202238619","0","","","","","","","",""
"","html-keyboard-response","390","1420153","0.0-209.0-1.0","null","<p></p>","null","","","","","","","","","","","","","","","","","","",""
"","do_bye","391","1421662","0.0-210.0-0.0","null","","","","null","","","","","","","","","","","","","","","","",""
"","do_travel","392","1427666","0.0-211.0-0.0","null","","","","null","","","","","","","","","","","","","","","","",""
"","do_welcome","393","1429175","0.0-211.0-1.0","null","","","","null","","","","","","","","","","","","","","","","",""
"","do_trial","394","1435210","0.0-212.0-0.0","null","","","","null","1,0,0","4","countryside","150","probe-211","1","0.3538799956245831","0.07198013672690728","","","","","","","","",""
"","html-keyboard-response","395","1436211","0.0-212.0-1.0","null","<p></p>","null","","","","","","","","","","","","","","","","","","",""
"","do_trial","396","1441556","0.0-213.0-0.0","807","","","","50","1,1,0","4","countryside","151","probe-109","1","0.43801917270535595","0.2392330786897711","1","","","","","","","",""
"","html-keyboard-response","397","1442561","0.0-213.0-1.0","null","<p></p>","null","","","","","","","","","","","","","","","","","","",""
"","do_trial","398","1447550","0.0-214.0-0.0","450","","","","50","1,0,0","4","countryside","152","probe-130","0.9122872856005662","0.3183903725931363","0.05957918070015998","0","","","","","","","",""
"","html-keyboard-response","399","1448553","0.0-214.0-1.0","null","<p></p>","null","","","","","","","","","","","","","","","","","","",""
"","do_trial","400","1453606","0.0-215.0-0.0","522","","","","50","1,0,0","4","countryside","153","probe-126","0.8094483579448901","0.4858543373322409","0.0641543357751762","0","","","","","","","",""
"","html-keyboard-response","401","1454609","0.0-215.0-1.0","null","<p></p>","null","","","","","","","","","","","","","","","","","","",""
"","do_trial","402","1459682","0.0-216.0-0.0","535.0000000002328","","","","50","1,1,0","4","countryside","154","probe-183","0.7363119121077161","0.47811444809561904","0.17095069429094928","1","","","","","","","",""
"","html-keyboard-response","403","1460685","0.0-216.0-1.0","null","<p></p>","null","","","","","","","","","","","","","","","","","","",""
"","do_trial","404","1465898","0.0-217.0-0.0","674","","","","50","1,0,0","4","countryside","155","probe-158","0.6396253397259996","0.49578951097879415","0.1852124930398378","0","","","","","","","",""
"","html-keyboard-response","405","1466901","0.0-217.0-1.0","null","<p></p>","null","","","","","","","","","","","","","","","","","","",""
"","do_trial","406","1472001","0.0-218.0-0.0","562","","","","51","0,0,0","4","countryside","156","probe-21","0.5880650171842539","0.4074705003714016","0.17912893563738527","0","","","","","","","",""
"","html-keyboard-response","407","1473005","0.0-218.0-1.0","null","<p></p>","null","","","","","","","","","","","","","","","","","","",""
"","do_trial","408","1478046","0.0-219.0-0.0","507.00000000023283","","","","51","0,0,0","4","countryside","157","probe-70","0.6368810711154693","0.4276066812551701","0.09744890240393508","0","","","","","","","",""
"","html-keyboard-response","409","1479050","0.0-219.0-1.0","null","<p></p>","null","","","","","","","","","","","","","","","","","","",""
"","do_trial","410","1484148","0.0-220.0-0.0","562","","","","49","1,0,0","4","countryside","158","probe-176","0.7947922140413181","0.3523892920316438","0.09055757540703953","1","","","","","","","",""
"","html-keyboard-response","411","1485152","0.0-220.0-1.0","null","<p></p>","null","","","","","","","","","","","","","","","","","","",""
"","do_trial","412","1490344","0.0-221.0-0.0","653","","","","49","1,0,0","4","countryside","159","probe-137","0.6555372281512917","0.1817782744592623","0.06531229097578552","1","","","","","","","",""
"","html-keyboard-response","413","1491346","0.0-221.0-1.0","null","<p></p>","null","","","","","","","","","","","","","","","","","","",""
"","do_trial","414","1496652","0.0-222.0-0.0","759","","","","49","1,1,0","4","countryside","160","probe-172","0.710795251937851","0.18249570359073616","0.05938110083927274","1","","","","","","","",""
"","html-keyboard-response","415","1497655","0.0-222.0-1.0","null","<p></p>","null","","","","","","","","","","","","","","","","","","",""
"","do_trial","416","1503367","0.0-223.0-0.0","1175","","","","49","1,0,0","4","countryside","161","probe-230","0.5704227640082923","0.13322151604963403","0.09341043798920719","1","","","","","","","",""
"","html-keyboard-response","417","1504370","0.0-223.0-1.0","null","<p></p>","null","","","","","","","","","","","","","","","","","","",""
"","do_trial","418","1509460","0.0-224.0-0.0","554","","","","49","1,1,1","4","countryside","162","probe-203","0.30370958815714955","0.3698478183930928","0.051608488889290774","1","","","","","","","",""
"","html-keyboard-response","419","1510463","0.0-224.0-1.0","null","<p></p>","null","","","","","","","","","","","","","","","","","","",""
"","do_trial","420","1515744","0.0-225.0-0.0","745","","","","49","0,0,0","4","countryside","163","probe-144","0.2890353450740399","0.422978516361747","0.1542258928533542","0","","","","","","","",""
"","html-keyboard-response","421","1516749","0.0-225.0-1.0","null","<p></p>","null","","","","","","","","","","","","","","","","","","",""
"","do_trial","422","1521758","0.0-226.0-0.0","473","","","","49","0,1,0","4","countryside","164","probe-166","0.12532313971552797","0.3838994713252292","0.28519377356598474","0","","","","","","","",""
"","html-keyboard-response","423","1522762","0.0-226.0-1.0","null","<p></p>","null","","","","","","","","","","","","","","","","","","",""
"","do_trial","424","1527979","0.0-227.0-0.0","681","","","","49","0,1,1","4","countryside","165","probe-157","0.16047797967147276","0.5913369737141121","0.35226284131302005","0","","","","","","","",""
"","html-keyboard-response","425","1528983","0.0-227.0-1.0","null","<p></p>","null","","","","","","","","","","","","","","","","","","",""
"","do_trial","426","1534020","0.0-228.0-0.0","502","","","","50","0,0,0","4","countryside","166","probe-148","0.12255172973161552","0.5898889323869873","0.269996088001978","0","","","","","","","",""
"","html-keyboard-response","427","1535024","0.0-228.0-1.0","null","<p></p>","null","","","","","","","","","","","","","","","","","","",""
"","do_trial","428","1540494","0.0-229.0-0.0","934.0000000002328","","","","51","0,1,0","4","countryside","167","probe-201","0.10852205322072866","0.5840541706186424","0.21529928170770543","0","","","","","","","",""
"","html-keyboard-response","429","1541496","0.0-229.0-1.0","null","<p></p>","null","","","","","","","","","","","","","","","","","","",""
"","do_trial","430","1546660","0.0-230.0-0.0","626.9999999997672","","","","49","0,1,0","4","countryside","168","probe-194","0.21847375822695544","0.5835031813181717","0.24761300318973484","0","","","","","","","",""
"","html-keyboard-response","431","1547663","0.0-230.0-1.0","null","<p></p>","null","","","","","","","","","","","","","","","","","","",""
"","do_trial","432","1552821","0.0-231.0-0.0","622.0000000002328","","","","50","0,1,0","4","countryside","169","probe-74","0.191374797606129","0.7158787814966701","0.26953046792986746","1","","","","","","","",""
"","html-keyboard-response","433","1553824","0.0-231.0-1.0","null","<p></p>","null","","","","","","","","","","","","","","","","","","",""
"","do_trial","434","1558863","0.0-232.0-0.0","503","","","","50","1,0,0","4","countryside","170","probe-164","0.250878755712134","0.5981650869199837","0.20531339549241218","0","","","","","","","",""
"","html-keyboard-response","435","1559869","0.0-232.0-1.0","null","<p></p>","null","","","","","","","","","","","","","","","","","","",""
"","do_trial","436","1565209","0.0-233.0-0.0","801.9999999997672","","","","49","0,1,0","4","countryside","171","probe-26","0.13186718868722852","0.5273892519536418","0.2699777818453545","0","","","","","","","",""
"","html-keyboard-response","437","1566214","0.0-233.0-1.0","null","<p></p>","null","","","","","","","","","","","","","","","","","","",""
"","do_trial","438","1571333","0.0-234.0-0.0","582","","","","51","1,1,0","4","countryside","172","probe-105","0.24123549442813363","0.5107577581163103","0.29734929301120294","0","","","","","","","",""
"","html-keyboard-response","439","1572336","0.0-234.0-1.0","null","<p></p>","null","","","","","","","","","","","","","","","","","","",""
"","do_trial","440","1577360","0.0-235.0-0.0","481","","","","50","0,1,0","4","countryside","173","probe-46","0.25877974840016843","0.621561981447858","0.4207740525368171","1","","","","","","","",""
"","html-keyboard-response","441","1578365","0.0-235.0-1.0","null","<p></p>","null","","","","","","","","","","","","","","","","","","",""
"","do_trial","442","1583446","0.0-236.0-0.0","541","","","","50","1,0,1","4","countryside","174","probe-81","0.14430957393047558","0.6485941537661631","0.41877612168249","0","","","","","","","",""
"","html-keyboard-response","443","1584451","0.0-236.0-1.0","null","<p></p>","null","","","","","","","","","","","","","","","","","","",""
"","do_trial","444","1589513","0.0-237.0-0.0","525","","","","50","0,0,0","4","countryside","175","probe-37","0.07903424575020815","0.4763373127990238","0.376261769859914","0","","","","","","","",""
"","html-keyboard-response","445","1590516","0.0-237.0-1.0","null","<p></p>","null","","","","","","","","","","","","","","","","","","",""
"","do_trial","446","1595495","0.0-238.0-0.0","441","","","","49","0,0,0","4","countryside","176","probe-22","0.14288860101464454","0.43520738957771166","0.33571660459717145","0","","","","","","","",""
"","html-keyboard-response","447","1596501","0.0-238.0-1.0","null","<p></p>","null","","","","","","","","","","","","","","","","","","",""
"","do_trial","448","1601702","0.0-239.0-0.0","666.0000000002328","","","","49","0,0,0","4","countryside","177","probe-125","0.26986453011958905","0.4667460117822808","0.15550840319388368","0","","","","","","","",""
"","html-keyboard-response","449","1602704","0.0-239.0-1.0","null","<p></p>","null","","","","","","","","","","","","","","","","","","",""
"","do_trial","450","1607784","0.0-240.0-0.0","541.9999999997672","","","","50","0,0,1","4","countryside","178","probe-117","0.23595047134671326","0.44432370535367105","0.25201268428576445","0","","","","","","","",""
"","html-keyboard-response","451","1608787","0.0-240.0-1.0","null","<p></p>","null","","","","","","","","","","","","","","","","","","",""
"","do_trial","452","1613918","0.0-241.0-0.0","593","","","","51","0,0,0","4","countryside","179","probe-42","0.3216304750153749","0.4500836971854427","0.21588847050772303","0","","","","","","","",""
"","html-keyboard-response","453","1614922","0.0-241.0-1.0","null","<p></p>","null","","","","","","","","","","","","","","","","","","",""
"","do_trial","454","1620063","0.0-242.0-0.0","601.9999999997672","","","","51","0,1,1","4","countryside","180","probe-215","0.12989205065323312","0.6113914872513168","0.2353902001201588","1","","","","","","","",""
"","html-keyboard-response","455","1621068","0.0-242.0-1.0","null","<p></p>","null","","","","","","","","","","","","","","","","","","",""
"","do_trial","456","1626347","0.0-243.0-0.0","743","","","","51","0,1,1","4","countryside","181","probe-77","0.10904578061127458","0.6880039499361479","0.2562805611755097","1","","","","","","","",""
"","html-keyboard-response","457","1627351","0.0-243.0-1.0","null","<p></p>","null","","","","","","","","","","","","","","","","","","",""
"","do_trial","458","1632476","0.0-244.0-0.0","589","","","","51","0,0,0","4","countryside","182","probe-200","0.10030594787146317","0.6827077476402955","0.3569616551154684","0","","","","","","","",""
"","html-keyboard-response","459","1633480","0.0-244.0-1.0","null","<p></p>","null","","","","","","","","","","","","","","","","","","",""
"","do_trial","460","1638560","0.0-245.0-0.0","541.9999999997672","","","","51","0,0,0","4","countryside","183","probe-71","0.058878378167847335","0.650128084515621","0.4680687367169597","0","","","","","","","",""
"","html-keyboard-response","461","1639564","0.0-245.0-1.0","null","<p></p>","null","","","","","","","","","","","","","","","","","","",""
"","do_trial","462","1644599","0.0-246.0-0.0","499","","","","50","0,0,0","4","countryside","184","probe-69","0.07035120598863076","0.5312851827657763","0.41900605398576496","0","","","","","","","",""
"","html-keyboard-response","463","1645602","0.0-246.0-1.0","null","<p></p>","null","","","","","","","","","","","","","","","","","","",""
"","do_trial","464","1650717","0.0-247.0-0.0","582","","","","49","1,1,0","4","countryside","185","probe-192","0.12801883482208076","0.6141915491229079","0.3647564906093645","1","","","","","","","",""
"","html-keyboard-response","465","1651720","0.0-247.0-1.0","null","<p></p>","null","","","","","","","","","","","","","","","","","","",""
"","do_trial","466","1656668","0.0-248.0-0.0","411","","","","49","0,0,0","4","countryside","186","probe-151","0.07361116833327479","0.6014552168140856","0.5608935756497321","0","","","","","","","",""
"","html-keyboard-response","467","1657671","0.0-248.0-1.0","null","<p></p>","null","","","","","","","","","","","","","","","","","","",""
"","do_trial","468","1662790","0.0-249.0-0.0","582","","","","51","0,0,1","4","countryside","187","probe-225","0.10944900936964994","0.6791823989111263","0.5653194009080795","1","","","","","","","",""
"","html-keyboard-response","469","1663794","0.0-249.0-1.0","null","<p></p>","null","","","","","","","","","","","","","","","","","","",""
"","do_trial","470","1669119","0.0-250.0-0.0","790","","","","51","0,1,0","4","countryside","188","probe-05","0.12048297424090107","0.6733803428113323","0.4961120093085281","0","","","","","","","",""
"","html-keyboard-response","471","1670122","0.0-250.0-1.0","null","<p></p>","null","","","","","","","","","","","","","","","","","","",""
"","do_trial","472","1675344","0.0-251.0-0.0","683","","","","49","0,1,0","4","countryside","189","probe-173","0.14641517558112557","0.5532592880902868","0.4723070368213976","0","","","","","","","",""
"","html-keyboard-response","473","1676347","0.0-251.0-1.0","null","<p></p>","null","","","","","","","","","","","","","","","","","","",""
"","do_bye","474","1677854","0.0-252.0-0.0","null","","","","null","","","","","","","","","","","","","","","","",""
"","do_travel","475","1683858","0.0-253.0-0.0","null","","","","null","","","","","","","","","","","","","","","","",""
"","do_welcome","476","1685365","0.0-253.0-1.0","null","","","","null","","","","","","","","","","","","","","","","",""
"","do_trial","477","1691403","0.0-254.0-0.0","null","","","","null","0,1,1","5","coast","190","probe-08","0.2999646408325081","1","0.4617048189467072","","","","","","","","",""
"","html-keyboard-response","478","1692406","0.0-254.0-1.0","null","<p></p>","null","","","","","","","","","","","","","","","","","","",""
"","do_trial","479","1698109","0.0-255.0-0.0","1165","","","","51","0,1,0","5","coast","191","probe-111","0.3495513774511539","1","0.5575163906996465","0","","","","","","","",""
"","html-keyboard-response","480","1699113","0.0-255.0-1.0","null","<p></p>","null","","","","","","","","","","","","","","","","","","",""
"","do_trial","481","1705030","0.0-256.0-0.0","1380.9999999997672","","","","49","0,1,0","5","coast","192","probe-122","0.1085733141231713","0.8047217031901636","0.4972547567152375","0","","","","","","","",""
"","html-keyboard-response","482","1706033","0.0-256.0-1.0","null","<p></p>","null","","","","","","","","","","","","","","","","","","",""
"","do_trial","483","1712550","0.0-257.0-0.0","1981","","","","50","0,1,0","5","coast","193","probe-33","0.0696738106529722","0.7253449169491782","0.34685662903474446","1","","","","","","","",""
"","html-keyboard-response","484","1713554","0.0-257.0-1.0","null","<p></p>","null","","","","","","","","","","","","","","","","","","",""
"","do_trial","485","1718714","0.0-258.0-0.0","623.9999999997672","","","","50","0,1,1","5","coast","194","probe-92","0.06394436065315225","0.6245521728329592","0.2635844678083326","1","","","","","","","",""
"","html-keyboard-response","486","1719717","0.0-258.0-1.0","null","<p></p>","null","","","","","","","","","","","","","","","","","","",""
"","do_trial","487","1724752","0.0-259.0-0.0","497","","","","50","0,1,0","5","coast","195","probe-114","0.16622021853776872","0.7302595596645397","0.33188285651050226","1","","","","","","","",""
"","html-keyboard-response","488","1725755","0.0-259.0-1.0","null","<p></p>","null","","","","","","","","","","","","","","","","","","",""
"","do_trial","489","1730413","0.0-260.0-0.0","119","","","","50","0,1,0","5","coast","196","probe-115","0.12606042945448884","0.6326962872330113","0.4502794255255028","1","","","","","","","",""
"","html-keyboard-response","490","1731417","0.0-260.0-1.0","null","<p></p>","null","","","","","","","","","","","","","","","","","","",""
"","do_trial","491","1736872","0.0-261.0-0.0","920","","","","50","0,1,0","5","coast","197","probe-107","0.09444557223458407","0.635029565790414","0.377717593059116","1","","","","","","","",""
"","html-keyboard-response","492","1737876","0.0-261.0-1.0","null","<p></p>","null","","","","","","","","","","","","","","","","","","",""
"","do_trial","493","1743160","0.0-262.0-0.0","749","","","","50","0,1,0","5","coast","198","probe-146","0.10396264588722934","0.7338518477070182","0.43084506317698873","1","","","","","","","",""
"","html-keyboard-response","494","1744166","0.0-262.0-1.0","null","<p></p>","null","","","","","","","","","","","","","","","","","","",""
"","do_trial","495","1749400","0.0-263.0-0.0","695.9999999997672","","","","50","0,0,0","5","coast","199","probe-165","0.08228087555480337","0.6655687946387869","0.35987981854366224","0","","","","","","","",""
"","html-keyboard-response","496","1750403","0.0-263.0-1.0","null","<p></p>","null","","","","","","","","","","","","","","","","","","",""
"","do_trial","497","1756251","0.0-264.0-0.0","1306","","","","50","0,1,0","5","coast","200","probe-168","0.10149918284855076","0.6592733760990015","0.3284981934616016","1","","","","","","","",""
"","html-keyboard-response","498","1757254","0.0-264.0-1.0","null","<p></p>","null","","","","","","","","","","","","","","","","","","",""
"","do_trial","499","1762465","0.0-265.0-0.0","673","","","","50","0,1,0","5","coast","201","probe-124","0.11965620523882295","0.7288972755324005","0.2830072432519399","1","","","","","","","",""
"","html-keyboard-response","500","1763470","0.0-265.0-1.0","null","<p></p>","null","","","","","","","","","","","","","","","","","","",""
"","do_trial","501","1768886","0.0-266.0-0.0","877.0000000002328","","","","50","0,1,1","5","coast","202","probe-219","0.2755996147640081","0.3958446765944726","0.2439966505097452","1","","","","","","","",""
"","html-keyboard-response","502","1769889","0.0-266.0-1.0","null","<p></p>","null","","","","","","","","","","","","","","","","","","",""
"","do_trial","503","1774970","0.0-267.0-0.0","548","","","","50","0,1,0","5","coast","203","probe-142","0.5481217364990877","0.26893102705291677","0.2482096726272083","1","","","","","","","",""
"","html-keyboard-response","504","1775973","0.0-267.0-1.0","null","<p></p>","null","","","","","","","","","","","","","","","","","","",""
"","do_trial","505","1780958","0.0-268.0-0.0","445.99999999976717","","","","50","1,0,0","5","coast","204","probe-41","0.6266407767649689","0.2853022251175885","0.2832895696500473","0","","","","","","","",""
"","html-keyboard-response","506","1781963","0.0-268.0-1.0","null","<p></p>","null","","","","","","","","","","","","","","","","","","",""
"","do_trial","507","1787285","0.0-269.0-0.0","785.9999999997672","","","","50","0,0,1","5","coast","205","probe-45","0.666385882237473","0.3763277184260528","0.3285025739381856","0","","","","","","","",""
"","html-keyboard-response","508","1788290","0.0-269.0-1.0","null","<p></p>","null","","","","","","","","","","","","","","","","","","",""
"","do_trial","509","1793971","0.0-270.0-0.0","1131","","","","50","0,0,0","5","coast","206","probe-75","0.6207271965710528","0.27802766526315503","0.37172539306079416","0","","","","","","","",""
"","html-keyboard-response","510","1794977","0.0-270.0-1.0","null","<p></p>","null","","","","","","","","","","","","","","","","","","",""
"","do_trial","511","1801651","0.0-271.0-0.0","2139","","","","51","1,1,0","5","coast","207","probe-228","0.6226948991636565","0.19992732220855158","0.3070359755840448","0","","","","","","","",""
"","html-keyboard-response","512","1802657","0.0-271.0-1.0","null","<p></p>","null","","","","","","","","","","","","","","","","","","",""
"","do_trial","513","1808179","0.0-272.0-0.0","971","","","","50","0,0,0","5","coast","208","probe-25","0.6058225973993376","0.1280891370962552","0.29501339885926436","0","","","","","","","",""
"","html-keyboard-response","514","1809182","0.0-272.0-1.0","null","<p></p>","null","","","","","","","","","","","","","","","","","","",""
"","do_trial","515","1814815","0.0-273.0-0.0","1098","","","","50","1,0,0","5","coast","209","probe-223","0.5947145335135221","0.1164301775532403","0.18599990874570158","0","","","","","","","",""
"","html-keyboard-response","516","1815818","0.0-273.0-1.0","null","<p></p>","null","","","","","","","","","","","","","","","","","","",""
"","do_trial","517","1820899","0.0-274.0-0.0","545.9999999997672","","","","51","1,0,1","5","coast","210","probe-152","0.8476025335166071","0.21180902825916723","0.31907345771339074","1","","","","","","","",""
"","html-keyboard-response","518","1821905","0.0-274.0-1.0","null","<p></p>","null","","","","","","","","","","","","","","","","","","",""
"","do_trial","519","1828572","0.0-275.0-0.0","2132","","","","51","1,0,1","5","coast","211","probe-121","0.8226018420125841","0.08579598235493173","0.34990805074953324","1","","","","","","","",""
"","html-keyboard-response","520","1829575","0.0-275.0-1.0","null","<p></p>","null","","","","","","","","","","","","","","","","","","",""
"","do_trial","521","1834626","0.0-276.0-0.0","513.9999999997672","","","","51","0,0,0","5","coast","212","probe-182","0.8037331898903741","0.10575029697303809","0.32140329378155413","0","","","","","","","",""
"","html-keyboard-response","522","1835630","0.0-276.0-1.0","null","<p></p>","null","","","","","","","","","","","","","","","","","","",""
"","do_trial","523","1840845","0.0-277.0-0.0","678","","","","51","1,0,0","5","coast","213","probe-156","0.8212691497350422","0.0926429434692329","0.33971653651730843","0","","","","","","","",""
"","html-keyboard-response","524","1841848","0.0-277.0-1.0","null","<p></p>","null","","","","","","","","","","","","","","","","","","",""
"","do_trial","525","1846918","0.0-278.0-0.0","534","","","","50","1,0,1","5","coast","214","probe-47","0.7162473079941125","0.19505630886027395","0.4109342821254436","0","","","","","","","",""
"","html-keyboard-response","526","1847921","0.0-278.0-1.0","null","<p></p>","null","","","","","","","","","","","","","","","","","","",""
"","do_trial","527","1853082","0.0-279.0-0.0","623.0000000002328","","","","49","0,0,0","5","coast","215","probe-112","0.7093778048426546","0.19374192514294575","0.32502787371789127","0","","","","","","","",""
"","html-keyboard-response","528","1854085","0.0-279.0-1.0","null","<p></p>","null","","","","","","","","","","","","","","","","","","",""
"","do_trial","529","1859317","0.0-280.0-0.0","686.9999999997672","","","","51","0,0,0","5","coast","216","probe-123","0.6085482161715802","0.07920986699497101","0.3689651904597965","0","","","","","","","",""
"","html-keyboard-response","530","1860320","0.0-280.0-1.0","null","<p></p>","null","","","","","","","","","","","","","","","","","","",""
"","do_trial","531","1865681","0.0-281.0-0.0","823","","","","50","1,1,0","5","coast","217","probe-186","0.6421369533871919","0.08147018907861889","0.2921429862887068","1","","","","","","","",""
"","html-keyboard-response","532","1866684","0.0-281.0-1.0","null","<p></p>","null","","","","","","","","","","","","","","","","","","",""
"","do_trial","533","1871770","0.0-282.0-0.0","548","","","","50","0,0,0","5","coast","218","probe-29","0.6227454553254791","0.12236882277456256","0.41529288480697646","0","","","","","","","",""
"","html-keyboard-response","534","1872773","0.0-282.0-1.0","null","<p></p>","null","","","","","","","","","","","","","","","","","","",""
"","do_trial","535","1878172","0.0-283.0-0.0","860","","","","49","1,0,1","5","coast","219","probe-113","0.6509049634423214","0.06177382700965264","0.40672493751148575","1","","","","","","","",""
"","html-keyboard-response","536","1879175","0.0-283.0-1.0","null","<p></p>","null","","","","","","","","","","","","","","","","","","",""
