"success","trial_type","trial_index","time_elapsed","internal_node_id","interactions","blur_events","focus_events","fullscreenenter_events","fullscreenexit_events","rt","stimulus","key_press","subject_id","participant_id","age","gender","prompt","response","choice_outcomes","context_n","context_img_id","trial_n","probe_img_id","pR_red","pR_white","pR_black","outcome","contextArray_ind","validImageProbes","invalidImageProbes","pRew_Red","pRew_White","pRew_Black","availableForMemProbe","choice_blocks"
"true","fullscreen","0","7270","0.0-0.0","""event"",""trial"",""time""
""fullscreenenter"",""0"",""6273""
","
","
","""event"",""trial"",""time""
""fullscreenenter"",""0"",""6273""
","
","","","","","","","","","","","","","","","","","","","","","","","","","",""
"","pavlovia","1","7279","0.0-1.0","""event"",""trial"",""time""
""fullscreenenter"",""0"",""6273""
","
","
","""event"",""trial"",""time""
""fullscreenenter"",""0"",""6273""
","
","","","","","","","","","","","","","","","","","","","","","","","","","",""
"","instruc1","2","52418","0.0-2.0","""event"",""trial"",""time""
""fullscreenenter"",""0"",""6273""
","
","
","""event"",""trial"",""time""
""fullscreenenter"",""0"",""6273""
","
","null","run_exp/static/audio/clip_1_welcome.m4a","null","254","72","12","Female","<div class='center'><p>Welcome! This is the first part of the study. It will last ~30 minutes. In part 1 and part 2 of the study, you are the head captain of a pirate ship traveling around the world to different islands. You will play a few different games throughout these two parts. Here is an overview of them:</p><br><p>Part 1 (today)</p><p>1. Instructions, practice game, and quiz</p><p>2. Pick a pirate game on 6 different islands</p><br><p>Part 2 (tomorrow)</p><p>3. Pick a pirate game and memory game</p><p>4. Where did you see this ship? </p></div>","","","","","","","","","","","","","","","","","",""
"","html-keyboard-response","3","53337","0.0-3.0","""event"",""trial"",""time""
""fullscreenenter"",""0"",""6273""
","
","
","""event"",""trial"",""time""
""fullscreenenter"",""0"",""6273""
","
","912.2000002861023","<div class='center'><p>Welcome! This is the first part of the study. It will last ~30 minutes. In part 1 and part 2 of the study, you are the head captain of a pirate ship traveling around the world to different islands. You will play a few different games throughout these two parts. Here is an overview of them:</p><br><p>Part 1 (today)</p><p>1. Instructions, practice game, and quiz</p><p>2. Pick a pirate game on 6 different islands</p><br><p>Part 2 (tomorrow)</p><p>3. Pick a pirate game and memory game</p><p>4. Where did you see this ship? </p><p><b>[Press the space bar to continue]</b></p></div>","32","","","","","","","","","","","","","","","","","","","","","","",""
"","instruc2","4","58676","0.0-4.0","""event"",""trial"",""time""
""fullscreenenter"",""0"",""6273""
","
","
","""event"",""trial"",""time""
""fullscreenenter"",""0"",""6273""
","
","null","run_exp/static/audio/clip_2_different_places.m4a","null","","","","","<div class='center'><p>Today, you’ll visit these 6 islands on your journey. You'll be able to see these islands from your ship.</p><p><img src='run_exp/static/images/contexts/all_contexts.png' height='500'></p></div>","","","","","","","","","","","","","","","","","",""
"","html-keyboard-response","5","60604","0.0-5.0","""event"",""trial"",""time""
""fullscreenenter"",""0"",""6273""
","
","
","""event"",""trial"",""time""
""fullscreenenter"",""0"",""6273""
","
","1925","<div class='center'><p>Today, you’ll visit these 6 islands on your journey. You'll be able to see these islands from your ship.</p><p><img src='run_exp/static/images/contexts/all_contexts.png' height='500'></p><p><b>[Press the space bar to continue]</b></p></div>","32","","","","","","","","","","","","","","","","","","","","","","",""
"","instruc3","6","70316","0.0-6.0","""event"",""trial"",""time""
""fullscreenenter"",""0"",""6273""
","
","
","""event"",""trial"",""time""
""fullscreenenter"",""0"",""6273""
","
","null","run_exp/static/audio/clip_3_goal_of_game_1.m4a","null","","","","","<div class='center'><p> The pirates on your ship will rob other ships as they leave the island.</p> These ships have just sold their goods to the islanders, so they will be filled with lots and lots of gold.</p><p><img src='run_exp/static/images/tutorial/ship_center.png' height='400'></p></div>","","","","","","","","","","","","","","","","","",""
"","html-keyboard-response","7","72089","0.0-7.0","""event"",""trial"",""time""
""fullscreenenter"",""0"",""6273""
","
","
","""event"",""trial"",""time""
""fullscreenenter"",""0"",""6273""
","
","1770","<div class='center'><p> The pirates on your ship will rob other ships as they leave the island.</p> These ships have just sold their goods to the islanders, so they will be filled with lots and lots of gold.</p><p><img src='run_exp/static/images/tutorial/ship_center.png' height='400'></p><p><b>[Press the space bar to continue]</b></p></div>","32","","","","","","","","","","","","","","","","","","","","","","",""
"","instruc4","8","100097","0.0-8.0","""event"",""trial"",""time""
""fullscreenenter"",""0"",""6273""
","
","
","""event"",""trial"",""time""
""fullscreenenter"",""0"",""6273""
","
","null","run_exp/static/audio/clip_4_goal_of_game_2.m4a","null","","","","","<div class='center'><p>As the head captain, you do not have to rob any ships yourself. Another pirate will be doing the robbing for you. First, you will choose a pirate to rob the next ship.</p><p><img src='run_exp/static/images/tutorial/pirates_all_crop.png' height='200'></p><p>Then, you'll see if the pirate successfully robbed the ship of their gold. If they were successful, then you'll get a stack of gold coins like this:</p><p><img src='run_exp/static/images/tutorial/reward.png' height='150'></p><p> If they were <b>not</b> successful, then you'll get no gold coins, and you'll see a big red x like this: </p><p><img src='run_exp/static/images/tutorial/reward_no.png' height='150'></p><p> How much bonus money you make is based on how many gold coins you collect.</p><div>","","","","","","","","","","","","","","","","","",""
"","html-keyboard-response","9","102083","0.0-9.0","""event"",""trial"",""time""
""fullscreenenter"",""0"",""6273""
","
","
","""event"",""trial"",""time""
""fullscreenenter"",""0"",""6273""
","
","1983.0999999046326","<div class='center'><p>As the head captain, you do not have to rob any ships yourself. Another pirate will be doing the robbing for you. First, you will choose a pirate to rob the next ship.</p><p><img src='run_exp/static/images/tutorial/pirates_all_crop.png' height='200'></p><p>Then, you'll see if the pirate successfully robbed the ship of their gold. If they were successful, then you'll get a stack of gold coins like this:</p><p><img src='run_exp/static/images/tutorial/reward.png' height='150'></p><p> If they were <b>not</b> successful, then you'll get no gold coins, and you'll see a big red x like this: </p><p><img src='run_exp/static/images/tutorial/reward_no.png' height='150'></p><p> How much bonus money you make is based on how many gold coins you collect.</p<p><b>[Press the space bar to continue]</b></p></div>","32","","","","","","","","","","","","","","","","","","","","","","",""
"","instruc5","10","124405","0.0-10.0","""event"",""trial"",""time""
""fullscreenenter"",""0"",""6273""
","
","
","""event"",""trial"",""time""
""fullscreenenter"",""0"",""6273""
","
","22316.300000190735","run_exp/static/audio/clip_5_probabilistic.m4a","49","","","","","<div class='center'><p>Even the most skilled pirate can not rob EVERY ship.</p><p> Some ships will have very strong protections against pirate attacks.</p><p> Blue beard, here, is very, very good at robbing ships, but he won't be successful every time he tries to rob one.</p><p> You can press the <b>‘1’</b> key on the keyboard to choose him.</p><p> Try choosing him 10 times to see how often he succeeds at robbing a ship. </p><p><img src='run_exp/static/images/tutorial/blue.png' height='500'></p></div>","","","","","","","","","","","","","","","","","",""
"","html-keyboard-response","11","125913","0.0-11.0","""event"",""trial"",""time""
""fullscreenenter"",""0"",""6273""
","
","
","""event"",""trial"",""time""
""fullscreenenter"",""0"",""6273""
","
","null","<div class='center'><p><img src='run_exp/static/images/tutorial/blue_win.png' height='500'></p></div>","null","","","","","","","","","","","","","","","","","","","","","","",""
"","html-keyboard-response","12","127717","0.0-12.0","""event"",""trial"",""time""
""fullscreenenter"",""0"",""6273""
","
","
","""event"",""trial"",""time""
""fullscreenenter"",""0"",""6273""
","
","1801.7000002861023","<div class='center'><img src='run_exp/static/images/tutorial/blue.png' height='500'></p></div>","49","","","","","","","","","","","","","","","","","","","","","","",""
"","html-keyboard-response","13","129238","0.0-13.0","""event"",""trial"",""time""
""fullscreenenter"",""0"",""6273""
","
","
","""event"",""trial"",""time""
""fullscreenenter"",""0"",""6273""
","
","null","<div class='center'><p><img src='run_exp/static/images/tutorial/blue_win.png' height='500'></p></div>","null","","","","","","","","","","","","","","","","","","","","","","",""
"","html-keyboard-response","14","130084","0.0-14.0","""event"",""trial"",""time""
""fullscreenenter"",""0"",""6273""
","
","
","""event"",""trial"",""time""
""fullscreenenter"",""0"",""6273""
","
","844.0999999046326","<div class='center'><img src='run_exp/static/images/tutorial/blue.png' height='500'></p></div>","49","","","","","","","","","","","","","","","","","","","","","","",""
"","html-keyboard-response","15","131596","0.0-15.0","""event"",""trial"",""time""
""fullscreenenter"",""0"",""6273""
","
","
","""event"",""trial"",""time""
""fullscreenenter"",""0"",""6273""
","
","null","<div class='center'><p><img src='run_exp/static/images/tutorial/blue_win.png' height='500'></p></div>","null","","","","","","","","","","","","","","","","","","","","","","",""
"","html-keyboard-response","16","132200","0.0-16.0","""event"",""trial"",""time""
""fullscreenenter"",""0"",""6273""
","
","
","""event"",""trial"",""time""
""fullscreenenter"",""0"",""6273""
","
","602","<div class='center'><img src='run_exp/static/images/tutorial/blue.png' height='500'></p></div>","49","","","","","","","","","","","","","","","","","","","","","","",""
"","html-keyboard-response","17","133715","0.0-17.0","""event"",""trial"",""time""
""fullscreenenter"",""0"",""6273""
","
","
","""event"",""trial"",""time""
""fullscreenenter"",""0"",""6273""
","
","null","<div class='center'><p><img src='run_exp/static/images/tutorial/blue_no_win.png' height='500'></p></div>","null","","","","","","","","","","","","","","","","","","","","","","",""
"","html-keyboard-response","18","134075","0.0-18.0","""event"",""trial"",""time""
""fullscreenenter"",""0"",""6273""
","
","
","""event"",""trial"",""time""
""fullscreenenter"",""0"",""6273""
","
","359","<div class='center'><img src='run_exp/static/images/tutorial/blue.png' height='500'></p></div>","49","","","","","","","","","","","","","","","","","","","","","","",""
"","html-keyboard-response","19","135581","0.0-19.0","""event"",""trial"",""time""
""fullscreenenter"",""0"",""6273""
","
","
","""event"",""trial"",""time""
""fullscreenenter"",""0"",""6273""
","
","null","<div class='center'><p><img src='run_exp/static/images/tutorial/blue_win.png' height='500'></p></div>","null","","","","","","","","","","","","","","","","","","","","","","",""
"","html-keyboard-response","20","135980","0.0-20.0","""event"",""trial"",""time""
""fullscreenenter"",""0"",""6273""
","
","
","""event"",""trial"",""time""
""fullscreenenter"",""0"",""6273""
","
","397.40000009536743","<div class='center'><img src='run_exp/static/images/tutorial/blue.png' height='500'></p></div>","49","","","","","","","","","","","","","","","","","","","","","","",""
"","html-keyboard-response","21","137490","0.0-21.0","""event"",""trial"",""time""
""fullscreenenter"",""0"",""6273""
","
","
","""event"",""trial"",""time""
""fullscreenenter"",""0"",""6273""
","
","null","<div class='center'><p><img src='run_exp/static/images/tutorial/blue_win.png' height='500'></p></div>","null","","","","","","","","","","","","","","","","","","","","","","",""
"","html-keyboard-response","22","137811","0.0-22.0","""event"",""trial"",""time""
""fullscreenenter"",""0"",""6273""
","
","
","""event"",""trial"",""time""
""fullscreenenter"",""0"",""6273""
","
","320.6000003814697","<div class='center'><img src='run_exp/static/images/tutorial/blue.png' height='500'></p></div>","49","","","","","","","","","","","","","","","","","","","","","","",""
"","html-keyboard-response","23","139322","0.0-23.0","""event"",""trial"",""time""
""fullscreenenter"",""0"",""6273""
","
","
","""event"",""trial"",""time""
""fullscreenenter"",""0"",""6273""
","
","null","<div class='center'><p><img src='run_exp/static/images/tutorial/blue_win.png' height='500'></p></div>","null","","","","","","","","","","","","","","","","","","","","","","",""
"","html-keyboard-response","24","139687","0.0-24.0","""event"",""trial"",""time""
""fullscreenenter"",""0"",""6273""
","
","
","""event"",""trial"",""time""
""fullscreenenter"",""0"",""6273""
","
","364.40000009536743","<div class='center'><img src='run_exp/static/images/tutorial/blue.png' height='500'></p></div>","49","","","","","","","","","","","","","","","","","","","","","","",""
"","html-keyboard-response","25","141198","0.0-25.0","""event"",""trial"",""time""
""fullscreenenter"",""0"",""6273""
","
","
","""event"",""trial"",""time""
""fullscreenenter"",""0"",""6273""
","
","null","<div class='center'><p><img src='run_exp/static/images/tutorial/blue_no_win.png' height='500'></p></div>","null","","","","","","","","","","","","","","","","","","","","","","",""
"","html-keyboard-response","26","141608","0.0-26.0","""event"",""trial"",""time""
""fullscreenenter"",""0"",""6273""
","
","
","""event"",""trial"",""time""
""fullscreenenter"",""0"",""6273""
","
","408.59999990463257","<div class='center'><img src='run_exp/static/images/tutorial/blue.png' height='500'></p></div>","49","","","","","","","","","","","","","","","","","","","","","","",""
"","html-keyboard-response","27","143112","0.0-27.0","""event"",""trial"",""time""
""fullscreenenter"",""0"",""6273""
","
","
","""event"",""trial"",""time""
""fullscreenenter"",""0"",""6273""
","
","null","<div class='center'><p><img src='run_exp/static/images/tutorial/blue_win.png' height='500'></p></div>","null","","","","","","","","","","","","","","","","","","","","","","",""
"","html-keyboard-response","28","143484","0.0-28.0","""event"",""trial"",""time""
""fullscreenenter"",""0"",""6273""
","
","
","""event"",""trial"",""time""
""fullscreenenter"",""0"",""6273""
","
","370","<div class='center'><img src='run_exp/static/images/tutorial/blue.png' height='500'></p></div>","49","","","","","","","","","","","","","","","","","","","","","","",""
"","html-keyboard-response","29","144995","0.0-29.0","""event"",""trial"",""time""
""fullscreenenter"",""0"",""6273""
","
","
","""event"",""trial"",""time""
""fullscreenenter"",""0"",""6273""
","
","null","<div class='center'><p><img src='run_exp/static/images/tutorial/blue_win.png' height='500'></p></div>","null","","","","","","","","","","","","","","","","","","","","","","",""
"","instruc6","30","150440","0.0-30.0","""event"",""trial"",""time""
""fullscreenenter"",""0"",""6273""
","
","
","""event"",""trial"",""time""
""fullscreenenter"",""0"",""6273""
","
","null","run_exp/static/audio/clip_6_blue_beard_outcome.m4a","null","","","","","<div class='center'><p> See, he succeeded in robbing the ships most of the time but not every time. </p></div>","","","","","","","","","","","","","","","","","",""
"","html-keyboard-response","31","151944","0.0-31.0","""event"",""trial"",""time""
""fullscreenenter"",""0"",""6273""
","
","
","""event"",""trial"",""time""
""fullscreenenter"",""0"",""6273""
","
","1502.3000001907349","<div class='center'><p> See, he succeeded in robbing the ships most of the time but not every time. </p><p><b>[Press the space bar to continue]</b></p></div>","32","","","","","","","","","","","","","","","","","","","","","","",""
"","audio-keyboard-response","32","168023","0.0-32.0","""event"",""trial"",""time""
""fullscreenenter"",""0"",""6273""
","
","
","""event"",""trial"",""time""
""fullscreenenter"",""0"",""6273""
","
","16076.799999713898","run_exp/static/audio/clip_7_pick_pirate.m4a","50","","","","","","","","","","","","","","","","","","","","","","",""
"","audio-keyboard-response","33","171151","0.0-33.0-0.0","""event"",""trial"",""time""
""fullscreenenter"",""0"",""6273""
","
","
","""event"",""trial"",""time""
""fullscreenenter"",""0"",""6273""
","
","3122.9000000953674","run_exp/static/audio/clip_8_chosen_pirate_win.m4a","32","","","","","","","","","","","","","","","","","","","","","","",""
"","audio-keyboard-response","34","172607","0.0-33.0-1.0","""event"",""trial"",""time""
""fullscreenenter"",""0"",""6273""
","
","
","""event"",""trial"",""time""
""fullscreenenter"",""0"",""6273""
","
","1453.6000003814697","run_exp/static/audio/clip_9_pick_a_pirate_again.m4a","51","","","","","","","","","","","","","","","","","","","","","","",""
"","audio-keyboard-response","35","173939","0.0-34.0-0.0","""event"",""trial"",""time""
""fullscreenenter"",""0"",""6273""
","
","
","""event"",""trial"",""time""
""fullscreenenter"",""0"",""6273""
","
","1328.2000002861023","run_exp/static/audio/clip_10_chosen_pirate_loss.m4a","32","","","","","","","","","","","","","","","","","","","","","","",""
"","instruc9","36","179440","0.0-35.0-0.0","""event"",""trial"",""time""
""fullscreenenter"",""0"",""6273""
","
","
","""event"",""trial"",""time""
""fullscreenenter"",""0"",""6273""
","
","null","run_exp/static/audio/clip_11_time_out.m4a","null","","","","","<div class='center'><p>If you don’t make your choice fast enough, you’ll have to wait a few seconds before you can make another one. </p><p><img src='run_exp/static/images/miscellaneous/hurry_up.png' height='500'></p></div>","","","","","","","","","","","","","","","","","",""
"","html-keyboard-response","37","180427","0.0-35.0-1.0","""event"",""trial"",""time""
""fullscreenenter"",""0"",""6273""
","
","
","""event"",""trial"",""time""
""fullscreenenter"",""0"",""6273""
","
","984.3999996185303","<div class='center'><p>If you don’t make your choice fast enough, you’ll have to wait a few seconds before you can make another one. </p><p><img src='run_exp/static/images/miscellaneous/hurry_up.png' height='500'></p><p><b>[Press the space bar to continue]</b></p></div>","32","","","","","","","","","","","","","","","","","","","","","","",""
"","instruc10","38","219539","0.0-35.0-2.0","""event"",""trial"",""time""
""fullscreenenter"",""0"",""6273""
","
","
","""event"",""trial"",""time""
""fullscreenenter"",""0"",""6273""
","
","null","run_exp/static/audio/clip_12_probe.m4a","null","","","","","<div class='center'><p>Once you've chosen a pirate, you’ll be shown the ship they are robbing. You will never rob the same ship twice. Ships can be told apart from one another by the image on them. These are the goods that they sell. See, this ship has a travel mug on it. </p><p> You’ll have to remember which island you saw each ship on. You will win more gold coins and hence more bonus money if you remember correctly! To help you remember, you can imagine a story. For example, here, you could imagine a mug full of water in the desert. Or, as another example, if on the forest island, your pirate robbed a ship with an apple on it, you could imagine an apple falling from a tree in the forest. </p><p><img src='run_exp/static/images/tutorial/example_probe.png' height='500'></p></div>","","","","","","","","","","","","","","","","","",""
"","html-keyboard-response","39","221691","0.0-35.0-3.0","""event"",""trial"",""time""
""fullscreenenter"",""0"",""6273""
","
","
","""event"",""trial"",""time""
""fullscreenenter"",""0"",""6273""
","
","2148.5999999046326","<div class='center'><p>Once you've chosen a pirate, you’ll be shown the ship they are robbing. You will never rob the same ship twice. Ships can be told apart from one another by the image on them. These are the goods that they sell. See, this ship has a travel mug on it. </p><p> You’ll have to remember which island you saw each ship on. You will win more gold coins and hence more bonus money if you remember correctly! To help you remember, you can imagine a story. For example, here, you could imagine a mug full of water in the desert. Or, as another example, if on the forest island, your pirate robbed a ship with an apple on it, you could imagine an apple falling from a tree in the forest. </p><p><img src='run_exp/static/images/tutorial/example_probe.png' height='500'></p><p><b>[Press the space bar to continue]</b></p></div>","32","","","","","","","","","","","","","","","","","","","","","","",""
"","instruc11","40","238118","0.0-35.0-4.0","""event"",""trial"",""time""
""fullscreenenter"",""0"",""6273""
","
","
","""event"",""trial"",""time""
""fullscreenenter"",""0"",""6273""
","
","null","run_exp/static/audio/clip_13_changepoint.m4a","null","","","","","<div class='center'><p>How successful a pirate is at robbing ships will depend on the island you’re on.</p><p> A pirate may have visited this island many times before and gained a lot of practice robbing ships there.</p><p>So, they’re more likely to be successful than a pirate who has never visited the island before.</p></div>","","","","","","","","","","","","","","","","","",""
"","html-keyboard-response","41","244974","0.0-35.0-5.0","""event"",""trial"",""time""
""fullscreenenter"",""0"",""6273""
","
","
","""event"",""trial"",""time""
""fullscreenenter"",""0"",""6273""
","
","6855.099999904633","<div class='center'><p>How successful a pirate is at robbing ships will depend on the island you’re on.</p><p> A pirate may have visited this island many times before and gained a lot of practice robbing ships there.</p><p>So, they’re more likely to be successful than a pirate who has never visited the island before.</p><p><b>[Press the space bar to continue]</b></p></div>","32","","","","","","","","","","","","","","","","","","","","","","",""
"","instruc12","42","286079","0.0-35.0-6.0","""event"",""trial"",""time""
""fullscreenenter"",""0"",""6273""
","
","
","""event"",""trial"",""time""
""fullscreenenter"",""0"",""6273""
","
","null","run_exp/static/audio/clip_14_drift.m4a","null","","","","","<div class='center'><p>How successful a pirate is at robbing ships can also change over the time spent on the island. </p><p> Ships may hear from islanders about the pirates coming and will improve their protections against the attack. This may make it harder to rob them.</p><p> Ships may also become lazy and weaken the strength of their protections. This may make it easier to rob them.</p><br><p>Things are always changing on the high seas! So, try your best to pay attention!</p><p><img src='run_exp/static/images/tutorial/contingency.png' height='500'></p></div>","","","","","","","","","","","","","","","","","",""
"","html-keyboard-response","43","287188","0.0-35.0-7.0","""event"",""trial"",""time""
""fullscreenenter"",""0"",""6273""
","
","
","""event"",""trial"",""time""
""fullscreenenter"",""0"",""6273""
","
","1106.9000000953674","<div class='center'><p>How successful a pirate is at robbing ships can also change over the time spent on the island. </p><p> Ships may hear from islanders about the pirates coming and will improve their protections against the attack. This may make it harder to rob them.</p><p> Ships may also become lazy and weaken the strength of their protections. This may make it easier to rob them.</p><br><p>Things are always changing on the high seas! So, try your best to pay attention!</p><p><img src='run_exp/static/images/tutorial/contingency.png' height='500'></p><p><b>[Press the space bar to continue]</b></p></div>","32","","","","","","","","","","","","","","","","","","","","","","",""
"","instruc13","44","322400","0.0-35.0-8.0","""event"",""trial"",""time""
""fullscreenenter"",""0"",""6273""
","
","
","""event"",""trial"",""time""
""fullscreenenter"",""0"",""6273""
","
","null","run_exp/static/audio/clip_15_summary.m4a","null","","","","","<div class='center'><p>Let's go over the instructions quickly again. You have two important things to do: </p><b><p> 1. Pick the pirate who is the best at robbing ships on the current island. </p></b><b><p> 2. Remember on which island a ship was robbed.</p> </b><p>The amount of bonus money you can win depends on both.</p><p><br><p>Let’s try a practice game. The game will start by showing you the pirates. First, pick a pirate using the <b> 1, 2, 3 </b> keys on your keyboard. When you are shown a ship, try to remember which island you’re on by making up a story.</p><p>This is just a practice game, so you’re not playing for money. </p><p> Good luck! This game will be very difficult but try your best!</p></div>","","","","","","","","","","","","","","","","","",""
"","html-keyboard-response","45","323531","0.0-35.0-9.0","""event"",""trial"",""time""
""fullscreenenter"",""0"",""6273""
","
","
","""event"",""trial"",""time""
""fullscreenenter"",""0"",""6273""
","
","1129.7999997138977","<div class='center'><p>Let's go over the instructions quickly again. You have two important things to do: </p><b><p> 1. Pick the pirate who is the best at robbing ships on the current island. </p></b><b><p> 2. Remember on which island a ship was robbed.</p> </b><p>The amount of bonus money you can win depends on both.</p><p><br><p>Let’s try a practice game. The game will start by showing you the pirates. First, pick a pirate using the <b> 1, 2, 3 </b> keys on your keyboard. When you are shown a ship, try to remember which island you’re on by making up a story.</p><p>This is just a practice game, so you’re not playing for money. </p><p> Good luck! This game will be very difficult but try your best!</p><p><b>[Press the space bar to continue]</b></p></div>","32","","","","","","","","","","","","","","","","","","","","","","",""
"","do_welcome","46","327548","0.0-35.0-10.0","""event"",""trial"",""time""
""fullscreenenter"",""0"",""6273""
","
","
","""event"",""trial"",""time""
""fullscreenenter"",""0"",""6273""
","
","null","","","","","","","","null","","","","","","","","","","","","","","","","",""
"","do_trial","47","333584","0.0-35.0-11.0","""event"",""trial"",""time""
""fullscreenenter"",""0"",""6273""
","
","
","""event"",""trial"",""time""
""fullscreenenter"",""0"",""6273""
","
","null","","","","","","","","null","1,0,0","","","","","","","","","","","","","","","",""
"","html-keyboard-response","48","334588","0.0-36.0-0.0","""event"",""trial"",""time""
""fullscreenenter"",""0"",""6273""
","
","
","""event"",""trial"",""time""
""fullscreenenter"",""0"",""6273""
","
","null","<p></p>","null","","","","","","","","","","","","","","","","","","","","","","",""
"","do_trial","49","339613","0.0-36.0-1.0","""event"",""trial"",""time""
""fullscreenenter"",""0"",""6273""
","
","
","""event"",""trial"",""time""
""fullscreenenter"",""0"",""6273""
","
","510.3999996185303","","","","","","","","50","1,0,0","","","","","","","","","","","","","","","",""
"","html-keyboard-response","50","340631","0.0-37.0-0.0","""event"",""trial"",""time""
""fullscreenenter"",""0"",""6273""
","
","
","""event"",""trial"",""time""
""fullscreenenter"",""0"",""6273""
","
","null","<p></p>","null","","","","","","","","","","","","","","","","","","","","","","",""
"","do_trial","51","346716","0.0-37.0-1.0","""event"",""trial"",""time""
""fullscreenenter"",""0"",""6273""
","
","
","""event"",""trial"",""time""
""fullscreenenter"",""0"",""6273""
","
","1566","","","","","","","","49","1,1,0","","","","","","","","","","","","","","","",""
"","html-keyboard-response","52","347729","0.0-38.0-0.0","""event"",""trial"",""time""
""fullscreenenter"",""0"",""6273""
","
","
","""event"",""trial"",""time""
""fullscreenenter"",""0"",""6273""
","
","null","<p></p>","null","","","","","","","","","","","","","","","","","","","","","","",""
"","do_trial","53","353030","0.0-38.0-1.0","""event"",""trial"",""time""
""fullscreenenter"",""0"",""6273""
","
","
","""event"",""trial"",""time""
""fullscreenenter"",""0"",""6273""
","
","785.6999998092651","","","","","","","","51","1,0,1","","","","","","","","","","","","","","","",""
"","html-keyboard-response","54","354047","0.0-39.0-0.0","""event"",""trial"",""time""
""fullscreenenter"",""0"",""6273""
","
","
","""event"",""trial"",""time""
""fullscreenenter"",""0"",""6273""
","
","null","<p></p>","null","","","","","","","","","","","","","","","","","","","","","","",""
"","do_trial","55","359498","0.0-39.0-1.0","""event"",""trial"",""time""
""fullscreenenter"",""0"",""6273""
","
","
","""event"",""trial"",""time""
""fullscreenenter"",""0"",""6273""
","
","925.7999997138977","","","","","","","","50","0,1,0","","","","","","","","","","","","","","","",""
"","html-keyboard-response","56","360512","0.0-40.0-0.0","""event"",""trial"",""time""
""fullscreenenter"",""0"",""6273""
","
","
","""event"",""trial"",""time""
""fullscreenenter"",""0"",""6273""
","
","null","<p></p>","null","","","","","","","","","","","","","","","","","","","","","","",""
"","do_trial","57","366547","0.0-40.0-1.0","""event"",""trial"",""time""
""fullscreenenter"",""0"",""6273""
","
","
","""event"",""trial"",""time""
""fullscreenenter"",""0"",""6273""
","
","1518","","","","","","","","49","1,0,0","","","","","","","","","","","","","","","",""
"","do_bye","58","368067","0.0-41.0-0.0","""event"",""trial"",""time""
""fullscreenenter"",""0"",""6273""
","
","
","""event"",""trial"",""time""
""fullscreenenter"",""0"",""6273""
","
","null","","","","","","","","null","","","","","","","","","","","","","","","","",""
"","do_travel","59","377083","0.0-41.0-1.0","""event"",""trial"",""time""
""fullscreenenter"",""0"",""6273""
","
","
","""event"",""trial"",""time""
""fullscreenenter"",""0"",""6273""
","
","null","","","","","","","","null","","","","","","","","","","","","","","","","",""
"","do_welcome","60","381108","0.0-41.0-2.0","""event"",""trial"",""time""
""fullscreenenter"",""0"",""6273""
","
","
","""event"",""trial"",""time""
""fullscreenenter"",""0"",""6273""
","
","null","","","","","","","","null","","","","","","","","","","","","","","","","",""
"","do_trial","61","386527","0.0-41.0-3.0","""event"",""trial"",""time""
""fullscreenenter"",""0"",""6273""
","
","
","""event"",""trial"",""time""
""fullscreenenter"",""0"",""6273""
","
","898.0999999046326","","","","","","","","51","1,0,0","","","","","","","","","","","","","","","",""
"","html-keyboard-response","62","387533","0.0-42.0-0.0","""event"",""trial"",""time""
""fullscreenenter"",""0"",""6273""
","
","
","""event"",""trial"",""time""
""fullscreenenter"",""0"",""6273""
","
","null","<p></p>","null","","","","","","","","","","","","","","","","","","","","","","",""
"","do_trial","63","393581","0.0-42.0-1.0","""event"",""trial"",""time""
""fullscreenenter"",""0"",""6273""
","
","
","""event"",""trial"",""time""
""fullscreenenter"",""0"",""6273""
","
","1523.5","","","","","","","","51","1,0,1","","","","","","","","","","","","","","","",""
"","html-keyboard-response","64","394583","0.0-43.0-0.0","""event"",""trial"",""time""
""fullscreenenter"",""0"",""6273""
","
","
","""event"",""trial"",""time""
""fullscreenenter"",""0"",""6273""
","
","null","<p></p>","null","","","","","","","","","","","","","","","","","","","","","","",""
"","do_trial","65","399831","0.0-43.0-1.0","""event"",""trial"",""time""
""fullscreenenter"",""0"",""6273""
","
","
","""event"",""trial"",""time""
""fullscreenenter"",""0"",""6273""
","
","730.1999998092651","","","","","","","","49","1,1,0","","","","","","","","","","","","","","","",""
"","html-keyboard-response","66","400846","0.0-44.0-0.0","""event"",""trial"",""time""
""fullscreenenter"",""0"",""6273""
","
","
","""event"",""trial"",""time""
""fullscreenenter"",""0"",""6273""
","
","null","<p></p>","null","","","","","","","","","","","","","","","","","","","","","","",""
"","do_trial","67","406180","0.0-44.0-1.0","""event"",""trial"",""time""
""fullscreenenter"",""0"",""6273""
","
","
","""event"",""trial"",""time""
""fullscreenenter"",""0"",""6273""
","
","815","","","","","","","","50","0,0,1","","","","","","","","","","","","","","","",""
"","html-keyboard-response","68","407196","0.0-45.0-0.0","""event"",""trial"",""time""
""fullscreenenter"",""0"",""6273""
","
","
","""event"",""trial"",""time""
""fullscreenenter"",""0"",""6273""
","
","null","<p></p>","null","","","","","","","","","","","","","","","","","","","","","","",""
"","do_trial","69","412014","0.0-45.0-1.0","""event"",""trial"",""time""
""fullscreenenter"",""0"",""6273""
","
","
","""event"",""trial"",""time""
""fullscreenenter"",""0"",""6273""
","
","292.5","","","","","","","","51","1,0,1","","","","","","","","","","","","","","","",""
"","html-keyboard-response","70","416660","0.0-46.0-0.0","""event"",""trial"",""time""
""fullscreenenter"",""0"",""6273""
","
","
","""event"",""trial"",""time""
""fullscreenenter"",""0"",""6273""
","
","4643.400000095367","<div class='center'><p><img src='run_exp/static/images/tutorial/prac_best_pirate.png'  height='500'></p></div>","51","","","","","","","","","","","","","","","","","","","","","","",""
"","html-keyboard-response","71","420061","0.0-47.0-0.0","""event"",""trial"",""time""
""fullscreenenter"",""0"",""6273""
","
","
","""event"",""trial"",""time""
""fullscreenenter"",""0"",""6273""
","
","3398.4000000953674","<div class='center'><p>That's incorrect! Red beard was the best.</p><p><b>[Press the space bar to continue]</b></p></div>","32","","","","","","","","","","","","","","","","","","","","","","",""
"","html-keyboard-response","72","423727","0.0-47.0-1.0","""event"",""trial"",""time""
""fullscreenenter"",""0"",""6273""
","
","
","""event"",""trial"",""time""
""fullscreenenter"",""0"",""6273""
","
","3665.2999997138977","<div class='center'><p><img src='run_exp/static/images/tutorial/prac_source.png'  height='500'></p></div>","50","","","","","","","","","","","","","","","","","","","","","","",""
"","html-keyboard-response","73","425789","0.0-48.0-0.0","""event"",""trial"",""time""
""fullscreenenter"",""0"",""6273""
","
","
","""event"",""trial"",""time""
""fullscreenenter"",""0"",""6273""
","
","2060.4000000953674","<div class='center'><p>That's correct! You saw this ship on the cavern island.</p><p><b>[Press the space bar to continue]</b></p></div>","32","","","","","","","","","","","","","","","","","","","","","","",""
"","quiz_beginning","74","437107","0.0-48.0-1.0","""event"",""trial"",""time""
""fullscreenenter"",""0"",""6273""
","
","
","""event"",""trial"",""time""
""fullscreenenter"",""0"",""6273""
","
","null","run_exp/static/audio/clip_16_quiz_intro.m4a","null","","","","","<div class='center'><p>Good job on the practice game! Now, you will be asked some true or false questions to make sure you really understand the rules of the game.</p><p> Press <b>'1'</b> on the keyboard for true and press <b>'2'</b> for false.</p></div>","","","","","","","","","","","","","","","","","",""
"","audio-keyboard-response","75","440880","0.0-48.0-2.0","""event"",""trial"",""time""
""fullscreenenter"",""0"",""6273""
","
","
","""event"",""trial"",""time""
""fullscreenenter"",""0"",""6273""
","
","3770.2999997138977","run_exp/static/audio/clip_17_q1.m4a","49","","","","","","","","","","","","","","","","","","","","","","",""
"","correct","76","443307","0.0-49.0-0.0","""event"",""trial"",""time""
""fullscreenenter"",""0"",""6273""
","
","
","""event"",""trial"",""time""
""fullscreenenter"",""0"",""6273""
","
","null","run_exp/static/audio/clip_18_correct.m4a","null","","","","","<div class='center'><p>That's correct!</p></div>","","","","","","","","","","","","","","","","","",""
"","html-keyboard-response","77","445019","0.0-49.0-1.0","""event"",""trial"",""time""
""fullscreenenter"",""0"",""6273""
","
","
","""event"",""trial"",""time""
""fullscreenenter"",""0"",""6273""
","
","1710.8000001907349","<div class='center'><p>That's correct!</p><p><b>[Press the space bar to continue]</b></p></div>","32","","","","","","","","","","","","","","","","","","","","","","",""
"","audio-keyboard-response","78","452412","0.0-49.0-2.0","""event"",""trial"",""time""
""fullscreenenter"",""0"",""6273""
","
","
","""event"",""trial"",""time""
""fullscreenenter"",""0"",""6273""
","
","7391","run_exp/static/audio/clip_20_q2.m4a","50","","","","","","","","","","","","","","","","","","","","","","",""
"","correct","79","454807","0.0-50.0-0.0","""event"",""trial"",""time""
""fullscreenenter"",""0"",""6273""
","
","
","""event"",""trial"",""time""
""fullscreenenter"",""0"",""6273""
","
","null","run_exp/static/audio/clip_18_correct.m4a","null","","","","","<div class='center'><p>That's correct!</p></div>","","","","","","","","","","","","","","","","","",""
"","html-keyboard-response","80","456111","0.0-50.0-1.0","""event"",""trial"",""time""
""fullscreenenter"",""0"",""6273""
","
","
","""event"",""trial"",""time""
""fullscreenenter"",""0"",""6273""
","
","1303","<div class='center'><p>That's correct!</p><p><b>[Press the space bar to continue]</b></p></div>","32","","","","","","","","","","","","","","","","","","","","","","",""
"","audio-keyboard-response","81","462372","0.0-50.0-2.0","""event"",""trial"",""time""
""fullscreenenter"",""0"",""6273""
","
","
","""event"",""trial"",""time""
""fullscreenenter"",""0"",""6273""
","
","6258.5","run_exp/static/audio/clip_22_q3.m4a","50","","","","","","","","","","","","","","","","","","","","","","",""
"","correct","82","464767","0.0-51.0-0.0","""event"",""trial"",""time""
""fullscreenenter"",""0"",""6273""
","
","
","""event"",""trial"",""time""
""fullscreenenter"",""0"",""6273""
","
","null","run_exp/static/audio/clip_18_correct.m4a","null","","","","","<div class='center'><p>That's correct!</p></div>","","","","","","","","","","","","","","","","","",""
"","html-keyboard-response","83","466275","0.0-51.0-1.0","""event"",""trial"",""time""
""fullscreenenter"",""0"",""6273""
","
","
","""event"",""trial"",""time""
""fullscreenenter"",""0"",""6273""
","
","1506","<div class='center'><p>That's correct!</p><p><b>[Press the space bar to continue]</b></p></div>","32","","","","","","","","","","","","","","","","","","","","","","",""
"","audio-keyboard-response","84","471746","0.0-51.0-2.0","""event"",""trial"",""time""
""fullscreenenter"",""0"",""6273""
","
","
","""event"",""trial"",""time""
""fullscreenenter"",""0"",""6273""
","
","5474.200000286102","run_exp/static/audio/clip_24_q4.m4a","49","","","","","","","","","","","","","","","","","","","","","","",""
"","correct","85","474204","0.0-52.0-0.0","""event"",""trial"",""time""
""fullscreenenter"",""0"",""6273""
","
","
","""event"",""trial"",""time""
""fullscreenenter"",""0"",""6273""
","
","null","run_exp/static/audio/clip_18_correct.m4a","null","","","","","<div class='center'><p>That's correct!</p></div>","","","","","","","","","","","","","","","","","",""
"","html-keyboard-response","86","475738","0.0-52.0-1.0","""event"",""trial"",""time""
""fullscreenenter"",""0"",""6273""
","
","
","""event"",""trial"",""time""
""fullscreenenter"",""0"",""6273""
","
","1533.5999999046326","<div class='center'><p>That's correct!</p><p><b>[Press the space bar to continue]</b></p></div>","32","","","","","","","","","","","","","","","","","","","","","","",""
"","q_all_corr","87","484244","0.0-53.0-0.0","""event"",""trial"",""time""
""fullscreenenter"",""0"",""6273""
","
","
","""event"",""trial"",""time""
""fullscreenenter"",""0"",""6273""
","
","null","run_exp/static/audio/clip_27_quiz_all_correct.m4a","null","","","","","<div class='center'><p>Good job! You’re now ready to move on to the real game! Remember this game will be difficult but don't get discouraged and try your best!</p></div>","","","","","","","","","","","","","","","","","",""
"","html-keyboard-response","88","485451","0.0-53.0-1.0","""event"",""trial"",""time""
""fullscreenenter"",""0"",""6273""
","
","
","""event"",""trial"",""time""
""fullscreenenter"",""0"",""6273""
","
","1205.5","<div class='center'><p>Good job! You’re now ready to move on to the real game! Remember this game will be difficult but don't get discouraged and try your best!</p><p><b>[Press the space bar to continue]</b></p></div>","32","","","","","","","","","","","","","","","","","","","","","","",""
"","do_welcome","89","489482","0.0-54.0-0.0","""event"",""trial"",""time""
""fullscreenenter"",""0"",""6273""
","
","
","""event"",""trial"",""time""
""fullscreenenter"",""0"",""6273""
","
","null","","","","","","","","null","","","","","","","","","","","","","","","","",""
"","do_trial","90","495132","0.0-55.0-0.0","""event"",""trial"",""time""
""fullscreenenter"",""0"",""6273""
","
","
","""event"",""trial"",""time""
""fullscreenenter"",""0"",""6273""
","
","1050.0999999046326","","","","","","","","50","0,0,0","0","coast","0","probe-85","0.6","0.3","0.1","0","","","","","","","",""
"","html-keyboard-response","91","496152","0.0-55.0-1.0","""event"",""trial"",""time""
""fullscreenenter"",""0"",""6273""
","
","
","""event"",""trial"",""time""
""fullscreenenter"",""0"",""6273""
","
","null","<p></p>","null","","","","","","","","","","","","","","","","","","","","","","",""
"","do_trial","92","501552","0.0-56.0-0.0","""event"",""trial"",""time""
""fullscreenenter"",""0"",""6273""
","
","
","""event"",""trial"",""time""
""fullscreenenter"",""0"",""6273""
","
","818","","","","","","","","50","1,0,0","0","coast","1","probe-112","0.6853512670596037","0.1263580609020872","0.17285852575593855","0","","","","","","","",""
"","html-keyboard-response","93","502555","0.0-56.0-1.0","""event"",""trial"",""time""
""fullscreenenter"",""0"",""6273""
","
","
","""event"",""trial"",""time""
""fullscreenenter"",""0"",""6273""
","
","null","<p></p>","null","","","","","","","","","","","","","","","","","","","","","","",""
"","do_trial","94","507777","0.0-57.0-0.0","""event"",""trial"",""time""
""fullscreenenter"",""0"",""6273""
","
","
","""event"",""trial"",""time""
""fullscreenenter"",""0"",""6273""
","
","645.0999999046326","","","","","","","","51","0,0,0","0","coast","2","probe-88","0.47513705212403956","0.288797871075864","0.27332296529952993","0","","","","","","","",""
"","html-keyboard-response","95","508793","0.0-57.0-1.0","""event"",""trial"",""time""
""fullscreenenter"",""0"",""6273""
","
","
","""event"",""trial"",""time""
""fullscreenenter"",""0"",""6273""
","
","null","<p></p>","null","","","","","","","","","","","","","","","","","","","","","","",""
"","do_trial","96","513892","0.0-58.0-0.0","""event"",""trial"",""time""
""fullscreenenter"",""0"",""6273""
","
","
","""event"",""trial"",""time""
""fullscreenenter"",""0"",""6273""
","
","515.5999999046326","","","","","","","","51","0,0,0","0","coast","3","probe-149","0.5590484814556744","0.2737841019883976","0.19491783765197404","0","","","","","","","",""
"","html-keyboard-response","97","514909","0.0-58.0-1.0","""event"",""trial"",""time""
""fullscreenenter"",""0"",""6273""
","
","
","""event"",""trial"",""time""
""fullscreenenter"",""0"",""6273""
","
","null","<p></p>","null","","","","","","","","","","","","","","","","","","","","","","",""
"","do_trial","98","519977","0.0-59.0-0.0","""event"",""trial"",""time""
""fullscreenenter"",""0"",""6273""
","
","
","""event"",""trial"",""time""
""fullscreenenter"",""0"",""6273""
","
","446.2999997138977","","","","","","","","51","1,0,0","0","coast","4","probe-205","0.5053493016773547","0.21186188482802223","0.12843084567246482","0","","","","","","","",""
"","html-keyboard-response","99","520993","0.0-59.0-1.0","""event"",""trial"",""time""
""fullscreenenter"",""0"",""6273""
","
","
","""event"",""trial"",""time""
""fullscreenenter"",""0"",""6273""
","
","null","<p></p>","null","","","","","","","","","","","","","","","","","","","","","","",""
"","do_trial","100","526110","0.0-60.0-0.0","""event"",""trial"",""time""
""fullscreenenter"",""0"",""6273""
","
","
","""event"",""trial"",""time""
""fullscreenenter"",""0"",""6273""
","
","481.40000009536743","","","","","","","","49","0,0,0","0","coast","5","probe-20","0.4535713378024693","0.22051644706552825","0.05167579435992999","0","","","","","","","",""
"","html-keyboard-response","101","527127","0.0-60.0-1.0","""event"",""trial"",""time""
""fullscreenenter"",""0"",""6273""
","
","
","""event"",""trial"",""time""
""fullscreenenter"",""0"",""6273""
","
","null","<p></p>","null","","","","","","","","","","","","","","","","","","","","","","",""
"","do_trial","102","532214","0.0-61.0-0.0","""event"",""trial"",""time""
""fullscreenenter"",""0"",""6273""
","
","
","""event"",""trial"",""time""
""fullscreenenter"",""0"",""6273""
","
","520.7999997138977","","","","","","","","49","1,0,1","0","coast","6","probe-224","0.4172298726525782","0.33388017846578905","0.08783509810845255","1","","","","","","","",""
"","html-keyboard-response","103","533230","0.0-61.0-1.0","""event"",""trial"",""time""
""fullscreenenter"",""0"",""6273""
","
","
","""event"",""trial"",""time""
""fullscreenenter"",""0"",""6273""
","
","null","<p></p>","null","","","","","","","","","","","","","","","","","","","","","","",""
"","do_trial","104","538998","0.0-62.0-0.0","""event"",""trial"",""time""
""fullscreenenter"",""0"",""6273""
","
","
","""event"",""trial"",""time""
""fullscreenenter"",""0"",""6273""
","
","1151.5999999046326","","","","","","","","50","1,1,1","0","coast","7","probe-31","0.5496418137212183","0.4205030450595049","0.07889101129372786","1","","","","","","","",""
"","html-keyboard-response","105","540014","0.0-62.0-1.0","""event"",""trial"",""time""
""fullscreenenter"",""0"",""6273""
","
","
","""event"",""trial"",""time""
""fullscreenenter"",""0"",""6273""
","
","null","<p></p>","null","","","","","","","","","","","","","","","","","","","","","","",""
"","do_trial","106","545347","0.0-63.0-0.0","""event"",""trial"",""time""
""fullscreenenter"",""0"",""6273""
","
","
","""event"",""trial"",""time""
""fullscreenenter"",""0"",""6273""
","
","748","","","","","","","","51","0,0,0","0","coast","8","probe-45","0.5757571304595327","0.4274961300162537","0.08882676019985221","0","","","","","","","",""
"","html-keyboard-response","107","546363","0.0-63.0-1.0","""event"",""trial"",""time""
""fullscreenenter"",""0"",""6273""
","
","
","""event"",""trial"",""time""
""fullscreenenter"",""0"",""6273""
","
","null","<p></p>","null","","","","","","","","","","","","","","","","","","","","","","",""
"","do_trial","108","551581","0.0-64.0-0.0","""event"",""trial"",""time""
""fullscreenenter"",""0"",""6273""
","
","
","""event"",""trial"",""time""
""fullscreenenter"",""0"",""6273""
","
","605.0999999046326","","","","","","","","50","1,1,0","0","coast","9","probe-32","0.6187412171659897","0.41924098189325476","0.14641419589731575","1","","","","","","","",""
"","html-keyboard-response","109","552597","0.0-64.0-1.0","""event"",""trial"",""time""
""fullscreenenter"",""0"",""6273""
","
","
","""event"",""trial"",""time""
""fullscreenenter"",""0"",""6273""
","
","null","<p></p>","null","","","","","","","","","","","","","","","","","","","","","","",""
"","do_trial","110","557749","0.0-65.0-0.0","""event"",""trial"",""time""
""fullscreenenter"",""0"",""6273""
","
","
","""event"",""trial"",""time""
""fullscreenenter"",""0"",""6273""
","
","571","","","","","","","","49","0,1,0","0","coast","10","probe-16","0.6153536454533945","0.28011406416503387","0.20130370604632483","0","","","","","","","",""
"","html-keyboard-response","111","558764","0.0-65.0-1.0","""event"",""trial"",""time""
""fullscreenenter"",""0"",""6273""
","
","
","""event"",""trial"",""time""
""fullscreenenter"",""0"",""6273""
","
","null","<p></p>","null","","","","","","","","","","","","","","","","","","","","","","",""
"","do_trial","112","564048","0.0-66.0-0.0","""event"",""trial"",""time""
""fullscreenenter"",""0"",""6273""
","
","
","""event"",""trial"",""time""
""fullscreenenter"",""0"",""6273""
","
","674.5999999046326","","","","","","","","49","1,0,0","0","coast","11","probe-211","0.5812435996903283","0.3234970766696917","0.19048047145810057","1","","","","","","","",""
"","html-keyboard-response","113","565063","0.0-66.0-1.0","""event"",""trial"",""time""
""fullscreenenter"",""0"",""6273""
","
","
","""event"",""trial"",""time""
""fullscreenenter"",""0"",""6273""
","
","null","<p></p>","null","","","","","","","","","","","","","","","","","","","","","","",""
"","do_trial","114","570331","0.0-67.0-0.0","""event"",""trial"",""time""
""fullscreenenter"",""0"",""6273""
","
","
","""event"",""trial"",""time""
""fullscreenenter"",""0"",""6273""
","
","717.2999997138977","","","","","","","","49","1,0,0","0","coast","12","probe-133","0.42665579108071966","0.24657673249233014","0.22913497206994102","1","","","","","","","",""
"","html-keyboard-response","115","571347","0.0-67.0-1.0","""event"",""trial"",""time""
""fullscreenenter"",""0"",""6273""
","
","
","""event"",""trial"",""time""
""fullscreenenter"",""0"",""6273""
","
","null","<p></p>","null","","","","","","","","","","","","","","","","","","","","","","",""
"","do_trial","116","576933","0.0-68.0-0.0","""event"",""trial"",""time""
""fullscreenenter"",""0"",""6273""
","
","
","""event"",""trial"",""time""
""fullscreenenter"",""0"",""6273""
","
","1037","","","","","","","","50","1,0,0","0","coast","13","probe-217","0.4051821461635586","0.05519116785877024","0.05617374909445189","0","","","","","","","",""
"","html-keyboard-response","117","577947","0.0-68.0-1.0","""event"",""trial"",""time""
""fullscreenenter"",""0"",""6273""
","
","
","""event"",""trial"",""time""
""fullscreenenter"",""0"",""6273""
","
","null","<p></p>","null","","","","","","","","","","","","","","","","","","","","","","",""
"","do_trial","118","583315","0.0-69.0-0.0","""event"",""trial"",""time""
""fullscreenenter"",""0"",""6273""
","
","
","""event"",""trial"",""time""
""fullscreenenter"",""0"",""6273""
","
","831.5999999046326","","","","","","","","49","1,0,0","0","coast","14","probe-84","0.5346582415969882","0.07407266604876213","0.1730101637594838","1","","","","","","","",""
"","html-keyboard-response","119","584330","0.0-69.0-1.0","""event"",""trial"",""time""
""fullscreenenter"",""0"",""6273""
","
","
","""event"",""trial"",""time""
""fullscreenenter"",""0"",""6273""
","
","null","<p></p>","null","","","","","","","","","","","","","","","","","","","","","","",""
"","do_trial","120","589481","0.0-70.0-0.0","""event"",""trial"",""time""
""fullscreenenter"",""0"",""6273""
","
","
","""event"",""trial"",""time""
""fullscreenenter"",""0"",""6273""
","
","613.6999998092651","","","","","","","","51","0,0,1","0","coast","15","probe-156","0.49381497561340093","0.15855315303956105","0.2912567724721786","1","","","","","","","",""
"","html-keyboard-response","121","590497","0.0-70.0-1.0","""event"",""trial"",""time""
""fullscreenenter"",""0"",""6273""
","
","
","""event"",""trial"",""time""
""fullscreenenter"",""0"",""6273""
","
","null","<p></p>","null","","","","","","","","","","","","","","","","","","","","","","",""
"","do_trial","122","595581","0.0-71.0-0.0","""event"",""trial"",""time""
""fullscreenenter"",""0"",""6273""
","
","
","""event"",""trial"",""time""
""fullscreenenter"",""0"",""6273""
","
","534.4000000953674","","","","","","","","50","0,1,0","0","coast","16","probe-74","0.6706862180765557","0.1627762285532357","0.3948136046334243","1","","","","","","","",""
"","html-keyboard-response","123","596597","0.0-71.0-1.0","""event"",""trial"",""time""
""fullscreenenter"",""0"",""6273""
","
","
","""event"",""trial"",""time""
""fullscreenenter"",""0"",""6273""
","
","null","<p></p>","null","","","","","","","","","","","","","","","","","","","","","","",""
"","do_trial","124","601765","0.0-72.0-0.0","""event"",""trial"",""time""
""fullscreenenter"",""0"",""6273""
","
","
","""event"",""trial"",""time""
""fullscreenenter"",""0"",""6273""
","
","625.5","","","","","","","","49","0,0,1","0","coast","17","probe-230","0.6417117047314237","0.2258582408238429","0.24646638140734714","0","","","","","","","",""
"","html-keyboard-response","125","602781","0.0-72.0-1.0","""event"",""trial"",""time""
""fullscreenenter"",""0"",""6273""
","
","
","""event"",""trial"",""time""
""fullscreenenter"",""0"",""6273""
","
","null","<p></p>","null","","","","","","","","","","","","","","","","","","","","","","",""
"","do_trial","126","607932","0.0-73.0-0.0","""event"",""trial"",""time""
""fullscreenenter"",""0"",""6273""
","
","
","""event"",""trial"",""time""
""fullscreenenter"",""0"",""6273""
","
","610.3000001907349","","","","","","","","49","1,0,0","0","coast","18","probe-68","0.7473173682862734","0.22795237071480895","0.19935042983307427","1","","","","","","","",""
"","html-keyboard-response","127","608947","0.0-73.0-1.0","""event"",""trial"",""time""
""fullscreenenter"",""0"",""6273""
","
","
","""event"",""trial"",""time""
""fullscreenenter"",""0"",""6273""
","
","null","<p></p>","null","","","","","","","","","","","","","","","","","","","","","","",""
"","do_trial","128","614148","0.0-74.0-0.0","""event"",""trial"",""time""
""fullscreenenter"",""0"",""6273""
","
","
","""event"",""trial"",""time""
""fullscreenenter"",""0"",""6273""
","
","663.6999998092651","","","","","","","","51","1,1,1","0","coast","19","probe-122","0.7151934730785671","0.39809966177548217","0.14878752245056348","1","","","","","","","",""
"","html-keyboard-response","129","615165","0.0-74.0-1.0","""event"",""trial"",""time""
""fullscreenenter"",""0"",""6273""
","
","
","""event"",""trial"",""time""
""fullscreenenter"",""0"",""6273""
","
","null","<p></p>","null","","","","","","","","","","","","","","","","","","","","","","",""
"","do_trial","130","620615","0.0-75.0-0.0","""event"",""trial"",""time""
""fullscreenenter"",""0"",""6273""
","
","
","""event"",""trial"",""time""
""fullscreenenter"",""0"",""6273""
","
","905.8000001907349","","","","","","","","50","1,0,0","0","coast","20","probe-183","0.5966347873345295","0.31292492432264946","0.25764540461267776","0","","","","","","","",""
"","html-keyboard-response","131","621631","0.0-75.0-1.0","""event"",""trial"",""time""
""fullscreenenter"",""0"",""6273""
","
","
","""event"",""trial"",""time""
""fullscreenenter"",""0"",""6273""
","
","null","<p></p>","null","","","","","","","","","","","","","","","","","","","","","","",""
"","do_trial","132","626647","0.0-76.0-0.0","""event"",""trial"",""time""
""fullscreenenter"",""0"",""6273""
","
","
","""event"",""trial"",""time""
""fullscreenenter"",""0"",""6273""
","
","467","","","","","","","","50","0,0,0","0","coast","21","probe-17","0.6140003551171784","0.2722367801615443","0.15036707820689146","0","","","","","","","",""
"","html-keyboard-response","133","627648","0.0-76.0-1.0","""event"",""trial"",""time""
""fullscreenenter"",""0"",""6273""
","
","
","""event"",""trial"",""time""
""fullscreenenter"",""0"",""6273""
","
","null","<p></p>","null","","","","","","","","","","","","","","","","","","","","","","",""
"","do_trial","134","632949","0.0-77.0-0.0","""event"",""trial"",""time""
""fullscreenenter"",""0"",""6273""
","
","
","""event"",""trial"",""time""
""fullscreenenter"",""0"",""6273""
","
","765.7000002861023","","","","","","","","51","1,1,0","0","coast","22","probe-80","0.5394315943797976","0.2883353672489277","0.1862888603630609","0","","","","","","","",""
"","html-keyboard-response","135","633964","0.0-77.0-1.0","""event"",""trial"",""time""
""fullscreenenter"",""0"",""6273""
","
","
","""event"",""trial"",""time""
""fullscreenenter"",""0"",""6273""
","
","null","<p></p>","null","","","","","","","","","","","","","","","","","","","","","","",""
"","do_trial","136","639313","0.0-78.0-0.0","""event"",""trial"",""time""
""fullscreenenter"",""0"",""6273""
","
","
","""event"",""trial"",""time""
""fullscreenenter"",""0"",""6273""
","
","801.5","","","","","","","","50","1,0,0","0","coast","23","probe-60","0.6504496769574962","0.32861922072185684","0.13286648010423868","0","","","","","","","",""
"","html-keyboard-response","137","640330","0.0-78.0-1.0","""event"",""trial"",""time""
""fullscreenenter"",""0"",""6273""
","
","
","""event"",""trial"",""time""
""fullscreenenter"",""0"",""6273""
","
","null","<p></p>","null","","","","","","","","","","","","","","","","","","","","","","",""
"","do_trial","138","645466","0.0-79.0-0.0","""event"",""trial"",""time""
""fullscreenenter"",""0"",""6273""
","
","
","""event"",""trial"",""time""
""fullscreenenter"",""0"",""6273""
","
","558.9000000953674","","","","","","","","49","0,0,0","0","coast","24","probe-206","0.7128147994472434","0.2739054993499378","0.12945411061706305","0","","","","","","","",""
"","html-keyboard-response","139","646480","0.0-79.0-1.0","""event"",""trial"",""time""
""fullscreenenter"",""0"",""6273""
","
","
","""event"",""trial"",""time""
""fullscreenenter"",""0"",""6273""
","
","null","<p></p>","null","","","","","","","","","","","","","","","","","","","","","","",""
"","do_trial","140","651465","0.0-80.0-0.0","""event"",""trial"",""time""
""fullscreenenter"",""0"",""6273""
","
","
","""event"",""trial"",""time""
""fullscreenenter"",""0"",""6273""
","
","428.3999996185303","","","","","","","","49","1,0,0","0","coast","25","probe-219","0.5755605897260859","0.4664996671505256","0.151966645848743","1","","","","","","","",""
"","html-keyboard-response","141","652480","0.0-80.0-1.0","""event"",""trial"",""time""
""fullscreenenter"",""0"",""6273""
","
","
","""event"",""trial"",""time""
""fullscreenenter"",""0"",""6273""
","
","null","<p></p>","null","","","","","","","","","","","","","","","","","","","","","","",""
"","do_trial","142","658430","0.0-81.0-0.0","""event"",""trial"",""time""
""fullscreenenter"",""0"",""6273""
","
","
","""event"",""trial"",""time""
""fullscreenenter"",""0"",""6273""
","
","1343.1999998092651","","","","","","","","49","1,0,0","0","coast","26","probe-136","0.46094107798863904","0.3902421953750297","0.07358152300509463","1","","","","","","","",""
"","html-keyboard-response","143","659432","0.0-81.0-1.0","""event"",""trial"",""time""
""fullscreenenter"",""0"",""6273""
","
","
","""event"",""trial"",""time""
""fullscreenenter"",""0"",""6273""
","
","null","<p></p>","null","","","","","","","","","","","","","","","","","","","","","","",""
"","do_trial","144","664598","0.0-82.0-0.0","""event"",""trial"",""time""
""fullscreenenter"",""0"",""6273""
","
","
","""event"",""trial"",""time""
""fullscreenenter"",""0"",""6273""
","
","620.3000001907349","","","","","","","","51","0,0,0","0","coast","27","probe-83","0.5598799820705807","0.39916793656537986","0.11208835704306638","0","","","","","","","",""
"","html-keyboard-response","145","665614","0.0-82.0-1.0","""event"",""trial"",""time""
""fullscreenenter"",""0"",""6273""
","
","
","""event"",""trial"",""time""
""fullscreenenter"",""0"",""6273""
","
","null","<p></p>","null","","","","","","","","","","","","","","","","","","","","","","",""
"","do_trial","146","670848","0.0-83.0-0.0","""event"",""trial"",""time""
""fullscreenenter"",""0"",""6273""
","
","
","""event"",""trial"",""time""
""fullscreenenter"",""0"",""6273""
","
","676.0999999046326","","","","","","","","50","0,1,0","0","coast","28","probe-29","0.5354242842020148","0.24968599569480618","0.08512183680232457","1","","","","","","","",""
"","html-keyboard-response","147","671864","0.0-83.0-1.0","""event"",""trial"",""time""
""fullscreenenter"",""0"",""6273""
","
","
","""event"",""trial"",""time""
""fullscreenenter"",""0"",""6273""
","
","null","<p></p>","null","","","","","","","","","","","","","","","","","","","","","","",""
"","do_trial","148","677448","0.0-84.0-0.0","""event"",""trial"",""time""
""fullscreenenter"",""0"",""6273""
","
","
","""event"",""trial"",""time""
""fullscreenenter"",""0"",""6273""
","
","1040.6999998092651","","","","","","","","50","0,1,0","0","coast","29","probe-19","0.4995353155040032","0.31928115557326325","0.13442065522516206","1","","","","","","","",""
"","html-keyboard-response","149","678464","0.0-84.0-1.0","""event"",""trial"",""time""
""fullscreenenter"",""0"",""6273""
","
","
","""event"",""trial"",""time""
""fullscreenenter"",""0"",""6273""
","
","null","<p></p>","null","","","","","","","","","","","","","","","","","","","","","","",""
"","do_bye","150","679979","0.0-85.0-0.0","""event"",""trial"",""time""
""fullscreenenter"",""0"",""6273""
","
","
","""event"",""trial"",""time""
""fullscreenenter"",""0"",""6273""
","
","null","","","","","","","","null","","","","","","","","","","","","","","","","",""
"","break","151","685071","0.0-85.0-1.0","""event"",""trial"",""time""
""fullscreenenter"",""0"",""6273""
","
","
","""event"",""trial"",""time""
""fullscreenenter"",""0"",""6273""
","
","5090.400000095367","<div class='center'><p>Time to take a quick break! You have 2 minutes to rest, but you can move on sooner if you'd like.</p><p> Press the <b>space bar</b> to continue.</p></div>","32","","","","","","","","","","","","","","","","","","","","","","",""
"","do_travel","152","694085","0.0-86.0-0.0","""event"",""trial"",""time""
""fullscreenenter"",""0"",""6273""
","
","
","""event"",""trial"",""time""
""fullscreenenter"",""0"",""6273""
","
","null","","","","","","","","null","","","","","","","","","","","","","","","","",""
"","do_welcome","153","698106","0.0-86.0-1.0","""event"",""trial"",""time""
""fullscreenenter"",""0"",""6273""
","
","
","""event"",""trial"",""time""
""fullscreenenter"",""0"",""6273""
","
","null","","","","","","","","null","","","","","","","","","","","","","","","","",""
"","do_trial","154","704336","0.0-87.0-0.0","""event"",""trial"",""time""
""fullscreenenter"",""0"",""6273""
","
","
","""event"",""trial"",""time""
""fullscreenenter"",""0"",""6273""
","
","1639.4000000953674","","","","","","","","49","1,0,1","1","mountain","30","probe-182","1","0.3087676883702607","0.1386057274532188","1","","","","","","","",""
"","html-keyboard-response","155","705345","0.0-87.0-1.0","""event"",""trial"",""time""
""fullscreenenter"",""0"",""6273""
","
","
","""event"",""trial"",""time""
""fullscreenenter"",""0"",""6273""
","
","null","<p></p>","null","","","","","","","","","","","","","","","","","","","","","","",""
"","do_trial","156","710564","0.0-88.0-0.0","""event"",""trial"",""time""
""fullscreenenter"",""0"",""6273""
","
","
","""event"",""trial"",""time""
""fullscreenenter"",""0"",""6273""
","
","604.1999998092651","","","","","","","","51","1,0,0","1","mountain","31","probe-93","1","0.3439417909789427","0.10350077631606269","0","","","","","","","",""
"","html-keyboard-response","157","711566","0.0-88.0-1.0","""event"",""trial"",""time""
""fullscreenenter"",""0"",""6273""
","
","
","""event"",""trial"",""time""
""fullscreenenter"",""0"",""6273""
","
","null","<p></p>","null","","","","","","","","","","","","","","","","","","","","","","",""
"","do_trial","158","716666","0.0-89.0-0.0","""event"",""trial"",""time""
""fullscreenenter"",""0"",""6273""
","
","
","""event"",""trial"",""time""
""fullscreenenter"",""0"",""6273""
","
","465.30000019073486","","","","","","","","50","1,0,0","1","mountain","32","probe-33","1","0.29650559173922236","0.22093736482275966","0","","","","","","","",""
"","html-keyboard-response","159","717682","0.0-89.0-1.0","""event"",""trial"",""time""
""fullscreenenter"",""0"",""6273""
","
","
","""event"",""trial"",""time""
""fullscreenenter"",""0"",""6273""
","
","null","<p></p>","null","","","","","","","","","","","","","","","","","","","","","","",""
"","do_trial","160","722732","0.0-90.0-0.0","""event"",""trial"",""time""
""fullscreenenter"",""0"",""6273""
","
","
","""event"",""trial"",""time""
""fullscreenenter"",""0"",""6273""
","
","436.90000009536743","","","","","","","","49","1,0,0","1","mountain","33","probe-87","0.8996587831115568","0.1970282351988312","0.33183236685024214","1","","","","","","","",""
"","html-keyboard-response","161","723749","0.0-90.0-1.0","""event"",""trial"",""time""
""fullscreenenter"",""0"",""6273""
","
","
","""event"",""trial"",""time""
""fullscreenenter"",""0"",""6273""
","
","null","<p></p>","null","","","","","","","","","","","","","","","","","","","","","","",""
"","do_trial","162","728965","0.0-91.0-0.0","""event"",""trial"",""time""
""fullscreenenter"",""0"",""6273""
","
","
","""event"",""trial"",""time""
""fullscreenenter"",""0"",""6273""
","
","613.4000000953674","","","","","","","","49","1,0,0","1","mountain","34","probe-215","0.9211247349808821","0.22311905934569695","0.19918920103169543","1","","","","","","","",""
"","html-keyboard-response","163","729981","0.0-91.0-1.0","""event"",""trial"",""time""
""fullscreenenter"",""0"",""6273""
","
","
","""event"",""trial"",""time""
""fullscreenenter"",""0"",""6273""
","
","null","<p></p>","null","","","","","","","","","","","","","","","","","","","","","","",""
"","do_trial","164","734998","0.0-92.0-0.0","""event"",""trial"",""time""
""fullscreenenter"",""0"",""6273""
","
","
","""event"",""trial"",""time""
""fullscreenenter"",""0"",""6273""
","
","437.40000009536743","","","","","","","","50","1,0,0","1","mountain","35","probe-09","0.7715683980090953","0.35704267740321505","0.09807066549797093","0","","","","","","","",""
"","html-keyboard-response","165","736014","0.0-92.0-1.0","""event"",""trial"",""time""
""fullscreenenter"",""0"",""6273""
","
","
","""event"",""trial"",""time""
""fullscreenenter"",""0"",""6273""
","
","null","<p></p>","null","","","","","","","","","","","","","","","","","","","","","","",""
"","do_trial","166","741182","0.0-93.0-0.0","""event"",""trial"",""time""
""fullscreenenter"",""0"",""6273""
","
","
","""event"",""trial"",""time""
""fullscreenenter"",""0"",""6273""
","
","583.5999999046326","","","","","","","","50","0,1,0","1","mountain","36","probe-223","0.5404499413508447","0.4202487735681656","0.0510501348322093","1","","","","","","","",""
"","html-keyboard-response","167","742198","0.0-93.0-1.0","""event"",""trial"",""time""
""fullscreenenter"",""0"",""6273""
","
","
","""event"",""trial"",""time""
""fullscreenenter"",""0"",""6273""
","
","null","<p></p>","null","","","","","","","","","","","","","","","","","","","","","","",""
"","do_trial","168","747931","0.0-94.0-0.0","""event"",""trial"",""time""
""fullscreenenter"",""0"",""6273""
","
","
","""event"",""trial"",""time""
""fullscreenenter"",""0"",""6273""
","
","1184.5","","","","","","","","51","1,0,0","1","mountain","37","probe-42","0.6159848720496424","0.4236837484423089","0.1324545996281877","0","","","","","","","",""
"","html-keyboard-response","169","748948","0.0-94.0-1.0","""event"",""trial"",""time""
""fullscreenenter"",""0"",""6273""
","
","
","""event"",""trial"",""time""
""fullscreenenter"",""0"",""6273""
","
","null","<p></p>","null","","","","","","","","","","","","","","","","","","","","","","",""
"","do_trial","170","753965","0.0-95.0-0.0","""event"",""trial"",""time""
""fullscreenenter"",""0"",""6273""
","
","
","""event"",""trial"",""time""
""fullscreenenter"",""0"",""6273""
","
","423.59999990463257","","","","","","","","49","0,1,0","1","mountain","38","probe-67","0.6566411096361975","0.35048837121998516","0.14637328721621143","0","","","","","","","",""
"","html-keyboard-response","171","754981","0.0-95.0-1.0","""event"",""trial"",""time""
""fullscreenenter"",""0"",""6273""
","
","
","""event"",""trial"",""time""
""fullscreenenter"",""0"",""6273""
","
","null","<p></p>","null","","","","","","","","","","","","","","","","","","","","","","",""
"","do_trial","172","760366","0.0-96.0-0.0","""event"",""trial"",""time""
""fullscreenenter"",""0"",""6273""
","
","
","""event"",""trial"",""time""
""fullscreenenter"",""0"",""6273""
","
","808.1999998092651","","","","","","","","49","1,0,0","1","mountain","39","probe-40","0.526178537273552","0.21676179364673234","0.13014978671384542","1","","","","","","","",""
"","html-keyboard-response","173","761382","0.0-96.0-1.0","""event"",""trial"",""time""
""fullscreenenter"",""0"",""6273""
","
","
","""event"",""trial"",""time""
""fullscreenenter"",""0"",""6273""
","
","null","<p></p>","null","","","","","","","","","","","","","","","","","","","","","","",""
"","do_trial","174","768450","0.0-97.0-0.0","""event"",""trial"",""time""
""fullscreenenter"",""0"",""6273""
","
","
","""event"",""trial"",""time""
""fullscreenenter"",""0"",""6273""
","
","2473.5999999046326","","","","","","","","50","1,1,0","1","mountain","40","probe-13","0.43014399716674073","0.25946654089596966","0.17103452204191363","1","","","","","","","",""
"","html-keyboard-response","175","769465","0.0-97.0-1.0","""event"",""trial"",""time""
""fullscreenenter"",""0"",""6273""
","
","
","""event"",""trial"",""time""
""fullscreenenter"",""0"",""6273""
","
","null","<p></p>","null","","","","","","","","","","","","","","","","","","","","","","",""
"","do_trial","176","774516","0.0-98.0-0.0","""event"",""trial"",""time""
""fullscreenenter"",""0"",""6273""
","
","
","""event"",""trial"",""time""
""fullscreenenter"",""0"",""6273""
","
","433.3999996185303","","","","","","","","51","0,0,1","1","mountain","41","probe-220","0.4712524925204356","0.2929959974688119","0.23089628221461345","1","","","","","","","",""
"","html-keyboard-response","177","775531","0.0-98.0-1.0","""event"",""trial"",""time""
""fullscreenenter"",""0"",""6273""
","
","
","""event"",""trial"",""time""
""fullscreenenter"",""0"",""6273""
","
","null","<p></p>","null","","","","","","","","","","","","","","","","","","","","","","",""
"","do_trial","178","780899","0.0-99.0-0.0","""event"",""trial"",""time""
""fullscreenenter"",""0"",""6273""
","
","
","""event"",""trial"",""time""
""fullscreenenter"",""0"",""6273""
","
","787.4000000953674","","","","","","","","49","0,0,0","1","mountain","42","probe-128","0.34159876856627314","0.25062059669096326","0.29930056932692156","0","","","","","","","",""
"","html-keyboard-response","179","781914","0.0-99.0-1.0","""event"",""trial"",""time""
""fullscreenenter"",""0"",""6273""
","
","
","""event"",""trial"",""time""
""fullscreenenter"",""0"",""6273""
","
","null","<p></p>","null","","","","","","","","","","","","","","","","","","","","","","",""
"","do_trial","180","787199","0.0-100.0-0.0","""event"",""trial"",""time""
""fullscreenenter"",""0"",""6273""
","
","
","""event"",""trial"",""time""
""fullscreenenter"",""0"",""6273""
","
","671.8999996185303","","","","","","","","50","0,1,1","1","mountain","43","probe-225","0.13209168256868048","0.17905125012317","0.43677443245845765","1","","","","","","","",""
"","html-keyboard-response","181","788215","0.0-100.0-1.0","""event"",""trial"",""time""
""fullscreenenter"",""0"",""6273""
","
","
","""event"",""trial"",""time""
""fullscreenenter"",""0"",""6273""
","
","null","<p></p>","null","","","","","","","","","","","","","","","","","","","","","","",""
"","do_trial","182","793461","0.0-101.0-0.0","""event"",""trial"",""time""
""fullscreenenter"",""0"",""6273""
","
","
","""event"",""trial"",""time""
""fullscreenenter"",""0"",""6273""
","
","696.8000001907349","","","","","","","","50","0,0,0","1","mountain","44","probe-123","0.07499786246216093","0.3191971516510947","0.49211644752495326","0","","","","","","","",""
"","html-keyboard-response","183","794466","0.0-101.0-1.0","""event"",""trial"",""time""
""fullscreenenter"",""0"",""6273""
","
","
","""event"",""trial"",""time""
""fullscreenenter"",""0"",""6273""
","
","null","<p></p>","null","","","","","","","","","","","","","","","","","","","","","","",""
"","do_trial","184","799932","0.0-102.0-0.0","""event"",""trial"",""time""
""fullscreenenter"",""0"",""6273""
","
","
","""event"",""trial"",""time""
""fullscreenenter"",""0"",""6273""
","
","924.0999999046326","","","","","","","","50","0,0,0","1","mountain","45","probe-134","0.12138068270832979","0.33508135105824877","0.48103300090637396","0","","","","","","","",""
"","html-keyboard-response","185","800948","0.0-102.0-1.0","""event"",""trial"",""time""
""fullscreenenter"",""0"",""6273""
","
","
","""event"",""trial"",""time""
""fullscreenenter"",""0"",""6273""
","
","null","<p></p>","null","","","","","","","","","","","","","","","","","","","","","","",""
"","do_trial","186","806332","0.0-103.0-0.0","""event"",""trial"",""time""
""fullscreenenter"",""0"",""6273""
","
","
","""event"",""trial"",""time""
""fullscreenenter"",""0"",""6273""
","
","839","","","","","","","","49","0,0,0","1","mountain","46","probe-165","0.21515843019192887","0.30604681503400805","0.5899575536409771","0","","","","","","","",""
"","html-keyboard-response","187","807348","0.0-103.0-1.0","""event"",""trial"",""time""
""fullscreenenter"",""0"",""6273""
","
","
","""event"",""trial"",""time""
""fullscreenenter"",""0"",""6273""
","
","null","<p></p>","null","","","","","","","","","","","","","","","","","","","","","","",""
"","do_trial","188","812449","0.0-104.0-0.0","""event"",""trial"",""time""
""fullscreenenter"",""0"",""6273""
","
","
","""event"",""trial"",""time""
""fullscreenenter"",""0"",""6273""
","
","555","","","","","","","","49","0,0,0","1","mountain","47","probe-23","0.26689494349762494","0.26378769643305533","0.5880238718033932","0","","","","","","","",""
"","html-keyboard-response","189","813464","0.0-104.0-1.0","""event"",""trial"",""time""
""fullscreenenter"",""0"",""6273""
","
","
","""event"",""trial"",""time""
""fullscreenenter"",""0"",""6273""
","
","null","<p></p>","null","","","","","","","","","","","","","","","","","","","","","","",""
"","do_trial","190","819898","0.0-105.0-0.0","""event"",""trial"",""time""
""fullscreenenter"",""0"",""6273""
","
","
","""event"",""trial"",""time""
""fullscreenenter"",""0"",""6273""
","
","1894","","","","","","","","49","1,0,1","1","mountain","48","probe-227","0.0750420126032256","0.13700388706203254","0.7136316448112292","1","","","","","","","",""
"","html-keyboard-response","191","820899","0.0-105.0-1.0","""event"",""trial"",""time""
""fullscreenenter"",""0"",""6273""
","
","
","""event"",""trial"",""time""
""fullscreenenter"",""0"",""6273""
","
","null","<p></p>","null","","","","","","","","","","","","","","","","","","","","","","",""
"","do_trial","192","825999","0.0-106.0-0.0","""event"",""trial"",""time""
""fullscreenenter"",""0"",""6273""
","
","
","""event"",""trial"",""time""
""fullscreenenter"",""0"",""6273""
","
","542.2999997138977","","","","","","","","50","0,0,0","1","mountain","49","probe-15","0.11060761103025363","0.2606373890839804","0.6534647328457794","0","","","","","","","",""
"","html-keyboard-response","193","827014","0.0-106.0-1.0","""event"",""trial"",""time""
""fullscreenenter"",""0"",""6273""
","
","
","""event"",""trial"",""time""
""fullscreenenter"",""0"",""6273""
","
","null","<p></p>","null","","","","","","","","","","","","","","","","","","","","","","",""
"","do_trial","194","832316","0.0-107.0-0.0","""event"",""trial"",""time""
""fullscreenenter"",""0"",""6273""
","
","
","""event"",""trial"",""time""
""fullscreenenter"",""0"",""6273""
","
","754.5","","","","","","","","50","0,0,1","1","mountain","50","probe-198","0.08657752887960747","0.15781478633758333","0.7319717020837072","0","","","","","","","",""
"","html-keyboard-response","195","833331","0.0-107.0-1.0","""event"",""trial"",""time""
""fullscreenenter"",""0"",""6273""
","
","
","""event"",""trial"",""time""
""fullscreenenter"",""0"",""6273""
","
","null","<p></p>","null","","","","","","","","","","","","","","","","","","","","","","",""
"","do_trial","196","838567","0.0-108.0-0.0","""event"",""trial"",""time""
""fullscreenenter"",""0"",""6273""
","
","
","""event"",""trial"",""time""
""fullscreenenter"",""0"",""6273""
","
","697.7000002861023","","","","","","","","50","0,0,1","1","mountain","51","probe-135","0.07611299301950501","0.3034891404696362","0.6737418387224989","0","","","","","","","",""
"","html-keyboard-response","197","839582","0.0-108.0-1.0","""event"",""trial"",""time""
""fullscreenenter"",""0"",""6273""
","
","
","""event"",""trial"",""time""
""fullscreenenter"",""0"",""6273""
","
","null","<p></p>","null","","","","","","","","","","","","","","","","","","","","","","",""
"","do_trial","198","845049","0.0-109.0-0.0","""event"",""trial"",""time""
""fullscreenenter"",""0"",""6273""
","
","
","""event"",""trial"",""time""
""fullscreenenter"",""0"",""6273""
","
","885.4000000953674","","","","","","","","51","0,0,1","1","mountain","52","probe-139","0.057161559470054024","0.2266669906473053","0.6258506769342864","1","","","","","","","",""
"","html-keyboard-response","199","846065","0.0-109.0-1.0","""event"",""trial"",""time""
""fullscreenenter"",""0"",""6273""
","
","
","""event"",""trial"",""time""
""fullscreenenter"",""0"",""6273""
","
","null","<p></p>","null","","","","","","","","","","","","","","","","","","","","","","",""
"","do_trial","200","851366","0.0-110.0-0.0","""event"",""trial"",""time""
""fullscreenenter"",""0"",""6273""
","
","
","""event"",""trial"",""time""
""fullscreenenter"",""0"",""6273""
","
","737","","","","","","","","51","0,0,0","1","mountain","53","probe-105","0.09303082174701004","0.22551141942533234","0.717884818779032","0","","","","","","","",""
"","html-keyboard-response","201","852381","0.0-110.0-1.0","""event"",""trial"",""time""
""fullscreenenter"",""0"",""6273""
","
","
","""event"",""trial"",""time""
""fullscreenenter"",""0"",""6273""
","
","null","<p></p>","null","","","","","","","","","","","","","","","","","","","","","","",""
"","do_trial","202","857931","0.0-111.0-0.0","""event"",""trial"",""time""
""fullscreenenter"",""0"",""6273""
","
","
","""event"",""trial"",""time""
""fullscreenenter"",""0"",""6273""
","
","909.8000001907349","","","","","","","","50","0,0,1","1","mountain","54","probe-184","0.08486092773676833","0.3587482650048633","0.5756353335887805","0","","","","","","","",""
"","html-keyboard-response","203","858948","0.0-111.0-1.0","""event"",""trial"",""time""
""fullscreenenter"",""0"",""6273""
","
","
","""event"",""trial"",""time""
""fullscreenenter"",""0"",""6273""
","
","null","<p></p>","null","","","","","","","","","","","","","","","","","","","","","","",""
"","do_trial","204","864566","0.0-112.0-0.0","""event"",""trial"",""time""
""fullscreenenter"",""0"",""6273""
","
","
","""event"",""trial"",""time""
""fullscreenenter"",""0"",""6273""
","
","992","","","","","","","","49","0,0,1","1","mountain","55","probe-104","0.09407568180267356","0.21317723535522903","0.6456978838015976","0","","","","","","","",""
"","html-keyboard-response","205","865581","0.0-112.0-1.0","""event"",""trial"",""time""
""fullscreenenter"",""0"",""6273""
","
","
","""event"",""trial"",""time""
""fullscreenenter"",""0"",""6273""
","
","null","<p></p>","null","","","","","","","","","","","","","","","","","","","","","","",""
"","do_trial","206","870765","0.0-113.0-0.0","""event"",""trial"",""time""
""fullscreenenter"",""0"",""6273""
","
","
","""event"",""trial"",""time""
""fullscreenenter"",""0"",""6273""
","
","556.5","","","","","","","","50","0,1,0","1","mountain","56","probe-116","0.15495399735591917","0.24784709120970458","0.6174265708324725","1","","","","","","","",""
"","html-keyboard-response","207","871781","0.0-113.0-1.0","""event"",""trial"",""time""
""fullscreenenter"",""0"",""6273""
","
","
","""event"",""trial"",""time""
""fullscreenenter"",""0"",""6273""
","
","null","<p></p>","null","","","","","","","","","","","","","","","","","","","","","","",""
"","do_trial","208","877100","0.0-114.0-0.0","""event"",""trial"",""time""
""fullscreenenter"",""0"",""6273""
","
","
","""event"",""trial"",""time""
""fullscreenenter"",""0"",""6273""
","
","724.5","","","","","","","","50","0,0,1","1","mountain","57","probe-185","0.088755229915398","0.21540837422782674","0.5968138849655402","0","","","","","","","",""
"","html-keyboard-response","209","878115","0.0-114.0-1.0","""event"",""trial"",""time""
""fullscreenenter"",""0"",""6273""
","
","
","""event"",""trial"",""time""
""fullscreenenter"",""0"",""6273""
","
","null","<p></p>","null","","","","","","","","","","","","","","","","","","","","","","",""
"","do_trial","210","883733","0.0-115.0-0.0","""event"",""trial"",""time""
""fullscreenenter"",""0"",""6273""
","
","
","""event"",""trial"",""time""
""fullscreenenter"",""0"",""6273""
","
","1036.0999999046326","","","","","","","","51","0,0,0","1","mountain","58","probe-49","0.11188996686291056","0.2689988780534013","0.5365263107238699","0","","","","","","","",""
"","html-keyboard-response","211","884748","0.0-115.0-1.0","""event"",""trial"",""time""
""fullscreenenter"",""0"",""6273""
","
","
","""event"",""trial"",""time""
""fullscreenenter"",""0"",""6273""
","
","null","<p></p>","null","","","","","","","","","","","","","","","","","","","","","","",""
"","do_trial","212","890299","0.0-116.0-0.0","""event"",""trial"",""time""
""fullscreenenter"",""0"",""6273""
","
","
","""event"",""trial"",""time""
""fullscreenenter"",""0"",""6273""
","
","972.2999997138977","","","","","","","","49","0,1,0","1","mountain","59","probe-181","0.2885739852180539","0.22896108816266592","0.5671139481230653","0","","","","","","","",""
"","html-keyboard-response","213","891315","0.0-116.0-1.0","""event"",""trial"",""time""
""fullscreenenter"",""0"",""6273""
","
","
","""event"",""trial"",""time""
""fullscreenenter"",""0"",""6273""
","
","null","<p></p>","null","","","","","","","","","","","","","","","","","","","","","","",""
"","do_trial","214","896517","0.0-117.0-0.0","""event"",""trial"",""time""
""fullscreenenter"",""0"",""6273""
","
","
","""event"",""trial"",""time""
""fullscreenenter"",""0"",""6273""
","
","597.2000002861023","","","","","","","","50","1,0,0","1","mountain","60","probe-144","0.3348432847218604","0.1751284103677989","0.5345381011515878","0","","","","","","","",""
"","html-keyboard-response","215","897532","0.0-117.0-1.0","""event"",""trial"",""time""
""fullscreenenter"",""0"",""6273""
","
","
","""event"",""trial"",""time""
""fullscreenenter"",""0"",""6273""
","
","null","<p></p>","null","","","","","","","","","","","","","","","","","","","","","","",""
"","do_trial","216","902733","0.0-118.0-0.0","""event"",""trial"",""time""
""fullscreenenter"",""0"",""6273""
","
","
","""event"",""trial"",""time""
""fullscreenenter"",""0"",""6273""
","
","610.1999998092651","","","","","","","","50","0,1,1","1","mountain","61","probe-34","0.17983284024157015","0.27370161836051177","0.5706263643797584","1","","","","","","","",""
"","html-keyboard-response","217","903749","0.0-118.0-1.0","""event"",""trial"",""time""
""fullscreenenter"",""0"",""6273""
","
","
","""event"",""trial"",""time""
""fullscreenenter"",""0"",""6273""
","
","null","<p></p>","null","","","","","","","","","","","","","","","","","","","","","","",""
"","do_trial","218","909116","0.0-119.0-0.0","""event"",""trial"",""time""
""fullscreenenter"",""0"",""6273""
","
","
","""event"",""trial"",""time""
""fullscreenenter"",""0"",""6273""
","
","712","","","","","","","","50","1,1,1","1","mountain","62","probe-160","0.22915599377282442","0.17292535815958815","0.5021114360264592","1","","","","","","","",""
"","html-keyboard-response","219","910132","0.0-119.0-1.0","""event"",""trial"",""time""
""fullscreenenter"",""0"",""6273""
","
","
","""event"",""trial"",""time""
""fullscreenenter"",""0"",""6273""
","
","null","<p></p>","null","","","","","","","","","","","","","","","","","","","","","","",""
"","do_trial","220","915633","0.0-120.0-0.0","""event"",""trial"",""time""
""fullscreenenter"",""0"",""6273""
","
","
","""event"",""trial"",""time""
""fullscreenenter"",""0"",""6273""
","
","874.3999996185303","","","","","","","","51","0,0,1","1","mountain","63","probe-130","0.10348107398261397","0.2643984844898569","0.5217204427207927","1","","","","","","","",""
"","html-keyboard-response","221","916649","0.0-120.0-1.0","""event"",""trial"",""time""
""fullscreenenter"",""0"",""6273""
","
","
","""event"",""trial"",""time""
""fullscreenenter"",""0"",""6273""
","
","null","<p></p>","null","","","","","","","","","","","","","","","","","","","","","","",""
"","do_trial","222","921950","0.0-121.0-0.0","""event"",""trial"",""time""
""fullscreenenter"",""0"",""6273""
","
","
","""event"",""trial"",""time""
""fullscreenenter"",""0"",""6273""
","
","696.6000003814697","","","","","","","","49","0,0,1","1","mountain","64","probe-200","0.12285849113904855","0.2413839220750492","0.5718918627892183","0","","","","","","","",""
"","html-keyboard-response","223","922965","0.0-121.0-1.0","""event"",""trial"",""time""
""fullscreenenter"",""0"",""6273""
","
","
","""event"",""trial"",""time""
""fullscreenenter"",""0"",""6273""
","
","null","<p></p>","null","","","","","","","","","","","","","","","","","","","","","","",""
"","do_trial","224","928367","0.0-122.0-0.0","""event"",""trial"",""time""
""fullscreenenter"",""0"",""6273""
","
","
","""event"",""trial"",""time""
""fullscreenenter"",""0"",""6273""
","
","812.2999997138977","","","","","","","","49","1,1,1","1","mountain","65","probe-37","0.1545679449131885","0.2852858124633583","0.5958821850138052","1","","","","","","","",""
"","html-keyboard-response","225","929383","0.0-122.0-1.0","""event"",""trial"",""time""
""fullscreenenter"",""0"",""6273""
","
","
","""event"",""trial"",""time""
""fullscreenenter"",""0"",""6273""
","
","null","<p></p>","null","","","","","","","","","","","","","","","","","","","","","","",""
"","do_trial","226","934500","0.0-123.0-0.0","""event"",""trial"",""time""
""fullscreenenter"",""0"",""6273""
","
","
","""event"",""trial"",""time""
""fullscreenenter"",""0"",""6273""
","
","456.59999990463257","","","","","","","","50","0,1,1","1","mountain","66","probe-126","0.17342423852203137","0.23798792086495796","0.6516181768863232","1","","","","","","","",""
"","html-keyboard-response","227","935516","0.0-123.0-1.0","""event"",""trial"",""time""
""fullscreenenter"",""0"",""6273""
","
","
","""event"",""trial"",""time""
""fullscreenenter"",""0"",""6273""
","
","null","<p></p>","null","","","","","","","","","","","","","","","","","","","","","","",""
"","do_trial","228","940700","0.0-124.0-0.0","""event"",""trial"",""time""
""fullscreenenter"",""0"",""6273""
","
","
","""event"",""trial"",""time""
""fullscreenenter"",""0"",""6273""
","
","582.8999996185303","","","","","","","","49","0,0,0","1","mountain","67","probe-124","0.07393989300876129","0.14673871952050901","0.6713247001910105","0","","","","","","","",""
"","html-keyboard-response","229","941715","0.0-124.0-1.0","""event"",""trial"",""time""
""fullscreenenter"",""0"",""6273""
","
","
","""event"",""trial"",""time""
""fullscreenenter"",""0"",""6273""
","
","null","<p></p>","null","","","","","","","","","","","","","","","","","","","","","","",""
"","do_trial","230","946966","0.0-125.0-0.0","""event"",""trial"",""time""
""fullscreenenter"",""0"",""6273""
","
","
","""event"",""trial"",""time""
""fullscreenenter"",""0"",""6273""
","
","657.7000002861023","","","","","","","","51","0,0,1","1","mountain","68","probe-102","0.10613476965527337","0.1996555961972227","0.6712898845704514","1","","","","","","","",""
"","html-keyboard-response","231","947982","0.0-125.0-1.0","""event"",""trial"",""time""
""fullscreenenter"",""0"",""6273""
","
","
","""event"",""trial"",""time""
""fullscreenenter"",""0"",""6273""
","
","null","<p></p>","null","","","","","","","","","","","","","","","","","","","","","","",""
"","do_trial","232","953901","0.0-126.0-0.0","""event"",""trial"",""time""
""fullscreenenter"",""0"",""6273""
","
","
","""event"",""trial"",""time""
""fullscreenenter"",""0"",""6273""
","
","1286.8000001907349","","","","","","","","50","1,0,1","1","mountain","69","probe-159","0.09444582614131422","0.18250612029436972","0.6049122714700486","0","","","","","","","",""
"","html-keyboard-response","233","954915","0.0-126.0-1.0","""event"",""trial"",""time""
""fullscreenenter"",""0"",""6273""
","
","
","""event"",""trial"",""time""
""fullscreenenter"",""0"",""6273""
","
","null","<p></p>","null","","","","","","","","","","","","","","","","","","","","","","",""
"","do_bye","234","956432","0.0-127.0-0.0","""event"",""trial"",""time""
""fullscreenenter"",""0"",""6273""
","
","
","""event"",""trial"",""time""
""fullscreenenter"",""0"",""6273""
","
","null","","","","","","","","null","","","","","","","","","","","","","","","","",""
"","break","235","976525","0.0-127.0-1.0","""event"",""trial"",""time""
""fullscreenenter"",""0"",""6273""
","
","
","""event"",""trial"",""time""
""fullscreenenter"",""0"",""6273""
","
","20091.099999904633","<div class='center'><p>Time to take a quick break! You have 2 minutes to rest, but you can move on sooner if you'd like.</p><p> Press the <b>space bar</b> to continue.</p></div>","32","","","","","","","","","","","","","","","","","","","","","","",""
"","do_travel","236","985540","0.0-128.0-0.0","""event"",""trial"",""time""
""fullscreenenter"",""0"",""6273""
","
","
","""event"",""trial"",""time""
""fullscreenenter"",""0"",""6273""
","
","null","","","","","","","","null","","","","","","","","","","","","","","","","",""
"","do_welcome","237","989560","0.0-128.0-1.0","""event"",""trial"",""time""
""fullscreenenter"",""0"",""6273""
","
","
","""event"",""trial"",""time""
""fullscreenenter"",""0"",""6273""
","
","null","","","","","","","","null","","","","","","","","","","","","","","","","",""
"","do_trial","238","995220","0.0-129.0-0.0","""event"",""trial"",""time""
""fullscreenenter"",""0"",""6273""
","
","
","""event"",""trial"",""time""
""fullscreenenter"",""0"",""6273""
","
","1066.5","","","","","","","","50","0,0,1","2","city","70","probe-167","0.06579739222325735","0.25188604184107094","1","0","","","","","","","",""
"","html-keyboard-response","239","996240","0.0-129.0-1.0","""event"",""trial"",""time""
""fullscreenenter"",""0"",""6273""
","
","
","""event"",""trial"",""time""
""fullscreenenter"",""0"",""6273""
","
","null","<p></p>","null","","","","","","","","","","","","","","","","","","","","","","",""
"","do_trial","240","1001709","0.0-130.0-0.0","""event"",""trial"",""time""
""fullscreenenter"",""0"",""6273""
","
","
","""event"",""trial"",""time""
""fullscreenenter"",""0"",""6273""
","
","884.3999996185303","","","","","","","","51","0,0,1","2","city","71","probe-166","0.14843131811991836","0.27981997659384467","1","1","","","","","","","",""
"","html-keyboard-response","241","1002712","0.0-130.0-1.0","""event"",""trial"",""time""
""fullscreenenter"",""0"",""6273""
","
","
","""event"",""trial"",""time""
""fullscreenenter"",""0"",""6273""
","
","null","<p></p>","null","","","","","","","","","","","","","","","","","","","","","","",""
"","do_trial","242","1007817","0.0-131.0-0.0","""event"",""trial"",""time""
""fullscreenenter"",""0"",""6273""
","
","
","""event"",""trial"",""time""
""fullscreenenter"",""0"",""6273""
","
","484.69999980926514","","","","","","","","49","0,0,1","2","city","72","probe-119","0.12598086401120998","0.2382810989209377","0.7804580671619773","0","","","","","","","",""
"","html-keyboard-response","243","1008833","0.0-131.0-1.0","""event"",""trial"",""time""
""fullscreenenter"",""0"",""6273""
","
","
","""event"",""trial"",""time""
""fullscreenenter"",""0"",""6273""
","
","null","<p></p>","null","","","","","","","","","","","","","","","","","","","","","","",""
"","do_trial","244","1014100","0.0-132.0-0.0","""event"",""trial"",""time""
""fullscreenenter"",""0"",""6273""
","
","
","""event"",""trial"",""time""
""fullscreenenter"",""0"",""6273""
","
","687.5","","","","","","","","50","0,0,0","2","city","73","probe-07","0.19758564063034384","0.3480027961029106","0.6666159388988069","0","","","","","","","",""
"","html-keyboard-response","245","1015116","0.0-132.0-1.0","""event"",""trial"",""time""
""fullscreenenter"",""0"",""6273""
","
","
","""event"",""trial"",""time""
""fullscreenenter"",""0"",""6273""
","
","null","<p></p>","null","","","","","","","","","","","","","","","","","","","","","","",""
"","do_trial","246","1020267","0.0-133.0-0.0","""event"",""trial"",""time""
""fullscreenenter"",""0"",""6273""
","
","
","""event"",""trial"",""time""
""fullscreenenter"",""0"",""6273""
","
","570.5","","","","","","","","50","0,1,1","2","city","74","probe-177","0.10978024085871095","0.32329358752305404","0.697456714337347","1","","","","","","","",""
"","html-keyboard-response","247","1021284","0.0-133.0-1.0","""event"",""trial"",""time""
""fullscreenenter"",""0"",""6273""
","
","
","""event"",""trial"",""time""
""fullscreenenter"",""0"",""6273""
","
","null","<p></p>","null","","","","","","","","","","","","","","","","","","","","","","",""
"","do_trial","248","1026867","0.0-134.0-0.0","""event"",""trial"",""time""
""fullscreenenter"",""0"",""6273""
","
","
","""event"",""trial"",""time""
""fullscreenenter"",""0"",""6273""
","
","956.2999997138977","","","","","","","","50","0,0,0","2","city","75","probe-228","0.1256577722708366","0.36792877482648423","0.739531304482714","0","","","","","","","",""
"","html-keyboard-response","249","1027883","0.0-134.0-1.0","""event"",""trial"",""time""
""fullscreenenter"",""0"",""6273""
","
","
","""event"",""trial"",""time""
""fullscreenenter"",""0"",""6273""
","
","null","<p></p>","null","","","","","","","","","","","","","","","","","","","","","","",""
"","do_trial","250","1033567","0.0-135.0-0.0","""event"",""trial"",""time""
""fullscreenenter"",""0"",""6273""
","
","
","""event"",""trial"",""time""
""fullscreenenter"",""0"",""6273""
","
","1100.3000001907349","","","","","","","","51","0,0,1","2","city","76","probe-208","0.1324097895871464","0.5307914848365117","0.66833094024848","1","","","","","","","",""
"","html-keyboard-response","251","1034582","0.0-135.0-1.0","""event"",""trial"",""time""
""fullscreenenter"",""0"",""6273""
","
","
","""event"",""trial"",""time""
""fullscreenenter"",""0"",""6273""
","
","null","<p></p>","null","","","","","","","","","","","","","","","","","","","","","","",""
"","do_trial","252","1039983","0.0-136.0-0.0","""event"",""trial"",""time""
""fullscreenenter"",""0"",""6273""
","
","
","""event"",""trial"",""time""
""fullscreenenter"",""0"",""6273""
","
","816.6000003814697","","","","","","","","49","1,0,1","2","city","77","probe-147","0.22547455144055306","0.4334699473168489","0.6601017050624395","1","","","","","","","",""
"","html-keyboard-response","253","1040999","0.0-136.0-1.0","""event"",""trial"",""time""
""fullscreenenter"",""0"",""6273""
","
","
","""event"",""trial"",""time""
""fullscreenenter"",""0"",""6273""
","
","null","<p></p>","null","","","","","","","","","","","","","","","","","","","","","","",""
"","do_trial","254","1046217","0.0-137.0-0.0","""event"",""trial"",""time""
""fullscreenenter"",""0"",""6273""
","
","
","""event"",""trial"",""time""
""fullscreenenter"",""0"",""6273""
","
","620.3000001907349","","","","","","","","50","1,0,1","2","city","78","probe-98","0.18938141386097582","0.349748628777517","0.7398967566609553","0","","","","","","","",""
"","html-keyboard-response","255","1047233","0.0-137.0-1.0","""event"",""trial"",""time""
""fullscreenenter"",""0"",""6273""
","
","
","""event"",""trial"",""time""
""fullscreenenter"",""0"",""6273""
","
","null","<p></p>","null","","","","","","","","","","","","","","","","","","","","","","",""
"","do_trial","256","1052934","0.0-138.0-0.0","""event"",""trial"",""time""
""fullscreenenter"",""0"",""6273""
","
","
","""event"",""trial"",""time""
""fullscreenenter"",""0"",""6273""
","
","1091.3999996185303","","","","","","","","50","0,1,1","2","city","79","probe-44","0.05359965643177589","0.2952899325844387","0.6961992619930206","1","","","","","","","",""
"","html-keyboard-response","257","1053949","0.0-138.0-1.0","""event"",""trial"",""time""
""fullscreenenter"",""0"",""6273""
","
","
","""event"",""trial"",""time""
""fullscreenenter"",""0"",""6273""
","
","null","<p></p>","null","","","","","","","","","","","","","","","","","","","","","","",""
"","do_trial","258","1059767","0.0-139.0-0.0","""event"",""trial"",""time""
""fullscreenenter"",""0"",""6273""
","
","
","""event"",""trial"",""time""
""fullscreenenter"",""0"",""6273""
","
","1170.9000000953674","","","","","","","","51","0,0,0","2","city","80","probe-73","0.17203311866719775","0.2811959500917414","0.7415437930443453","0","","","","","","","",""
"","html-keyboard-response","259","1060783","0.0-139.0-1.0","""event"",""trial"",""time""
""fullscreenenter"",""0"",""6273""
","
","
","""event"",""trial"",""time""
""fullscreenenter"",""0"",""6273""
","
","null","<p></p>","null","","","","","","","","","","","","","","","","","","","","","","",""
"","do_trial","260","1066266","0.0-140.0-0.0","""event"",""trial"",""time""
""fullscreenenter"",""0"",""6273""
","
","
","""event"",""trial"",""time""
""fullscreenenter"",""0"",""6273""
","
","868.7999997138977","","","","","","","","50","0,0,1","2","city","81","probe-01","0.09876231514069234","0.25909056154268073","0.7278219190670769","0","","","","","","","",""
"","html-keyboard-response","261","1067283","0.0-140.0-1.0","""event"",""trial"",""time""
""fullscreenenter"",""0"",""6273""
","
","
","""event"",""trial"",""time""
""fullscreenenter"",""0"",""6273""
","
","null","<p></p>","null","","","","","","","","","","","","","","","","","","","","","","",""
"","do_trial","262","1072517","0.0-141.0-0.0","""event"",""trial"",""time""
""fullscreenenter"",""0"",""6273""
","
","