"success","trial_type","trial_index","time_elapsed","internal_node_id","interactions","blur_events","focus_events","fullscreenenter_events","fullscreenexit_events","rt","stimulus","key_press","subject_id","participant_id","age","gender","prompt","response","choice_outcomes","context_n","context_img_id","trial_n","probe_img_id","pR_red","pR_white","pR_black","outcome","contextArray_ind","validImageProbes","invalidImageProbes","pRew_Red","pRew_White","pRew_Black","availableForMemProbe","choice_blocks"
"true","fullscreen","0","5438","0.0-0.0","""event"",""trial"",""time""
""blur"",""0"",""0""
""focus"",""0"",""4294""
""fullscreenenter"",""0"",""4443""
","""event"",""trial"",""time""
""blur"",""0"",""0""
","""event"",""trial"",""time""
""focus"",""0"",""4294""
","""event"",""trial"",""time""
""fullscreenenter"",""0"",""4443""
","
","","","","","","","","","","","","","","","","","","","","","","","","","",""
"","pavlovia","1","5440","0.0-1.0","""event"",""trial"",""time""
""blur"",""0"",""0""
""focus"",""0"",""4294""
""fullscreenenter"",""0"",""4443""
""blur"",""2"",""6955""
""focus"",""2"",""10730""
""fullscreenexit"",""2"",""14371""
""blur"",""2"",""31204""
""focus"",""2"",""34295""
","""event"",""trial"",""time""
""blur"",""0"",""0""
""blur"",""2"",""6955""
""blur"",""2"",""31204""
","""event"",""trial"",""time""
""focus"",""0"",""4294""
""focus"",""2"",""10730""
""focus"",""2"",""34295""
","""event"",""trial"",""time""
""fullscreenenter"",""0"",""4443""
","""event"",""trial"",""time""
""fullscreenexit"",""2"",""14371""
","","","","","","","","","","","","","","","","","","","","","","","","","",""
"","instruc1","2","50642","0.0-2.0","""event"",""trial"",""time""
""blur"",""0"",""0""
""focus"",""0"",""4294""
""fullscreenenter"",""0"",""4443""
""blur"",""2"",""6955""
""focus"",""2"",""10730""
""fullscreenexit"",""2"",""14371""
""blur"",""2"",""31204""
""focus"",""2"",""34295""
","""event"",""trial"",""time""
""blur"",""0"",""0""
""blur"",""2"",""6955""
""blur"",""2"",""31204""
","""event"",""trial"",""time""
""focus"",""0"",""4294""
""focus"",""2"",""10730""
""focus"",""2"",""34295""
","""event"",""trial"",""time""
""fullscreenenter"",""0"",""4443""
","""event"",""trial"",""time""
""fullscreenexit"",""2"",""14371""
","null","run_exp/static/audio/clip_1_welcome.m4a","null","1136","202","8","Male","<div class='center'><p>Welcome! This is the first part of the study. It will last ~30 minutes. In part 1 and part 2 of the study, you are the head captain of a pirate ship traveling around the world to different islands. You will play a few different games throughout these two parts. Here is an overview of them:</p><br><p>Part 1 (today)</p><p>1. Instructions, practice game, and quiz</p><p>2. Pick a pirate game on 6 different islands</p><br><p>Part 2 (tomorrow)</p><p>3. Pick a pirate game and memory game</p><p>4. Where did you see this ship? </p></div>","","","","","","","","","","","","","","","","","",""
"","html-keyboard-response","3","51753","0.0-3.0","""event"",""trial"",""time""
""blur"",""0"",""0""
""focus"",""0"",""4294""
""fullscreenenter"",""0"",""4443""
""blur"",""2"",""6955""
""focus"",""2"",""10730""
""fullscreenexit"",""2"",""14371""
""blur"",""2"",""31204""
""focus"",""2"",""34295""
","""event"",""trial"",""time""
""blur"",""0"",""0""
""blur"",""2"",""6955""
""blur"",""2"",""31204""
","""event"",""trial"",""time""
""focus"",""0"",""4294""
""focus"",""2"",""10730""
""focus"",""2"",""34295""
","""event"",""trial"",""time""
""fullscreenenter"",""0"",""4443""
","""event"",""trial"",""time""
""fullscreenexit"",""2"",""14371""
","1109.7000000476837","<div class='center'><p>Welcome! This is the first part of the study. It will last ~30 minutes. In part 1 and part 2 of the study, you are the head captain of a pirate ship traveling around the world to different islands. You will play a few different games throughout these two parts. Here is an overview of them:</p><br><p>Part 1 (today)</p><p>1. Instructions, practice game, and quiz</p><p>2. Pick a pirate game on 6 different islands</p><br><p>Part 2 (tomorrow)</p><p>3. Pick a pirate game and memory game</p><p>4. Where did you see this ship? </p><p><b>[Press the space bar to continue]</b></p></div>","32","","","","","","","","","","","","","","","","","","","","","","",""
"","instruc2","4","57062","0.0-4.0","""event"",""trial"",""time""
""blur"",""0"",""0""
""focus"",""0"",""4294""
""fullscreenenter"",""0"",""4443""
""blur"",""2"",""6955""
""focus"",""2"",""10730""
""fullscreenexit"",""2"",""14371""
""blur"",""2"",""31204""
""focus"",""2"",""34295""
","""event"",""trial"",""time""
""blur"",""0"",""0""
""blur"",""2"",""6955""
""blur"",""2"",""31204""
","""event"",""trial"",""time""
""focus"",""0"",""4294""
""focus"",""2"",""10730""
""focus"",""2"",""34295""
","""event"",""trial"",""time""
""fullscreenenter"",""0"",""4443""
","""event"",""trial"",""time""
""fullscreenexit"",""2"",""14371""
","null","run_exp/static/audio/clip_2_different_places.m4a","null","","","","","<div class='center'><p>Today, you’ll visit these 6 islands on your journey. You'll be able to see these islands from your ship.</p><p><img src='run_exp/static/images/contexts/all_contexts.png' height='500'></p></div>","","","","","","","","","","","","","","","","","",""
"","html-keyboard-response","5","61249","0.0-5.0","""event"",""trial"",""time""
""blur"",""0"",""0""
""focus"",""0"",""4294""
""fullscreenenter"",""0"",""4443""
""blur"",""2"",""6955""
""focus"",""2"",""10730""
""fullscreenexit"",""2"",""14371""
""blur"",""2"",""31204""
""focus"",""2"",""34295""
","""event"",""trial"",""time""
""blur"",""0"",""0""
""blur"",""2"",""6955""
""blur"",""2"",""31204""
","""event"",""trial"",""time""
""focus"",""0"",""4294""
""focus"",""2"",""10730""
""focus"",""2"",""34295""
","""event"",""trial"",""time""
""fullscreenenter"",""0"",""4443""
","""event"",""trial"",""time""
""fullscreenexit"",""2"",""14371""
","4186.5","<div class='center'><p>Today, you’ll visit these 6 islands on your journey. You'll be able to see these islands from your ship.</p><p><img src='run_exp/static/images/contexts/all_contexts.png' height='500'></p><p><b>[Press the space bar to continue]</b></p></div>","32","","","","","","","","","","","","","","","","","","","","","","",""
"","instruc3","6","70922","0.0-6.0","""event"",""trial"",""time""
""blur"",""0"",""0""
""focus"",""0"",""4294""
""fullscreenenter"",""0"",""4443""
""blur"",""2"",""6955""
""focus"",""2"",""10730""
""fullscreenexit"",""2"",""14371""
""blur"",""2"",""31204""
""focus"",""2"",""34295""
","""event"",""trial"",""time""
""blur"",""0"",""0""
""blur"",""2"",""6955""
""blur"",""2"",""31204""
","""event"",""trial"",""time""
""focus"",""0"",""4294""
""focus"",""2"",""10730""
""focus"",""2"",""34295""
","""event"",""trial"",""time""
""fullscreenenter"",""0"",""4443""
","""event"",""trial"",""time""
""fullscreenexit"",""2"",""14371""
","null","run_exp/static/audio/clip_3_goal_of_game_1.m4a","null","","","","","<div class='center'><p> The pirates on your ship will rob other ships as they leave the island.</p> These ships have just sold their goods to the islanders, so they will be filled with lots and lots of gold.</p><p><img src='run_exp/static/images/tutorial/ship_center.png' height='400'></p></div>","","","","","","","","","","","","","","","","","",""
"","html-keyboard-response","7","71506","0.0-7.0","""event"",""trial"",""time""
""blur"",""0"",""0""
""focus"",""0"",""4294""
""fullscreenenter"",""0"",""4443""
""blur"",""2"",""6955""
""focus"",""2"",""10730""
""fullscreenexit"",""2"",""14371""
""blur"",""2"",""31204""
""focus"",""2"",""34295""
","""event"",""trial"",""time""
""blur"",""0"",""0""
""blur"",""2"",""6955""
""blur"",""2"",""31204""
","""event"",""trial"",""time""
""focus"",""0"",""4294""
""focus"",""2"",""10730""
""focus"",""2"",""34295""
","""event"",""trial"",""time""
""fullscreenenter"",""0"",""4443""
","""event"",""trial"",""time""
""fullscreenexit"",""2"",""14371""
","583","<div class='center'><p> The pirates on your ship will rob other ships as they leave the island.</p> These ships have just sold their goods to the islanders, so they will be filled with lots and lots of gold.</p><p><img src='run_exp/static/images/tutorial/ship_center.png' height='400'></p><p><b>[Press the space bar to continue]</b></p></div>","32","","","","","","","","","","","","","","","","","","","","","","",""
"","instruc4","8","99482","0.0-8.0","""event"",""trial"",""time""
""blur"",""0"",""0""
""focus"",""0"",""4294""
""fullscreenenter"",""0"",""4443""
""blur"",""2"",""6955""
""focus"",""2"",""10730""
""fullscreenexit"",""2"",""14371""
""blur"",""2"",""31204""
""focus"",""2"",""34295""
","""event"",""trial"",""time""
""blur"",""0"",""0""
""blur"",""2"",""6955""
""blur"",""2"",""31204""
","""event"",""trial"",""time""
""focus"",""0"",""4294""
""focus"",""2"",""10730""
""focus"",""2"",""34295""
","""event"",""trial"",""time""
""fullscreenenter"",""0"",""4443""
","""event"",""trial"",""time""
""fullscreenexit"",""2"",""14371""
","null","run_exp/static/audio/clip_4_goal_of_game_2.m4a","null","","","","","<div class='center'><p>As the head captain, you do not have to rob any ships yourself. Another pirate will be doing the robbing for you. First, you will choose a pirate to rob the next ship.</p><p><img src='run_exp/static/images/tutorial/pirates_all_crop.png' height='200'></p><p>Then, you'll see if the pirate successfully robbed the ship of their gold. If they were successful, then you'll get a stack of gold coins like this:</p><p><img src='run_exp/static/images/tutorial/reward.png' height='150'></p><p> If they were <b>not</b> successful, then you'll get no gold coins, and you'll see a big red x like this: </p><p><img src='run_exp/static/images/tutorial/reward_no.png' height='150'></p><p> How much bonus money you make is based on how many gold coins you collect.</p><div>","","","","","","","","","","","","","","","","","",""
"","html-keyboard-response","9","101410","0.0-9.0","""event"",""trial"",""time""
""blur"",""0"",""0""
""focus"",""0"",""4294""
""fullscreenenter"",""0"",""4443""
""blur"",""2"",""6955""
""focus"",""2"",""10730""
""fullscreenexit"",""2"",""14371""
""blur"",""2"",""31204""
""focus"",""2"",""34295""
","""event"",""trial"",""time""
""blur"",""0"",""0""
""blur"",""2"",""6955""
""blur"",""2"",""31204""
","""event"",""trial"",""time""
""focus"",""0"",""4294""
""focus"",""2"",""10730""
""focus"",""2"",""34295""
","""event"",""trial"",""time""
""fullscreenenter"",""0"",""4443""
","""event"",""trial"",""time""
""fullscreenexit"",""2"",""14371""
","1926.699999988079","<div class='center'><p>As the head captain, you do not have to rob any ships yourself. Another pirate will be doing the robbing for you. First, you will choose a pirate to rob the next ship.</p><p><img src='run_exp/static/images/tutorial/pirates_all_crop.png' height='200'></p><p>Then, you'll see if the pirate successfully robbed the ship of their gold. If they were successful, then you'll get a stack of gold coins like this:</p><p><img src='run_exp/static/images/tutorial/reward.png' height='150'></p><p> If they were <b>not</b> successful, then you'll get no gold coins, and you'll see a big red x like this: </p><p><img src='run_exp/static/images/tutorial/reward_no.png' height='150'></p><p> How much bonus money you make is based on how many gold coins you collect.</p<p><b>[Press the space bar to continue]</b></p></div>","32","","","","","","","","","","","","","","","","","","","","","","",""
"","instruc5","10","124691","0.0-10.0","""event"",""trial"",""time""
""blur"",""0"",""0""
""focus"",""0"",""4294""
""fullscreenenter"",""0"",""4443""
""blur"",""2"",""6955""
""focus"",""2"",""10730""
""fullscreenexit"",""2"",""14371""
""blur"",""2"",""31204""
""focus"",""2"",""34295""
","""event"",""trial"",""time""
""blur"",""0"",""0""
""blur"",""2"",""6955""
""blur"",""2"",""31204""
","""event"",""trial"",""time""
""focus"",""0"",""4294""
""focus"",""2"",""10730""
""focus"",""2"",""34295""
","""event"",""trial"",""time""
""fullscreenenter"",""0"",""4443""
","""event"",""trial"",""time""
""fullscreenexit"",""2"",""14371""
","23280.299999952316","run_exp/static/audio/clip_5_probabilistic.m4a","49","","","","","<div class='center'><p>Even the most skilled pirate can not rob EVERY ship.</p><p> Some ships will have very strong protections against pirate attacks.</p><p> Blue beard, here, is very, very good at robbing ships, but he won't be successful every time he tries to rob one.</p><p> You can press the <b>‘1’</b> key on the keyboard to choose him.</p><p> Try choosing him 10 times to see how often he succeeds at robbing a ship. </p><p><img src='run_exp/static/images/tutorial/blue.png' height='500'></p></div>","","","","","","","","","","","","","","","","","",""
"","html-keyboard-response","11","126197","0.0-11.0","""event"",""trial"",""time""
""blur"",""0"",""0""
""focus"",""0"",""4294""
""fullscreenenter"",""0"",""4443""
""blur"",""2"",""6955""
""focus"",""2"",""10730""
""fullscreenexit"",""2"",""14371""
""blur"",""2"",""31204""
""focus"",""2"",""34295""
","""event"",""trial"",""time""
""blur"",""0"",""0""
""blur"",""2"",""6955""
""blur"",""2"",""31204""
","""event"",""trial"",""time""
""focus"",""0"",""4294""
""focus"",""2"",""10730""
""focus"",""2"",""34295""
","""event"",""trial"",""time""
""fullscreenenter"",""0"",""4443""
","""event"",""trial"",""time""
""fullscreenexit"",""2"",""14371""
","null","<div class='center'><p><img src='run_exp/static/images/tutorial/blue_win.png' height='500'></p></div>","null","","","","","","","","","","","","","","","","","","","","","","",""
"","html-keyboard-response","12","127642","0.0-12.0","""event"",""trial"",""time""
""blur"",""0"",""0""
""focus"",""0"",""4294""
""fullscreenenter"",""0"",""4443""
""blur"",""2"",""6955""
""focus"",""2"",""10730""
""fullscreenexit"",""2"",""14371""
""blur"",""2"",""31204""
""focus"",""2"",""34295""
","""event"",""trial"",""time""
""blur"",""0"",""0""
""blur"",""2"",""6955""
""blur"",""2"",""31204""
","""event"",""trial"",""time""
""focus"",""0"",""4294""
""focus"",""2"",""10730""
""focus"",""2"",""34295""
","""event"",""trial"",""time""
""fullscreenenter"",""0"",""4443""
","""event"",""trial"",""time""
""fullscreenexit"",""2"",""14371""
","1443.699999988079","<div class='center'><img src='run_exp/static/images/tutorial/blue.png' height='500'></p></div>","49","","","","","","","","","","","","","","","","","","","","","","",""
"","html-keyboard-response","13","129156","0.0-13.0","""event"",""trial"",""time""
""blur"",""0"",""0""
""focus"",""0"",""4294""
""fullscreenenter"",""0"",""4443""
""blur"",""2"",""6955""
""focus"",""2"",""10730""
""fullscreenexit"",""2"",""14371""
""blur"",""2"",""31204""
""focus"",""2"",""34295""
","""event"",""trial"",""time""
""blur"",""0"",""0""
""blur"",""2"",""6955""
""blur"",""2"",""31204""
","""event"",""trial"",""time""
""focus"",""0"",""4294""
""focus"",""2"",""10730""
""focus"",""2"",""34295""
","""event"",""trial"",""time""
""fullscreenenter"",""0"",""4443""
","""event"",""trial"",""time""
""fullscreenexit"",""2"",""14371""
","null","<div class='center'><p><img src='run_exp/static/images/tutorial/blue_win.png' height='500'></p></div>","null","","","","","","","","","","","","","","","","","","","","","","",""
"","html-keyboard-response","14","129386","0.0-14.0","""event"",""trial"",""time""
""blur"",""0"",""0""
""focus"",""0"",""4294""
""fullscreenenter"",""0"",""4443""
""blur"",""2"",""6955""
""focus"",""2"",""10730""
""fullscreenexit"",""2"",""14371""
""blur"",""2"",""31204""
""focus"",""2"",""34295""
","""event"",""trial"",""time""
""blur"",""0"",""0""
""blur"",""2"",""6955""
""blur"",""2"",""31204""
","""event"",""trial"",""time""
""focus"",""0"",""4294""
""focus"",""2"",""10730""
""focus"",""2"",""34295""
","""event"",""trial"",""time""
""fullscreenenter"",""0"",""4443""
","""event"",""trial"",""time""
""fullscreenexit"",""2"",""14371""
","229.5","<div class='center'><img src='run_exp/static/images/tutorial/blue.png' height='500'></p></div>","49","","","","","","","","","","","","","","","","","","","","","","",""
"","html-keyboard-response","15","130891","0.0-15.0","""event"",""trial"",""time""
""blur"",""0"",""0""
""focus"",""0"",""4294""
""fullscreenenter"",""0"",""4443""
""blur"",""2"",""6955""
""focus"",""2"",""10730""
""fullscreenexit"",""2"",""14371""
""blur"",""2"",""31204""
""focus"",""2"",""34295""
","""event"",""trial"",""time""
""blur"",""0"",""0""
""blur"",""2"",""6955""
""blur"",""2"",""31204""
","""event"",""trial"",""time""
""focus"",""0"",""4294""
""focus"",""2"",""10730""
""focus"",""2"",""34295""
","""event"",""trial"",""time""
""fullscreenenter"",""0"",""4443""
","""event"",""trial"",""time""
""fullscreenexit"",""2"",""14371""
","null","<div class='center'><p><img src='run_exp/static/images/tutorial/blue_win.png' height='500'></p></div>","null","","","","","","","","","","","","","","","","","","","","","","",""
"","html-keyboard-response","16","131258","0.0-16.0","""event"",""trial"",""time""
""blur"",""0"",""0""
""focus"",""0"",""4294""
""fullscreenenter"",""0"",""4443""
""blur"",""2"",""6955""
""focus"",""2"",""10730""
""fullscreenexit"",""2"",""14371""
""blur"",""2"",""31204""
""focus"",""2"",""34295""
","""event"",""trial"",""time""
""blur"",""0"",""0""
""blur"",""2"",""6955""
""blur"",""2"",""31204""
","""event"",""trial"",""time""
""focus"",""0"",""4294""
""focus"",""2"",""10730""
""focus"",""2"",""34295""
","""event"",""trial"",""time""
""fullscreenenter"",""0"",""4443""
","""event"",""trial"",""time""
""fullscreenexit"",""2"",""14371""
","366.60000002384186","<div class='center'><img src='run_exp/static/images/tutorial/blue.png' height='500'></p></div>","49","","","","","","","","","","","","","","","","","","","","","","",""
"","html-keyboard-response","17","132767","0.0-17.0","""event"",""trial"",""time""
""blur"",""0"",""0""
""focus"",""0"",""4294""
""fullscreenenter"",""0"",""4443""
""blur"",""2"",""6955""
""focus"",""2"",""10730""
""fullscreenexit"",""2"",""14371""
""blur"",""2"",""31204""
""focus"",""2"",""34295""
","""event"",""trial"",""time""
""blur"",""0"",""0""
""blur"",""2"",""6955""
""blur"",""2"",""31204""
","""event"",""trial"",""time""
""focus"",""0"",""4294""
""focus"",""2"",""10730""
""focus"",""2"",""34295""
","""event"",""trial"",""time""
""fullscreenenter"",""0"",""4443""
","""event"",""trial"",""time""
""fullscreenexit"",""2"",""14371""
","null","<div class='center'><p><img src='run_exp/static/images/tutorial/blue_no_win.png' height='500'></p></div>","null","","","","","","","","","","","","","","","","","","","","","","",""
"","html-keyboard-response","18","133154","0.0-18.0","""event"",""trial"",""time""
""blur"",""0"",""0""
""focus"",""0"",""4294""
""fullscreenenter"",""0"",""4443""
""blur"",""2"",""6955""
""focus"",""2"",""10730""
""fullscreenexit"",""2"",""14371""
""blur"",""2"",""31204""
""focus"",""2"",""34295""
","""event"",""trial"",""time""
""blur"",""0"",""0""
""blur"",""2"",""6955""
""blur"",""2"",""31204""
","""event"",""trial"",""time""
""focus"",""0"",""4294""
""focus"",""2"",""10730""
""focus"",""2"",""34295""
","""event"",""trial"",""time""
""fullscreenenter"",""0"",""4443""
","""event"",""trial"",""time""
""fullscreenexit"",""2"",""14371""
","387","<div class='center'><img src='run_exp/static/images/tutorial/blue.png' height='500'></p></div>","49","","","","","","","","","","","","","","","","","","","","","","",""
"","html-keyboard-response","19","134659","0.0-19.0","""event"",""trial"",""time""
""blur"",""0"",""0""
""focus"",""0"",""4294""
""fullscreenenter"",""0"",""4443""
""blur"",""2"",""6955""
""focus"",""2"",""10730""
""fullscreenexit"",""2"",""14371""
""blur"",""2"",""31204""
""focus"",""2"",""34295""
","""event"",""trial"",""time""
""blur"",""0"",""0""
""blur"",""2"",""6955""
""blur"",""2"",""31204""
","""event"",""trial"",""time""
""focus"",""0"",""4294""
""focus"",""2"",""10730""
""focus"",""2"",""34295""
","""event"",""trial"",""time""
""fullscreenenter"",""0"",""4443""
","""event"",""trial"",""time""
""fullscreenexit"",""2"",""14371""
","null","<div class='center'><p><img src='run_exp/static/images/tutorial/blue_win.png' height='500'></p></div>","null","","","","","","","","","","","","","","","","","","","","","","",""
"","html-keyboard-response","20","135202","0.0-20.0","""event"",""trial"",""time""
""blur"",""0"",""0""
""focus"",""0"",""4294""
""fullscreenenter"",""0"",""4443""
""blur"",""2"",""6955""
""focus"",""2"",""10730""
""fullscreenexit"",""2"",""14371""
""blur"",""2"",""31204""
""focus"",""2"",""34295""
","""event"",""trial"",""time""
""blur"",""0"",""0""
""blur"",""2"",""6955""
""blur"",""2"",""31204""
","""event"",""trial"",""time""
""focus"",""0"",""4294""
""focus"",""2"",""10730""
""focus"",""2"",""34295""
","""event"",""trial"",""time""
""fullscreenenter"",""0"",""4443""
","""event"",""trial"",""time""
""fullscreenexit"",""2"",""14371""
","542.8999999761581","<div class='center'><img src='run_exp/static/images/tutorial/blue.png' height='500'></p></div>","49","","","","","","","","","","","","","","","","","","","","","","",""
"","html-keyboard-response","21","136712","0.0-21.0","""event"",""trial"",""time""
""blur"",""0"",""0""
""focus"",""0"",""4294""
""fullscreenenter"",""0"",""4443""
""blur"",""2"",""6955""
""focus"",""2"",""10730""
""fullscreenexit"",""2"",""14371""
""blur"",""2"",""31204""
""focus"",""2"",""34295""
","""event"",""trial"",""time""
""blur"",""0"",""0""
""blur"",""2"",""6955""
""blur"",""2"",""31204""
","""event"",""trial"",""time""
""focus"",""0"",""4294""
""focus"",""2"",""10730""
""focus"",""2"",""34295""
","""event"",""trial"",""time""
""fullscreenenter"",""0"",""4443""
","""event"",""trial"",""time""
""fullscreenexit"",""2"",""14371""
","null","<div class='center'><p><img src='run_exp/static/images/tutorial/blue_win.png' height='500'></p></div>","null","","","","","","","","","","","","","","","","","","","","","","",""
"","html-keyboard-response","22","137074","0.0-22.0","""event"",""trial"",""time""
""blur"",""0"",""0""
""focus"",""0"",""4294""
""fullscreenenter"",""0"",""4443""
""blur"",""2"",""6955""
""focus"",""2"",""10730""
""fullscreenexit"",""2"",""14371""
""blur"",""2"",""31204""
""focus"",""2"",""34295""
","""event"",""trial"",""time""
""blur"",""0"",""0""
""blur"",""2"",""6955""
""blur"",""2"",""31204""
","""event"",""trial"",""time""
""focus"",""0"",""4294""
""focus"",""2"",""10730""
""focus"",""2"",""34295""
","""event"",""trial"",""time""
""fullscreenenter"",""0"",""4443""
","""event"",""trial"",""time""
""fullscreenexit"",""2"",""14371""
","361.30000001192093","<div class='center'><img src='run_exp/static/images/tutorial/blue.png' height='500'></p></div>","49","","","","","","","","","","","","","","","","","","","","","","",""
"","html-keyboard-response","23","138587","0.0-23.0","""event"",""trial"",""time""
""blur"",""0"",""0""
""focus"",""0"",""4294""
""fullscreenenter"",""0"",""4443""
""blur"",""2"",""6955""
""focus"",""2"",""10730""
""fullscreenexit"",""2"",""14371""
""blur"",""2"",""31204""
""focus"",""2"",""34295""
","""event"",""trial"",""time""
""blur"",""0"",""0""
""blur"",""2"",""6955""
""blur"",""2"",""31204""
","""event"",""trial"",""time""
""focus"",""0"",""4294""
""focus"",""2"",""10730""
""focus"",""2"",""34295""
","""event"",""trial"",""time""
""fullscreenenter"",""0"",""4443""
","""event"",""trial"",""time""
""fullscreenexit"",""2"",""14371""
","null","<div class='center'><p><img src='run_exp/static/images/tutorial/blue_win.png' height='500'></p></div>","null","","","","","","","","","","","","","","","","","","","","","","",""
"","html-keyboard-response","24","139041","0.0-24.0","""event"",""trial"",""time""
""blur"",""0"",""0""
""focus"",""0"",""4294""
""fullscreenenter"",""0"",""4443""
""blur"",""2"",""6955""
""focus"",""2"",""10730""
""fullscreenexit"",""2"",""14371""
""blur"",""2"",""31204""
""focus"",""2"",""34295""
","""event"",""trial"",""time""
""blur"",""0"",""0""
""blur"",""2"",""6955""
""blur"",""2"",""31204""
","""event"",""trial"",""time""
""focus"",""0"",""4294""
""focus"",""2"",""10730""
""focus"",""2"",""34295""
","""event"",""trial"",""time""
""fullscreenenter"",""0"",""4443""
","""event"",""trial"",""time""
""fullscreenexit"",""2"",""14371""
","453.4000000357628","<div class='center'><img src='run_exp/static/images/tutorial/blue.png' height='500'></p></div>","49","","","","","","","","","","","","","","","","","","","","","","",""
"","html-keyboard-response","25","140550","0.0-25.0","""event"",""trial"",""time""
""blur"",""0"",""0""
""focus"",""0"",""4294""
""fullscreenenter"",""0"",""4443""
""blur"",""2"",""6955""
""focus"",""2"",""10730""
""fullscreenexit"",""2"",""14371""
""blur"",""2"",""31204""
""focus"",""2"",""34295""
","""event"",""trial"",""time""
""blur"",""0"",""0""
""blur"",""2"",""6955""
""blur"",""2"",""31204""
","""event"",""trial"",""time""
""focus"",""0"",""4294""
""focus"",""2"",""10730""
""focus"",""2"",""34295""
","""event"",""trial"",""time""
""fullscreenenter"",""0"",""4443""
","""event"",""trial"",""time""
""fullscreenexit"",""2"",""14371""
","null","<div class='center'><p><img src='run_exp/static/images/tutorial/blue_no_win.png' height='500'></p></div>","null","","","","","","","","","","","","","","","","","","","","","","",""
"","html-keyboard-response","26","140906","0.0-26.0","""event"",""trial"",""time""
""blur"",""0"",""0""
""focus"",""0"",""4294""
""fullscreenenter"",""0"",""4443""
""blur"",""2"",""6955""
""focus"",""2"",""10730""
""fullscreenexit"",""2"",""14371""
""blur"",""2"",""31204""
""focus"",""2"",""34295""
","""event"",""trial"",""time""
""blur"",""0"",""0""
""blur"",""2"",""6955""
""blur"",""2"",""31204""
","""event"",""trial"",""time""
""focus"",""0"",""4294""
""focus"",""2"",""10730""
""focus"",""2"",""34295""
","""event"",""trial"",""time""
""fullscreenenter"",""0"",""4443""
","""event"",""trial"",""time""
""fullscreenexit"",""2"",""14371""
","354.89999997615814","<div class='center'><img src='run_exp/static/images/tutorial/blue.png' height='500'></p></div>","49","","","","","","","","","","","","","","","","","","","","","","",""
"","html-keyboard-response","27","142408","0.0-27.0","""event"",""trial"",""time""
""blur"",""0"",""0""
""focus"",""0"",""4294""
""fullscreenenter"",""0"",""4443""
""blur"",""2"",""6955""
""focus"",""2"",""10730""
""fullscreenexit"",""2"",""14371""
""blur"",""2"",""31204""
""focus"",""2"",""34295""
","""event"",""trial"",""time""
""blur"",""0"",""0""
""blur"",""2"",""6955""
""blur"",""2"",""31204""
","""event"",""trial"",""time""
""focus"",""0"",""4294""
""focus"",""2"",""10730""
""focus"",""2"",""34295""
","""event"",""trial"",""time""
""fullscreenenter"",""0"",""4443""
","""event"",""trial"",""time""
""fullscreenexit"",""2"",""14371""
","null","<div class='center'><p><img src='run_exp/static/images/tutorial/blue_win.png' height='500'></p></div>","null","","","","","","","","","","","","","","","","","","","","","","",""
"","html-keyboard-response","28","142754","0.0-28.0","""event"",""trial"",""time""
""blur"",""0"",""0""
""focus"",""0"",""4294""
""fullscreenenter"",""0"",""4443""
""blur"",""2"",""6955""
""focus"",""2"",""10730""
""fullscreenexit"",""2"",""14371""
""blur"",""2"",""31204""
""focus"",""2"",""34295""
","""event"",""trial"",""time""
""blur"",""0"",""0""
""blur"",""2"",""6955""
""blur"",""2"",""31204""
","""event"",""trial"",""time""
""focus"",""0"",""4294""
""focus"",""2"",""10730""
""focus"",""2"",""34295""
","""event"",""trial"",""time""
""fullscreenenter"",""0"",""4443""
","""event"",""trial"",""time""
""fullscreenexit"",""2"",""14371""
","345.69999998807907","<div class='center'><img src='run_exp/static/images/tutorial/blue.png' height='500'></p></div>","49","","","","","","","","","","","","","","","","","","","","","","",""
"","html-keyboard-response","29","144257","0.0-29.0","""event"",""trial"",""time""
""blur"",""0"",""0""
""focus"",""0"",""4294""
""fullscreenenter"",""0"",""4443""
""blur"",""2"",""6955""
""focus"",""2"",""10730""
""fullscreenexit"",""2"",""14371""
""blur"",""2"",""31204""
""focus"",""2"",""34295""
","""event"",""trial"",""time""
""blur"",""0"",""0""
""blur"",""2"",""6955""
""blur"",""2"",""31204""
","""event"",""trial"",""time""
""focus"",""0"",""4294""
""focus"",""2"",""10730""
""focus"",""2"",""34295""
","""event"",""trial"",""time""
""fullscreenenter"",""0"",""4443""
","""event"",""trial"",""time""
""fullscreenexit"",""2"",""14371""
","null","<div class='center'><p><img src='run_exp/static/images/tutorial/blue_win.png' height='500'></p></div>","null","","","","","","","","","","","","","","","","","","","","","","",""
"","instruc6","30","149735","0.0-30.0","""event"",""trial"",""time""
""blur"",""0"",""0""
""focus"",""0"",""4294""
""fullscreenenter"",""0"",""4443""
""blur"",""2"",""6955""
""focus"",""2"",""10730""
""fullscreenexit"",""2"",""14371""
""blur"",""2"",""31204""
""focus"",""2"",""34295""
","""event"",""trial"",""time""
""blur"",""0"",""0""
""blur"",""2"",""6955""
""blur"",""2"",""31204""
","""event"",""trial"",""time""
""focus"",""0"",""4294""
""focus"",""2"",""10730""
""focus"",""2"",""34295""
","""event"",""trial"",""time""
""fullscreenenter"",""0"",""4443""
","""event"",""trial"",""time""
""fullscreenexit"",""2"",""14371""
","null","run_exp/static/audio/clip_6_blue_beard_outcome.m4a","null","","","","","<div class='center'><p> See, he succeeded in robbing the ships most of the time but not every time. </p></div>","","","","","","","","","","","","","","","","","",""
"","html-keyboard-response","31","151218","0.0-31.0","""event"",""trial"",""time""
""blur"",""0"",""0""
""focus"",""0"",""4294""
""fullscreenenter"",""0"",""4443""
""blur"",""2"",""6955""
""focus"",""2"",""10730""
""fullscreenexit"",""2"",""14371""
""blur"",""2"",""31204""
""focus"",""2"",""34295""
","""event"",""trial"",""time""
""blur"",""0"",""0""
""blur"",""2"",""6955""
""blur"",""2"",""31204""
","""event"",""trial"",""time""
""focus"",""0"",""4294""
""focus"",""2"",""10730""
""focus"",""2"",""34295""
","""event"",""trial"",""time""
""fullscreenenter"",""0"",""4443""
","""event"",""trial"",""time""
""fullscreenexit"",""2"",""14371""
","1482.0999999642372","<div class='center'><p> See, he succeeded in robbing the ships most of the time but not every time. </p><p><b>[Press the space bar to continue]</b></p></div>","32","","","","","","","","","","","","","","","","","","","","","","",""
"","audio-keyboard-response","32","169802","0.0-32.0","""event"",""trial"",""time""
""blur"",""0"",""0""
""focus"",""0"",""4294""
""fullscreenenter"",""0"",""4443""
""blur"",""2"",""6955""
""focus"",""2"",""10730""
""fullscreenexit"",""2"",""14371""
""blur"",""2"",""31204""
""focus"",""2"",""34295""
","""event"",""trial"",""time""
""blur"",""0"",""0""
""blur"",""2"",""6955""
""blur"",""2"",""31204""
","""event"",""trial"",""time""
""focus"",""0"",""4294""
""focus"",""2"",""10730""
""focus"",""2"",""34295""
","""event"",""trial"",""time""
""fullscreenenter"",""0"",""4443""
","""event"",""trial"",""time""
""fullscreenexit"",""2"",""14371""
","18583.5","run_exp/static/audio/clip_7_pick_pirate.m4a","51","","","","","","","","","","","","","","","","","","","","","","",""
"","audio-keyboard-response","33","173834","0.0-33.0-0.0","""event"",""trial"",""time""
""blur"",""0"",""0""
""focus"",""0"",""4294""
""fullscreenenter"",""0"",""4443""
""blur"",""2"",""6955""
""focus"",""2"",""10730""
""fullscreenexit"",""2"",""14371""
""blur"",""2"",""31204""
""focus"",""2"",""34295""
","""event"",""trial"",""time""
""blur"",""0"",""0""
""blur"",""2"",""6955""
""blur"",""2"",""31204""
","""event"",""trial"",""time""
""focus"",""0"",""4294""
""focus"",""2"",""10730""
""focus"",""2"",""34295""
","""event"",""trial"",""time""
""fullscreenenter"",""0"",""4443""
","""event"",""trial"",""time""
""fullscreenexit"",""2"",""14371""
","4030.699999988079","run_exp/static/audio/clip_8_chosen_pirate_win.m4a","32","","","","","","","","","","","","","","","","","","","","","","",""
"","audio-keyboard-response","34","176554","0.0-33.0-1.0","""event"",""trial"",""time""
""blur"",""0"",""0""
""focus"",""0"",""4294""
""fullscreenenter"",""0"",""4443""
""blur"",""2"",""6955""
""focus"",""2"",""10730""
""fullscreenexit"",""2"",""14371""
""blur"",""2"",""31204""
""focus"",""2"",""34295""
","""event"",""trial"",""time""
""blur"",""0"",""0""
""blur"",""2"",""6955""
""blur"",""2"",""31204""
","""event"",""trial"",""time""
""focus"",""0"",""4294""
""focus"",""2"",""10730""
""focus"",""2"",""34295""
","""event"",""trial"",""time""
""fullscreenenter"",""0"",""4443""
","""event"",""trial"",""time""
""fullscreenexit"",""2"",""14371""
","2718.699999988079","run_exp/static/audio/clip_9_pick_a_pirate_again.m4a","49","","","","","","","","","","","","","","","","","","","","","","",""
"","audio-keyboard-response","35","180945","0.0-34.0-0.0","""event"",""trial"",""time""
""blur"",""0"",""0""
""focus"",""0"",""4294""
""fullscreenenter"",""0"",""4443""
""blur"",""2"",""6955""
""focus"",""2"",""10730""
""fullscreenexit"",""2"",""14371""
""blur"",""2"",""31204""
""focus"",""2"",""34295""
","""event"",""trial"",""time""
""blur"",""0"",""0""
""blur"",""2"",""6955""
""blur"",""2"",""31204""
","""event"",""trial"",""time""
""focus"",""0"",""4294""
""focus"",""2"",""10730""
""focus"",""2"",""34295""
","""event"",""trial"",""time""
""fullscreenenter"",""0"",""4443""
","""event"",""trial"",""time""
""fullscreenexit"",""2"",""14371""
","4390.899999976158","run_exp/static/audio/clip_10_chosen_pirate_loss.m4a","32","","","","","","","","","","","","","","","","","","","","","","",""
"","instruc9","36","186415","0.0-35.0-0.0","""event"",""trial"",""time""
""blur"",""0"",""0""
""focus"",""0"",""4294""
""fullscreenenter"",""0"",""4443""
""blur"",""2"",""6955""
""focus"",""2"",""10730""
""fullscreenexit"",""2"",""14371""
""blur"",""2"",""31204""
""focus"",""2"",""34295""
","""event"",""trial"",""time""
""blur"",""0"",""0""
""blur"",""2"",""6955""
""blur"",""2"",""31204""
","""event"",""trial"",""time""
""focus"",""0"",""4294""
""focus"",""2"",""10730""
""focus"",""2"",""34295""
","""event"",""trial"",""time""
""fullscreenenter"",""0"",""4443""
","""event"",""trial"",""time""
""fullscreenexit"",""2"",""14371""
","null","run_exp/static/audio/clip_11_time_out.m4a","null","","","","","<div class='center'><p>If you don’t make your choice fast enough, you’ll have to wait a few seconds before you can make another one. </p><p><img src='run_exp/static/images/miscellaneous/hurry_up.png' height='500'></p></div>","","","","","","","","","","","","","","","","","",""
"","html-keyboard-response","37","187089","0.0-35.0-1.0","""event"",""trial"",""time""
""blur"",""0"",""0""
""focus"",""0"",""4294""
""fullscreenenter"",""0"",""4443""
""blur"",""2"",""6955""
""focus"",""2"",""10730""
""fullscreenexit"",""2"",""14371""
""blur"",""2"",""31204""
""focus"",""2"",""34295""
","""event"",""trial"",""time""
""blur"",""0"",""0""
""blur"",""2"",""6955""
""blur"",""2"",""31204""
","""event"",""trial"",""time""
""focus"",""0"",""4294""
""focus"",""2"",""10730""
""focus"",""2"",""34295""
","""event"",""trial"",""time""
""fullscreenenter"",""0"",""4443""
","""event"",""trial"",""time""
""fullscreenexit"",""2"",""14371""
","673.1000000238419","<div class='center'><p>If you don’t make your choice fast enough, you’ll have to wait a few seconds before you can make another one. </p><p><img src='run_exp/static/images/miscellaneous/hurry_up.png' height='500'></p><p><b>[Press the space bar to continue]</b></p></div>","32","","","","","","","","","","","","","","","","","","","","","","",""
"","instruc10","38","226175","0.0-35.0-2.0","""event"",""trial"",""time""
""blur"",""0"",""0""
""focus"",""0"",""4294""
""fullscreenenter"",""0"",""4443""
""blur"",""2"",""6955""
""focus"",""2"",""10730""
""fullscreenexit"",""2"",""14371""
""blur"",""2"",""31204""
""focus"",""2"",""34295""
","""event"",""trial"",""time""
""blur"",""0"",""0""
""blur"",""2"",""6955""
""blur"",""2"",""31204""
","""event"",""trial"",""time""
""focus"",""0"",""4294""
""focus"",""2"",""10730""
""focus"",""2"",""34295""
","""event"",""trial"",""time""
""fullscreenenter"",""0"",""4443""
","""event"",""trial"",""time""
""fullscreenexit"",""2"",""14371""
","null","run_exp/static/audio/clip_12_probe.m4a","null","","","","","<div class='center'><p>Once you've chosen a pirate, you’ll be shown the ship they are robbing. You will never rob the same ship twice. Ships can be told apart from one another by the image on them. These are the goods that they sell. See, this ship has a travel mug on it. </p><p> You’ll have to remember which island you saw each ship on. You will win more gold coins and hence more bonus money if you remember correctly! To help you remember, you can imagine a story. For example, here, you could imagine a mug full of water in the desert. Or, as another example, if on the forest island, your pirate robbed a ship with an apple on it, you could imagine an apple falling from a tree in the forest. </p><p><img src='run_exp/static/images/tutorial/example_probe.png' height='500'></p></div>","","","","","","","","","","","","","","","","","",""
"","html-keyboard-response","39","229714","0.0-35.0-3.0","""event"",""trial"",""time""
""blur"",""0"",""0""
""focus"",""0"",""4294""
""fullscreenenter"",""0"",""4443""
""blur"",""2"",""6955""
""focus"",""2"",""10730""
""fullscreenexit"",""2"",""14371""
""blur"",""2"",""31204""
""focus"",""2"",""34295""
","""event"",""trial"",""time""
""blur"",""0"",""0""
""blur"",""2"",""6955""
""blur"",""2"",""31204""
","""event"",""trial"",""time""
""focus"",""0"",""4294""
""focus"",""2"",""10730""
""focus"",""2"",""34295""
","""event"",""trial"",""time""
""fullscreenenter"",""0"",""4443""
","""event"",""trial"",""time""
""fullscreenexit"",""2"",""14371""
","3537.800000011921","<div class='center'><p>Once you've chosen a pirate, you’ll be shown the ship they are robbing. You will never rob the same ship twice. Ships can be told apart from one another by the image on them. These are the goods that they sell. See, this ship has a travel mug on it. </p><p> You’ll have to remember which island you saw each ship on. You will win more gold coins and hence more bonus money if you remember correctly! To help you remember, you can imagine a story. For example, here, you could imagine a mug full of water in the desert. Or, as another example, if on the forest island, your pirate robbed a ship with an apple on it, you could imagine an apple falling from a tree in the forest. </p><p><img src='run_exp/static/images/tutorial/example_probe.png' height='500'></p><p><b>[Press the space bar to continue]</b></p></div>","32","","","","","","","","","","","","","","","","","","","","","","",""
"","instruc11","40","246116","0.0-35.0-4.0","""event"",""trial"",""time""
""blur"",""0"",""0""
""focus"",""0"",""4294""
""fullscreenenter"",""0"",""4443""
""blur"",""2"",""6955""
""focus"",""2"",""10730""
""fullscreenexit"",""2"",""14371""
""blur"",""2"",""31204""
""focus"",""2"",""34295""
","""event"",""trial"",""time""
""blur"",""0"",""0""
""blur"",""2"",""6955""
""blur"",""2"",""31204""
","""event"",""trial"",""time""
""focus"",""0"",""4294""
""focus"",""2"",""10730""
""focus"",""2"",""34295""
","""event"",""trial"",""time""
""fullscreenenter"",""0"",""4443""
","""event"",""trial"",""time""
""fullscreenexit"",""2"",""14371""
","null","run_exp/static/audio/clip_13_changepoint.m4a","null","","","","","<div class='center'><p>How successful a pirate is at robbing ships will depend on the island you’re on.</p><p> A pirate may have visited this island many times before and gained a lot of practice robbing ships there.</p><p>So, they’re more likely to be successful than a pirate who has never visited the island before.</p></div>","","","","","","","","","","","","","","","","","",""
"","html-keyboard-response","41","246666","0.0-35.0-5.0","""event"",""trial"",""time""
""blur"",""0"",""0""
""focus"",""0"",""4294""
""fullscreenenter"",""0"",""4443""
""blur"",""2"",""6955""
""focus"",""2"",""10730""
""fullscreenexit"",""2"",""14371""
""blur"",""2"",""31204""
""focus"",""2"",""34295""
","""event"",""trial"",""time""
""blur"",""0"",""0""
""blur"",""2"",""6955""
""blur"",""2"",""31204""
","""event"",""trial"",""time""
""focus"",""0"",""4294""
""focus"",""2"",""10730""
""focus"",""2"",""34295""
","""event"",""trial"",""time""
""fullscreenenter"",""0"",""4443""
","""event"",""trial"",""time""
""fullscreenexit"",""2"",""14371""
","549.5","<div class='center'><p>How successful a pirate is at robbing ships will depend on the island you’re on.</p><p> A pirate may have visited this island many times before and gained a lot of practice robbing ships there.</p><p>So, they’re more likely to be successful than a pirate who has never visited the island before.</p><p><b>[Press the space bar to continue]</b></p></div>","32","","","","","","","","","","","","","","","","","","","","","","",""
"","instruc12","42","287736","0.0-35.0-6.0","""event"",""trial"",""time""
""blur"",""0"",""0""
""focus"",""0"",""4294""
""fullscreenenter"",""0"",""4443""
""blur"",""2"",""6955""
""focus"",""2"",""10730""
""fullscreenexit"",""2"",""14371""
""blur"",""2"",""31204""
""focus"",""2"",""34295""
","""event"",""trial"",""time""
""blur"",""0"",""0""
""blur"",""2"",""6955""
""blur"",""2"",""31204""
","""event"",""trial"",""time""
""focus"",""0"",""4294""
""focus"",""2"",""10730""
""focus"",""2"",""34295""
","""event"",""trial"",""time""
""fullscreenenter"",""0"",""4443""
","""event"",""trial"",""time""
""fullscreenexit"",""2"",""14371""
","null","run_exp/static/audio/clip_14_drift.m4a","null","","","","","<div class='center'><p>How successful a pirate is at robbing ships can also change over the time spent on the island. </p><p> Ships may hear from islanders about the pirates coming and will improve their protections against the attack. This may make it harder to rob them.</p><p> Ships may also become lazy and weaken the strength of their protections. This may make it easier to rob them.</p><br><p>Things are always changing on the high seas! So, try your best to pay attention!</p><p><img src='run_exp/static/images/tutorial/contingency.png' height='500'></p></div>","","","","","","","","","","","","","","","","","",""
"","html-keyboard-response","43","296066","0.0-35.0-7.0","""event"",""trial"",""time""
""blur"",""0"",""0""
""focus"",""0"",""4294""
""fullscreenenter"",""0"",""4443""
""blur"",""2"",""6955""
""focus"",""2"",""10730""
""fullscreenexit"",""2"",""14371""
""blur"",""2"",""31204""
""focus"",""2"",""34295""
","""event"",""trial"",""time""
""blur"",""0"",""0""
""blur"",""2"",""6955""
""blur"",""2"",""31204""
","""event"",""trial"",""time""
""focus"",""0"",""4294""
""focus"",""2"",""10730""
""focus"",""2"",""34295""
","""event"",""trial"",""time""
""fullscreenenter"",""0"",""4443""
","""event"",""trial"",""time""
""fullscreenexit"",""2"",""14371""
","8329.699999988079","<div class='center'><p>How successful a pirate is at robbing ships can also change over the time spent on the island. </p><p> Ships may hear from islanders about the pirates coming and will improve their protections against the attack. This may make it harder to rob them.</p><p> Ships may also become lazy and weaken the strength of their protections. This may make it easier to rob them.</p><br><p>Things are always changing on the high seas! So, try your best to pay attention!</p><p><img src='run_exp/static/images/tutorial/contingency.png' height='500'></p><p><b>[Press the space bar to continue]</b></p></div>","32","","","","","","","","","","","","","","","","","","","","","","",""
"","instruc13","44","331255","0.0-35.0-8.0","""event"",""trial"",""time""
""blur"",""0"",""0""
""focus"",""0"",""4294""
""fullscreenenter"",""0"",""4443""
""blur"",""2"",""6955""
""focus"",""2"",""10730""
""fullscreenexit"",""2"",""14371""
""blur"",""2"",""31204""
""focus"",""2"",""34295""
","""event"",""trial"",""time""
""blur"",""0"",""0""
""blur"",""2"",""6955""
""blur"",""2"",""31204""
","""event"",""trial"",""time""
""focus"",""0"",""4294""
""focus"",""2"",""10730""
""focus"",""2"",""34295""
","""event"",""trial"",""time""
""fullscreenenter"",""0"",""4443""
","""event"",""trial"",""time""
""fullscreenexit"",""2"",""14371""
","null","run_exp/static/audio/clip_15_summary.m4a","null","","","","","<div class='center'><p>Let's go over the instructions quickly again. You have two important things to do: </p><b><p> 1. Pick the pirate who is the best at robbing ships on the current island. </p></b><b><p> 2. Remember on which island a ship was robbed.</p> </b><p>The amount of bonus money you can win depends on both.</p><p><br><p>Let’s try a practice game. The game will start by showing you the pirates. First, pick a pirate using the <b> 1, 2, 3 </b> keys on your keyboard. When you are shown a ship, try to remember which island you’re on by making up a story.</p><p>This is just a practice game, so you’re not playing for money. </p><p> Good luck! This game will be very difficult but try your best!</p></div>","","","","","","","","","","","","","","","","","",""
"","html-keyboard-response","45","331962","0.0-35.0-9.0","""event"",""trial"",""time""
""blur"",""0"",""0""
""focus"",""0"",""4294""
""fullscreenenter"",""0"",""4443""
""blur"",""2"",""6955""
""focus"",""2"",""10730""
""fullscreenexit"",""2"",""14371""
""blur"",""2"",""31204""
""focus"",""2"",""34295""
","""event"",""trial"",""time""
""blur"",""0"",""0""
""blur"",""2"",""6955""
""blur"",""2"",""31204""
","""event"",""trial"",""time""
""focus"",""0"",""4294""
""focus"",""2"",""10730""
""focus"",""2"",""34295""
","""event"",""trial"",""time""
""fullscreenenter"",""0"",""4443""
","""event"",""trial"",""time""
""fullscreenexit"",""2"",""14371""
","706.0999999642372","<div class='center'><p>Let's go over the instructions quickly again. You have two important things to do: </p><b><p> 1. Pick the pirate who is the best at robbing ships on the current island. </p></b><b><p> 2. Remember on which island a ship was robbed.</p> </b><p>The amount of bonus money you can win depends on both.</p><p><br><p>Let’s try a practice game. The game will start by showing you the pirates. First, pick a pirate using the <b> 1, 2, 3 </b> keys on your keyboard. When you are shown a ship, try to remember which island you’re on by making up a story.</p><p>This is just a practice game, so you’re not playing for money. </p><p> Good luck! This game will be very difficult but try your best!</p><p><b>[Press the space bar to continue]</b></p></div>","32","","","","","","","","","","","","","","","","","","","","","","",""
"","do_welcome","46","335978","0.0-35.0-10.0","""event"",""trial"",""time""
""blur"",""0"",""0""
""focus"",""0"",""4294""
""fullscreenenter"",""0"",""4443""
""blur"",""2"",""6955""
""focus"",""2"",""10730""
""fullscreenexit"",""2"",""14371""
""blur"",""2"",""31204""
""focus"",""2"",""34295""
","""event"",""trial"",""time""
""blur"",""0"",""0""
""blur"",""2"",""6955""
""blur"",""2"",""31204""
","""event"",""trial"",""time""
""focus"",""0"",""4294""
""focus"",""2"",""10730""
""focus"",""2"",""34295""
","""event"",""trial"",""time""
""fullscreenenter"",""0"",""4443""
","""event"",""trial"",""time""
""fullscreenexit"",""2"",""14371""
","null","","","","","","","","null","","","","","","","","","","","","","","","","",""
"","do_trial","47","342283","0.0-35.0-11.0","""event"",""trial"",""time""
""blur"",""0"",""0""
""focus"",""0"",""4294""
""fullscreenenter"",""0"",""4443""
""blur"",""2"",""6955""
""focus"",""2"",""10730""
""fullscreenexit"",""2"",""14371""
""blur"",""2"",""31204""
""focus"",""2"",""34295""
","""event"",""trial"",""time""
""blur"",""0"",""0""
""blur"",""2"",""6955""
""blur"",""2"",""31204""
","""event"",""trial"",""time""
""focus"",""0"",""4294""
""focus"",""2"",""10730""
""focus"",""2"",""34295""
","""event"",""trial"",""time""
""fullscreenenter"",""0"",""4443""
","""event"",""trial"",""time""
""fullscreenexit"",""2"",""14371""
","1796.3999999761581","","","","","","","","50","1,0,0","","","","","","","","","","","","","","","",""
"","html-keyboard-response","48","343301","0.0-36.0-0.0","""event"",""trial"",""time""
""blur"",""0"",""0""
""focus"",""0"",""4294""
""fullscreenenter"",""0"",""4443""
""blur"",""2"",""6955""
""focus"",""2"",""10730""
""fullscreenexit"",""2"",""14371""
""blur"",""2"",""31204""
""focus"",""2"",""34295""
","""event"",""trial"",""time""
""blur"",""0"",""0""
""blur"",""2"",""6955""
""blur"",""2"",""31204""
","""event"",""trial"",""time""
""focus"",""0"",""4294""
""focus"",""2"",""10730""
""focus"",""2"",""34295""
","""event"",""trial"",""time""
""fullscreenenter"",""0"",""4443""
","""event"",""trial"",""time""
""fullscreenexit"",""2"",""14371""
","null","<p></p>","null","","","","","","","","","","","","","","","","","","","","","","",""
"","do_trial","49","348520","0.0-36.0-1.0","""event"",""trial"",""time""
""blur"",""0"",""0""
""focus"",""0"",""4294""
""fullscreenenter"",""0"",""4443""
""blur"",""2"",""6955""
""focus"",""2"",""10730""
""fullscreenexit"",""2"",""14371""
""blur"",""2"",""31204""
""focus"",""2"",""34295""
","""event"",""trial"",""time""
""blur"",""0"",""0""
""blur"",""2"",""6955""
""blur"",""2"",""31204""
","""event"",""trial"",""time""
""focus"",""0"",""4294""
""focus"",""2"",""10730""
""focus"",""2"",""34295""
","""event"",""trial"",""time""
""fullscreenenter"",""0"",""4443""
","""event"",""trial"",""time""
""fullscreenexit"",""2"",""14371""
","697.0999999642372","","","","","","","","49","1,1,0","","","","","","","","","","","","","","","",""
"","html-keyboard-response","50","349539","0.0-37.0-0.0","""event"",""trial"",""time""
""blur"",""0"",""0""
""focus"",""0"",""4294""
""fullscreenenter"",""0"",""4443""
""blur"",""2"",""6955""
""focus"",""2"",""10730""
""fullscreenexit"",""2"",""14371""
""blur"",""2"",""31204""
""focus"",""2"",""34295""
","""event"",""trial"",""time""
""blur"",""0"",""0""
""blur"",""2"",""6955""
""blur"",""2"",""31204""
","""event"",""trial"",""time""
""focus"",""0"",""4294""
""focus"",""2"",""10730""
""focus"",""2"",""34295""
","""event"",""trial"",""time""
""fullscreenenter"",""0"",""4443""
","""event"",""trial"",""time""
""fullscreenexit"",""2"",""14371""
","null","<p></p>","null","","","","","","","","","","","","","","","","","","","","","","",""
"","do_trial","51","354583","0.0-37.0-1.0","""event"",""trial"",""time""
""blur"",""0"",""0""
""focus"",""0"",""4294""
""fullscreenenter"",""0"",""4443""
""blur"",""2"",""6955""
""focus"",""2"",""10730""
""fullscreenexit"",""2"",""14371""
""blur"",""2"",""31204""
""focus"",""2"",""34295""
","""event"",""trial"",""time""
""blur"",""0"",""0""
""blur"",""2"",""6955""
""blur"",""2"",""31204""
","""event"",""trial"",""time""
""focus"",""0"",""4294""
""focus"",""2"",""10730""
""focus"",""2"",""34295""
","""event"",""trial"",""time""
""fullscreenenter"",""0"",""4443""
","""event"",""trial"",""time""
""fullscreenexit"",""2"",""14371""
","539.2000000476837","","","","","","","","51","1,0,1","","","","","","","","","","","","","","","",""
"","html-keyboard-response","52","355585","0.0-38.0-0.0","""event"",""trial"",""time""
""blur"",""0"",""0""
""focus"",""0"",""4294""
""fullscreenenter"",""0"",""4443""
""blur"",""2"",""6955""
""focus"",""2"",""10730""
""fullscreenexit"",""2"",""14371""
""blur"",""2"",""31204""
""focus"",""2"",""34295""
","""event"",""trial"",""time""
""blur"",""0"",""0""
""blur"",""2"",""6955""
""blur"",""2"",""31204""
","""event"",""trial"",""time""
""focus"",""0"",""4294""
""focus"",""2"",""10730""
""focus"",""2"",""34295""
","""event"",""trial"",""time""
""fullscreenenter"",""0"",""4443""
","""event"",""trial"",""time""
""fullscreenexit"",""2"",""14371""
","null","<p></p>","null","","","","","","","","","","","","","","","","","","","","","","",""
"","do_trial","53","360545","0.0-38.0-1.0","""event"",""trial"",""time""
""blur"",""0"",""0""
""focus"",""0"",""4294""
""fullscreenenter"",""0"",""4443""
""blur"",""2"",""6955""
""focus"",""2"",""10730""
""fullscreenexit"",""2"",""14371""
""blur"",""2"",""31204""
""focus"",""2"",""34295""
","""event"",""trial"",""time""
""blur"",""0"",""0""
""blur"",""2"",""6955""
""blur"",""2"",""31204""
","""event"",""trial"",""time""
""focus"",""0"",""4294""
""focus"",""2"",""10730""
""focus"",""2"",""34295""
","""event"",""trial"",""time""
""fullscreenenter"",""0"",""4443""
","""event"",""trial"",""time""
""fullscreenexit"",""2"",""14371""
","445.80000001192093","","","","","","","","51","0,1,0","","","","","","","","","","","","","","","",""
"","html-keyboard-response","54","361553","0.0-39.0-0.0","""event"",""trial"",""time""
""blur"",""0"",""0""
""focus"",""0"",""4294""
""fullscreenenter"",""0"",""4443""
""blur"",""2"",""6955""
""focus"",""2"",""10730""
""fullscreenexit"",""2"",""14371""
""blur"",""2"",""31204""
""focus"",""2"",""34295""
","""event"",""trial"",""time""
""blur"",""0"",""0""
""blur"",""2"",""6955""
""blur"",""2"",""31204""
","""event"",""trial"",""time""
""focus"",""0"",""4294""
""focus"",""2"",""10730""
""focus"",""2"",""34295""
","""event"",""trial"",""time""
""fullscreenenter"",""0"",""4443""
","""event"",""trial"",""time""
""fullscreenexit"",""2"",""14371""
","null","<p></p>","null","","","","","","","","","","","","","","","","","","","","","","",""
"","do_trial","55","366768","0.0-39.0-1.0","""event"",""trial"",""time""
""blur"",""0"",""0""
""focus"",""0"",""4294""
""fullscreenenter"",""0"",""4443""
""blur"",""2"",""6955""
""focus"",""2"",""10730""
""fullscreenexit"",""2"",""14371""
""blur"",""2"",""31204""
""focus"",""2"",""34295""
","""event"",""trial"",""time""
""blur"",""0"",""0""
""blur"",""2"",""6955""
""blur"",""2"",""31204""
","""event"",""trial"",""time""
""focus"",""0"",""4294""
""focus"",""2"",""10730""
""focus"",""2"",""34295""
","""event"",""trial"",""time""
""fullscreenenter"",""0"",""4443""
","""event"",""trial"",""time""
""fullscreenexit"",""2"",""14371""
","701.5","","","","","","","","50","1,0,0","","","","","","","","","","","","","","","",""
"","do_bye","56","368273","0.0-40.0-0.0","""event"",""trial"",""time""
""blur"",""0"",""0""
""focus"",""0"",""4294""
""fullscreenenter"",""0"",""4443""
""blur"",""2"",""6955""
""focus"",""2"",""10730""
""fullscreenexit"",""2"",""14371""
""blur"",""2"",""31204""
""focus"",""2"",""34295""
","""event"",""trial"",""time""
""blur"",""0"",""0""
""blur"",""2"",""6955""
""blur"",""2"",""31204""
","""event"",""trial"",""time""
""focus"",""0"",""4294""
""focus"",""2"",""10730""
""focus"",""2"",""34295""
","""event"",""trial"",""time""
""fullscreenenter"",""0"",""4443""
","""event"",""trial"",""time""
""fullscreenexit"",""2"",""14371""
","null","","","","","","","","null","","","","","","","","","","","","","","","","",""
"","do_travel","57","377293","0.0-40.0-1.0","""event"",""trial"",""time""
""blur"",""0"",""0""
""focus"",""0"",""4294""
""fullscreenenter"",""0"",""4443""
""blur"",""2"",""6955""
""focus"",""2"",""10730""
""fullscreenexit"",""2"",""14371""
""blur"",""2"",""31204""
""focus"",""2"",""34295""
","""event"",""trial"",""time""
""blur"",""0"",""0""
""blur"",""2"",""6955""
""blur"",""2"",""31204""
","""event"",""trial"",""time""
""focus"",""0"",""4294""
""focus"",""2"",""10730""
""focus"",""2"",""34295""
","""event"",""trial"",""time""
""fullscreenenter"",""0"",""4443""
","""event"",""trial"",""time""
""fullscreenexit"",""2"",""14371""
","null","","","","","","","","null","","","","","","","","","","","","","","","","",""
"","do_welcome","58","381302","0.0-40.0-2.0","""event"",""trial"",""time""
""blur"",""0"",""0""
""focus"",""0"",""4294""
""fullscreenenter"",""0"",""4443""
""blur"",""2"",""6955""
""focus"",""2"",""10730""
""fullscreenexit"",""2"",""14371""
""blur"",""2"",""31204""
""focus"",""2"",""34295""
","""event"",""trial"",""time""
""blur"",""0"",""0""
""blur"",""2"",""6955""
""blur"",""2"",""31204""
","""event"",""trial"",""time""
""focus"",""0"",""4294""
""focus"",""2"",""10730""
""focus"",""2"",""34295""
","""event"",""trial"",""time""
""fullscreenenter"",""0"",""4443""
","""event"",""trial"",""time""
""fullscreenexit"",""2"",""14371""
","null","","","","","","","","null","","","","","","","","","","","","","","","","",""
"","do_trial","59","388059","0.0-40.0-3.0","""event"",""trial"",""time""
""blur"",""0"",""0""
""focus"",""0"",""4294""
""fullscreenenter"",""0"",""4443""
""blur"",""2"",""6955""
""focus"",""2"",""10730""
""fullscreenexit"",""2"",""14371""
""blur"",""2"",""31204""
""focus"",""2"",""34295""
","""event"",""trial"",""time""
""blur"",""0"",""0""
""blur"",""2"",""6955""
""blur"",""2"",""31204""
","""event"",""trial"",""time""
""focus"",""0"",""4294""
""focus"",""2"",""10730""
""focus"",""2"",""34295""
","""event"",""trial"",""time""
""fullscreenenter"",""0"",""4443""
","""event"",""trial"",""time""
""fullscreenexit"",""2"",""14371""
","2241.099999964237","","","","","","","","50","1,0,0","","","","","","","","","","","","","","","",""
"","html-keyboard-response","60","389068","0.0-41.0-0.0","""event"",""trial"",""time""
""blur"",""0"",""0""
""focus"",""0"",""4294""
""fullscreenenter"",""0"",""4443""
""blur"",""2"",""6955""
""focus"",""2"",""10730""
""fullscreenexit"",""2"",""14371""
""blur"",""2"",""31204""
""focus"",""2"",""34295""
","""event"",""trial"",""time""
""blur"",""0"",""0""
""blur"",""2"",""6955""
""blur"",""2"",""31204""
","""event"",""trial"",""time""
""focus"",""0"",""4294""
""focus"",""2"",""10730""
""focus"",""2"",""34295""
","""event"",""trial"",""time""
""fullscreenenter"",""0"",""4443""
","""event"",""trial"",""time""
""fullscreenexit"",""2"",""14371""
","null","<p></p>","null","","","","","","","","","","","","","","","","","","","","","","",""
"","do_trial","61","395065","0.0-41.0-1.0","""event"",""trial"",""time""
""blur"",""0"",""0""
""focus"",""0"",""4294""
""fullscreenenter"",""0"",""4443""
""blur"",""2"",""6955""
""focus"",""2"",""10730""
""fullscreenexit"",""2"",""14371""
""blur"",""2"",""31204""
""focus"",""2"",""34295""
","""event"",""trial"",""time""
""blur"",""0"",""0""
""blur"",""2"",""6955""
""blur"",""2"",""31204""
","""event"",""trial"",""time""
""focus"",""0"",""4294""
""focus"",""2"",""10730""
""focus"",""2"",""34295""
","""event"",""trial"",""time""
""fullscreenenter"",""0"",""4443""
","""event"",""trial"",""time""
""fullscreenexit"",""2"",""14371""
","1475.1000000238419","","","","","","","","51","1,0,1","","","","","","","","","","","","","","","",""
"","html-keyboard-response","62","396075","0.0-42.0-0.0","""event"",""trial"",""time""
""blur"",""0"",""0""
""focus"",""0"",""4294""
""fullscreenenter"",""0"",""4443""
""blur"",""2"",""6955""
""focus"",""2"",""10730""
""fullscreenexit"",""2"",""14371""
""blur"",""2"",""31204""
""focus"",""2"",""34295""
","""event"",""trial"",""time""
""blur"",""0"",""0""
""blur"",""2"",""6955""
""blur"",""2"",""31204""
","""event"",""trial"",""time""
""focus"",""0"",""4294""
""focus"",""2"",""10730""
""focus"",""2"",""34295""
","""event"",""trial"",""time""
""fullscreenenter"",""0"",""4443""
","""event"",""trial"",""time""
""fullscreenexit"",""2"",""14371""
","null","<p></p>","null","","","","","","","","","","","","","","","","","","","","","","",""
"","do_trial","63","401037","0.0-42.0-1.0","""event"",""trial"",""time""
""blur"",""0"",""0""
""focus"",""0"",""4294""
""fullscreenenter"",""0"",""4443""
""blur"",""2"",""6955""
""focus"",""2"",""10730""
""fullscreenexit"",""2"",""14371""
""blur"",""2"",""31204""
""focus"",""2"",""34295""
","""event"",""trial"",""time""
""blur"",""0"",""0""
""blur"",""2"",""6955""
""blur"",""2"",""31204""
","""event"",""trial"",""time""
""focus"",""0"",""4294""
""focus"",""2"",""10730""
""focus"",""2"",""34295""
","""event"",""trial"",""time""
""fullscreenenter"",""0"",""4443""
","""event"",""trial"",""time""
""fullscreenexit"",""2"",""14371""
","442","","","","","","","","51","1,1,0","","","","","","","","","","","","","","","",""
"","html-keyboard-response","64","402053","0.0-43.0-0.0","""event"",""trial"",""time""
""blur"",""0"",""0""
""focus"",""0"",""4294""
""fullscreenenter"",""0"",""4443""
""blur"",""2"",""6955""
""focus"",""2"",""10730""
""fullscreenexit"",""2"",""14371""
""blur"",""2"",""31204""
""focus"",""2"",""34295""
","""event"",""trial"",""time""
""blur"",""0"",""0""
""blur"",""2"",""6955""
""blur"",""2"",""31204""
","""event"",""trial"",""time""
""focus"",""0"",""4294""
""focus"",""2"",""10730""
""focus"",""2"",""34295""
","""event"",""trial"",""time""
""fullscreenenter"",""0"",""4443""
","""event"",""trial"",""time""
""fullscreenexit"",""2"",""14371""
","null","<p></p>","null","","","","","","","","","","","","","","","","","","","","","","",""
"","do_trial","65","407167","0.0-43.0-1.0","""event"",""trial"",""time""
""blur"",""0"",""0""
""focus"",""0"",""4294""
""fullscreenenter"",""0"",""4443""
""blur"",""2"",""6955""
""focus"",""2"",""10730""
""fullscreenexit"",""2"",""14371""
""blur"",""2"",""31204""
""focus"",""2"",""34295""
","""event"",""trial"",""time""
""blur"",""0"",""0""
""blur"",""2"",""6955""
""blur"",""2"",""31204""
","""event"",""trial"",""time""
""focus"",""0"",""4294""
""focus"",""2"",""10730""
""focus"",""2"",""34295""
","""event"",""trial"",""time""
""fullscreenenter"",""0"",""4443""
","""event"",""trial"",""time""
""fullscreenexit"",""2"",""14371""
","609.5","","","","","","","","51","0,0,1","","","","","","","","","","","","","","","",""
"","html-keyboard-response","66","408178","0.0-44.0-0.0","""event"",""trial"",""time""
""blur"",""0"",""0""
""focus"",""0"",""4294""
""fullscreenenter"",""0"",""4443""
""blur"",""2"",""6955""
""focus"",""2"",""10730""
""fullscreenexit"",""2"",""14371""
""blur"",""2"",""31204""
""focus"",""2"",""34295""
","""event"",""trial"",""time""
""blur"",""0"",""0""
""blur"",""2"",""6955""
""blur"",""2"",""31204""
","""event"",""trial"",""time""
""focus"",""0"",""4294""
""focus"",""2"",""10730""
""focus"",""2"",""34295""
","""event"",""trial"",""time""
""fullscreenenter"",""0"",""4443""
","""event"",""trial"",""time""
""fullscreenexit"",""2"",""14371""
","null","<p></p>","null","","","","","","","","","","","","","","","","","","","","","","",""
"","do_trial","67","413060","0.0-44.0-1.0","""event"",""trial"",""time""
""blur"",""0"",""0""
""focus"",""0"",""4294""
""fullscreenenter"",""0"",""4443""
""blur"",""2"",""6955""
""focus"",""2"",""10730""
""fullscreenexit"",""2"",""14371""
""blur"",""2"",""31204""
""focus"",""2"",""34295""
","""event"",""trial"",""time""
""blur"",""0"",""0""
""blur"",""2"",""6955""
""blur"",""2"",""31204""
","""event"",""trial"",""time""
""focus"",""0"",""4294""
""focus"",""2"",""10730""
""focus"",""2"",""34295""
","""event"",""trial"",""time""
""fullscreenenter"",""0"",""4443""
","""event"",""trial"",""time""
""fullscreenexit"",""2"",""14371""
","363.60000002384186","","","","","","","","49","1,0,1","","","","","","","","","","","","","","","",""
"","html-keyboard-response","68","419194","0.0-45.0-0.0","""event"",""trial"",""time""
""blur"",""0"",""0""
""focus"",""0"",""4294""
""fullscreenenter"",""0"",""4443""
""blur"",""2"",""6955""
""focus"",""2"",""10730""
""fullscreenexit"",""2"",""14371""
""blur"",""2"",""31204""
""focus"",""2"",""34295""
","""event"",""trial"",""time""
""blur"",""0"",""0""
""blur"",""2"",""6955""
""blur"",""2"",""31204""
","""event"",""trial"",""time""
""focus"",""0"",""4294""
""focus"",""2"",""10730""
""focus"",""2"",""34295""
","""event"",""trial"",""time""
""fullscreenenter"",""0"",""4443""
","""event"",""trial"",""time""
""fullscreenexit"",""2"",""14371""
","6132.300000011921","<div class='center'><p><img src='run_exp/static/images/tutorial/prac_best_pirate.png'  height='500'></p></div>","51","","","","","","","","","","","","","","","","","","","","","","",""
"","html-keyboard-response","69","422418","0.0-46.0-0.0","""event"",""trial"",""time""
""blur"",""0"",""0""
""focus"",""0"",""4294""
""fullscreenenter"",""0"",""4443""
""blur"",""2"",""6955""
""focus"",""2"",""10730""
""fullscreenexit"",""2"",""14371""
""blur"",""2"",""31204""
""focus"",""2"",""34295""
","""event"",""trial"",""time""
""blur"",""0"",""0""
""blur"",""2"",""6955""
""blur"",""2"",""31204""
","""event"",""trial"",""time""
""focus"",""0"",""4294""
""focus"",""2"",""10730""
""focus"",""2"",""34295""
","""event"",""trial"",""time""
""fullscreenenter"",""0"",""4443""
","""event"",""trial"",""time""
""fullscreenexit"",""2"",""14371""
","3223.300000011921","<div class='center'><p>That's incorrect! Red beard was the best.</p><p><b>[Press the space bar to continue]</b></p></div>","32","","","","","","","","","","","","","","","","","","","","","","",""
"","html-keyboard-response","70","428130","0.0-46.0-1.0","""event"",""trial"",""time""
""blur"",""0"",""0""
""focus"",""0"",""4294""
""fullscreenenter"",""0"",""4443""
""blur"",""2"",""6955""
""focus"",""2"",""10730""
""fullscreenexit"",""2"",""14371""
""blur"",""2"",""31204""
""focus"",""2"",""34295""
","""event"",""trial"",""time""
""blur"",""0"",""0""
""blur"",""2"",""6955""
""blur"",""2"",""31204""
","""event"",""trial"",""time""
""focus"",""0"",""4294""
""focus"",""2"",""10730""
""focus"",""2"",""34295""
","""event"",""trial"",""time""
""fullscreenenter"",""0"",""4443""
","""event"",""trial"",""time""
""fullscreenexit"",""2"",""14371""
","5711.599999964237","<div class='center'><p><img src='run_exp/static/images/tutorial/prac_source.png'  height='500'></p></div>","50","","","","","","","","","","","","","","","","","","","","","","",""
"","html-keyboard-response","71","429282","0.0-47.0-0.0","""event"",""trial"",""time""
""blur"",""0"",""0""
""focus"",""0"",""4294""
""fullscreenenter"",""0"",""4443""
""blur"",""2"",""6955""
""focus"",""2"",""10730""
""fullscreenexit"",""2"",""14371""
""blur"",""2"",""31204""
""focus"",""2"",""34295""
","""event"",""trial"",""time""
""blur"",""0"",""0""
""blur"",""2"",""6955""
""blur"",""2"",""31204""
","""event"",""trial"",""time""
""focus"",""0"",""4294""
""focus"",""2"",""10730""
""focus"",""2"",""34295""
","""event"",""trial"",""time""
""fullscreenenter"",""0"",""4443""
","""event"",""trial"",""time""
""fullscreenexit"",""2"",""14371""
","1151.5","<div class='center'><p>That's correct! You saw this ship on the cavern island.</p><p><b>[Press the space bar to continue]</b></p></div>","32","","","","","","","","","","","","","","","","","","","","","","",""
"","quiz_beginning","72","440563","0.0-47.0-1.0","""event"",""trial"",""time""
""blur"",""0"",""0""
""focus"",""0"",""4294""
""fullscreenenter"",""0"",""4443""
""blur"",""2"",""6955""
""focus"",""2"",""10730""
""fullscreenexit"",""2"",""14371""
""blur"",""2"",""31204""
""focus"",""2"",""34295""
","""event"",""trial"",""time""
""blur"",""0"",""0""
""blur"",""2"",""6955""
""blur"",""2"",""31204""
","""event"",""trial"",""time""
""focus"",""0"",""4294""
""focus"",""2"",""10730""
""focus"",""2"",""34295""
","""event"",""trial"",""time""
""fullscreenenter"",""0"",""4443""
","""event"",""trial"",""time""
""fullscreenexit"",""2"",""14371""
","null","run_exp/static/audio/clip_16_quiz_intro.m4a","null","","","","","<div class='center'><p>Good job on the practice game! Now, you will be asked some true or false questions to make sure you really understand the rules of the game.</p><p> Press <b>'1'</b> on the keyboard for true and press <b>'2'</b> for false.</p></div>","","","","","","","","","","","","","","","","","",""
"","audio-keyboard-response","73","450162","0.0-47.0-2.0","""event"",""trial"",""time""
""blur"",""0"",""0""
""focus"",""0"",""4294""
""fullscreenenter"",""0"",""4443""
""blur"",""2"",""6955""
""focus"",""2"",""10730""
""fullscreenexit"",""2"",""14371""
""blur"",""2"",""31204""
""focus"",""2"",""34295""
","""event"",""trial"",""time""
""blur"",""0"",""0""
""blur"",""2"",""6955""
""blur"",""2"",""31204""
","""event"",""trial"",""time""
""focus"",""0"",""4294""
""focus"",""2"",""10730""
""focus"",""2"",""34295""
","""event"",""trial"",""time""
""fullscreenenter"",""0"",""4443""
","""event"",""trial"",""time""
""fullscreenexit"",""2"",""14371""
","9598.400000035763","run_exp/static/audio/clip_17_q1.m4a","49","","","","","","","","","","","","","","","","","","","","","","",""
"","correct","74","452563","0.0-48.0-0.0","""event"",""trial"",""time""
""blur"",""0"",""0""
""focus"",""0"",""4294""
""fullscreenenter"",""0"",""4443""
""blur"",""2"",""6955""
""focus"",""2"",""10730""
""fullscreenexit"",""2"",""14371""
""blur"",""2"",""31204""
""focus"",""2"",""34295""
","""event"",""trial"",""time""
""blur"",""0"",""0""
""blur"",""2"",""6955""
""blur"",""2"",""31204""
","""event"",""trial"",""time""
""focus"",""0"",""4294""
""focus"",""2"",""10730""
""focus"",""2"",""34295""
","""event"",""trial"",""time""
""fullscreenenter"",""0"",""4443""
","""event"",""trial"",""time""
""fullscreenexit"",""2"",""14371""
","null","run_exp/static/audio/clip_18_correct.m4a","null","","","","","<div class='center'><p>That's correct!</p></div>","","","","","","","","","","","","","","","","","",""
"","html-keyboard-response","75","453506","0.0-48.0-1.0","""event"",""trial"",""time""
""blur"",""0"",""0""
""focus"",""0"",""4294""
""fullscreenenter"",""0"",""4443""
""blur"",""2"",""6955""
""focus"",""2"",""10730""
""fullscreenexit"",""2"",""14371""
""blur"",""2"",""31204""
""focus"",""2"",""34295""
","""event"",""trial"",""time""
""blur"",""0"",""0""
""blur"",""2"",""6955""
""blur"",""2"",""31204""
","""event"",""trial"",""time""
""focus"",""0"",""4294""
""focus"",""2"",""10730""
""focus"",""2"",""34295""
","""event"",""trial"",""time""
""fullscreenenter"",""0"",""4443""
","""event"",""trial"",""time""
""fullscreenexit"",""2"",""14371""
","942.3000000119209","<div class='center'><p>That's correct!</p><p><b>[Press the space bar to continue]</b></p></div>","32","","","","","","","","","","","","","","","","","","","","","","",""
"","audio-keyboard-response","76","462210","0.0-48.0-2.0","""event"",""trial"",""time""
""blur"",""0"",""0""
""focus"",""0"",""4294""
""fullscreenenter"",""0"",""4443""
""blur"",""2"",""6955""
""focus"",""2"",""10730""
""fullscreenexit"",""2"",""14371""
""blur"",""2"",""31204""
""focus"",""2"",""34295""
","""event"",""trial"",""time""
""blur"",""0"",""0""
""blur"",""2"",""6955""
""blur"",""2"",""31204""
","""event"",""trial"",""time""
""focus"",""0"",""4294""
""focus"",""2"",""10730""
""focus"",""2"",""34295""
","""event"",""trial"",""time""
""fullscreenenter"",""0"",""4443""
","""event"",""trial"",""time""
""fullscreenexit"",""2"",""14371""
","8703.599999964237","run_exp/static/audio/clip_20_q2.m4a","50","","","","","","","","","","","","","","","","","","","","","","",""
"","correct","77","464603","0.0-49.0-0.0","""event"",""trial"",""time""
""blur"",""0"",""0""
""focus"",""0"",""4294""
""fullscreenenter"",""0"",""4443""
""blur"",""2"",""6955""
""focus"",""2"",""10730""
""fullscreenexit"",""2"",""14371""
""blur"",""2"",""31204""
""focus"",""2"",""34295""
","""event"",""trial"",""time""
""blur"",""0"",""0""
""blur"",""2"",""6955""
""blur"",""2"",""31204""
","""event"",""trial"",""time""
""focus"",""0"",""4294""
""focus"",""2"",""10730""
""focus"",""2"",""34295""
","""event"",""trial"",""time""
""fullscreenenter"",""0"",""4443""
","""event"",""trial"",""time""
""fullscreenexit"",""2"",""14371""
","null","run_exp/static/audio/clip_18_correct.m4a","null","","","","","<div class='center'><p>That's correct!</p></div>","","","","","","","","","","","","","","","","","",""
"","html-keyboard-response","78","465298","0.0-49.0-1.0","""event"",""trial"",""time""
""blur"",""0"",""0""
""focus"",""0"",""4294""
""fullscreenenter"",""0"",""4443""
""blur"",""2"",""6955""
""focus"",""2"",""10730""
""fullscreenexit"",""2"",""14371""
""blur"",""2"",""31204""
""focus"",""2"",""34295""
","""event"",""trial"",""time""
""blur"",""0"",""0""
""blur"",""2"",""6955""
""blur"",""2"",""31204""
","""event"",""trial"",""time""
""focus"",""0"",""4294""
""focus"",""2"",""10730""
""focus"",""2"",""34295""
","""event"",""trial"",""time""
""fullscreenenter"",""0"",""4443""
","""event"",""trial"",""time""
""fullscreenexit"",""2"",""14371""
","694.2999999523163","<div class='center'><p>That's correct!</p><p><b>[Press the space bar to continue]</b></p></div>","32","","","","","","","","","","","","","","","","","","","","","","",""
"","audio-keyboard-response","79","472577","0.0-49.0-2.0","""event"",""trial"",""time""
""blur"",""0"",""0""
""focus"",""0"",""4294""
""fullscreenenter"",""0"",""4443""
""blur"",""2"",""6955""
""focus"",""2"",""10730""
""fullscreenexit"",""2"",""14371""
""blur"",""2"",""31204""
""focus"",""2"",""34295""
","""event"",""trial"",""time""
""blur"",""0"",""0""
""blur"",""2"",""6955""
""blur"",""2"",""31204""
","""event"",""trial"",""time""
""focus"",""0"",""4294""
""focus"",""2"",""10730""
""focus"",""2"",""34295""
","""event"",""trial"",""time""
""fullscreenenter"",""0"",""4443""
","""event"",""trial"",""time""
""fullscreenexit"",""2"",""14371""
","7279.800000011921","run_exp/static/audio/clip_22_q3.m4a","50","","","","","","","","","","","","","","","","","","","","","","",""
"","correct","80","474961","0.0-50.0-0.0","""event"",""trial"",""time""
""blur"",""0"",""0""
""focus"",""0"",""4294""
""fullscreenenter"",""0"",""4443""
""blur"",""2"",""6955""
""focus"",""2"",""10730""
""fullscreenexit"",""2"",""14371""
""blur"",""2"",""31204""
""focus"",""2"",""34295""
","""event"",""trial"",""time""
""blur"",""0"",""0""
""blur"",""2"",""6955""
""blur"",""2"",""31204""
","""event"",""trial"",""time""
""focus"",""0"",""4294""
""focus"",""2"",""10730""
""focus"",""2"",""34295""
","""event"",""trial"",""time""
""fullscreenenter"",""0"",""4443""
","""event"",""trial"",""time""
""fullscreenexit"",""2"",""14371""
","null","run_exp/static/audio/clip_18_correct.m4a","null","","","","","<div class='center'><p>That's correct!</p></div>","","","","","","","","","","","","","","","","","",""
"","html-keyboard-response","81","475577","0.0-50.0-1.0","""event"",""trial"",""time""
""blur"",""0"",""0""
""focus"",""0"",""4294""
""fullscreenenter"",""0"",""4443""
""blur"",""2"",""6955""
""focus"",""2"",""10730""
""fullscreenexit"",""2"",""14371""
""blur"",""2"",""31204""
""focus"",""2"",""34295""
","""event"",""trial"",""time""
""blur"",""0"",""0""
""blur"",""2"",""6955""
""blur"",""2"",""31204""
","""event"",""trial"",""time""
""focus"",""0"",""4294""
""focus"",""2"",""10730""
""focus"",""2"",""34295""
","""event"",""trial"",""time""
""fullscreenenter"",""0"",""4443""
","""event"",""trial"",""time""
""fullscreenexit"",""2"",""14371""
","614.6999999880791","<div class='center'><p>That's correct!</p><p><b>[Press the space bar to continue]</b></p></div>","32","","","","","","","","","","","","","","","","","","","","","","",""
"","audio-keyboard-response","82","480505","0.0-50.0-2.0","""event"",""trial"",""time""
""blur"",""0"",""0""
""focus"",""0"",""4294""
""fullscreenenter"",""0"",""4443""
""blur"",""2"",""6955""
""focus"",""2"",""10730""
""fullscreenexit"",""2"",""14371""
""blur"",""2"",""31204""
""focus"",""2"",""34295""
","""event"",""trial"",""time""
""blur"",""0"",""0""
""blur"",""2"",""6955""
""blur"",""2"",""31204""
","""event"",""trial"",""time""
""focus"",""0"",""4294""
""focus"",""2"",""10730""
""focus"",""2"",""34295""
","""event"",""trial"",""time""
""fullscreenenter"",""0"",""4443""
","""event"",""trial"",""time""
""fullscreenexit"",""2"",""14371""
","4927.5","run_exp/static/audio/clip_24_q4.m4a","49","","","","","","","","","","","","","","","","","","","","","","",""
"","correct","83","482922","0.0-51.0-0.0","""event"",""trial"",""time""
""blur"",""0"",""0""
""focus"",""0"",""4294""
""fullscreenenter"",""0"",""4443""
""blur"",""2"",""6955""
""focus"",""2"",""10730""
""fullscreenexit"",""2"",""14371""
""blur"",""2"",""31204""
""focus"",""2"",""34295""
","""event"",""trial"",""time""
""blur"",""0"",""0""
""blur"",""2"",""6955""
""blur"",""2"",""31204""
","""event"",""trial"",""time""
""focus"",""0"",""4294""
""focus"",""2"",""10730""
""focus"",""2"",""34295""
","""event"",""trial"",""time""
""fullscreenenter"",""0"",""4443""
","""event"",""trial"",""time""
""fullscreenexit"",""2"",""14371""
","null","run_exp/static/audio/clip_18_correct.m4a","null","","","","","<div class='center'><p>That's correct!</p></div>","","","","","","","","","","","","","","","","","",""
"","html-keyboard-response","84","483361","0.0-51.0-1.0","""event"",""trial"",""time""
""blur"",""0"",""0""
""focus"",""0"",""4294""
""fullscreenenter"",""0"",""4443""
""blur"",""2"",""6955""
""focus"",""2"",""10730""
""fullscreenexit"",""2"",""14371""
""blur"",""2"",""31204""
""focus"",""2"",""34295""
","""event"",""trial"",""time""
""blur"",""0"",""0""
""blur"",""2"",""6955""
""blur"",""2"",""31204""
","""event"",""trial"",""time""
""focus"",""0"",""4294""
""focus"",""2"",""10730""
""focus"",""2"",""34295""
","""event"",""trial"",""time""
""fullscreenenter"",""0"",""4443""
","""event"",""trial"",""time""
""fullscreenexit"",""2"",""14371""
","438.10000002384186","<div class='center'><p>That's correct!</p><p><b>[Press the space bar to continue]</b></p></div>","32","","","","","","","","","","","","","","","","","","","","","","",""
"","q_all_corr","85","491842","0.0-52.0-0.0","""event"",""trial"",""time""
""blur"",""0"",""0""
""focus"",""0"",""4294""
""fullscreenenter"",""0"",""4443""
""blur"",""2"",""6955""
""focus"",""2"",""10730""
""fullscreenexit"",""2"",""14371""
""blur"",""2"",""31204""
""focus"",""2"",""34295""
","""event"",""trial"",""time""
""blur"",""0"",""0""
""blur"",""2"",""6955""
""blur"",""2"",""31204""
","""event"",""trial"",""time""
""focus"",""0"",""4294""
""focus"",""2"",""10730""
""focus"",""2"",""34295""
","""event"",""trial"",""time""
""fullscreenenter"",""0"",""4443""
","""event"",""trial"",""time""
""fullscreenexit"",""2"",""14371""
","null","run_exp/static/audio/clip_27_quiz_all_correct.m4a","null","","","","","<div class='center'><p>Good job! You’re now ready to move on to the real game! Remember this game will be difficult but don't get discouraged and try your best!</p></div>","","","","","","","","","","","","","","","","","",""
"","html-keyboard-response","86","492913","0.0-52.0-1.0","""event"",""trial"",""time""
""blur"",""0"",""0""
""focus"",""0"",""4294""
""fullscreenenter"",""0"",""4443""
""blur"",""2"",""6955""
""focus"",""2"",""10730""
""fullscreenexit"",""2"",""14371""
""blur"",""2"",""31204""
""focus"",""2"",""34295""
","""event"",""trial"",""time""
""blur"",""0"",""0""
""blur"",""2"",""6955""
""blur"",""2"",""31204""
","""event"",""trial"",""time""
""focus"",""0"",""4294""
""focus"",""2"",""10730""
""focus"",""2"",""34295""
","""event"",""trial"",""time""
""fullscreenenter"",""0"",""4443""
","""event"",""trial"",""time""
""fullscreenexit"",""2"",""14371""
","1070.300000011921","<div class='center'><p>Good job! You’re now ready to move on to the real game! Remember this game will be difficult but don't get discouraged and try your best!</p><p><b>[Press the space bar to continue]</b></p></div>","32","","","","","","","","","","","","","","","","","","","","","","",""
"","do_welcome","87","496937","0.0-53.0-0.0","""event"",""trial"",""time""
""blur"",""0"",""0""
""focus"",""0"",""4294""
""fullscreenenter"",""0"",""4443""
""blur"",""2"",""6955""
""focus"",""2"",""10730""
""fullscreenexit"",""2"",""14371""
""blur"",""2"",""31204""
""focus"",""2"",""34295""
","""event"",""trial"",""time""
""blur"",""0"",""0""
""blur"",""2"",""6955""
""blur"",""2"",""31204""
","""event"",""trial"",""time""
""focus"",""0"",""4294""
""focus"",""2"",""10730""
""focus"",""2"",""34295""
","""event"",""trial"",""time""
""fullscreenenter"",""0"",""4443""
","""event"",""trial"",""time""
""fullscreenexit"",""2"",""14371""
","null","","","","","","","","null","","","","","","","","","","","","","","","","",""
"","do_trial","88","503545","0.0-54.0-0.0","""event"",""trial"",""time""
""blur"",""0"",""0""
""focus"",""0"",""4294""
""fullscreenenter"",""0"",""4443""
""blur"",""2"",""6955""
""focus"",""2"",""10730""
""fullscreenexit"",""2"",""14371""
""blur"",""2"",""31204""
""focus"",""2"",""34295""
","""event"",""trial"",""time""
""blur"",""0"",""0""
""blur"",""2"",""6955""
""blur"",""2"",""31204""
","""event"",""trial"",""time""
""focus"",""0"",""4294""
""focus"",""2"",""10730""
""focus"",""2"",""34295""
","""event"",""trial"",""time""
""fullscreenenter"",""0"",""4443""
","""event"",""trial"",""time""
""fullscreenexit"",""2"",""14371""
","2069.100000023842","","","","","","","","50","0,1,0","0","highway","0","probe-211","0.6","0.3","0.1","1","","","","","","","",""
"","html-keyboard-response","89","504548","0.0-54.0-1.0","""event"",""trial"",""time""
""blur"",""0"",""0""
""focus"",""0"",""4294""
""fullscreenenter"",""0"",""4443""
""blur"",""2"",""6955""
""focus"",""2"",""10730""
""fullscreenexit"",""2"",""14371""
""blur"",""2"",""31204""
""focus"",""2"",""34295""
","""event"",""trial"",""time""
""blur"",""0"",""0""
""blur"",""2"",""6955""
""blur"",""2"",""31204""
","""event"",""trial"",""time""
""focus"",""0"",""4294""
""focus"",""2"",""10730""
""focus"",""2"",""34295""
","""event"",""trial"",""time""
""fullscreenenter"",""0"",""4443""
","""event"",""trial"",""time""
""fullscreenexit"",""2"",""14371""
","null","<p></p>","null","","","","","","","","","","","","","","","","","","","","","","",""
"","do_trial","90","509481","0.0-55.0-0.0","""event"",""trial"",""time""
""blur"",""0"",""0""
""focus"",""0"",""4294""
""fullscreenenter"",""0"",""4443""
""blur"",""2"",""6955""
""focus"",""2"",""10730""
""fullscreenexit"",""2"",""14371""
""blur"",""2"",""31204""
""focus"",""2"",""34295""
","""event"",""trial"",""time""
""blur"",""0"",""0""
""blur"",""2"",""6955""
""blur"",""2"",""31204""
","""event"",""trial"",""time""
""focus"",""0"",""4294""
""focus"",""2"",""10730""
""focus"",""2"",""34295""
","""event"",""trial"",""time""
""fullscreenenter"",""0"",""4443""
","""event"",""trial"",""time""
""fullscreenexit"",""2"",""14371""
","393.9000000357628","","","","","","","","49","1,1,1","0","highway","1","probe-208","0.671571471893949","0.20193757295316966","0.05017222476656064","1","","","","","","","",""
"","html-keyboard-response","91","510491","0.0-55.0-1.0","""event"",""trial"",""time""
""blur"",""0"",""0""
""focus"",""0"",""4294""
""fullscreenenter"",""0"",""4443""
""blur"",""2"",""6955""
""focus"",""2"",""10730""
""fullscreenexit"",""2"",""14371""
""blur"",""2"",""31204""
""focus"",""2"",""34295""
","""event"",""trial"",""time""
""blur"",""0"",""0""
""blur"",""2"",""6955""
""blur"",""2"",""31204""
","""event"",""trial"",""time""
""focus"",""0"",""4294""
""focus"",""2"",""10730""
""focus"",""2"",""34295""
","""event"",""trial"",""time""
""fullscreenenter"",""0"",""4443""
","""event"",""trial"",""time""
""fullscreenexit"",""2"",""14371""
","null","<p></p>","null","","","","","","","","","","","","","","","","","","","","","","",""
"","do_trial","92","515613","0.0-56.0-0.0","""event"",""trial"",""time""
""blur"",""0"",""0""
""focus"",""0"",""4294""
""fullscreenenter"",""0"",""4443""
""blur"",""2"",""6955""
""focus"",""2"",""10730""
""fullscreenexit"",""2"",""14371""
""blur"",""2"",""31204""
""focus"",""2"",""34295""
","""event"",""trial"",""time""
""blur"",""0"",""0""
""blur"",""2"",""6955""
""blur"",""2"",""31204""
","""event"",""trial"",""time""
""focus"",""0"",""4294""
""focus"",""2"",""10730""
""focus"",""2"",""34295""
","""event"",""trial"",""time""
""fullscreenenter"",""0"",""4443""
","""event"",""trial"",""time""
""fullscreenexit"",""2"",""14371""
","577.8000000119209","","","","","","","","51","1,0,1","0","highway","2","probe-213","0.5635230677308902","0.36766183643575956","0.1098864927467922","1","","","","","","","",""
"","html-keyboard-response","93","516616","0.0-56.0-1.0","""event"",""trial"",""time""
""blur"",""0"",""0""
""focus"",""0"",""4294""
""fullscreenenter"",""0"",""4443""
""blur"",""2"",""6955""
""focus"",""2"",""10730""
""fullscreenexit"",""2"",""14371""
""blur"",""2"",""31204""
""focus"",""2"",""34295""
","""event"",""trial"",""time""
""blur"",""0"",""0""
""blur"",""2"",""6955""
""blur"",""2"",""31204""
","""event"",""trial"",""time""
""focus"",""0"",""4294""
""focus"",""2"",""10730""
""focus"",""2"",""34295""
","""event"",""trial"",""time""
""fullscreenenter"",""0"",""4443""
","""event"",""trial"",""time""
""fullscreenexit"",""2"",""14371""
","null","<p></p>","null","","","","","","","","","","","","","","","","","","","","","","",""
"","do_trial","94","522141","0.0-57.0-0.0","""event"",""trial"",""time""
""blur"",""0"",""0""
""focus"",""0"",""4294""
""fullscreenenter"",""0"",""4443""
""blur"",""2"",""6955""
""focus"",""2"",""10730""
""fullscreenexit"",""2"",""14371""
""blur"",""2"",""31204""
""focus"",""2"",""34295""
","""event"",""trial"",""time""
""blur"",""0"",""0""
""blur"",""2"",""6955""
""blur"",""2"",""31204""
","""event"",""trial"",""time""
""focus"",""0"",""4294""
""focus"",""2"",""10730""
""focus"",""2"",""34295""
","""event"",""trial"",""time""
""fullscreenenter"",""0"",""4443""
","""event"",""trial"",""time""
""fullscreenexit"",""2"",""14371""
","981.5","","","","","","","","51","0,1,0","0","highway","3","probe-154","0.524346082769237","0.2153983486897806","0.15715217474574505","0","","","","","","","",""
"","html-keyboard-response","95","523145","0.0-57.0-1.0","""event"",""trial"",""time""
""blur"",""0"",""0""
""focus"",""0"",""4294""
""fullscreenenter"",""0"",""4443""
""blur"",""2"",""6955""
""focus"",""2"",""10730""
""fullscreenexit"",""2"",""14371""
""blur"",""2"",""31204""
""focus"",""2"",""34295""
","""event"",""trial"",""time""
""blur"",""0"",""0""
""blur"",""2"",""6955""
""blur"",""2"",""31204""
","""event"",""trial"",""time""
""focus"",""0"",""4294""
""focus"",""2"",""10730""
""focus"",""2"",""34295""
","""event"",""trial"",""time""
""fullscreenenter"",""0"",""4443""
","""event"",""trial"",""time""
""fullscreenexit"",""2"",""14371""
","null","<p></p>","null","","","","","","","","","","","","","","","","","","","","","","",""
"","do_trial","96","529380","0.0-58.0-0.0","""event"",""trial"",""time""
""blur"",""0"",""0""
""focus"",""0"",""4294""
""fullscreenenter"",""0"",""4443""
""blur"",""2"",""6955""
""focus"",""2"",""10730""
""fullscreenexit"",""2"",""14371""
""blur"",""2"",""31204""
""focus"",""2"",""34295""
","""event"",""trial"",""time""
""blur"",""0"",""0""
""blur"",""2"",""6955""
""blur"",""2"",""31204""
","""event"",""trial"",""time""
""focus"",""0"",""4294""
""focus"",""2"",""10730""
""focus"",""2"",""34295""
","""event"",""trial"",""time""
""fullscreenenter"",""0"",""4443""
","""event"",""trial"",""time""
""fullscreenexit"",""2"",""14371""
","1694.9000000357628","","","","","","","","50","1,0,0","0","highway","4","probe-167","0.6956783841287582","0.29984303515761757","0.16200771308236647","0","","","","","","","",""
"","html-keyboard-response","97","530388","0.0-58.0-1.0","""event"",""trial"",""time""
""blur"",""0"",""0""
""focus"",""0"",""4294""
""fullscreenenter"",""0"",""4443""
""blur"",""2"",""6955""
""focus"",""2"",""10730""
""fullscreenexit"",""2"",""14371""
""blur"",""2"",""31204""
""focus"",""2"",""34295""
","""event"",""trial"",""time""
""blur"",""0"",""0""
""blur"",""2"",""6955""
""blur"",""2"",""31204""
","""event"",""trial"",""time""
""focus"",""0"",""4294""
""focus"",""2"",""10730""
""focus"",""2"",""34295""
","""event"",""trial"",""time""
""fullscreenenter"",""0"",""4443""
","""event"",""trial"",""time""
""fullscreenexit"",""2"",""14371""
","null","<p></p>","null","","","","","","","","","","","","","","","","","","","","","","",""
"","do_trial","98","536491","0.0-59.0-0.0","""event"",""trial"",""time""
""blur"",""0"",""0""
""focus"",""0"",""4294""
""fullscreenenter"",""0"",""4443""
""blur"",""2"",""6955""
""focus"",""2"",""10730""
""fullscreenexit"",""2"",""14371""
""blur"",""2"",""31204""
""focus"",""2"",""34295""
","""event"",""trial"",""time""
""blur"",""0"",""0""
""blur"",""2"",""6955""
""blur"",""2"",""31204""
","""event"",""trial"",""time""
""focus"",""0"",""4294""
""focus"",""2"",""10730""
""focus"",""2"",""34295""
","""event"",""trial"",""time""
""fullscreenenter"",""0"",""4443""
","""event"",""trial"",""time""
""fullscreenexit"",""2"",""14371""
","1554.699999988079","","","","","","","","51","1,0,0","0","highway","5","probe-123","0.5015107418633162","0.35022026364313236","0.14448964493755573","0","","","","","","","",""
"","html-keyboard-response","99","537493","0.0-59.0-1.0","""event"",""trial"",""time""
""blur"",""0"",""0""
""focus"",""0"",""4294""
""fullscreenenter"",""0"",""4443""
""blur"",""2"",""6955""
""focus"",""2"",""10730""
""fullscreenexit"",""2"",""14371""
""blur"",""2"",""31204""
""focus"",""2"",""34295""
","""event"",""trial"",""time""
""blur"",""0"",""0""
""blur"",""2"",""6955""
""blur"",""2"",""31204""
","""event"",""trial"",""time""
""focus"",""0"",""4294""
""focus"",""2"",""10730""
""focus"",""2"",""34295""
","""event"",""trial"",""time""
""fullscreenenter"",""0"",""4443""
","""event"",""trial"",""time""
""fullscreenexit"",""2"",""14371""
","null","<p></p>","null","","","","","","","","","","","","","","","","","","","","","","",""
"","do_trial","100","543799","0.0-60.0-0.0","""event"",""trial"",""time""
""blur"",""0"",""0""
""focus"",""0"",""4294""
""fullscreenenter"",""0"",""4443""
""blur"",""2"",""6955""
""focus"",""2"",""10730""
""fullscreenexit"",""2"",""14371""
""blur"",""2"",""31204""
""focus"",""2"",""34295""
","""event"",""trial"",""time""
""blur"",""0"",""0""
""blur"",""2"",""6955""
""blur"",""2"",""31204""
","""event"",""trial"",""time""
""focus"",""0"",""4294""
""focus"",""2"",""10730""
""focus"",""2"",""34295""
","""event"",""trial"",""time""
""fullscreenenter"",""0"",""4443""
","""event"",""trial"",""time""
""fullscreenexit"",""2"",""14371""
","1771.300000011921","","","","","","","","50","0,0,0","0","highway","6","probe-216","0.4857650053907339","0.4217939529772871","0.20675975403723762","0","","","","","","","",""
"","html-keyboard-response","101","544812","0.0-60.0-1.0","""event"",""trial"",""time""
""blur"",""0"",""0""
""focus"",""0"",""4294""
""fullscreenenter"",""0"",""4443""
""blur"",""2"",""6955""
""focus"",""2"",""10730""
""fullscreenexit"",""2"",""14371""
""blur"",""2"",""31204""
""focus"",""2"",""34295""
","""event"",""trial"",""time""
""blur"",""0"",""0""
""blur"",""2"",""6955""
""blur"",""2"",""31204""
","""event"",""trial"",""time""
""focus"",""0"",""4294""
""focus"",""2"",""10730""
""focus"",""2"",""34295""
","""event"",""trial"",""time""
""fullscreenenter"",""0"",""4443""
","""event"",""trial"",""time""
""fullscreenexit"",""2"",""14371""
","null","<p></p>","null","","","","","","","","","","","","","","","","","","","","","","",""
"","do_trial","102","549715","0.0-61.0-0.0","""event"",""trial"",""time""
""blur"",""0"",""0""
""focus"",""0"",""4294""
""fullscreenenter"",""0"",""4443""
""blur"",""2"",""6955""
""focus"",""2"",""10730""
""fullscreenexit"",""2"",""14371""
""blur"",""2"",""31204""
""focus"",""2"",""34295""
","""event"",""trial"",""time""
""blur"",""0"",""0""
""blur"",""2"",""6955""
""blur"",""2"",""31204""
","""event"",""trial"",""time""
""focus"",""0"",""4294""
""focus"",""2"",""10730""
""focus"",""2"",""34295""
","""event"",""trial"",""time""
""fullscreenenter"",""0"",""4443""
","""event"",""trial"",""time""
""fullscreenexit"",""2"",""14371""
","365","","","","","","","","49","0,1,0","0","highway","7","probe-70","0.3313650652994813","0.33347520666774005","0.08765466546809063","0","","","","","","","",""
"","html-keyboard-response","103","550723","0.0-61.0-1.0","""event"",""trial"",""time""
""blur"",""0"",""0""
""focus"",""0"",""4294""
""fullscreenenter"",""0"",""4443""
""blur"",""2"",""6955""
""focus"",""2"",""10730""
""fullscreenexit"",""2"",""14371""
""blur"",""2"",""31204""
""focus"",""2"",""34295""
","""event"",""trial"",""time""
""blur"",""0"",""0""
""blur"",""2"",""6955""
""blur"",""2"",""31204""
","""event"",""trial"",""time""
""focus"",""0"",""4294""
""focus"",""2"",""10730""
""focus"",""2"",""34295""
","""event"",""trial"",""time""
""fullscreenenter"",""0"",""4443""
","""event"",""trial"",""time""
""fullscreenexit"",""2"",""14371""
","null","<p></p>","null","","","","","","","","","","","","","","","","","","","","","","",""
"","do_trial","104","555583","0.0-62.0-0.0","""event"",""trial"",""time""
""blur"",""0"",""0""
""focus"",""0"",""4294""
""fullscreenenter"",""0"",""4443""
""blur"",""2"",""6955""
""focus"",""2"",""10730""
""fullscreenexit"",""2"",""14371""
""blur"",""2"",""31204""
""focus"",""2"",""34295""
","""event"",""trial"",""time""
""blur"",""0"",""0""
""blur"",""2"",""6955""
""blur"",""2"",""31204""
","""event"",""trial"",""time""
""focus"",""0"",""4294""
""focus"",""2"",""10730""
""focus"",""2"",""34295""
","""event"",""trial"",""time""
""fullscreenenter"",""0"",""4443""
","""event"",""trial"",""time""
""fullscreenexit"",""2"",""14371""
","325.60000002384186","","","","","","","","50","0,0,1","0","highway","8","probe-32","0.339621586557731","0.3602446251188283","0.10932285871898445","0","","","","","","","",""
"","html-keyboard-response","105","556591","0.0-62.0-1.0","""event"",""trial"",""time""
""blur"",""0"",""0""
""focus"",""0"",""4294""
""fullscreenenter"",""0"",""4443""
""blur"",""2"",""6955""
""focus"",""2"",""10730""
""fullscreenexit"",""2"",""14371""
""blur"",""2"",""31204""
""focus"",""2"",""34295""
","""event"",""trial"",""time""
""blur"",""0"",""0""
""blur"",""2"",""6955""
""blur"",""2"",""31204""
","""event"",""trial"",""time""
""focus"",""0"",""4294""
""focus"",""2"",""10730""
""focus"",""2"",""34295""
","""event"",""trial"",""time""
""fullscreenenter"",""0"",""4443""
","""event"",""trial"",""time""
""fullscreenexit"",""2"",""14371""
","null","<p></p>","null","","","","","","","","","","","","","","","","","","","","","","",""
"","do_trial","106","561575","0.0-63.0-0.0","""event"",""trial"",""time""
""blur"",""0"",""0""
""focus"",""0"",""4294""
""fullscreenenter"",""0"",""4443""
""blur"",""2"",""6955""
""focus"",""2"",""10730""
""fullscreenexit"",""2"",""14371""
""blur"",""2"",""31204""
""focus"",""2"",""34295""
","""event"",""trial"",""time""
""blur"",""0"",""0""
""blur"",""2"",""6955""
""blur"",""2"",""31204""
","""event"",""trial"",""time""
""focus"",""0"",""4294""
""focus"",""2"",""10730""
""focus"",""2"",""34295""
","""event"",""trial"",""time""
""fullscreenenter"",""0"",""4443""
","""event"",""trial"",""time""
""fullscreenexit"",""2"",""14371""
","442","","","","","","","","51","0,1,1","0","highway","9","probe-07","0.4276430731880572","0.36943725977639913","0.128875195390505","1","","","","","","","",""
"","html-keyboard-response","107","562588","0.0-63.0-1.0","""event"",""trial"",""time""
""blur"",""0"",""0""
""focus"",""0"",""4294""
""fullscreenenter"",""0"",""4443""
""blur"",""2"",""6955""
""focus"",""2"",""10730""
""fullscreenexit"",""2"",""14371""
""blur"",""2"",""31204""
""focus"",""2"",""34295""
","""event"",""trial"",""time""
""blur"",""0"",""0""
""blur"",""2"",""6955""
""blur"",""2"",""31204""
","""event"",""trial"",""time""
""focus"",""0"",""4294""
""focus"",""2"",""10730""
""focus"",""2"",""34295""
","""event"",""trial"",""time""
""fullscreenenter"",""0"",""4443""
","""event"",""trial"",""time""
""fullscreenexit"",""2"",""14371""
","null","<p></p>","null","","","","","","","","","","","","","","","","","","","","","","",""
"","do_trial","108","567491","0.0-64.0-0.0","""event"",""trial"",""time""
""blur"",""0"",""0""
""focus"",""0"",""4294""
""fullscreenenter"",""0"",""4443""
""blur"",""2"",""6955""
""focus"",""2"",""10730""
""fullscreenexit"",""2"",""14371""
""blur"",""2"",""31204""
""focus"",""2"",""34295""
","""event"",""trial"",""time""
""blur"",""0"",""0""
""blur"",""2"",""6955""
""blur"",""2"",""31204""
","""event"",""trial"",""time""
""focus"",""0"",""4294""
""focus"",""2"",""10730""
""focus"",""2"",""34295""
","""event"",""trial"",""time""
""fullscreenenter"",""0"",""4443""
","""event"",""trial"",""time""
""fullscreenexit"",""2"",""14371""
","356.10000002384186","","","","","","","","51","1,0,0","0","highway","10","probe-74","0.46585001456715336","0.4015687613860864","0.21529696708861168","0","","","","","","","",""
"","html-keyboard-response","109","568507","0.0-64.0-1.0","""event"",""trial"",""time""
""blur"",""0"",""0""
""focus"",""0"",""4294""
""fullscreenenter"",""0"",""4443""
""blur"",""2"",""6955""
""focus"",""2"",""10730""
""fullscreenexit"",""2"",""14371""
""blur"",""2"",""31204""
""focus"",""2"",""34295""
","""event"",""trial"",""time""
""blur"",""0"",""0""
""blur"",""2"",""6955""
""blur"",""2"",""31204""
","""event"",""trial"",""time""
""focus"",""0"",""4294""
""focus"",""2"",""10730""
""focus"",""2"",""34295""
","""event"",""trial"",""time""
""fullscreenenter"",""0"",""4443""
","""event"",""trial"",""time""
""fullscreenexit"",""2"",""14371""
","null","<p></p>","null","","","","","","","","","","","","","","","","","","","","","","",""
"","do_trial","110","573907","0.0-65.0-0.0","""event"",""trial"",""time""
""blur"",""0"",""0""
""focus"",""0"",""4294""
""fullscreenenter"",""0"",""4443""
""blur"",""2"",""6955""
""focus"",""2"",""10730""
""fullscreenexit"",""2"",""14371""
""blur"",""2"",""31204""
""focus"",""2"",""34295""
","""event"",""trial"",""time""
""blur"",""0"",""0""
""blur"",""2"",""6955""
""blur"",""2"",""31204""
","""event"",""trial"",""time""
""focus"",""0"",""4294""
""focus"",""2"",""10730""
""focus"",""2"",""34295""
","""event"",""trial"",""time""
""fullscreenenter"",""0"",""4443""
","""event"",""trial"",""time""
""fullscreenexit"",""2"",""14371""
","861.6999999880791","","","","","","","","50","1,0,0","0","highway","11","probe-225","0.495113638451541","0.37918445253428185","0.19842426334207106","0","","","","","","","",""
