"success","trial_type","trial_index","time_elapsed","internal_node_id","rt","stimulus","key_press","subject_id","response","choice_outcomes","context_n","context_img_id","trial_n","probe_img_id","pR_red","pR_white","pR_black","outcome","contextArray_ind","validImageProbes","invalidImageProbes","pRew_Red","pRew_White","pRew_Black","availableForMemProbe","choice_blocks"
"true","fullscreen","0","3384","0.0-0.0","","","","","","","","","","","","","","","","","","","","","",""
"","pavlovia","1","3389","0.0-1.0","","","","","","","","","","","","","","","","","","","","","",""
"","html-keyboard-response","2","27083","0.0-2.0","23691.899999976158","<div class='center'><p>Welcome! This is the first day of the experiment which will last ~30 minutes. In this experiment, you are the head captain of a pirate ship traveling around the world to different places. You will complete several different tasks during this experiment. Here is an overview of these tasks:</p><br><p>Day 1</p><p>1. Tutorial and quiz</p><p>2. Pick a pirate game in 6 different places</p><br><p>Day 2</p><p>3. Pick a pirate game and memory game</p><p>4. Final questions and payment</p><br><p>If you complete the entire experiment, you will receive $15 and a possible bonus payment.</p><p><b>[Press the space bar to begin the tutorial]</b></p></div>","32","6108c2550eb1425d6b70975f","","","","","","","","","","","","","","","","","",""
"","html-keyboard-response","3","27487","0.0-3.0","403.69999998807907","<div class='center'><p>You are the head captain of a pirate ship.</p><p> Your pirates rob other ships as they leave the marketplace port.</p> These ships have just sold all their goods at the marketplace, so they have lots and lots of gold on them.</p><p><img src='run_exp/static/images/ship_center.png' height='400'></p><p><b>[Press the space bar to continue]</b></p></div>","32","","","","","","","","","","","","","","","","","","",""
"","html-keyboard-response","4","49170","0.0-4.0","21681.69999998808","<div class='center'><p>As the head captain, you do not have to rob any ships yourself.</p><p>You get to choose which pirate you want to rob the next ship. </p><p>If they are successful at robbing the ship, then you will get gold coins.</p><p> If they are not successful, then you will get no gold coins.</p><p> The more coins you collect, the more bonus money you will win. So, choose your pirate wisely.</p><p><img src='run_exp/static/images/goal.png' height='400'></p><p><b>[Press the space bar to continue]</b></p><div>","32","","","","","","","","","","","","","","","","","","",""
"","html-keyboard-response","5","62579","0.0-5.0","13407.100000023842","<div class='center'><p>Even the most skilled pirate will not be able to rob EVERY ship.</p><p> Some ships will have very strong defenses against attacks.</p><p> For example, blue beard, here,  is very good at robbing ships.</p><p> You can press the <b>‘1’</b> button on the keyboard to choose him.</p><p> Try choosing him 10 times to see how often he is successful at robbing ships. </p><p><img src='run_exp/static/images/blue.png' height='500'></p></div>","49","","","","","","","","","","","","","","","","","","",""
"","html-keyboard-response","6","64080","0.0-6.0","null","<br><br><br><br><p><img src='run_exp/static/images/blue_win.png' height='500'></p>","null","","","","","","","","","","","","","","","","","","",""
"","html-keyboard-response","7","65455","0.0-7.0","1374.699999988079","<br><br><br><br><p><img src='run_exp/static/images/blue.png' height='500'></p>","49","","","","","","","","","","","","","","","","","","",""
"","html-keyboard-response","8","66961","0.0-8.0","null","<br><br><br><br><p><img src='run_exp/static/images/blue_win.png' height='500'></p>","null","","","","","","","","","","","","","","","","","","",""
"","html-keyboard-response","9","68268","0.0-9.0","1305.9000000357628","<br><br><br><br><p><img src='run_exp/static/images/blue.png' height='500'></p>","49","","","","","","","","","","","","","","","","","","",""
"","html-keyboard-response","10","69773","0.0-10.0","null","<br><br><br><br><p><img src='run_exp/static/images/blue_win.png' height='500'></p>","null","","","","","","","","","","","","","","","","","","",""
"","html-keyboard-response","11","70464","0.0-11.0","690.5","<br><br><br><br><p><img src='run_exp/static/images/blue.png' height='500'></p>","49","","","","","","","","","","","","","","","","","","",""
"","html-keyboard-response","12","71969","0.0-12.0","null","<br><br><br><br><p><img src='run_exp/static/images/blue_no_win.png' height='500'></p>","null","","","","","","","","","","","","","","","","","","",""
"","html-keyboard-response","13","72794","0.0-13.0","823.6000000238419","<br><br><br><br><p><img src='run_exp/static/images/blue.png' height='500'></p>","49","","","","","","","","","","","","","","","","","","",""
"","html-keyboard-response","14","74297","0.0-14.0","null","<br><br><br><br><p><img src='run_exp/static/images/blue_win.png' height='500'></p>","null","","","","","","","","","","","","","","","","","","",""
"","html-keyboard-response","15","74815","0.0-15.0","516.5999999642372","<br><br><br><br><p><img src='run_exp/static/images/blue.png' height='500'></p>","49","","","","","","","","","","","","","","","","","","",""
"","html-keyboard-response","16","76316","0.0-16.0","null","<br><br><br><br><p><img src='run_exp/static/images/blue_win.png' height='500'></p>","null","","","","","","","","","","","","","","","","","","",""
"","html-keyboard-response","17","77612","0.0-17.0","1295","<br><br><br><br><p><img src='run_exp/static/images/blue.png' height='500'></p>","49","","","","","","","","","","","","","","","","","","",""
"","html-keyboard-response","18","79115","0.0-18.0","null","<br><br><br><br><p><img src='run_exp/static/images/blue_win.png' height='500'></p>","null","","","","","","","","","","","","","","","","","","",""
"","html-keyboard-response","19","80226","0.0-19.0","1110","<br><br><br><br><p><img src='run_exp/static/images/blue.png' height='500'></p>","49","","","","","","","","","","","","","","","","","","",""
"","html-keyboard-response","20","81732","0.0-20.0","null","<br><br><br><br><p><img src='run_exp/static/images/blue_no_win.png' height='500'></p>","null","","","","","","","","","","","","","","","","","","",""
"","html-keyboard-response","21","82437","0.0-21.0","704.7000000476837","<br><br><br><br><p><img src='run_exp/static/images/blue.png' height='500'></p>","49","","","","","","","","","","","","","","","","","","",""
"","html-keyboard-response","22","83938","0.0-22.0","null","<br><br><br><br><p><img src='run_exp/static/images/blue_win.png' height='500'></p>","null","","","","","","","","","","","","","","","","","","",""
"","html-keyboard-response","23","90142","0.0-23.0","6203.599999964237","<br><br><br><br><p><img src='run_exp/static/images/blue.png' height='500'></p>","49","","","","","","","","","","","","","","","","","","",""
"","html-keyboard-response","24","91645","0.0-24.0","null","<br><br><br><br><p><img src='run_exp/static/images/blue_win.png' height='500'></p>","null","","","","","","","","","","","","","","","","","","",""
"","html-keyboard-response","25","94338","0.0-25.0","2691.900000035763","<div class='center'><p> See, he was successful at robbing the ships most of the time but not every time. </p><p><b>[Press the space bar to continue]</b></p></div>","32","","","","","","","","","","","","","","","","","","",""
"","html-keyboard-response","26","108317","0.0-26.0","13971.800000011921","<div class='center'><p>In the game, you will get to choose which of three pirates you want to rob the next ship. <p>Press the <b>‘1’</b> button on your keyboard to pick the pirate with the red beard.</p><p> Press <b>‘2’</b> to pick the pirate with the white beard.</p><p> Press <b>‘3’</b> to pick the pirate with the black beard.</p><p>Try picking a pirate now!</p><p><img src='run_exp/static/images/all_pirates.png' height='500'></p></div>","51","","","","","","","","","","","","","","","","","","",""
"","html-keyboard-response","27","110592","0.0-27.0-0.0","2268.399999976158","<div class='center'><p>This pirate was successful at robbing the ship!</p><p><img src='run_exp/static/images/black_win.png' height='500'></p><p><b>[Press the space bar to continue]</b></p></div>","32","","","","","","","","","","","","","","","","","","",""
"","html-keyboard-response","28","112021","0.0-27.0-1.0","1428.6000000238419","<div class='center'><p>Now try choosing another</p><p><img src='run_exp/static/images/all_pirates.png' height='500'></p></div>","51","","","","","","","","","","","","","","","","","","",""
"","html-keyboard-response","29","113308","0.0-28.0-0.0","1285.8999999761581","<div class='center'><p>This pirate was not successful at robbing the ship!</p><p><img src='run_exp/static/images/black_no_win.png' height='500'></p><p><b>[Press the space bar to continue]</b></p></div>","32","","","","","","","","","","","","","","","","","","",""
"","html-keyboard-response","30","117775","0.0-29.0-0.0","4466.699999988079","<div class='center'><p>You’ll stop at these 6 places on your journey.</p><p><img src='run_exp/static/images/all_contexts.png' height='500'></p><p><b>[Press the space bar to continue]</b></p></div>","32","","","","","","","","","","","","","","","","","","",""
"","html-keyboard-response","31","126692","0.0-29.0-1.0","8915.800000011921","<div class='center'><p>How good a pirate is at robbing ships will depend on the current place.</p><p> Some pirates will have been to the place before, and will have more experience robbing ships there.</p><p>So, they will be more successful at stealing gold and bringing it back to you.</p><p><b>[Press the space bar to continue]</b></p></div>","32","","","","","","","","","","","","","","","","","","",""
"","html-keyboard-response","32","187187","0.0-29.0-2.0","60492.30000001192","<div class='center'><p>How successful a pirate is at robbing ships can also change in a place.<p> Ships may hear about the pirates coming and will improve their defenses. This may make it more difficult to rob them.</p><p> Ships may also grow lazy and lower their defenses. This may make it easier to rob them.</p><br><p>Things are always changing on the high seas! So, try your best to pay attention!</p><p><img src='run_exp/static/images/contingency.png' height='500'></p><p><b>[Press the space bar to continue]</b></p></div>","32","","","","","","","","","","","","","","","","","","",""
"","html-keyboard-response","33","377953","0.0-29.0-3.0","190759.5","<div class='center'><p>Once you choose a pirate to rob a ship, you’ll be shown the ship they are robbing.</p><p>The ship will have a picture of the item they sold at the marketplace.</p><p> Try your best to remember the ship and where you saw the ship.</p><p> You’ll have to remember this for later, and remembering this correctly will help you win more bonus money!</p><p>You can remember the ship by remembering the item they sold at the marketplace</p><p>A helpful strategy is to try to come up with a story of the chosen pirate and ship’s item interacting with the scene.</p><p> For example, a ship might have sold travel mugs and you could imagine red beard walking through the city with a travel mug. </p><p>Or imagine an apple falling from a tree into white beard's hands in the forest.</p><p><img src='run_exp/static/images/example_probe.png' height='500'></p><p><b>[Press the space bar to continue]</b></p></div>","32","","","","","","","","","","","","","","","","","","",""
"","html-keyboard-response","34","384327","0.0-29.0-4.0","6373","<div class='center'><p>If you don’t make your choice fast enough, you’ll have to wait a few seconds before you can make another one. </p><p>You can’t win more gold. You just have to sit and wait.</p><p><img src='run_exp/static/images/hurry_up.png' height='500'></p><p><b>[Press the space bar to continue]</b></p></div>","32","","","","","","","","","","","","","","","","","","",""
"","html-keyboard-response","35","426027","0.0-29.0-5.0","41698.200000047684","<div class='center'><p>Again, you have two important things to do: </p><b><p> 1. Pick the pirate who you think will be most successful at robbing the next ship.</p></b><b><p> 2. Remember where a pirate robbed a ship.</p> </b><p>Both are important in determining how much bonus money you’ll win.</p><br><p>Let’s try a practice game. The game will start by showing you the pirates. First pick a pirate using the <b> 1, 2, 3 </b> buttons on your keyboard. When you are shown a ship, try to remember the place you’re in by making up a story.</p><p> You only have 3 seconds to pick a pirate, so please make a choice quickly! If you are too slow, you’ll have to wait a bit during the time out.</p><p> Don’t feel rushed, but please do try to make a choice every time.</p><p>How good a pirate is at robbing a ship will change depending on the place they are in and how good the defenses are of the ship.</p> <p>This is just a practice game, so you’re not playing for money. </p><p>You’ll receive a bag which may or may not contain gold coins.</p><p> In the real game, though, you’ll be able to see whether or not you received the gold coins.</p><p> Good luck, remember press <b>'1'</b> to choose red beard, <b>'2'</b> to choose white beard, and <b>'3'</b> to choose black beard</p><p><b>[Press the space bar to begin the practice game]</b></p></div>","32","","","","","","","","","","","","","","","","","","",""
"","do_trial_prac","36","432357","0.0-29.0-6.0","1816.1000000238419","","","","50","","","","","","","","","","","","","","","","",""
"","do_trial_prac","37","438545","0.0-29.0-7.0","1677.699999988079","","","","51","","","","","","","","","","","","","","","","",""
"","do_trial_prac","38","444207","0.0-29.0-8.0","1152.5999999642372","","","","49","","","","","","","","","","","","","","","","",""
"","do_trial_prac","39","449809","0.0-29.0-9.0","1093","","","","50","","","","","","","","","","","","","","","","",""
"","do_trial_prac","40","455474","0.0-29.0-10.0","1155.4000000357628","","","","51","","","","","","","","","","","","","","","","",""
"","html-keyboard-response","41","461927","0.0-29.0-11.0","6451.399999976158","<div class='center'><p>Great job on the practice game!</p><p> Now, you will be asked you some true or false questions to make sure you really understand the rules of the game.</p><p> Press <b>'1'</b> on the keyboard for true and press <b>'2'</b> for false.</p><p><b>[Press the space bar to begin the quiz]</b></p></div>","32","","","","","","","","","","","","","","","","","","",""
"","html-keyboard-response","42","464791","0.0-29.0-12.0","2863.800000011921","<div class='center'><p>You win bonus money by making choices as fast as possible.</p><p>Press 1 for true and press  2 for false.</p></div>","50","","","","","","","","","","","","","","","","","","",""
"","html-keyboard-response","43","466075","0.0-30.0-0.0","1282.699999988079","<br><br><br><br><p>That's correct!</p> <p><b>[press the space bar to continue with the quiz]</b></p>","32","","","","","","","","","","","","","","","","","","",""
"","html-keyboard-response","44","469430","0.0-30.0-1.0","3354.7999999523163","<div class='center'><p>You press the <b>‘3’</b> button on the keyboard to choose the red bearded pirate? </p><p>Press 1 for true and press  2 for false.</p></div>","49","","","","","","","","","","","","","","","","","","",""
"","html-keyboard-response","45","471743","0.0-31.0-0.0","2312.7000000476837","<br><br><br><br><p>That’s incorrect! You press the <b>‘1’</b> button to choose the red bearded pirate!</p><p><b>[press the space bar to continue with the quiz]</b></p>","32","","","","","","","","","","","","","","","","","","",""
"","html-keyboard-response","46","474787","0.0-31.0-1.0","3042.7999999523163","<div class='center'><p>A pirate will always be equally successful at robbing ships in each place</p><p>Press 1 for true and press  2 for false.</p></div>","50","","","","","","","","","","","","","","","","","","",""
"","html-keyboard-response","47","475584","0.0-32.0-0.0","796.3000000119209","<br><br><br><br><p>That's correct!</p> <p><b>[press the space bar to continue with the quiz]</b></p>","32","","","","","","","","","","","","","","","","","","",""
"","html-keyboard-response","48","478179","0.0-32.0-1.0","2594.399999976158","<div class='center'><p>You should remember the place where a pirate robbed a ship.</p><p>Press 1 for true and press  2 for false.</p></div>","49","","","","","","","","","","","","","","","","","","",""
"","html-keyboard-response","49","479411","0.0-33.0-0.0","1231.8999999761581","<br><br><br><br><p>That's correct!</p> <p><b>[press the space bar to continue with the quiz]</b></p>","32","","","","","","","","","","","","","","","","","","",""
"","html-keyboard-response","50","483683","0.0-34.0-0.0","4271.399999976158","<br><br><br><br><p>Oops, you missed some questions. Now that you’ve heard the correct answers. Try the quiz again! If you fail the quiz too many times, you won’t be able to do the experiment. </p> <p><br>[press the space bar to repeat the quiz]</br></p>","32","","","","","","","","","","","","","","","","","","",""
"","html-keyboard-response","51","484952","0.0-34.0-1.0","1268","<div class='center'><p>You win bonus money by making choices as fast as possible.</p><p>Press 1 for true and press  2 for false.</p></div>","50","","","","","","","","","","","","","","","","","","",""
"","html-keyboard-response","52","485602","0.0-35.0-0.0","649.3000000119209","<br><br><br><br><p>That's correct!</p> <p><b>[press the space bar to continue with the quiz]</b></p>","32","","","","","","","","","","","","","","","","","","",""
"","html-keyboard-response","53","487708","0.0-35.0-1.0","2105.7000000476837","<div class='center'><p>You press the <b>‘3’</b> button on the keyboard to choose the red bearded pirate? </p><p>Press 1 for true and press  2 for false.</p></div>","50","","","","","","","","","","","","","","","","","","",""
"","html-keyboard-response","54","488526","0.0-36.0-0.0","817.1999999880791","<br><br><br><br><p>That's correct!</p> <p><b>[press the space bar to continue with the quiz]</b></p>","32","","","","","","","","","","","","","","","","","","",""
"","html-keyboard-response","55","490090","0.0-36.0-1.0","1562.699999988079","<div class='center'><p>A pirate will always be equally successful at robbing ships in each place</p><p>Press 1 for true and press  2 for false.</p></div>","50","","","","","","","","","","","","","","","","","","",""
"","html-keyboard-response","56","490712","0.0-37.0-0.0","621.6999999880791","<br><br><br><br><p>That's correct!</p> <p><b>[press the space bar to continue with the quiz]</b></p>","32","","","","","","","","","","","","","","","","","","",""
"","html-keyboard-response","57","492121","0.0-37.0-1.0","1409","<div class='center'><p>You should remember the place where a pirate robbed a ship.</p><p>Press 1 for true and press  2 for false.</p></div>","49","","","","","","","","","","","","","","","","","","",""
"","html-keyboard-response","58","492878","0.0-38.0-0.0","744.1000000238419","<br><br><br><br><p>That's correct!</p> <p><b>[press the space bar to continue with the quiz]</b></p>","32","","","","","","","","","","","","","","","","","","",""
"","html-keyboard-response","59","494233","0.0-39.0-0.0","1354.4000000357628","<br><br><br><br><p>Good job! You’re now ready to move on to the real game!</p> <p><br>[press the space bar to begin!]</br></p>","32","","","","","","","","","","","","","","","","","","",""
"","do_welcome","60","495740","0.0-40.0-0.0","null","","","","null","","","","","","","","","","","","","","","","",""
"","do_trial","61","502235","0.0-41.0-0.0","1949.0999999642372","","","","49","1,0,0","0","coast","0","probe-11","1","0.4","0.1","1","","","","","","","",""
"","do_trial","62","507715","0.0-42.0-0.0","934.1000000238419","","","","50","1,1,0","0","coast","1","probe-107","1","0.38798760453877157","0.09013873768370631","1","","","","","","","",""
"","do_trial","63","512871","0.0-43.0-0.0","610","","","","51","1,1,0","0","coast","2","probe-118","1","0.37119881202809807","0.16708258380684662","0","","","","","","","",""
"","do_trial","64","518338","0.0-44.0-0.0","922.5","","","","50","1,0,0","0","coast","3","probe-190","1","0.38992282921864124","0.19831308789399107","0","","","","","","","",""
"","do_trial","65","523188","0.0-45.0-0.0","304.39999997615814","","","","49","1,1,0","0","coast","4","probe-206","0.8764568141818977","0.42019705893548664","0.10090728596248003","1","","","","","","","",""
"","do_trial","66","528073","0.0-46.0-0.0","340.2999999523163","","","","49","1,1,0","0","coast","5","probe-174","0.9316843988927258","0.2821525231338825","0.08632313339931426","1","","","","","","","",""
"","do_trial","67","533063","0.0-47.0-0.0","444.30000001192093","","","","49","0,0,0","0","coast","6","probe-188","0.7692533781909725","0.24797575559162127","0.11649353682466318","0","","","","","","","",""
"","do_trial","68","538039","0.0-48.0-0.0","434.0999999642372","","","","50","1,0,0","0","coast","7","probe-159","0.7820074023927217","0.3055523139310377","0.24602521767758137","0","","","","","","","",""
"","do_trial","69","543376","0.0-49.0-0.0","793.1999999880791","","","","51","1,1,0","0","coast","8","probe-80","0.8532935124079996","0.4082984790455085","0.1881841543381133","0","","","","","","","",""
"","do_trial","70","548253","0.0-50.0-0.0","328.80000001192093","","","","49","1,0,0","0","coast","9","probe-134","0.8638095922018196","0.47065485650752825","0.11900421114235965","1","","","","","","","",""
"","do_trial","71","553413","0.0-51.0-0.0","614","","","","49","1,0,1","0","coast","10","probe-111","0.6096964604090463","0.39757712334961703","0.3756487036854278","1","","","","","","","",""
"","do_trial","72","558302","0.0-52.0-0.0","347.30000001192093","","","","49","0,0,0","0","coast","11","probe-187","0.523064124666588","0.14518381877661798","0.6001852360342429","0","","","","","","","",""
"","do_trial","73","563117","0.0-53.0-0.0","271.60000002384186","","","","49","1,0,1","0","coast","12","probe-72","0.5478168689291967","0.17058616809772176","0.7304579982350913","1","","","","","","","",""
"","do_trial","74","568118","0.0-54.0-0.0","456.2999999523163","","","","49","0,1,1","0","coast","13","probe-22","0.41851816539663644","0.18033400692045973","0.8041282996778449","0","","","","","","","",""
"","do_trial","75","573016","0.0-55.0-0.0","354","","","","49","0,0,1","0","coast","14","probe-13","0.410101946345943","0.2631034208516517","0.7797708818097175","0","","","","","","","",""
"","do_trial","76","577831","0.0-56.0-0.0","269.19999998807907","","","","50","0,1,1","0","coast","15","probe-151","0.4470600975623962","0.3974404120378241","0.8010566277994334","1","","","","","","","",""
"","do_trial","77","582981","0.0-57.0-0.0","605","","","","51","0,0,0","0","coast","16","probe-19","0.33006026772370206","0.06553981277568237","0.7578259865603958","0","","","","","","","",""
"","do_trial","78","587851","0.0-58.0-0.0","327.10000002384186","","","","50","1,0,0","0","coast","17","probe-202","0.45469991867758885","0.13953220009031717","0.8204757432585141","0","","","","","","","",""
"","do_trial","79","592750","0.0-59.0-0.0","354.69999998807907","","","","49","0,0,1","0","coast","18","probe-179","0.327783967171996","0.05331035824184735","0.8099168352117944","0","","","","","","","",""
"","do_trial","80","598467","0.0-60.0-0.0","1173.699999988079","","","","49","0,1,1","0","coast","19","probe-205","0.4088455388077161","0.21531613773404715","0.8687637729563332","0","","","","","","","",""
"","do_trial","81","603720","0.0-61.0-0.0","712.1999999880791","","","","49","0,0,0","0","coast","20","probe-119","0.446068808852852","0.1376855463358471","0.8630234068832556","0","","","","","","","",""
"","do_trial","82","608549","0.0-62.0-0.0","282.69999998807907","","","","50","1,1,1","0","coast","21","probe-155","0.34834876131039344","0.21623019665291499","0.8162150700785962","1","","","","","","","",""
"","do_trial","83","613775","0.0-63.0-0.0","685","","","","50","0,0,1","0","coast","22","probe-163","0.25893146513917986","0.13542617203989238","0.7376882246337703","0","","","","","","","",""
"","do_trial","84","618715","0.0-64.0-0.0","394.5","","","","51","0,0,1","0","coast","23","probe-73","0.3416375423716601","0.09382903990217495","0.8184834280738249","1","","","","","","","",""
"","do_trial","85","624211","0.0-65.0-0.0","953.3000000119209","","","","51","0,1,1","0","coast","24","probe-93","0.3236004857296911","0.07281158950594004","0.893833097229247","1","","","","","","","",""
"","do_trial","86","629378","0.0-66.0-0.0","626.9000000357628","","","","51","0,0,1","0","coast","25","probe-112","0.2792113459317984","0.09984413772618965","0.9125943423080921","1","","","","","","","",""
"","do_trial","87","634584","0.0-67.0-0.0","661.3000000119209","","","","51","1,0,1","0","coast","26","probe-236","0.25308873123538494","0.23260855843549622","0.8699269461314008","1","","","","","","","",""
"","do_trial","88","639437","0.0-68.0-0.0","307.5","","","","51","0,0,1","0","coast","27","probe-27","0.2841461053544733","0.2202848299220732","0.7843644252238038","1","","","","","","","",""
"","do_trial","89","644406","0.0-69.0-0.0","423.89999997615814","","","","51","0,0,1","0","coast","28","probe-41","0.28451945678901086","0.25089160925858023","0.8501317160646978","1","","","","","","","",""
"","do_trial","90","649278","0.0-70.0-0.0","326.0999999642372","","","","51","0,0,1","0","coast","29","probe-14","0.4462290142891001","0.07186778965380654","0.7377322768762783","1","","","","","","","",""
"","do_trial","91","654145","0.0-71.0-0.0","322.30000001192093","","","","51","1,0,1","0","coast","30","probe-50","0.5451086282022509","0.10777326437901716","0.8834282414438169","1","","","","","","","",""
"","do_trial","92","659103","0.0-72.0-0.0","413.5","","","","51","0,0,0","0","coast","31","probe-61","0.5236251414279591","0.1554478620691739","0.7987008919927316","0","","","","","","","",""
"","do_trial","93","663980","0.0-73.0-0.0","331.30000001192093","","","","51","0,0,0","0","coast","32","probe-186","0.464880888438155","0.0977948885704768","0.8425492351606484","0","","","","","","","",""
"","do_trial","94","668956","0.0-74.0-0.0","430.69999998807907","","","","51","1,0,1","0","coast","33","probe-171","0.5497432342082496","0.1643534780042091","0.7633566476657895","1","","","","","","","",""
"","do_trial","95","674019","0.0-75.0-0.0","518.2000000476837","","","","51","1,0,1","0","coast","34","probe-18","0.5449789278639888","0.17975060177918173","0.6612548869982271","1","","","","","","","",""
"","do_trial","96","679090","0.0-76.0-0.0","525.5","","","","51","0,0,1","0","coast","35","probe-15","0.38645528896143694","0.0938612749519566","0.6444996023006613","1","","","","","","","",""
"","do_trial","97","684214","0.0-77.0-0.0","579.8000000119209","","","","51","1,0,0","0","coast","36","probe-166","0.4071731250511094","0.10071393691723803","0.7530747253644803","0","","","","","","","",""
"","do_trial","98","689226","0.0-78.0-0.0","468","","","","51","0,0,1","0","coast","37","probe-132","0.3450366102761096","0.060798376931075905","0.8141991514117725","1","","","","","","","",""
"","do_trial","99","694391","0.0-79.0-0.0","618.5","","","","51","1,0,1","0","coast","38","probe-194","0.4391261899310523","0.2103126387736885","0.8455831757769687","1","","","","","","","",""
"","do_trial","100","699257","0.0-80.0-0.0","319.30000001192093","","","","51","0,0,1","0","coast","39","probe-200","0.38549030153356284","0.06774825518276499","0.7730023981383387","1","","","","","","","",""
"","do_bye","101","700762","0.0-81.0-0.0","null","","","","null","","","","","","","","","","","","","","","","",""
"","do_travel","102","706769","0.0-82.0-0.0","null","","","","null","","","","","","","","","","","","","","","","",""
"","do_welcome","103","708278","0.0-82.0-1.0","null","","","","null","","","","","","","","","","","","","","","","",""
"","do_trial","104","715805","0.0-83.0-0.0","2981.300000011921","","","","49","1,0,1","1","mountain","40","probe-161","0.3984384784055148","0.09459881307569946","1","1","","","","","","","",""
"","do_trial","105","721338","0.0-84.0-0.0","987.5","","","","50","1,0,1","1","mountain","41","probe-63","0.3906453665939356","0.11276570839532292","1","0","","","","","","","",""
"","do_trial","106","726322","0.0-85.0-0.0","437.5","","","","51","0,0,1","1","mountain","42","probe-199","0.5266674280256108","0.09389344871922767","1","1","","","","","","","",""
"","do_trial","107","731560","0.0-86.0-0.0","692","","","","49","1,0,1","1","mountain","43","probe-45","0.49438256604944025","0.05559787508190546","1","1","","","","","","","",""
"","do_trial","108","736601","0.0-87.0-0.0","495.7000000476837","","","","49","0,0,1","1","mountain","44","probe-10","0.4227921168082901","0.05961370847828529","0.9074111937788142","0","","","","","","","",""
"","do_trial","109","741634","0.0-88.0-0.0","487.19999998807907","","","","51","0,0,1","1","mountain","45","probe-66","0.4287476566161584","0.13002511022341634","0.8997262706414833","1","","","","","","","",""
"","do_trial","110","746545","0.0-89.0-0.0","367.30000001192093","","","","51","1,0,1","1","mountain","46","probe-106","0.39280715330269755","0.07904873437258016","0.8615872233888466","1","","","","","","","",""
"","do_trial","111","751872","0.0-90.0-0.0","783.1000000238419","","","","51","0,0,1","1","mountain","47","probe-81","0.44609749961279116","0.08796502064175316","0.7350085413897385","1","","","","","","","",""
"","do_trial","112","757885","0.0-91.0-0.0","1467.3999999761581","","","","51","0,0,1","1","mountain","48","probe-24","0.38960880866739106","0.13719481105462578","0.8321531039763737","1","","","","","","","",""
"","do_trial","113","762713","0.0-92.0-0.0","282.69999998807907","","","","51","1,0,0","1","mountain","49","probe-126","0.36767528886239936","0.18715379687073833","0.7862559674756305","0","","","","","","","",""
"","do_trial","114","767573","0.0-93.0-0.0","318.5","","","","51","1,1,0","1","mountain","50","probe-170","0.751939800460878","0.1417561668279413","0.5046586624109224","0","","","","","","","",""
"","do_trial","115","773445","0.0-94.0-0.0","1330.5","","","","51","1,0,0","1","mountain","51","probe-30","0.7404102889682261","0.13816597699654765","0.4416408359276202","0","","","","","","","",""
"","do_trial","116","778526","0.0-95.0-0.0","538.2000000476837","","","","51","0,0,0","1","mountain","52","probe-64","0.7282089724669968","0.06129447855269211","0.5210328415320964","0","","","","","","","",""
"","do_trial","117","783389","0.0-96.0-0.0","321.5999999642372","","","","49","1,0,0","1","mountain","53","probe-212","0.7979801217748904","0.17868232037974072","0.4932625618909663","1","","","","","","","",""
"","do_trial","118","789529","0.0-97.0-0.0","1598.6000000238419","","","","51","1,0,1","1","mountain","54","probe-114","0.8275447184075374","0.2107200440416196","0.4092605180304259","1","","","","","","","",""
"","do_trial","119","794379","0.0-98.0-0.0","303.80000001192093","","","","51","1,0,1","1","mountain","55","probe-175","0.6228037697103593","0.20554110923336263","0.37040695537904805","1","","","","","","","",""
"","do_trial","120","799223","0.0-99.0-0.0","297.80000001192093","","","","50","1,0,1","1","mountain","56","probe-147","0.6418213461557205","0.22820386704051335","0.3341475569362411","0","","","","","","","",""
"","do_trial","121","804089","0.0-100.0-0.0","323.30000001192093","","","","50","1,0,0","1","mountain","57","probe-108","0.6783586078899516","0.2715552207257738","0.5296766580788819","0","","","","","","","",""
"","do_trial","122","808929","0.0-101.0-0.0","298.69999998807907","","","","49","1,0,1","1","mountain","58","probe-85","0.7444205329451943","0.07101394078060995","0.5547078589553222","1","","","","","","","",""
"","do_trial","123","813828","0.0-102.0-0.0","352.9000000357628","","","","49","0,1,0","1","mountain","59","probe-90","0.833665035741895","0.1981836346081934","0.2570160526173399","0","","","","","","","",""
"","do_trial","124","819042","0.0-103.0-0.0","671.8999999761581","","","","49","1,0,1","1","mountain","60","probe-135","0.7702957631159604","0.1749642388415054","0.2594558676991666","1","","","","","","","",""
"","do_trial","125","823993","0.0-104.0-0.0","408.30000001192093","","","","49","1,0,0","1","mountain","61","probe-150","0.7096006039249072","0.14875441336449952","0.3240221326759305","1","","","","","","","",""
"","do_trial","126","830273","0.0-105.0-0.0","1736.5","","","","51","1,0,0","1","mountain","62","probe-101","0.7671288978463103","0.06413389685779591","0.36303436933352856","0","","","","","","","",""
"","do_trial","127","835554","0.0-106.0-0.0","736.6000000238419","","","","49","0,0,1","1","mountain","63","probe-127","0.6994641920470099","0.08966550926738794","0.3026738852400667","0","","","","","","","",""
"","do_trial","128","840887","0.0-107.0-0.0","791.1000000238419","","","","50","0,0,0","1","mountain","64","probe-56","0.6770425515306365","0.07493338839677215","0.4020175692853363","0","","","","","","","",""
"","do_trial","129","845830","0.0-108.0-0.0","397.89999997615814","","","","51","1,0,1","1","mountain","65","probe-78","0.7511706604657156","0.1710670778117559","0.426255835102027","1","","","","","","","",""
"","do_trial","130","851380","0.0-109.0-0.0","1006.8000000119209","","","","50","0,0,1","1","mountain","66","probe-229","0.6869623889922717","0.16004670138486152","0.3545301094480232","0","","","","","","","",""
"","do_trial","131","856452","0.0-110.0-0.0","528.2999999523163","","","","49","1,0,1","1","mountain","67","probe-54","0.8054271213526201","0.1643269643973764","0.370529076269015","1","","","","","","","",""
"","do_trial","132","862853","0.0-111.0-0.0","1862.300000011921","","","","51","1,0,1","1","mountain","68","probe-215","0.9320613502791691","0.05880603292001472","0.5211301162549745","1","","","","","","","",""
"","do_trial","133","867807","0.0-112.0-0.0","409.2000000476837","","","","51","0,1,0","1","mountain","69","probe-44","0.8217484969304473","0.11836874952616423","0.5870316339363499","0","","","","","","","",""
"","do_trial","134","872994","0.0-113.0-0.0","635.5","","","","51","0,0,1","1","mountain","70","probe-53","0.7261993486206836","0.10995105060773122","0.5313611536978299","1","","","","","","","",""
"","do_trial","135","878141","0.0-114.0-0.0","601.1999999880791","","","","50","0,0,0","1","mountain","71","probe-59","0.8668275355551163","0.08953879856674249","0.5338070715761645","0","","","","","","","",""
"","do_trial","136","883026","0.0-115.0-0.0","338.2999999523163","","","","51","0,0,1","1","mountain","72","probe-210","0.7461131580852449","0.16423357633123917","0.4365607460919968","1","","","","","","","",""
"","do_trial","137","887895","0.0-116.0-0.0","323.7999999523163","","","","51","1,0,0","1","mountain","73","probe-136","0.5699675039192885","0.05610046909338362","0.4781348601585345","0","","","","","","","",""
"","do_trial","138","892717","0.0-117.0-0.0","279.19999998807907","","","","49","1,1,0","1","mountain","74","probe-71","0.6750481401181727","0.050924069166068515","0.35647682110614326","1","","","","","","","",""
"","do_trial","139","897564","0.0-118.0-0.0","302.69999998807907","","","","51","1,0,1","1","mountain","75","probe-131","0.7527380687737164","0.07262755139673047","0.313541562790594","1","","","","","","","",""
"","do_trial","140","902520","0.0-119.0-0.0","410.80000001192093","","","","51","0,0,1","1","mountain","76","probe-168","0.8403925655262636","0.09629816372871487","0.28638604979985227","1","","","","","","","",""
"","do_trial","141","907315","0.0-120.0-0.0","248.5","","","","51","0,1,0","1","mountain","77","probe-89","0.8371357890057306","0.05548205759146284","0.3682015429065473","0","","","","","","","",""
"","do_trial","142","912440","0.0-121.0-0.0","582.6999999880791","","","","49","1,0,0","1","mountain","78","probe-232","0.8464099461332434","0.07493805198692435","0.2763873870517245","1","","","","","","","",""
"","do_trial","143","918486","0.0-122.0-0.0","null","","","","null","1,0,1","1","mountain","79","probe-35","0.8254691194776328","0.1181141979239156","0.4862670114945787","","","","","","","","",""
"","do_bye","144","919994","0.0-123.0-0.0","null","","","","null","","","","","","","","","","","","","","","","",""
"","do_travel","145","925997","0.0-124.0-0.0","null","","","","null","","","","","","","","","","","","","","","","",""
"","do_welcome","146","927506","0.0-124.0-1.0","null","","","","null","","","","","","","","","","","","","","","","",""
"","do_trial","147","932814","0.0-125.0-0.0","761.3999999761581","","","","49","1,0,0","2","highway","80","probe-138","1","0.28789737365628204","0.6486639626996958","1","","","","","","","",""
"","do_trial","148","938222","0.0-126.0-0.0","861.8999999761581","","","","51","1,0,1","2","highway","81","probe-208","1","0.17460704284100723","0.5882600244245147","1","","","","","","","",""
"","do_trial","149","943465","0.0-127.0-0.0","702.1000000238419","","","","51","1,0,1","2","highway","82","probe-51","1","0.06078490869523231","0.5137230021801442","1","","","","","","","",""
"","do_trial","150","948532","0.0-128.0-0.0","523.7999999523163","","","","49","1,1,1","2","highway","83","probe-144","1","0.1782933548524934","0.5627194784740002","1","","","","","","","",""
"","do_trial","151","953409","0.0-129.0-0.0","334","","","","50","1,1,0","2","highway","84","probe-88","0.8951541206687758","0.18185125835805488","0.5985999165840584","1","","","","","","","",""
"","do_trial","152","959311","0.0-130.0-0.0","1355.5999999642372","","","","51","1,0,1","2","highway","85","probe-184","0.8262196455194841","0.24178942167553893","0.5642763241895663","1","","","","","","","",""
"","do_trial","153","964697","0.0-131.0-0.0","843.6999999880791","","","","49","1,0,0","2","highway","86","probe-181","0.8260795566687973","0.10062209809102347","0.5762671212606643","1","","","","","","","",""
"","do_trial","154","969858","0.0-132.0-0.0","620.5999999642372","","","","50","1,0,0","2","highway","87","probe-31","0.6966582718698214","0.12088599697912383","0.542443853792347","0","","","","","","","",""
"","do_trial","155","974800","0.0-133.0-0.0","397.19999998807907","","","","51","0,0,0","2","highway","88","probe-185","0.5832907390534475","0.23472041092763704","0.570680628902999","0","","","","","","","",""
"","do_trial","156","979842","0.0-134.0-0.0","495.2000000476837","","","","50","0,0,1","2","highway","89","probe-239","0.625754302028493","0.0564104252084312","0.6636215407227847","0","","","","","","","",""
"","do_trial","157","985014","0.0-135.0-0.0","628.8000000119209","","","","49","1,1,1","2","highway","90","probe-123","0.28738122333992444","0.3885409647727758","0.5914071412753704","1","","","","","","","",""
"","do_trial","158","990690","0.0-136.0-0.0","1128.3999999761581","","","","49","0,0,0","2","highway","91","probe-95","0.15329280001056728","0.5405088232521548","0.5060967138415111","0","","","","","","","",""
"","do_trial","159","995701","0.0-137.0-0.0","465.5","","","","50","0,1,1","2","highway","92","probe-196","0.13764205454653258","0.7648654898037888","0.3577692746504419","1","","","","","","","",""
"","do_trial","160","1000759","0.0-138.0-0.0","511.5","","","","50","0,1,0","2","highway","93","probe-87","0.1358215603715844","0.8572057026626027","0.32283354605170594","1","","","","","","","",""
"","do_trial","161","1006019","0.0-139.0-0.0","713.3999999761581","","","","50","1,0,1","2","highway","94","probe-05","0.18611834075406036","0.7853944222062432","0.31559998290302027","0","","","","","","","",""
"","do_trial","162","1010976","0.0-140.0-0.0","410","","","","49","0,1,0","2","highway","95","probe-157","0.1093698001248621","0.8667831775383096","0.2431953753698548","0","","","","","","","",""
"","do_trial","163","1015735","0.0-141.0-0.0","216.4000000357628","","","","51","0,1,0","2","highway","96","probe-34","0.08961344627768296","0.8610862422531058","0.3124479673155933","0","","","","","","","",""
"","do_trial","164","1020588","0.0-142.0-0.0","311.10000002384186","","","","50","0,1,1","2","highway","97","probe-105","0.05782299033722769","0.9383094586161005","0.43915638313651456","1","","","","","","","",""
"","do_trial","165","1025449","0.0-143.0-0.0","321.30000001192093","","","","51","0,1,0","2","highway","98","probe-221","0.08350008851094654","0.9000757863935579","0.45108647788991313","0","","","","","","","",""
"","do_trial","166","1030864","0.0-144.0-0.0","871","","","","49","0,1,1","2","highway","99","probe-40","0.16271722354284804","0.8190624444719705","0.430614671894037","0","","","","","","","",""
"","do_trial","167","1036055","0.0-145.0-0.0","646.8999999761581","","","","49","1,1,0","2","highway","100","probe-165","0.20304131671015505","0.7956060318477651","0.552809386369581","1","","","","","","","",""
"","do_trial","168","1041052","0.0-146.0-0.0","455.69999998807907","","","","50","0,1,0","2","highway","101","probe-180","0.07505883487755431","0.8655597915197418","0.5142600681836557","1","","","","","","","",""
"","do_trial","169","1047933","0.0-147.0-0.0","2335.100000023842","","","","50","1,1,0","2","highway","102","probe-198","0.11663255797327997","0.8296970023108723","0.5136475529337298","1","","","","","","","",""
"","do_trial","170","1053287","0.0-148.0-0.0","807.6999999880791","","","","50","1,1,1","2","highway","103","probe-48","0.1617943435295852","0.7160384471409299","0.5156983512522095","1","","","","","","","",""
"","do_trial","171","1058436","0.0-149.0-0.0","603","","","","50","0,1,1","2","highway","104","probe-116","0.15113438656636688","0.7012148478272603","0.6865118553818212","1","","","","","","","",""
"","do_trial","172","1063297","0.0-150.0-0.0","317.5","","","","50","0,1,0","2","highway","105","probe-230","0.06619700369366889","0.7834979408815511","0.6503700450739013","1","","","","","","","",""
"","do_trial","173","1068206","0.0-151.0-0.0","366.5999999642372","","","","50","0,1,1","2","highway","106","probe-183","0.07272086209328153","0.7766766618364459","0.5271490436483314","1","","","","","","","",""
"","do_trial","174","1073164","0.0-152.0-0.0","410.60000002384186","","","","50","0,0,1","2","highway","107","probe-223","0.06004452532443085","0.7446046973084575","0.4237815127171678","0","","","","","","","",""
"","do_trial","175","1078020","0.0-153.0-0.0","310.69999998807907","","","","50","0,0,0","2","highway","108","probe-33","0.10564896455202644","0.8268238738418972","0.5122029624195643","0","","","","","","","",""
"","do_trial","176","1082866","0.0-154.0-0.0","301.10000002384186","","","","50","0,1,0","2","highway","109","probe-156","0.08234270527315136","0.8172698774848925","0.45785596116926947","1","","","","","","","",""
"","do_trial","177","1088018","0.0-155.0-0.0","605.4000000357628","","","","50","0,0,1","2","highway","110","probe-195","0.09120373749472163","0.6652832979641263","0.4822820095379136","0","","","","","","","",""
"","do_trial","178","1092925","0.0-156.0-0.0","364.7000000476837","","","","50","0,1,1","2","highway","111","probe-122","0.057905807256702475","0.7311548190821114","0.553731210288612","1","","","","","","","",""
"","do_trial","179","1097890","0.0-157.0-0.0","419.5999999642372","","","","50","0,1,0","2","highway","112","probe-167","0.1212913410622598","0.774181722373106","0.5226629661288678","1","","","","","","","",""
"","do_trial","180","1103659","0.0-158.0-0.0","1221.8999999761581","","","","50","0,1,0","2","highway","113","probe-139","0.11187374523531479","0.780057819910448","0.5292766413079839","1","","","","","","","",""
"","do_trial","181","1108702","0.0-159.0-0.0","499","","","","50","0,1,0","2","highway","114","probe-209","0.1783715132710724","0.8487205293605616","0.48378913694343556","1","","","","","","","",""
"","do_trial","182","1113481","0.0-160.0-0.0","235.5","","","","50","1,1,0","2","highway","115","probe-23","0.1600016081078054","0.8324383387039822","0.3124177240622101","1","","","","","","","",""
"","do_trial","183","1118299","0.0-161.0-0.0","275.69999998807907","","","","50","0,0,0","2","highway","116","probe-62","0.11133026474743617","0.6675251957853354","0.33880242361021123","0","","","","","","","",""
"","do_trial","184","1123094","0.0-162.0-0.0","249.39999997615814","","","","50","0,1,1","2","highway","117","probe-79","0.2398074779424026","0.6534919018861141","0.45184608797487885","1","","","","","","","",""
"","do_trial","185","1127970","0.0-163.0-0.0","333.19999998807907","","","","50","0,1,0","2","highway","118","probe-128","0.1711248188746032","0.8855774029319958","0.36623243728473426","1","","","","","","","",""
"","do_trial","186","1133002","0.0-164.0-0.0","494","","","","50","0,1,0","2","highway","119","probe-203","0.2025992640741601","0.8396702159551513","0.32779932482599333","1","","","","","","","",""
"","do_bye","187","1134507","0.0-165.0-0.0","null","","","","null","","","","","","","","","","","","","","","","",""
"","do_travel","188","1140511","0.0-166.0-0.0","null","","","","null","","","","","","","","","","","","","","","","",""
"","do_welcome","189","1142021","0.0-166.0-1.0","null","","","","null","","","","","","","","","","","","","","","","",""
"","do_trial","190","1147869","0.0-167.0-0.0","1303.6000000238419","","","","51","0,1,0","3","countryside","120","probe-189","0.20986640361001196","1","0.2985700487919457","0","","","","","","","",""
"","do_trial","191","1153101","0.0-168.0-0.0","687.5999999642372","","","","51","0,1,0","3","countryside","121","probe-160","0.259531630501147","1","0.3728300768714977","0","","","","","","","",""
"","do_trial","192","1158150","0.0-169.0-0.0","506.80000001192093","","","","49","0,1,1","3","countryside","122","probe-39","0.28910051555571303","1","0.4012697631809521","0","","","","","","","",""
"","do_trial","193","1163004","0.0-170.0-0.0","312","","","","50","0,1,1","3","countryside","123","probe-124","0.10921515727472458","1","0.34975698020912227","1","","","","","","","",""
"","do_trial","194","1167870","0.0-171.0-0.0","321.39999997615814","","","","50","0,1,0","3","countryside","124","probe-09","0.05698319797245906","0.8653891589938397","0.3891914760044528","1","","","","","","","",""
"","do_trial","195","1172685","0.0-172.0-0.0","272.69999998807907","","","","50","0,0,0","3","countryside","125","probe-36","0.06304607890727201","0.8071027438820123","0.5252972704699753","0","","","","","","","",""
"","do_trial","196","1177591","0.0-173.0-0.0","360.4000000357628","","","","51","0,1,1","3","countryside","126","probe-55","0.10814713980484586","0.8107825567070448","0.6006881804298437","1","","","","","","","",""
"","do_trial","197","1182486","0.0-174.0-0.0","348.9000000357628","","","","51","0,1,0","3","countryside","127","probe-94","0.12220737223598285","0.9241869869549695","0.42887737543741056","0","","","","","","","",""
"","do_trial","198","1187413","0.0-175.0-0.0","379.89999997615814","","","","51","0,1,1","3","countryside","128","probe-237","0.12069402194062162","0.8784294152058195","0.48306435371715395","1","","","","","","","",""
"","do_trial","199","1192245","0.0-176.0-0.0","289.39999997615814","","","","51","0,1,1","3","countryside","129","probe-224","0.07626306417031391","0.8576556317148882","0.5046206024654267","1","","","","","","","",""
"","do_trial","200","1197438","0.0-177.0-0.0","648.6999999880791","","","","51","1,0,1","3","countryside","130","probe-99","0.4274754081798314","0.6224793646194173","0.4078388419514793","1","","","","","","","",""
"","do_trial","201","1202263","0.0-178.0-0.0","282.30000001192093","","","","51","0,1,0","3","countryside","131","probe-233","0.533960110312437","0.4850951674061634","0.3717091140360907","0","","","","","","","",""
"","do_trial","202","1207341","0.0-179.0-0.0","532.4000000357628","","","","51","1,0,0","3","countryside","132","probe-32","0.6767906571940797","0.33958876495806123","0.29364411340754176","0","","","","","","","",""
"","do_trial","203","1212835","0.0-180.0-0.0","953.4000000357628","","","","51","1,1,0","3","countryside","133","probe-113","0.5591375061006375","0.23276159222134213","0.3251935179200344","0","","","","","","","",""
"","do_trial","204","1217737","0.0-181.0-0.0","358.5999999642372","","","","51","0,0,0","3","countryside","134","probe-219","0.7563968049984737","0.1682067653735679","0.2614687140016975","0","","","","","","","",""
"","do_trial","205","1222734","0.0-182.0-0.0","455.69999998807907","","","","49","1,0,0","3","countryside","135","probe-222","0.6687084487094979","0.17272104208678243","0.2815299534277801","1","","","","","","","",""
"","do_trial","206","1227965","0.0-183.0-0.0","684.8999999761581","","","","49","1,0,1","3","countryside","136","probe-01","0.6748522133290068","0.15211979285478386","0.3489192142848141","1","","","","","","","",""
"","do_trial","207","1232902","0.0-184.0-0.0","393.0999999642372","","","","49","0,0,0","3","countryside","137","probe-83","0.711841655813816","0.1658772362829648","0.30483272337415235","0","","","","","","","",""
"","do_trial","208","1237662","0.0-185.0-0.0","216.5999999642372","","","","50","0,0,1","3","countryside","138","probe-52","0.7280350748452492","0.2276542398665331","0.23772412675562066","0","","","","","","","",""
"","do_trial","209","1242971","0.0-186.0-0.0","763.3000000119209","","","","51","1,0,0","3","countryside","139","probe-70","0.8385232769070006","0.1381321723596608","0.08426798046947209","0","","","","","","","",""
"","do_trial","210","1247959","0.0-187.0-0.0","445.19999998807907","","","","49","0,0,0","3","countryside","140","probe-130","0.9055772854473878","0.2086293850484159","0.18266246470378744","0","","","","","","","",""
"","do_trial","211","1252828","0.0-188.0-0.0","325.9000000357628","","","","50","1,1,0","3","countryside","141","probe-43","0.9225959359539633","0.2318582345834581","0.2764578486161535","1","","","","","","","",""
"","do_trial","212","1257773","0.0-189.0-0.0","404.5","","","","50","1,0,1","3","countryside","142","probe-204","0.8966606313300473","0.109500790112306","0.4410138471689025","0","","","","","","","",""
"","do_trial","213","1262632","0.0-190.0-0.0","312.4000000357628","","","","51","1,1,0","3","countryside","143","probe-216","0.8507185867139943","0.19665864238297406","0.5340567380067025","0","","","","","","","",""
"","do_trial","214","1267522","0.0-191.0-0.0","346.80000001192093","","","","49","1,0,0","3","countryside","144","probe-69","0.9320403442133111","0.21024695427110746","0.4528127281135168","1","","","","","","","",""
"","do_trial","215","1272703","0.0-192.0-0.0","635.1999999880791","","","","49","1,0,0","3","countryside","145","probe-133","0.9169666091325257","0.14311055187297025","0.2957859852388996","1","","","","","","","",""
"","do_trial","216","1277576","0.0-193.0-0.0","334.19999998807907","","","","49","0,0,0","3","countryside","146","probe-08","0.834668216577816","0.07584606460671815","0.16567534163318087","0","","","","","","","",""
"","do_trial","217","1282437","0.0-194.0-0.0","315.5","","","","51","1,0,0","3","countryside","147","probe-92","0.7813863898626425","0.1761469773577319","0.15966151538939496","0","","","","","","","",""
"","do_trial","218","1287468","0.0-195.0-0.0","486","","","","49","1,1,0","3","countryside","148","probe-26","0.871729819940504","0.16901092053021743","0.27248058451033286","1","","","","","","","",""
"","do_trial","219","1292333","0.0-196.0-0.0","324.4000000357628","","","","49","1,0,0","3","countryside","149","probe-164","0.7740415975360111","0.16100672407992114","0.38379693356422345","1","","","","","","","",""
"","do_trial","220","1297465","0.0-197.0-0.0","589.6000000238419","","","","49","1,0,0","3","countryside","150","probe-57","0.8714254052262702","0.13598418452745184","0.37419326017448146","1","","","","","","","",""
"","do_trial","221","1302338","0.0-198.0-0.0","329.4000000357628","","","","49","1,0,0","3","countryside","151","probe-213","0.8141531388667725","0.14580764124350223","0.44325619927042587","1","","","","","","","",""
"","do_trial","222","1307244","0.0-199.0-0.0","364.30000001192093","","","","49","1,0,0","3","countryside","152","probe-182","0.9276557852673233","0.06396549862117794","0.350521498937377","1","","","","","","","",""
"","do_trial","223","1312243","0.0-200.0-0.0","450.19999998807907","","","","49","1,0,0","3","countryside","153","probe-07","0.723529619539877","0.17218474394391878","0.29057989800306383","1","","","","","","","",""
"","do_trial","224","1317068","0.0-201.0-0.0","279.10000002384186","","","","49","1,0,0","3","countryside","154","probe-146","0.9014625365832462","0.3281410332275836","0.3754603909550381","1","","","","","","","",""
"","do_trial","225","1321999","0.0-202.0-0.0","384.7000000476837","","","","49","1,1,1","3","countryside","155","probe-192","0.8031974952317295","0.1998779348956812","0.4081491219610075","1","","","","","","","",""
"","do_trial","226","1327018","0.0-203.0-0.0","473.30000001192093","","","","49","1,1,0","3","countryside","156","probe-60","0.877684424486526","0.16136056237047566","0.3577600862733151","1","","","","","","","",""
"","do_trial","227","1331892","0.0-204.0-0.0","328.80000001192093","","","","49","0,0,0","3","countryside","157","probe-143","0.9142739690594341","0.07619896369966636","0.34915511698334106","0","","","","","","","",""
"","do_trial","228","1337039","0.0-205.0-0.0","600.3000000119209","","","","50","1,0,0","3","countryside","158","probe-38","0.8298548027472298","0.13734576283033503","0.31098842458313236","0","","","","","","","",""
"","do_trial","229","1341921","0.0-206.0-0.0","336.5","","","","49","1,0,0","3","countryside","159","probe-102","0.7550262344481604","0.08367249598828626","0.31088585081489517","1","","","","","","","",""
"","do_bye","230","1343429","0.0-207.0-0.0","null","","","","null","","","","","","","","","","","","","","","","",""
"","do_travel","231","1349433","0.0-208.0-0.0","null","","","","null","","","","","","","","","","","","","","","","",""
"","do_welcome","232","1350942","0.0-208.0-1.0","null","","","","null","","","","","","","","","","","","","","","","",""
"","do_trial","233","1356988","0.0-209.0-0.0","null","","","","null","1,0,1","4","city","160","probe-226","1","0.06866094263384336","0.25833516601110407","","","","","","","","",""
"","do_trial","234","1362085","0.0-210.0-0.0","552.8000000119209","","","","49","1,0,0","4","city","161","probe-169","1","0.18521538041557314","0.1118694566304489","1","","","","","","","",""
"","do_trial","235","1367283","0.0-211.0-0.0","653.3000000119209","","","","49","1,0,1","4","city","162","probe-96","1","0.057466145593647246","0.3274314150393736","1","","","","","","","",""
"","do_trial","236","1372267","0.0-212.0-0.0","439.89999997615814","","","","49","1,0,0","4","city","163","probe-193","1","0.1481211687955739","0.3768633867539191","1","","","","","","","",""
"","do_trial","237","1377217","0.0-213.0-0.0","407.60000002384186","","","","49","1,0,0","4","city","164","probe-148","0.9061971454771771","0.137474568886991","0.20955266245900248","1","","","","","","","",""
"","do_trial","238","1382261","0.0-214.0-0.0","497.39999997615814","","","","49","1,0,0","4","city","165","probe-197","0.8338060754907783","0.13717294822056184","0.3309698078094567","1","","","","","","","",""
"","do_trial","239","1387485","0.0-215.0-0.0","678.4000000357628","","","","49","1,0,1","4","city","166","probe-68","0.6802262970527096","0.07870182755707669","0.1805619081514012","1","","","","","","","",""
"","do_trial","240","1392468","0.0-216.0-0.0","438.19999998807907","","","","49","1,0,1","4","city","167","probe-235","0.7286791304994344","0.1797390042275614","0.38429440511477725","1","","","","","","","",""
"","do_trial","241","1397773","0.0-217.0-0.0","762.1999999880791","","","","49","0,1,0","4","city","168","probe-234","0.6818187988984165","0.2275827970129408","0.2957827043257834","0","","","","","","","",""
"","do_trial","242","1402775","0.0-218.0-0.0","456.5999999642372","","","","49","1,0,0","4","city","169","probe-06","0.5711575772508407","0.11370031984411266","0.20096471883932032","1","","","","","","","",""
"","do_trial","243","1407845","0.0-219.0-0.0","525","","","","49","0,1,0","4","city","170","probe-67","0.35113652762935277","0.34762854921714764","0.1916962765710938","0","","","","","","","",""
"","do_trial","244","1412676","0.0-220.0-0.0","292.69999998807907","","","","49","0,1,0","4","city","171","probe-110","0.21203023218015957","0.6033863175749609","0.36282110954084745","0","","","","","","","",""
"","do_trial","245","1417557","0.0-221.0-0.0","333.30000001192093","","","","49","0,0,0","4","city","172","probe-76","0.11034772808497413","0.5569101037034293","0.4284801393917621","0","","","","","","","",""
"","do_trial","246","1422491","0.0-222.0-0.0","388.69999998807907","","","","51","0,1,0","4","city","173","probe-42","0.11704819842297479","0.6957712767607457","0.5145977724284483","0","","","","","","","",""
"","do_trial","247","1427308","0.0-223.0-0.0","271.5","","","","51","0,0,1","4","city","174","probe-152","0.14361299931567734","0.7841004513385822","0.4084824175100855","1","","","","","","","",""
"","do_trial","248","1432137","0.0-224.0-0.0","285.19999998807907","","","","51","0,1,1","4","city","175","probe-58","0.09346665573001639","0.748525755633771","0.478995375593206","1","","","","","","","",""
"","do_trial","249","1437065","0.0-225.0-0.0","384.5999999642372","","","","51","1,0,0","4","city","176","probe-154","0.17254778210337193","0.6745847242220411","0.3738795756102797","0","","","","","","","",""
"","do_trial","250","1441891","0.0-226.0-0.0","285.30000001192093","","","","51","0,1,1","4","city","177","probe-137","0.11105296124218583","0.7189256256534884","0.4104915865847821","1","","","","","","","",""
"","do_trial","251","1446864","0.0-227.0-0.0","428.39999997615814","","","","51","0,1,1","4","city","178","probe-82","0.13964437315804698","0.8692573132506932","0.361385761106486","1","","","","","","","",""
"","do_trial","252","1451824","0.0-228.0-0.0","416.69999998807907","","","","51","0,1,0","4","city","179","probe-149","0.22513539015220588","0.6894379203086817","0.39122104346915737","0","","","","","","","",""
"","do_trial","253","1456828","0.0-229.0-0.0","458.69999998807907","","","","51","0,1,1","4","city","180","probe-231","0.2284288021769412","0.7135536086247123","0.48250476455530006","1","","","","","","","",""
"","do_trial","254","1462004","0.0-230.0-0.0","629.8999999761581","","","","51","0,1,0","4","city","181","probe-214","0.2383341755473257","0.8497726602985424","0.4847618049552786","0","","","","","","","",""
"","do_trial","255","1467009","0.0-231.0-0.0","461.39999997615814","","","","51","0,0,1","4","city","182","probe-49","0.16974231504820542","0.8775300564091555","0.27758415753468624","1","","","","","","","",""
"","do_trial","256","1471889","0.0-232.0-0.0","339.69999998807907","","","","51","1,1,0","4","city","183","probe-176","0.14043347869016107","0.8703845063031558","0.12725640811799463","0","","","","","","","",""
"","do_trial","257","1476694","0.0-233.0-0.0","260.30000001192093","","","","50","0,1,0","4","city","184","probe-125","0.2801905075210803","0.8704221135853168","0.2704008063323545","1","","","","","","","",""
"","do_trial","258","1481678","0.0-234.0-0.0","438","","","","50","0,1,1","4","city","185","probe-211","0.062105076966553874","0.8524174052011515","0.43565361655805435","1","","","","","","","",""
"","do_trial","259","1486520","0.0-235.0-0.0","297.5999999642372","","","","50","1,1,0","4","city","186","probe-37","0.19313866585060432","0.8113630299849683","0.2766786670505125","1","","","","","","","",""
"","do_trial","260","1491374","0.0-236.0-0.0","311.19999998807907","","","","50","1,1,0","4","city","187","probe-120","0.32626695802165545","0.731513591440349","0.4654542915935302","1","","","","","","","",""
"","do_trial","261","1496574","0.0-237.0-0.0","656.8999999761581","","","","50","0,0,0","4","city","188","probe-201","0.052071440051185185","0.7564538480258323","0.38164457957014264","0","","","","","","","",""
"","do_trial","262","1501432","0.0-238.0-0.0","316.19999998807907","","","","49","0,1,1","4","city","189","probe-217","0.13457350826436418","0.8754362433849916","0.427170784218723","0","","","","","","","",""
"","do_trial","263","1506239","0.0-239.0-0.0","261.5","","","","49","0,0,0","4","city","190","probe-77","0.14948517520735632","0.9257759102196585","0.2758361494854683","0","","","","","","","",""
"","do_trial","264","1511083","0.0-240.0-0.0","302.89999997615814","","","","51","0,1,1","4","city","191","probe-12","0.07337965036613038","0.937175580279822","0.5857686523635411","1","","","","","","","",""
"","do_trial","265","1516418","0.0-241.0-0.0","792.3000000119209","","","","51","0,0,1","4","city","192","probe-25","0.06826017851380375","0.8400940939192438","0.49302730335517214","1","","","","","","","",""
"","do_trial","266","1521410","0.0-242.0-0.0","448.0999999642372","","","","51","0,1,0","4","city","193","probe-74","0.06737490596571337","0.8715506409882686","0.4842028731002085","0","","","","","","","",""
"","do_trial","267","1527669","0.0-243.0-0.0","1712.300000011921","","","","51","1,1,1","4","city","194","probe-142","0.2776770635862556","0.8621671389979062","0.5222153978102886","1","","","","","","","",""
"","do_trial","268","1533574","0.0-244.0-0.0","1360","","","","50","0,1,0","4","city","195","probe-225","0.29008846588131","0.8010158615928701","0.4374499783113685","1","","","","","","","",""
"","do_trial","269","1538409","0.0-245.0-0.0","290.4000000357628","","","","51","0,0,0","4","city","196","probe-173","0.1141344532149975","0.747760054626585","0.4981471239229552","0","","","","","","","",""
"","do_trial","270","1543036","0.0-246.0-0.0","80.30000001192093","","","","51","0,1,1","4","city","197","probe-228","0.21649524377336196","0.7382238501090681","0.5600927074547309","1","","","","","","","",""
"","do_trial","271","1548168","0.0-247.0-0.0","587.1000000238419","","","","51","0,0,0","4","city","198","probe-141","0.10946739808379576","0.7004612977117063","0.412866854837345","0","","","","","","","",""
"","do_trial","272","1553168","0.0-248.0-0.0","455.30000001192093","","","","51","0,1,0","4","city","199","probe-97","0.12191177052786006","0.8049616671933084","0.3150119190414646","0","","","","","","","",""
"","do_bye","273","1554677","0.0-249.0-0.0","null","","","","null","","","","","","","","","","","","","","","","",""
"","do_travel","274","1560680","0.0-250.0-0.0","null","","","","null","","","","","","","","","","","","","","","","",""
"","do_welcome","275","1562189","0.0-250.0-1.0","null","","","","null","","","","","","","","","","","","","","","","",""
"","do_trial","276","1567540","0.0-251.0-0.0","808","","","","49","0,1,0","5","forest","200","probe-86","0.059147358091075575","1","0.2706441286622585","0","","","","","","","",""
"","do_trial","277","1572357","0.0-252.0-0.0","272.19999998807907","","","","50","0,1,1","5","forest","201","probe-220","0.11754692926042452","1","0.29927370627143096","1","","","","","","","",""
"","do_trial","278","1577363","0.0-253.0-0.0","461.2000000476837","","","","50","0,1,1","5","forest","202","probe-02","0.17720825257765277","1","0.2812162014146778","1","","","","","","","",""
"","do_trial","279","1582267","0.0-254.0-0.0","359.5","","","","50","0,1,1","5","forest","203","probe-21","0.0700169468129383","1","0.45020319574256706","1","","","","","","","",""
"","do_trial","280","1587403","0.0-255.0-0.0","595","","","","50","0,0,0","5","forest","204","probe-178","0.05193553234570548","0.9259545177273458","0.4118414442834946","0","","","","","","","",""
"","do_trial","281","1592237","0.0-256.0-0.0","287.80000001192093","","","","51","0,1,0","5","forest","205","probe-29","0.1008626723960241","0.8406563463983582","0.42053941135229317","0","","","","","","","",""
"","do_trial","282","1597190","0.0-257.0-0.0","411.5","","","","51","0,0,1","5","forest","206","probe-140","0.1291458051562358","0.7737032523026167","0.4393111341030953","1","","","","","","","",""
"","do_trial","283","1602106","0.0-258.0-0.0","373.10000002384186","","","","51","0,1,0","5","forest","207","probe-162","0.08222195229982854","0.8270153537695503","0.3157923921599798","0","","","","","","","",""
"","do_trial","284","1606927","0.0-259.0-0.0","275.30000001192093","","","","50","0,1,0","5","forest","208","probe-91","0.10487126338810089","0.8792030058191057","0.3247550720512619","1","","","","","","","",""
"","do_trial","285","1611892","0.0-260.0-0.0","421.4000000357628","","","","50","0,1,1","5","forest","209","probe-16","0.1162194574661515","0.9467000384907358","0.42443200559236915","1","","","","","","","",""
"","do_trial","286","1616798","0.0-261.0-0.0","359.5999999642372","","","","50","0,0,0","5","forest","210","probe-109","0.4734084561174804","0.6992990916310998","0.30426578588787023","0","","","","","","","",""
"","do_trial","287","1621807","0.0-262.0-0.0","465.19999998807907","","","","49","1,1,1","5","forest","211","probe-98","0.6501657369673447","0.6970430427957905","0.18982943243050426","1","","","","","","","",""
"","do_trial","288","1626836","0.0-263.0-0.0","486","","","","49","0,1,0","5","forest","212","probe-177","0.6056240027088845","0.6072788809495088","0.15563862780083595","0","","","","","","","",""
"","do_trial","289","1631634","0.0-264.0-0.0","254.30000001192093","","","","50","1,1,0","5","forest","213","probe-218","0.729345024036592","0.42515000112019236","0.16034755313287183","1","","","","","","","",""
"","do_trial","290","1636990","0.0-265.0-0.0","813.1000000238419","","","","50","1,1,1","5","forest","214","probe-104","0.940833745448787","0.2555713556739688","0.1594391158796859","1","","","","","","","",""
"","do_trial","291","1641885","0.0-266.0-0.0","348.60000002384186","","","","50","1,1,0","5","forest","215","probe-46","0.9335352695168878","0.327817028955985","0.09252051789382387","1","","","","","","","",""
"","do_trial","292","1646846","0.0-267.0-0.0","415.4000000357628","","","","50","0,1,0","5","forest","216","probe-17","0.7318268990743517","0.30264594918059096","0.06341685577411382","1","","","","","","","",""
"","do_trial","293","1652184","0.0-268.0-0.0","797","","","","50","0,0,0","5","forest","217","probe-238","0.7776353633575935","0.34159179079116564","0.1906401202057115","0","","","","","","","",""
"","do_trial","294","1657188","0.0-269.0-0.0","457.5999999642372","","","","50","1,1,0","5","forest","218","probe-20","0.8848880742374963","0.3173209741912509","0.21060352471501187","1","","","","","","","",""
"","do_trial","295","1662268","0.0-270.0-0.0","534.4000000357628","","","","50","1,0,0","5","forest","219","probe-100","0.7389138672196184","0.49881124411473865","0.09520833792319276","0","","","","","","","",""
"","do_trial","296","1667166","0.0-271.0-0.0","352.69999998807907","","","","50","1,0,0","5","forest","220","probe-240","0.6297048831340581","0.46731478878495764","0.3219614556927863","0","","","","","","","",""
"","do_trial","297","1672079","0.0-272.0-0.0","368","","","","50","1,1,0","5","forest","221","probe-75","0.7574474331870835","0.49680431945667103","0.11304575479273105","1","","","","","","","",""
"","do_trial","298","1676931","0.0-273.0-0.0","305.5","","","","50","0,0,0","5","forest","222","probe-207","0.7253890118625331","0.33529237603396167","0.16846485690694965","0","","","","","","","",""
"","do_trial","299","1681735","0.0-274.0-0.0","257.9000000357628","","","","50","1,0,0","5","forest","223","probe-172","0.8282101218635498","0.43091312712054874","0.17165743157559804","0","","","","","","","",""
"","do_trial","300","1686631","0.0-275.0-0.0","350.39999997615814","","","","50","1,0,0","5","forest","224","probe-145","0.9347660360916564","0.3673014499484984","0.07473493860302514","0","","","","","","","",""
"","do_trial","301","1691520","0.0-276.0-0.0","347.5","","","","50","1,0,0","5","forest","225","probe-84","0.8734226993789878","0.3939050342075753","0.13596966316743225","0","","","","","","","",""
"","do_trial","302","1696402","0.0-277.0-0.0","335.89999997615814","","","","50","1,0,0","5","forest","226","probe-117","0.8250175526697966","0.3391601488835781","0.06440467189905874","0","","","","","","","",""
"","do_trial","303","1701386","0.0-278.0-0.0","442.30000001192093","","","","50","1,1,0","5","forest","227","probe-158","0.9494635490952286","0.2983230286841325","0.06077446531784865","1","","","","","","","",""
"","do_trial","304","1706201","0.0-279.0-0.0","273.7000000476837","","","","50","1,1,0","5","forest","228","probe-65","0.8401295400490643","0.23943044641047465","0.09106639473599833","1","","","","","","","",""
"","do_trial","305","1711233","0.0-280.0-0.0","490.39999997615814","","","","50","1,0,0","5","forest","229","probe-47","0.840470266085288","0.39727887033283465","0.1721795111894317","0","","","","","","","",""
"","do_trial","306","1716085","0.0-281.0-0.0","306.30000001192093","","","","50","1,0,0","5","forest","230","probe-115","0.9076538093624358","0.46986594000023846","0.11099930858394239","0","","","","","","","",""
"","do_trial","307","1720946","0.0-282.0-0.0","314.5999999642372","","","","50","1,1,0","5","forest","231","probe-191","0.8171679688090774","0.50599378315355","0.1829999928082612","1","","","","","","","",""
"","do_trial","308","1726010","0.0-283.0-0.0","519.5999999642372","","","","50","1,0,1","5","forest","232","probe-103","0.7143037672226605","0.4711461827029423","0.21302880632996818","0","","","","","","","",""
"","do_trial","309","1731051","0.0-284.0-0.0","497.30000001192093","","","","50","1,0,0","5","forest","233","probe-121","0.7269635676646199","0.268767912230575","0.22418484746305217","0","","","","","","","",""
"","do_trial","310","1735985","0.0-285.0-0.0","389.69999998807907","","","","50","1,1,0","5","forest","234","probe-153","0.6608636159113034","0.4579410664808624","0.22761780150401592","1","","","","","","","",""
"","do_trial","311","1741486","0.0-286.0-0.0","956","","","","50","1,0,0","5","forest","235","probe-28","0.6137084202609775","0.47868186719620015","0.2415468239381475","0","","","","","","","",""
"","do_trial","312","1746407","0.0-287.0-0.0","379.30000001192093","","","","51","1,0,1","5","forest","236","probe-03","0.5861377262489591","0.5169732085137076","0.17714376482318886","1","","","","","","","",""
"","do_trial","313","1751527","0.0-288.0-0.0","573.6999999880791","","","","51","0,0,0","5","forest","237","probe-227","0.7447510984937101","0.5224226989944759","0.17216901712670057","0","","","","","","","",""
"","do_trial","314","1756831","0.0-289.0-0.0","758.3000000119209","","","","51","1,0,0","5","forest","238","probe-129","0.8029176370919894","0.49676247715712474","0.12767362080114933","0","","","","","","","",""
"","do_trial","315","1761746","0.0-290.0-0.0","368.5","","","","50","1,1,0","5","forest","239","probe-04","0.866156921888895","0.4395865683722148","0.10693907325267583","1","","","","","","","",""
"","do_bye","316","1763249","0.0-291.0-0.0","null","","","","null","","","","","","","","","","","","","","","","",""
"","html-keyboard-response","317","1768926","0.0-291.0-1.0","5675.400000035763","<div class='center'>You are all done with the first part of the experiment! Thank you for participating. Tomorrow, you will recieve an invite to participate in the next phase of the experiment which you must complete by the end of the day. <p><b>[Press the space bar to end the experiment]</b></p></div>","32","","","","","","","","","","","","0,2,4,1,5,3","10,106,117,189,205,173,187,158,79,133,110,186,71,21,12,150,18,201,178,204,118,154,162,72,92,111,235,26,40,13,49,60,185,170,17,14,165,131,193,199,160,62,198,44,9,65,105,80,23,125,169,29,63,211,113,174,146,107,84,89,134,149,100,126,55,77,228,53,214,43,52,58,209,135,70,130,167,88,231,34,137,207,50,143,87,183,180,30,184,238,122,94,195,86,4,156,33,104,220,39,164,179,197,47,115,229,182,222,32,155,194,121,166,138,208,22,61,78,127,202,188,159,38,123,8,35,54,93,236,223,98,232,31,112,218,221,0,82,51,69,129,42,203,215,68,132,7,91,25,163,56,212,181,6,145,191,59,142,37,101,225,168,95,192,147,196,67,234,233,5,66,109,75,41,151,57,153,136,81,148,230,213,48,175,124,210,36,119,200,216,76,11,24,73,141,224,172,227,140,96,85,219,1,20,177,28,139,161,90,15,108,97,176,217,103,45,16,237,19,99,239,74,206,171,144,83,116,157,64,46,114,190,102,120,152,27,2,226,128,3","18,1,5,16,12,2,11,10,6,13,14,9,15,17,7,4,8,3,0","1,0.928420199175743,0.8737341816490076,0.9008274570507624,0.8583104523285165,0.8149685272456693,0.9276256471673339,0.77752017723396,0.7033201327881359,0.77314186845794,0.4880179719298151,0.4314911536482538,0.3583507381888865,0.26336598872770156,0.23090999649773938,0.15714698780895014,0.08513318743594724,0.1262335847778726,0.14165748700066125,0.15168056282744555,0.18891917218387178,0.06269014691797041,0.07159086242003111,0.08954207706224895,0.08038996035854315,0.19474644504410868,0.13457123541555618,0.08286295086683514,0.059733088162140326,0.058773752354925116,0.05903861549056527,0.09005240183383802,0.062187222017817935,0.09647008780957489,0.20484705595143865,0.09953390398758462,0.11137638625043589,0.1814426425339175,0.18486274612741949,0.052027787812133845,0.08225939932799659,0.08736836026334452,0.11042788486840258,0.07685888629960477,0.1973555850740705,0.15921884973164366,0.10561636553196067,0.06033082259273325,0.09764334176063934,0.1472159430899738,0.15168830258578367,0.11234374955996067,0.09164737804338476,0.250586075891381,0.222673082751719,0.11596911761957782,0.16402971448650822,0.15038263075420696,0.13246277896928915,0.08882067988090153,0.17203886193695053,0.08994290250612115,0.21479132839131382,0.13673141384918153,0.08007110149433792,0.05252998800228136,0.10121354254452168,0.06170537772774006,0.095968457853287,0.2761813100658118,0.45706007831601425,0.6604439640296472,0.7272618356264218,0.7467017933116573,0.7824755175002346,0.8582213294004702,0.7707591426218481,0.6855084450755377,0.6813873721256315,0.8831327544793232,0.7976537177425032,0.6989898444499607,0.691755720696645,0.7023558679293385,0.8151188299783013,0.8379404384988688,0.8895687388275395,0.774258999568059,0.8525024361474123,0.7188735395602964,1,0.8453603247447002,0.8393654921386247,0.791627126350884,0.7374968717257327,0.6211471453660331,0.7358292363131597,0.7117247026894684,0.8149784352418934,0.8008833553471764,0.5647040467600225,0.4236645008936581,0.3289324731530632,0.22541023494067208,0.05527369683378531,0.07675996195451512,0.11726003382302688,0.14938053397517415,0.07809488738769123,0.14107383867686044,0.18617107798163215,0.2685420591327902,0.22833144562464422,0.06259170468307226,0.11769278908215115,0.16737623887286676,0.1503207287094199,0.13811921702843755,0.07122698560359707,0.14480197489948612,0.08174615841012753,0.07533493471065328,0.062098789294569044,0.09006387043257523,0.29020421662236895,0.27593016501568607,0.30596139884261847,0.17892746096455828,0.27281682163415155,0.18009827728495528,0.19784762956502,0.2227433383933458,0.18319026704156524,0.08192182049615716,0.09494671137025343,0.08940565727933232,0.08242698438266655,0.15256101285607832,0.07056545938623249,0.4173977309223759,0.6646109053023189,0.6870307622969481,0.6809648555124969,0.7184186340849932,0.7307592761525885,0.8007376171526689,0.8113913843242311,0.8379620216510492,0.7660765695824434,0.6621631605287509,1,0.9288853611552632,0.9479313407759596,0.8719366610535179,0.7668282577730289,0.7920833655335361,0.892444961275737,0.795156977495248,0.7645922132043939,0.7143800566570104,0.7185404249442958,0.5850250312935364,0.4292487930330063,0.3461636128229164,0.3403161728669603,0.2777528409095729,0.30860353513238314,0.2197278154491906,0.1594465702803654,0.13818807766420457,0.06643559573791599,0.11136491657292137,0.14554651976139324,0.12004752407194699,0.06628738160349788,0.18557776662292233,0.05008492915073269,0.10942183767816449,0.1659151226562826,0.08543886594642608","0.5539927219047803,0.5348977650573598,0.44033649861994223,0.5185359061415443,0.45837045943128213,0.5392619195640939,0.39934675712439716,0.47471731151576607,0.43590843793492157,0.33899517854492806,0.6164145075551807,0.571669580808029,0.6883904281852761,0.7519223786786762,0.7031558208835895,0.8193112547075518,0.7515147285592731,0.6455930417290946,0.7695254002630787,0.7441358972502953,0.7524119808986283,0.8275612440650878,0.8041188645949687,0.8058818559919874,0.7592889039791979,0.6492155546303232,0.8922143005632649,0.8602915905894751,0.9250792349175561,0.8140190960130855,1,0.8736484637198413,0.8415640743019637,0.829246302661138,0.6577492011303994,0.7236953152093719,0.7726922582311613,0.9397142831024161,0.8688376107581877,0.8589604917113612,0.818434255030016,0.8155761426997085,0.8109795168146786,0.5766172505811751,0.6605299702853527,0.5057052389292445,0.5091257048294393,0.43337440146314826,0.3168904387560725,0.2589308256199847,0.35638374164964703,0.2894207252752014,0.4696800130452845,0.3024179459397127,0.419003058920936,0.32274314968864354,0.2423124376634342,0.2944811598726145,0.2718236168692122,0.2703188415115292,0.16948728046684855,0.297186202177947,0.2603587050799234,0.3341902304059704,0.3303797338923185,0.30312389046468496,0.2961293125534454,0.3650938090184537,0.40163951883454324,0.42476261296042256,0.3688104120039946,0.21151826149404238,0.30684315794692313,0.3191742681079087,0.37178757119955935,0.34206497421046467,0.43303649012961437,0.4196979978427909,0.5449457746676931,0.6020559874326128,0.5633870982225727,0.48935555202186204,0.5490976914301102,0.5297080187863891,0.3900585356994813,0.4448130665909579,0.33769861407378954,0.2815643631565081,0.421243556974395,0.2951374691053539,0.4225669803399001,0.4606670130873125,0.5641295626595223,0.3740558358752027,0.2922297124238618,0.3918441662910469,0.4060082464299024,0.5200588771344902,0.39903080864648766,0.2897866737792101,0.47945836003026804,0.5522367950698261,0.7180454036911114,0.7089334048156076,0.880803059896133,0.8466686859812252,0.761850089157984,0.5923847305842681,0.6287344787531988,0.8226259450247058,0.732317058236495,0.9100539804397638,0.873424960415588,0.8345682180229408,0.7200815654009242,0.7238111575186786,0.6536556655356921,0.6589275050366697,0.6758364202759995,0.7413169807914709,1,0.8836519260018184,0.838085668212008,0.7339010444524198,0.6588189184441109,0.812695122043749,0.8131563620888987,0.8248528158719833,0.7253486957801464,0.6722788956338811,0.687464989586951,0.8268449523689558,0.8025531467187461,0.9001509430379119,0.8453057056141028,0.87283819284035,0.8041477776568712,0.8013837343284731,0.7399296941724579,0.6556186577735901,0.42674812112514937,0.2869831942717533,0.2572148225457412,0.09911305862042953,0.15457529318603247,0.13789681162332776,0.2541707429837853,0.21629461504859382,0.1260619391507926,0.05369047748926653,0.13109878312248585,0.11553250556834983,0.11852760665468058,0.19897485366232126,0.23823325284023764,0.0807771390086711,0.15966282597435735,0.25636443648620516,0.16288248971212516,0.11334992345166083,0.1842225215193809,0.25634066792991805,0.32234649478072497,0.26904855971498115,0.29658858782849956,0.28765877829188574,0.3346724068719544,0.4300277130086805,0.47650286726678287,0.3745111150113892,0.38991805477892655,0.4216767561043831,0.5066894127650678,0.4608898711109919,0.44505530623903794,0.5254992998916462,0.44822775138486004,0.38440093859935426,0.4133982289719678,0.3740513270479346","0.20895289218093155,0.17267372627546182,0.13749308480592393,0.08239400155264455,0.06130622659875229,0.19490270533567308,0.2645088908489393,0.3027228920707675,0.16601918915246308,0.19160595454449894,0.2756715992983295,0.34301701948463925,0.36259207471587024,0.3997026707512145,0.4531981934433375,0.4970410325239157,0.5127671507186566,0.504310229660048,0.3603780935312663,0.3335625981551381,0.37029994445663,0.3334088000071009,0.4660504428736665,0.4168667619697669,0.37299164057126094,0.36465694962856066,0.3581957884825323,0.395321220062359,0.26230343683441637,0.21982427266397508,0.4010697368571283,0.5508792278440692,0.4379113836989395,0.3725592085160192,0.3643896685319786,0.3441669708682117,0.32137228739914697,0.3840687999876215,0.42766324303627407,0.39206005114804254,0.42580908609599943,0.4387918018903392,0.46867518894994403,0.738331363876709,0.7848020315219542,0.8445688618549481,0.7576225283476775,0.7375342566768219,0.8216428127440304,0.8302952781625852,0.8216255041107045,0.7836819247387732,0.822863231318459,0.7980167544118711,0.7356280930686095,0.6919932818404793,0.7538433683843792,0.7863659374938751,0.7896749695442872,0.8361034315274074,1,0.8635406024819318,0.9181317388916418,0.8499933891568813,0.7824032802481492,0.5826676337753426,0.7741933881525165,0.7548148448200468,0.6862650974731237,0.8460153916129456,0.5132432921185953,0.40531119728276715,0.2467616715613804,0.22993441881175503,0.2473646851895409,0.31346145176779244,0.287399251180038,0.06279066251733294,0.15814277274807412,0.08331445560568679,0.11850900313751815,0.10820127762272364,0.141697844955581,0.059155395359797684,0.18761502520761808,0.05816663393669293,0.05572851989572834,0.08668900288142163,0.1811241551438522,0.13968601757664542,0.19460462565821027,0.13290834583281888,0.07358320718196891,0.07508604974201936,0.08987098440145694,0.09270329259203944,0.053871499369108386,0.09968198089199856,0.18130521376641487,0.11154581658367521,0.24593762918008708,0.37786948798114883,0.4294179003265321,0.20206570036207233,0.2789881737457069,0.3333257846996136,0.3678225300355531,0.5274230018023504,0.4228984031082466,0.3876079206729193,0.14842632477333223,0.28930794027357876,0.4011365468297609,0.4960013331604753,0.6360182463959881,0.6511993781214976,0.7545315082727624,0.6853123401619642,0.5543579686675467,0.4757541024323957,0.533027633120735,0.5614974180830868,0.5890969318197601,0.3890842754031438,0.45512578246762614,0.370318869069023,0.37483626097106604,0.29536357883448455,0.43517549729029,0.5010801993367723,0.3354680712562441,0.35295896312052455,0.29004170470757784,0.3225142350441675,0.3476430420258207,0.49492915645154534,0.3441919269909382,0.41282998843583557,0.29416999992889437,0.2200631609650371,0.269508328246203,0.3070446810226182,0.33846953812441366,0.4387914400315027,0.30465471577608966,0.5344401151727242,0.6150523476080737,0.4978684718717794,0.5536628098463214,0.5010607026516715,0.39416804354632107,0.3961346115055634,0.19365582462633438,0.4026612084429961,0.3249157887706134,0.33849464613050073,0.45039062388929163,0.401869711505251,0.3064920878910568,0.25215653651059877,0.3385718999202846,0.4172692725745798,0.5463789296707527,0.7159966076300285,0.6715342824723048,0.7177809270617269,0.7224196282344485,0.7579918758282932,0.8044104352706822,0.7108579285866918,0.8601840517070255,0.8271668368947315,0.8558712027850466,0.7964870961052464,0.8228695081929714,0.7884945178601797,0.8271708516582342,0.8042085005507206,0.8062651559119348,0.7982227805406436","201,44,49,120,164,122,206,204,82,169,127,88,84,165,40,166,129,48,207,208,85,124,125,86,167,45,209,126,128,121,41,46,202,163,205,43,203,123,81,200,87,80,47,42,168,83,89,161,162","1,1,1,2,1,3,1,1,1,2,1,1,1,1,2,7,2,1,2,2,1,1,1,1,1,1,5,1,1,1,1,1,3,1,5,3,6,1,1,1,1,5,6,2,1,1,1,2,1,6,1,1,2,1,1,4,4,1,2,6"
