"success","trial_type","trial_index","time_elapsed","internal_node_id","interactions","blur_events","focus_events","fullscreenenter_events","fullscreenexit_events","rt","stimulus","key_press","subject_id","participant_id","age","gender","prompt","response","choice_outcomes","context_n","context_img_id","trial_n","probe_img_id","pR_red","pR_white","pR_black","outcome","contextArray_ind","validImageProbes","invalidImageProbes","pRew_Red","pRew_White","pRew_Black","availableForMemProbe","choice_blocks"
"true","fullscreen","0","11107","0.0-0.0","""event"",""trial"",""time""
""fullscreenenter"",""0"",""10107""
","
","
","""event"",""trial"",""time""
""fullscreenenter"",""0"",""10107""
","
","","","","","","","","","","","","","","","","","","","","","","","","","",""
"","pavlovia","1","11115","0.0-1.0","""event"",""trial"",""time""
""fullscreenenter"",""0"",""10107""
","
","
","""event"",""trial"",""time""
""fullscreenenter"",""0"",""10107""
","
","","","","","","","","","","","","","","","","","","","","","","","","","",""
"","instruc1","2","56222","0.0-2.0","""event"",""trial"",""time""
""fullscreenenter"",""0"",""10107""
","
","
","""event"",""trial"",""time""
""fullscreenenter"",""0"",""10107""
","
","null","run_exp/static/audio/clip_1_welcome.m4a","null","2117","1962","17","Male","<div class='center'><p>Welcome! This is the first part of the study. It will last ~30 minutes. In part 1 and part 2 of the study, you are the head captain of a pirate ship traveling around the world to different islands. You will play a few different games throughout these two parts. Here is an overview of them:</p><br><p>Part 1 (today)</p><p>1. Instructions, practice game, and quiz</p><p>2. Pick a pirate game on 6 different islands</p><br><p>Part 2 (tomorrow)</p><p>3. Pick a pirate game and memory game</p><p>4. Where did you see this ship? </p></div>","","","","","","","","","","","","","","","","","",""
"","html-keyboard-response","3","66768","0.0-3.0","""event"",""trial"",""time""
""fullscreenenter"",""0"",""10107""
","
","
","""event"",""trial"",""time""
""fullscreenenter"",""0"",""10107""
","
","10544.400000095367","<div class='center'><p>Welcome! This is the first part of the study. It will last ~30 minutes. In part 1 and part 2 of the study, you are the head captain of a pirate ship traveling around the world to different islands. You will play a few different games throughout these two parts. Here is an overview of them:</p><br><p>Part 1 (today)</p><p>1. Instructions, practice game, and quiz</p><p>2. Pick a pirate game on 6 different islands</p><br><p>Part 2 (tomorrow)</p><p>3. Pick a pirate game and memory game</p><p>4. Where did you see this ship? </p><p><b>[Press the space bar to continue]</b></p></div>","32","","","","","","","","","","","","","","","","","","","","","","",""
"","instruc2","4","72077","0.0-4.0","""event"",""trial"",""time""
""fullscreenenter"",""0"",""10107""
","
","
","""event"",""trial"",""time""
""fullscreenenter"",""0"",""10107""
","
","null","run_exp/static/audio/clip_2_different_places.m4a","null","","","","","<div class='center'><p>Today, you’ll visit these 6 islands on your journey. You'll be able to see these islands from your ship.</p><p><img src='run_exp/static/images/contexts/all_contexts.png' height='500'></p></div>","","","","","","","","","","","","","","","","","",""
"","html-keyboard-response","5","76841","0.0-5.0","""event"",""trial"",""time""
""fullscreenenter"",""0"",""10107""
","
","
","""event"",""trial"",""time""
""fullscreenenter"",""0"",""10107""
","
","4763.700000047684","<div class='center'><p>Today, you’ll visit these 6 islands on your journey. You'll be able to see these islands from your ship.</p><p><img src='run_exp/static/images/contexts/all_contexts.png' height='500'></p><p><b>[Press the space bar to continue]</b></p></div>","32","","","","","","","","","","","","","","","","","","","","","","",""
"","instruc3","6","86517","0.0-6.0","""event"",""trial"",""time""
""fullscreenenter"",""0"",""10107""
","
","
","""event"",""trial"",""time""
""fullscreenenter"",""0"",""10107""
","
","null","run_exp/static/audio/clip_3_goal_of_game_1.m4a","null","","","","","<div class='center'><p> The pirates on your ship will rob other ships as they leave the island.</p> These ships have just sold their goods to the islanders, so they will be filled with lots and lots of gold.</p><p><img src='run_exp/static/images/tutorial/ship_center.png' height='400'></p></div>","","","","","","","","","","","","","","","","","",""
"","html-keyboard-response","7","87354","0.0-7.0","""event"",""trial"",""time""
""fullscreenenter"",""0"",""10107""
","
","
","""event"",""trial"",""time""
""fullscreenenter"",""0"",""10107""
","
","834.7999999523163","<div class='center'><p> The pirates on your ship will rob other ships as they leave the island.</p> These ships have just sold their goods to the islanders, so they will be filled with lots and lots of gold.</p><p><img src='run_exp/static/images/tutorial/ship_center.png' height='400'></p><p><b>[Press the space bar to continue]</b></p></div>","32","","","","","","","","","","","","","","","","","","","","","","",""
"","instruc4","8","115337","0.0-8.0","""event"",""trial"",""time""
""fullscreenenter"",""0"",""10107""
","
","
","""event"",""trial"",""time""
""fullscreenenter"",""0"",""10107""
","
","null","run_exp/static/audio/clip_4_goal_of_game_2.m4a","null","","","","","<div class='center'><p>As the head captain, you do not have to rob any ships yourself. Another pirate will be doing the robbing for you. First, you will choose a pirate to rob the next ship.</p><p><img src='run_exp/static/images/tutorial/pirates_all_crop.png' height='200'></p><p>Then, you'll see if the pirate successfully robbed the ship of their gold. If they were successful, then you'll get a stack of gold coins like this:</p><p><img src='run_exp/static/images/tutorial/reward.png' height='150'></p><p> If they were <b>not</b> successful, then you'll get no gold coins, and you'll see a big red x like this: </p><p><img src='run_exp/static/images/tutorial/reward_no.png' height='150'></p><p> How much bonus money you make is based on how many gold coins you collect.</p><div>","","","","","","","","","","","","","","","","","",""
"","html-keyboard-response","9","116253","0.0-9.0","""event"",""trial"",""time""
""fullscreenenter"",""0"",""10107""
","
","
","""event"",""trial"",""time""
""fullscreenenter"",""0"",""10107""
","
","912.7999999523163","<div class='center'><p>As the head captain, you do not have to rob any ships yourself. Another pirate will be doing the robbing for you. First, you will choose a pirate to rob the next ship.</p><p><img src='run_exp/static/images/tutorial/pirates_all_crop.png' height='200'></p><p>Then, you'll see if the pirate successfully robbed the ship of their gold. If they were successful, then you'll get a stack of gold coins like this:</p><p><img src='run_exp/static/images/tutorial/reward.png' height='150'></p><p> If they were <b>not</b> successful, then you'll get no gold coins, and you'll see a big red x like this: </p><p><img src='run_exp/static/images/tutorial/reward_no.png' height='150'></p><p> How much bonus money you make is based on how many gold coins you collect.</p<p><b>[Press the space bar to continue]</b></p></div>","32","","","","","","","","","","","","","","","","","","","","","","",""
"","instruc5","10","137258","0.0-10.0","""event"",""trial"",""time""
""fullscreenenter"",""0"",""10107""
","
","
","""event"",""trial"",""time""
""fullscreenenter"",""0"",""10107""
","
","21003.5","run_exp/static/audio/clip_5_probabilistic.m4a","49","","","","","<div class='center'><p>Even the most skilled pirate can not rob EVERY ship.</p><p> Some ships will have very strong protections against pirate attacks.</p><p> Blue beard, here, is very, very good at robbing ships, but he won't be successful every time he tries to rob one.</p><p> You can press the <b>‘1’</b> key on the keyboard to choose him.</p><p> Try choosing him 10 times to see how often he succeeds at robbing a ship. </p><p><img src='run_exp/static/images/tutorial/blue.png' height='500'></p></div>","","","","","","","","","","","","","","","","","",""
"","html-keyboard-response","11","138768","0.0-11.0","""event"",""trial"",""time""
""fullscreenenter"",""0"",""10107""
","
","
","""event"",""trial"",""time""
""fullscreenenter"",""0"",""10107""
","
","null","<div class='center'><p><img src='run_exp/static/images/tutorial/blue_win.png' height='500'></p></div>","null","","","","","","","","","","","","","","","","","","","","","","",""
"","html-keyboard-response","12","140064","0.0-12.0","""event"",""trial"",""time""
""fullscreenenter"",""0"",""10107""
","
","
","""event"",""trial"",""time""
""fullscreenenter"",""0"",""10107""
","
","1294.7000000476837","<div class='center'><img src='run_exp/static/images/tutorial/blue.png' height='500'></p></div>","49","","","","","","","","","","","","","","","","","","","","","","",""
"","html-keyboard-response","13","141574","0.0-13.0","""event"",""trial"",""time""
""fullscreenenter"",""0"",""10107""
","
","
","""event"",""trial"",""time""
""fullscreenenter"",""0"",""10107""
","
","null","<div class='center'><p><img src='run_exp/static/images/tutorial/blue_win.png' height='500'></p></div>","null","","","","","","","","","","","","","","","","","","","","","","",""
"","html-keyboard-response","14","142220","0.0-14.0","""event"",""trial"",""time""
""fullscreenenter"",""0"",""10107""
","
","
","""event"",""trial"",""time""
""fullscreenenter"",""0"",""10107""
","
","645","<div class='center'><img src='run_exp/static/images/tutorial/blue.png' height='500'></p></div>","49","","","","","","","","","","","","","","","","","","","","","","",""
"","html-keyboard-response","15","143722","0.0-15.0","""event"",""trial"",""time""
""fullscreenenter"",""0"",""10107""
","
","
","""event"",""trial"",""time""
""fullscreenenter"",""0"",""10107""
","
","null","<div class='center'><p><img src='run_exp/static/images/tutorial/blue_win.png' height='500'></p></div>","null","","","","","","","","","","","","","","","","","","","","","","",""
"","html-keyboard-response","16","144577","0.0-16.0","""event"",""trial"",""time""
""fullscreenenter"",""0"",""10107""
","
","
","""event"",""trial"",""time""
""fullscreenenter"",""0"",""10107""
","
","853.7000000476837","<div class='center'><img src='run_exp/static/images/tutorial/blue.png' height='500'></p></div>","49","","","","","","","","","","","","","","","","","","","","","","",""
"","html-keyboard-response","17","146090","0.0-17.0","""event"",""trial"",""time""
""fullscreenenter"",""0"",""10107""
","
","
","""event"",""trial"",""time""
""fullscreenenter"",""0"",""10107""
","
","null","<div class='center'><p><img src='run_exp/static/images/tutorial/blue_no_win.png' height='500'></p></div>","null","","","","","","","","","","","","","","","","","","","","","","",""
"","html-keyboard-response","18","146770","0.0-18.0","""event"",""trial"",""time""
""fullscreenenter"",""0"",""10107""
","
","
","""event"",""trial"",""time""
""fullscreenenter"",""0"",""10107""
","
","678.6000000238419","<div class='center'><img src='run_exp/static/images/tutorial/blue.png' height='500'></p></div>","49","","","","","","","","","","","","","","","","","","","","","","",""
"","html-keyboard-response","19","148272","0.0-19.0","""event"",""trial"",""time""
""fullscreenenter"",""0"",""10107""
","
","
","""event"",""trial"",""time""
""fullscreenenter"",""0"",""10107""
","
","null","<div class='center'><p><img src='run_exp/static/images/tutorial/blue_win.png' height='500'></p></div>","null","","","","","","","","","","","","","","","","","","","","","","",""
"","html-keyboard-response","20","148924","0.0-20.0","""event"",""trial"",""time""
""fullscreenenter"",""0"",""10107""
","
","
","""event"",""trial"",""time""
""fullscreenenter"",""0"",""10107""
","
","650.7000000476837","<div class='center'><img src='run_exp/static/images/tutorial/blue.png' height='500'></p></div>","49","","","","","","","","","","","","","","","","","","","","","","",""
"","html-keyboard-response","21","150436","0.0-21.0","""event"",""trial"",""time""
""fullscreenenter"",""0"",""10107""
","
","
","""event"",""trial"",""time""
""fullscreenenter"",""0"",""10107""
","
","null","<div class='center'><p><img src='run_exp/static/images/tutorial/blue_win.png' height='500'></p></div>","null","","","","","","","","","","","","","","","","","","","","","","",""
"","html-keyboard-response","22","151066","0.0-22.0","""event"",""trial"",""time""
""fullscreenenter"",""0"",""10107""
","
","
","""event"",""trial"",""time""
""fullscreenenter"",""0"",""10107""
","
","627.8999999761581","<div class='center'><img src='run_exp/static/images/tutorial/blue.png' height='500'></p></div>","49","","","","","","","","","","","","","","","","","","","","","","",""
"","html-keyboard-response","23","152567","0.0-23.0","""event"",""trial"",""time""
""fullscreenenter"",""0"",""10107""
","
","
","""event"",""trial"",""time""
""fullscreenenter"",""0"",""10107""
","
","null","<div class='center'><p><img src='run_exp/static/images/tutorial/blue_win.png' height='500'></p></div>","null","","","","","","","","","","","","","","","","","","","","","","",""
"","html-keyboard-response","24","153091","0.0-24.0","""event"",""trial"",""time""
""fullscreenenter"",""0"",""10107""
","
","
","""event"",""trial"",""time""
""fullscreenenter"",""0"",""10107""
","
","523.6000000238419","<div class='center'><img src='run_exp/static/images/tutorial/blue.png' height='500'></p></div>","49","","","","","","","","","","","","","","","","","","","","","","",""
"","html-keyboard-response","25","154594","0.0-25.0","""event"",""trial"",""time""
""fullscreenenter"",""0"",""10107""
","
","
","""event"",""trial"",""time""
""fullscreenenter"",""0"",""10107""
","
","null","<div class='center'><p><img src='run_exp/static/images/tutorial/blue_no_win.png' height='500'></p></div>","null","","","","","","","","","","","","","","","","","","","","","","",""
"","html-keyboard-response","26","155126","0.0-26.0","""event"",""trial"",""time""
""fullscreenenter"",""0"",""10107""
","
","
","""event"",""trial"",""time""
""fullscreenenter"",""0"",""10107""
","
","530.7000000476837","<div class='center'><img src='run_exp/static/images/tutorial/blue.png' height='500'></p></div>","49","","","","","","","","","","","","","","","","","","","","","","",""
"","html-keyboard-response","27","156636","0.0-27.0","""event"",""trial"",""time""
""fullscreenenter"",""0"",""10107""
","
","
","""event"",""trial"",""time""
""fullscreenenter"",""0"",""10107""
","
","null","<div class='center'><p><img src='run_exp/static/images/tutorial/blue_win.png' height='500'></p></div>","null","","","","","","","","","","","","","","","","","","","","","","",""
"","html-keyboard-response","28","157294","0.0-28.0","""event"",""trial"",""time""
""fullscreenenter"",""0"",""10107""
","
","
","""event"",""trial"",""time""
""fullscreenenter"",""0"",""10107""
","
","657","<div class='center'><img src='run_exp/static/images/tutorial/blue.png' height='500'></p></div>","49","","","","","","","","","","","","","","","","","","","","","","",""
"","html-keyboard-response","29","158802","0.0-29.0","""event"",""trial"",""time""
""fullscreenenter"",""0"",""10107""
","
","
","""event"",""trial"",""time""
""fullscreenenter"",""0"",""10107""
","
","null","<div class='center'><p><img src='run_exp/static/images/tutorial/blue_win.png' height='500'></p></div>","null","","","","","","","","","","","","","","","","","","","","","","",""
"","instruc6","30","164205","0.0-30.0","""event"",""trial"",""time""
""fullscreenenter"",""0"",""10107""
","
","
","""event"",""trial"",""time""
""fullscreenenter"",""0"",""10107""
","
","null","run_exp/static/audio/clip_6_blue_beard_outcome.m4a","null","","","","","<div class='center'><p> See, he succeeded in robbing the ships most of the time but not every time. </p></div>","","","","","","","","","","","","","","","","","",""
"","html-keyboard-response","31","165275","0.0-31.0","""event"",""trial"",""time""
""fullscreenenter"",""0"",""10107""
","
","
","""event"",""trial"",""time""
""fullscreenenter"",""0"",""10107""
","
","1068.7999999523163","<div class='center'><p> See, he succeeded in robbing the ships most of the time but not every time. </p><p><b>[Press the space bar to continue]</b></p></div>","32","","","","","","","","","","","","","","","","","","","","","","",""
"","audio-keyboard-response","32","182117","0.0-32.0","""event"",""trial"",""time""
""fullscreenenter"",""0"",""10107""
","
","
","""event"",""trial"",""time""
""fullscreenenter"",""0"",""10107""
","
","16839.599999904633","run_exp/static/audio/clip_7_pick_pirate.m4a","49","","","","","","","","","","","","","","","","","","","","","","",""
"","audio-keyboard-response","33","187110","0.0-33.0-0.0","""event"",""trial"",""time""
""fullscreenenter"",""0"",""10107""
","
","
","""event"",""trial"",""time""
""fullscreenenter"",""0"",""10107""
","
","4989.300000071526","run_exp/static/audio/clip_8_chosen_pirate_win.m4a","32","","","","","","","","","","","","","","","","","","","","","","",""
"","audio-keyboard-response","34","190102","0.0-33.0-1.0","""event"",""trial"",""time""
""fullscreenenter"",""0"",""10107""
","
","
","""event"",""trial"",""time""
""fullscreenenter"",""0"",""10107""
","
","2989.399999976158","run_exp/static/audio/clip_9_pick_a_pirate_again.m4a","50","","","","","","","","","","","","","","","","","","","","","","",""
"","audio-keyboard-response","35","194946","0.0-34.0-0.0","""event"",""trial"",""time""
""fullscreenenter"",""0"",""10107""
","
","
","""event"",""trial"",""time""
""fullscreenenter"",""0"",""10107""
","
","4842.399999976158","run_exp/static/audio/clip_10_chosen_pirate_loss.m4a","32","","","","","","","","","","","","","","","","","","","","","","",""
"","instruc9","36","200425","0.0-35.0-0.0","""event"",""trial"",""time""
""fullscreenenter"",""0"",""10107""
","
","
","""event"",""trial"",""time""
""fullscreenenter"",""0"",""10107""
","
","null","run_exp/static/audio/clip_11_time_out.m4a","null","","","","","<div class='center'><p>If you don’t make your choice fast enough, you’ll have to wait a few seconds before you can make another one. </p><p><img src='run_exp/static/images/miscellaneous/hurry_up.png' height='500'></p></div>","","","","","","","","","","","","","","","","","",""
"","html-keyboard-response","37","201045","0.0-35.0-1.0","""event"",""trial"",""time""
""fullscreenenter"",""0"",""10107""
","
","
","""event"",""trial"",""time""
""fullscreenenter"",""0"",""10107""
","
","618.3999999761581","<div class='center'><p>If you don’t make your choice fast enough, you’ll have to wait a few seconds before you can make another one. </p><p><img src='run_exp/static/images/miscellaneous/hurry_up.png' height='500'></p><p><b>[Press the space bar to continue]</b></p></div>","32","","","","","","","","","","","","","","","","","","","","","","",""
"","instruc10","38","240125","0.0-35.0-2.0","""event"",""trial"",""time""
""fullscreenenter"",""0"",""10107""
","
","
","""event"",""trial"",""time""
""fullscreenenter"",""0"",""10107""
","
","null","run_exp/static/audio/clip_12_probe.m4a","null","","","","","<div class='center'><p>Once you've chosen a pirate, you’ll be shown the ship they are robbing. You will never rob the same ship twice. Ships can be told apart from one another by the image on them. These are the goods that they sell. See, this ship has a travel mug on it. </p><p> You’ll have to remember which island you saw each ship on. You will win more gold coins and hence more bonus money if you remember correctly! To help you remember, you can imagine a story. For example, here, you could imagine a mug full of water in the desert. Or, as another example, if on the forest island, your pirate robbed a ship with an apple on it, you could imagine an apple falling from a tree in the forest. </p><p><img src='run_exp/static/images/tutorial/example_probe.png' height='500'></p></div>","","","","","","","","","","","","","","","","","",""
"","html-keyboard-response","39","241279","0.0-35.0-3.0","""event"",""trial"",""time""
""fullscreenenter"",""0"",""10107""
","
","
","""event"",""trial"",""time""
""fullscreenenter"",""0"",""10107""
","
","1151.1000000238419","<div class='center'><p>Once you've chosen a pirate, you’ll be shown the ship they are robbing. You will never rob the same ship twice. Ships can be told apart from one another by the image on them. These are the goods that they sell. See, this ship has a travel mug on it. </p><p> You’ll have to remember which island you saw each ship on. You will win more gold coins and hence more bonus money if you remember correctly! To help you remember, you can imagine a story. For example, here, you could imagine a mug full of water in the desert. Or, as another example, if on the forest island, your pirate robbed a ship with an apple on it, you could imagine an apple falling from a tree in the forest. </p><p><img src='run_exp/static/images/tutorial/example_probe.png' height='500'></p><p><b>[Press the space bar to continue]</b></p></div>","32","","","","","","","","","","","","","","","","","","","","","","",""
"","instruc11","40","257685","0.0-35.0-4.0","""event"",""trial"",""time""
""fullscreenenter"",""0"",""10107""
","
","
","""event"",""trial"",""time""
""fullscreenenter"",""0"",""10107""
","
","null","run_exp/static/audio/clip_13_changepoint.m4a","null","","","","","<div class='center'><p>How successful a pirate is at robbing ships will depend on the island you’re on.</p><p> A pirate may have visited this island many times before and gained a lot of practice robbing ships there.</p><p>So, they’re more likely to be successful than a pirate who has never visited the island before.</p></div>","","","","","","","","","","","","","","","","","",""
"","html-keyboard-response","41","258403","0.0-35.0-5.0","""event"",""trial"",""time""
""fullscreenenter"",""0"",""10107""
","
","
","""event"",""trial"",""time""
""fullscreenenter"",""0"",""10107""
","
","717.1999999284744","<div class='center'><p>How successful a pirate is at robbing ships will depend on the island you’re on.</p><p> A pirate may have visited this island many times before and gained a lot of practice robbing ships there.</p><p>So, they’re more likely to be successful than a pirate who has never visited the island before.</p><p><b>[Press the space bar to continue]</b></p></div>","32","","","","","","","","","","","","","","","","","","","","","","",""
"","instruc12","42","299485","0.0-35.0-6.0","""event"",""trial"",""time""
""fullscreenenter"",""0"",""10107""
","
","
","""event"",""trial"",""time""
""fullscreenenter"",""0"",""10107""
","
","null","run_exp/static/audio/clip_14_drift.m4a","null","","","","","<div class='center'><p>How successful a pirate is at robbing ships can also change over the time spent on the island. </p><p> Ships may hear from islanders about the pirates coming and will improve their protections against the attack. This may make it harder to rob them.</p><p> Ships may also become lazy and weaken the strength of their protections. This may make it easier to rob them.</p><br><p>Things are always changing on the high seas! So, try your best to pay attention!</p><p><img src='run_exp/static/images/tutorial/contingency.png' height='500'></p></div>","","","","","","","","","","","","","","","","","",""
"","html-keyboard-response","43","302723","0.0-35.0-7.0","""event"",""trial"",""time""
""fullscreenenter"",""0"",""10107""
","
","
","""event"",""trial"",""time""
""fullscreenenter"",""0"",""10107""
","
","3236.9000000953674","<div class='center'><p>How successful a pirate is at robbing ships can also change over the time spent on the island. </p><p> Ships may hear from islanders about the pirates coming and will improve their protections against the attack. This may make it harder to rob them.</p><p> Ships may also become lazy and weaken the strength of their protections. This may make it easier to rob them.</p><br><p>Things are always changing on the high seas! So, try your best to pay attention!</p><p><img src='run_exp/static/images/tutorial/contingency.png' height='500'></p><p><b>[Press the space bar to continue]</b></p></div>","32","","","","","","","","","","","","","","","","","","","","","","",""
"","instruc13","44","337905","0.0-35.0-8.0","""event"",""trial"",""time""
""fullscreenenter"",""0"",""10107""
","
","
","""event"",""trial"",""time""
""fullscreenenter"",""0"",""10107""
","
","null","run_exp/static/audio/clip_15_summary.m4a","null","","","","","<div class='center'><p>Let's go over the instructions quickly again. You have two important things to do: </p><b><p> 1. Pick the pirate who is the best at robbing ships on the current island. </p></b><b><p> 2. Remember on which island a ship was robbed.</p> </b><p>The amount of bonus money you can win depends on both.</p><p><br><p>Let’s try a practice game. The game will start by showing you the pirates. First, pick a pirate using the <b> 1, 2, 3 </b> keys on your keyboard. When you are shown a ship, try to remember which island you’re on by making up a story.</p><p>This is just a practice game, so you’re not playing for money. </p><p> Good luck! This game will be very difficult but try your best!</p></div>","","","","","","","","","","","","","","","","","",""
"","html-keyboard-response","45","338566","0.0-35.0-9.0","""event"",""trial"",""time""
""fullscreenenter"",""0"",""10107""
","
","
","""event"",""trial"",""time""
""fullscreenenter"",""0"",""10107""
","
","658.7000000476837","<div class='center'><p>Let's go over the instructions quickly again. You have two important things to do: </p><b><p> 1. Pick the pirate who is the best at robbing ships on the current island. </p></b><b><p> 2. Remember on which island a ship was robbed.</p> </b><p>The amount of bonus money you can win depends on both.</p><p><br><p>Let’s try a practice game. The game will start by showing you the pirates. First, pick a pirate using the <b> 1, 2, 3 </b> keys on your keyboard. When you are shown a ship, try to remember which island you’re on by making up a story.</p><p>This is just a practice game, so you’re not playing for money. </p><p> Good luck! This game will be very difficult but try your best!</p><p><b>[Press the space bar to continue]</b></p></div>","32","","","","","","","","","","","","","","","","","","","","","","",""
"","do_welcome","46","342593","0.0-35.0-10.0","""event"",""trial"",""time""
""fullscreenenter"",""0"",""10107""
","
","
","""event"",""trial"",""time""
""fullscreenenter"",""0"",""10107""
","
","null","","","","","","","","null","","","","","","","","","","","","","","","","",""
"","do_trial","47","348622","0.0-35.0-11.0","""event"",""trial"",""time""
""fullscreenenter"",""0"",""10107""
","
","
","""event"",""trial"",""time""
""fullscreenenter"",""0"",""10107""
","
","null","","","","","","","","null","1,0,0","","","","","","","","","","","","","","","",""
"","html-keyboard-response","48","349635","0.0-36.0-0.0","""event"",""trial"",""time""
""fullscreenenter"",""0"",""10107""
","
","
","""event"",""trial"",""time""
""fullscreenenter"",""0"",""10107""
","
","null","<p></p>","null","","","","","","","","","","","","","","","","","","","","","","",""
"","do_trial","49","354762","0.0-36.0-1.0","""event"",""trial"",""time""
""fullscreenenter"",""0"",""10107""
","
","
","""event"",""trial"",""time""
""fullscreenenter"",""0"",""10107""
","
","608.9000000953674","","","","","","","","49","1,0,0","","","","","","","","","","","","","","","",""
"","html-keyboard-response","50","355776","0.0-37.0-0.0","""event"",""trial"",""time""
""fullscreenenter"",""0"",""10107""
","
","
","""event"",""trial"",""time""
""fullscreenenter"",""0"",""10107""
","
","null","<p></p>","null","","","","","","","","","","","","","","","","","","","","","","",""
"","do_trial","51","361660","0.0-37.0-1.0","""event"",""trial"",""time""
""fullscreenenter"",""0"",""10107""
","
","
","""event"",""trial"",""time""
""fullscreenenter"",""0"",""10107""
","
","1368.1000000238419","","","","","","","","49","1,1,0","","","","","","","","","","","","","","","",""
"","html-keyboard-response","52","362671","0.0-38.0-0.0","""event"",""trial"",""time""
""fullscreenenter"",""0"",""10107""
","
","
","""event"",""trial"",""time""
""fullscreenenter"",""0"",""10107""
","
","null","<p></p>","null","","","","","","","","","","","","","","","","","","","","","","",""
"","do_trial","53","368057","0.0-38.0-1.0","""event"",""trial"",""time""
""fullscreenenter"",""0"",""10107""
","
","
","""event"",""trial"",""time""
""fullscreenenter"",""0"",""10107""
","
","866.6000000238419","","","","","","","","49","1,0,1","","","","","","","","","","","","","","","",""
"","html-keyboard-response","54","369072","0.0-39.0-0.0","""event"",""trial"",""time""
""fullscreenenter"",""0"",""10107""
","
","
","""event"",""trial"",""time""
""fullscreenenter"",""0"",""10107""
","
","null","<p></p>","null","","","","","","","","","","","","","","","","","","","","","","",""
"","do_trial","55","373983","0.0-39.0-1.0","""event"",""trial"",""time""
""fullscreenenter"",""0"",""10107""
","
","
","""event"",""trial"",""time""
""fullscreenenter"",""0"",""10107""
","
","403","","","","","","","","49","0,1,0","","","","","","","","","","","","","","","",""
"","html-keyboard-response","56","374998","0.0-40.0-0.0","""event"",""trial"",""time""
""fullscreenenter"",""0"",""10107""
","
","
","""event"",""trial"",""time""
""fullscreenenter"",""0"",""10107""
","
","null","<p></p>","null","","","","","","","","","","","","","","","","","","","","","","",""
"","do_trial","57","380096","0.0-40.0-1.0","""event"",""trial"",""time""
""fullscreenenter"",""0"",""10107""
","
","
","""event"",""trial"",""time""
""fullscreenenter"",""0"",""10107""
","
","593.5","","","","","","","","49","1,0,0","","","","","","","","","","","","","","","",""
"","do_bye","58","381615","0.0-41.0-0.0","""event"",""trial"",""time""
""fullscreenenter"",""0"",""10107""
","
","
","""event"",""trial"",""time""
""fullscreenenter"",""0"",""10107""
","
","null","","","","","","","","null","","","","","","","","","","","","","","","","",""
"","do_travel","59","390628","0.0-41.0-1.0","""event"",""trial"",""time""
""fullscreenenter"",""0"",""10107""
","
","
","""event"",""trial"",""time""
""fullscreenenter"",""0"",""10107""
","
","null","","","","","","","","null","","","","","","","","","","","","","","","","",""
"","do_welcome","60","394636","0.0-41.0-2.0","""event"",""trial"",""time""
""fullscreenenter"",""0"",""10107""
","
","
","""event"",""trial"",""time""
""fullscreenenter"",""0"",""10107""
","
","null","","","","","","","","null","","","","","","","","","","","","","","","","",""
"","do_trial","61","400321","0.0-41.0-3.0","""event"",""trial"",""time""
""fullscreenenter"",""0"",""10107""
","
","
","""event"",""trial"",""time""
""fullscreenenter"",""0"",""10107""
","
","1175.6000000238419","","","","","","","","51","1,0,0","","","","","","","","","","","","","","","",""
"","html-keyboard-response","62","401335","0.0-42.0-0.0","""event"",""trial"",""time""
""fullscreenenter"",""0"",""10107""
","
","
","""event"",""trial"",""time""
""fullscreenenter"",""0"",""10107""
","
","null","<p></p>","null","","","","","","","","","","","","","","","","","","","","","","",""
"","do_trial","63","406940","0.0-42.0-1.0","""event"",""trial"",""time""
""fullscreenenter"",""0"",""10107""
","
","
","""event"",""trial"",""time""
""fullscreenenter"",""0"",""10107""
","
","1090.3000000715256","","","","","","","","51","1,0,1","","","","","","","","","","","","","","","",""
"","html-keyboard-response","64","407953","0.0-43.0-0.0","""event"",""trial"",""time""
""fullscreenenter"",""0"",""10107""
","
","
","""event"",""trial"",""time""
""fullscreenenter"",""0"",""10107""
","
","null","<p></p>","null","","","","","","","","","","","","","","","","","","","","","","",""
"","do_trial","65","414412","0.0-43.0-1.0","""event"",""trial"",""time""
""fullscreenenter"",""0"",""10107""
","
","
","""event"",""trial"",""time""
""fullscreenenter"",""0"",""10107""
","
","1944.6999999284744","","","","","","","","51","1,1,0","","","","","","","","","","","","","","","",""
"","html-keyboard-response","66","415424","0.0-44.0-0.0","""event"",""trial"",""time""
""fullscreenenter"",""0"",""10107""
","
","
","""event"",""trial"",""time""
""fullscreenenter"",""0"",""10107""
","
","null","<p></p>","null","","","","","","","","","","","","","","","","","","","","","","",""
"","do_trial","67","420709","0.0-44.0-1.0","""event"",""trial"",""time""
""fullscreenenter"",""0"",""10107""
","
","
","""event"",""trial"",""time""
""fullscreenenter"",""0"",""10107""
","
","772.7000000476837","","","","","","","","51","0,0,1","","","","","","","","","","","","","","","",""
"","html-keyboard-response","68","421723","0.0-45.0-0.0","""event"",""trial"",""time""
""fullscreenenter"",""0"",""10107""
","
","
","""event"",""trial"",""time""
""fullscreenenter"",""0"",""10107""
","
","null","<p></p>","null","","","","","","","","","","","","","","","","","","","","","","",""
"","do_trial","69","426909","0.0-45.0-1.0","""event"",""trial"",""time""
""fullscreenenter"",""0"",""10107""
","
","
","""event"",""trial"",""time""
""fullscreenenter"",""0"",""10107""
","
","671.7000000476837","","","","","","","","51","1,0,1","","","","","","","","","","","","","","","",""
"","html-keyboard-response","70","430331","0.0-46.0-0.0","""event"",""trial"",""time""
""fullscreenenter"",""0"",""10107""
","
","
","""event"",""trial"",""time""
""fullscreenenter"",""0"",""10107""
","
","3420.7999999523163","<div class='center'><p><img src='run_exp/static/images/tutorial/prac_best_pirate.png'  height='500'></p></div>","49","","","","","","","","","","","","","","","","","","","","","","",""
"","html-keyboard-response","71","431884","0.0-47.0-0.0","""event"",""trial"",""time""
""fullscreenenter"",""0"",""10107""
","
","
","""event"",""trial"",""time""
""fullscreenenter"",""0"",""10107""
","
","1552.6000000238419","<div class='center'><p>That's correct! Red beard was the best.</p><p><b>[Press the space bar to continue]</b></p></div>","32","","","","","","","","","","","","","","","","","","","","","","",""
"","html-keyboard-response","72","435384","0.0-47.0-1.0","""event"",""trial"",""time""
""fullscreenenter"",""0"",""10107""
","
","
","""event"",""trial"",""time""
""fullscreenenter"",""0"",""10107""
","
","3499.2999999523163","<div class='center'><p><img src='run_exp/static/images/tutorial/prac_source.png'  height='500'></p></div>","50","","","","","","","","","","","","","","","","","","","","","","",""
"","html-keyboard-response","73","436835","0.0-48.0-0.0","""event"",""trial"",""time""
""fullscreenenter"",""0"",""10107""
","
","
","""event"",""trial"",""time""
""fullscreenenter"",""0"",""10107""
","
","1450.5","<div class='center'><p>That's correct! You saw this ship on the cavern island.</p><p><b>[Press the space bar to continue]</b></p></div>","32","","","","","","","","","","","","","","","","","","","","","","",""
"","quiz_beginning","74","448039","0.0-48.0-1.0","""event"",""trial"",""time""
""fullscreenenter"",""0"",""10107""
","
","
","""event"",""trial"",""time""
""fullscreenenter"",""0"",""10107""
","
","null","run_exp/static/audio/clip_16_quiz_intro.m4a","null","","","","","<div class='center'><p>Good job on the practice game! Now, you will be asked some true or false questions to make sure you really understand the rules of the game.</p><p> Press <b>'1'</b> on the keyboard for true and press <b>'2'</b> for false.</p></div>","","","","","","","","","","","","","","","","","",""
"","audio-keyboard-response","75","453477","0.0-48.0-2.0","""event"",""trial"",""time""
""fullscreenenter"",""0"",""10107""
","
","
","""event"",""trial"",""time""
""fullscreenenter"",""0"",""10107""
","
","5437.599999904633","run_exp/static/audio/clip_17_q1.m4a","50","","","","","","","","","","","","","","","","","","","","","","",""
"","q1_err","76","458359","0.0-49.0-0.0","""event"",""trial"",""time""
""fullscreenenter"",""0"",""10107""
","
","
","""event"",""trial"",""time""
""fullscreenenter"",""0"",""10107""
","
","null","run_exp/static/audio/clip_19_wrong_q1.m4a","null","","","","","<div class='center'><p>That’s incorrect. You win bonus money by collecting gold coins.</p></div>","","","","","","","","","","","","","","","","","",""
"","html-keyboard-response","77","459407","0.0-49.0-1.0","""event"",""trial"",""time""
""fullscreenenter"",""0"",""10107""
","
","
","""event"",""trial"",""time""
""fullscreenenter"",""0"",""10107""
","
","1047","<div class='center'><p>That’s incorrect. You win bonus money by collecting gold coins.</p><p><b>[Press the space bar to continue]</b></p></div>","32","","","","","","","","","","","","","","","","","","","","","","",""
"","audio-keyboard-response","78","467140","0.0-49.0-2.0","""event"",""trial"",""time""
""fullscreenenter"",""0"",""10107""
","
","
","""event"",""trial"",""time""
""fullscreenenter"",""0"",""10107""
","
","7732.5","run_exp/static/audio/clip_20_q2.m4a","49","","","","","","","","","","","","","","","","","","","","","","",""
"","q2_err","79","472619","0.0-50.0-0.0","""event"",""trial"",""time""
""fullscreenenter"",""0"",""10107""
","
","
","""event"",""trial"",""time""
""fullscreenenter"",""0"",""10107""
","
","null","run_exp/static/audio/clip_21_wrong_q2.m4a","null","","","","","<div class='center'><p>That’s incorrect. Which pirate is the best may change during your time on the island.</p></div>","","","","","","","","","","","","","","","","","",""
"","html-keyboard-response","80","473567","0.0-50.0-1.0","""event"",""trial"",""time""
""fullscreenenter"",""0"",""10107""
","
","
","""event"",""trial"",""time""
""fullscreenenter"",""0"",""10107""
","
","946.3999999761581","<div class='center'><p>That’s incorrect. Which pirate is the best may change during your time on the island.</p><p><b>[Press the space bar to continue]</b></p></div>","32","","","","","","","","","","","","","","","","","","","","","","",""
"","audio-keyboard-response","81","480084","0.0-50.0-2.0","""event"",""trial"",""time""
""fullscreenenter"",""0"",""10107""
","
","
","""event"",""trial"",""time""
""fullscreenenter"",""0"",""10107""
","
","6516.399999976158","run_exp/static/audio/clip_22_q3.m4a","50","","","","","","","","","","","","","","","","","","","","","","",""
"","correct","82","482479","0.0-51.0-0.0","""event"",""trial"",""time""
""fullscreenenter"",""0"",""10107""
","
","
","""event"",""trial"",""time""
""fullscreenenter"",""0"",""10107""
","
","null","run_exp/static/audio/clip_18_correct.m4a","null","","","","","<div class='center'><p>That's correct!</p></div>","","","","","","","","","","","","","","","","","",""
"","html-keyboard-response","83","483214","0.0-51.0-1.0","""event"",""trial"",""time""
""fullscreenenter"",""0"",""10107""
","
","
","""event"",""trial"",""time""
""fullscreenenter"",""0"",""10107""
","
","734.8000000715256","<div class='center'><p>That's correct!</p><p><b>[Press the space bar to continue]</b></p></div>","32","","","","","","","","","","","","","","","","","","","","","","",""
"","audio-keyboard-response","84","487909","0.0-51.0-2.0","""event"",""trial"",""time""
""fullscreenenter"",""0"",""10107""
","
","
","""event"",""trial"",""time""
""fullscreenenter"",""0"",""10107""
","
","4693.799999952316","run_exp/static/audio/clip_24_q4.m4a","49","","","","","","","","","","","","","","","","","","","","","","",""
"","correct","85","490299","0.0-52.0-0.0","""event"",""trial"",""time""
""fullscreenenter"",""0"",""10107""
","
","
","""event"",""trial"",""time""
""fullscreenenter"",""0"",""10107""
","
","null","run_exp/static/audio/clip_18_correct.m4a","null","","","","","<div class='center'><p>That's correct!</p></div>","","","","","","","","","","","","","","","","","",""
"","html-keyboard-response","86","491007","0.0-52.0-1.0","""event"",""trial"",""time""
""fullscreenenter"",""0"",""10107""
","
","
","""event"",""trial"",""time""
""fullscreenenter"",""0"",""10107""
","
","707","<div class='center'><p>That's correct!</p><p><b>[Press the space bar to continue]</b></p></div>","32","","","","","","","","","","","","","","","","","","","","","","",""
"","q_all_err","87","497179","0.0-53.0-0.0","""event"",""trial"",""time""
""fullscreenenter"",""0"",""10107""
","
","
","""event"",""trial"",""time""
""fullscreenenter"",""0"",""10107""
","
","null","run_exp/static/audio/clip_26_quiz_redo.m4a","null","","","","","<div class='center'><p>Oops, you missed some questions. Now that you’ve heard the correct answers. Try the quiz again! </p></div>","","","","","","","","","","","","","","","","","",""
"","html-keyboard-response","88","497817","0.0-53.0-1.0","""event"",""trial"",""time""
""fullscreenenter"",""0"",""10107""
","
","
","""event"",""trial"",""time""
""fullscreenenter"",""0"",""10107""
","
","636.5","<div class='center'><p>Oops, you missed some questions. Now that you’ve heard the correct answers. Try the quiz again! </p><p><b>[Press the space bar to continue]</b></p></div>","32","","","","","","","","","","","","","","","","","","","","","","",""
"","audio-keyboard-response","89","501218","0.0-53.0-2.0","""event"",""trial"",""time""
""fullscreenenter"",""0"",""10107""
","
","
","""event"",""trial"",""time""
""fullscreenenter"",""0"",""10107""
","
","3401.100000023842","run_exp/static/audio/clip_17_q1.m4a","49","","","","","","","","","","","","","","","","","","","","","","",""
"","correct","90","503619","0.0-54.0-0.0","""event"",""trial"",""time""
""fullscreenenter"",""0"",""10107""
","
","
","""event"",""trial"",""time""
""fullscreenenter"",""0"",""10107""
","
","null","run_exp/static/audio/clip_18_correct.m4a","null","","","","","<div class='center'><p>That's correct!</p></div>","","","","","","","","","","","","","","","","","",""
"","html-keyboard-response","91","504211","0.0-54.0-1.0","""event"",""trial"",""time""
""fullscreenenter"",""0"",""10107""
","
","
","""event"",""trial"",""time""
""fullscreenenter"",""0"",""10107""
","
","591.3999999761581","<div class='center'><p>That's correct!</p><p><b>[Press the space bar to continue]</b></p></div>","32","","","","","","","","","","","","","","","","","","","","","","",""
"","audio-keyboard-response","92","512104","0.0-54.0-2.0","""event"",""trial"",""time""
""fullscreenenter"",""0"",""10107""
","
","
","""event"",""trial"",""time""
""fullscreenenter"",""0"",""10107""
","
","7891.299999952316","run_exp/static/audio/clip_20_q2.m4a","50","","","","","","","","","","","","","","","","","","","","","","",""
"","correct","93","514498","0.0-55.0-0.0","""event"",""trial"",""time""
""fullscreenenter"",""0"",""10107""
","
","
","""event"",""trial"",""time""
""fullscreenenter"",""0"",""10107""
","
","null","run_exp/static/audio/clip_18_correct.m4a","null","","","","","<div class='center'><p>That's correct!</p></div>","","","","","","","","","","","","","","","","","",""
"","html-keyboard-response","94","514982","0.0-55.0-1.0","""event"",""trial"",""time""
""fullscreenenter"",""0"",""10107""
","
","
","""event"",""trial"",""time""
""fullscreenenter"",""0"",""10107""
","
","483","<div class='center'><p>That's correct!</p><p><b>[Press the space bar to continue]</b></p></div>","32","","","","","","","","","","","","","","","","","","","","","","",""
"","audio-keyboard-response","95","521742","0.0-55.0-2.0","""event"",""trial"",""time""
""fullscreenenter"",""0"",""10107""
","
","
","""event"",""trial"",""time""
""fullscreenenter"",""0"",""10107""
","
","6758.399999976158","run_exp/static/audio/clip_22_q3.m4a","50","","","","","","","","","","","","","","","","","","","","","","",""
"","correct","96","524138","0.0-56.0-0.0","""event"",""trial"",""time""
""fullscreenenter"",""0"",""10107""
","
","
","""event"",""trial"",""time""
""fullscreenenter"",""0"",""10107""
","
","null","run_exp/static/audio/clip_18_correct.m4a","null","","","","","<div class='center'><p>That's correct!</p></div>","","","","","","","","","","","","","","","","","",""
"","html-keyboard-response","97","524634","0.0-56.0-1.0","""event"",""trial"",""time""
""fullscreenenter"",""0"",""10107""
","
","
","""event"",""trial"",""time""
""fullscreenenter"",""0"",""10107""
","
","495.2999999523163","<div class='center'><p>That's correct!</p><p><b>[Press the space bar to continue]</b></p></div>","32","","","","","","","","","","","","","","","","","","","","","","",""
"","audio-keyboard-response","98","529013","0.0-56.0-2.0","""event"",""trial"",""time""
""fullscreenenter"",""0"",""10107""
","
","
","""event"",""trial"",""time""
""fullscreenenter"",""0"",""10107""
","
","4379.100000023842","run_exp/static/audio/clip_24_q4.m4a","49","","","","","","","","","","","","","","","","","","","","","","",""
"","correct","99","531438","0.0-57.0-0.0","""event"",""trial"",""time""
""fullscreenenter"",""0"",""10107""
","
","
","""event"",""trial"",""time""
""fullscreenenter"",""0"",""10107""
","
","null","run_exp/static/audio/clip_18_correct.m4a","null","","","","","<div class='center'><p>That's correct!</p></div>","","","","","","","","","","","","","","","","","",""
"","html-keyboard-response","100","531763","0.0-57.0-1.0","""event"",""trial"",""time""
""fullscreenenter"",""0"",""10107""
","
","
","""event"",""trial"",""time""
""fullscreenenter"",""0"",""10107""
","
","323.7000000476837","<div class='center'><p>That's correct!</p><p><b>[Press the space bar to continue]</b></p></div>","32","","","","","","","","","","","","","","","","","","","","","","",""
"","q_all_corr","101","540238","0.0-58.0-0.0","""event"",""trial"",""time""
""fullscreenenter"",""0"",""10107""
","
","
","""event"",""trial"",""time""
""fullscreenenter"",""0"",""10107""
","
","null","run_exp/static/audio/clip_27_quiz_all_correct.m4a","null","","","","","<div class='center'><p>Good job! You’re now ready to move on to the real game! Remember this game will be difficult but don't get discouraged and try your best!</p></div>","","","","","","","","","","","","","","","","","",""
"","html-keyboard-response","102","540960","0.0-58.0-1.0","""event"",""trial"",""time""
""fullscreenenter"",""0"",""10107""
","
","
","""event"",""trial"",""time""
""fullscreenenter"",""0"",""10107""
","
","720.7999999523163","<div class='center'><p>Good job! You’re now ready to move on to the real game! Remember this game will be difficult but don't get discouraged and try your best!</p><p><b>[Press the space bar to continue]</b></p></div>","32","","","","","","","","","","","","","","","","","","","","","","",""
"","do_welcome","103","544967","0.0-59.0-0.0","""event"",""trial"",""time""
""fullscreenenter"",""0"",""10107""
","
","
","""event"",""trial"",""time""
""fullscreenenter"",""0"",""10107""
","
","null","","","","","","","","null","","","","","","","","","","","","","","","","",""
"","do_trial","104","550725","0.0-60.0-0.0","""event"",""trial"",""time""
""fullscreenenter"",""0"",""10107""
","
","
","""event"",""trial"",""time""
""fullscreenenter"",""0"",""10107""
","
","1227","","","","","","","","49","1,0,0","0","coast","0","probe-124","0.6","0.3","0.1","1","","","","","","","",""
"","html-keyboard-response","105","551736","0.0-60.0-1.0","""event"",""trial"",""time""
""fullscreenenter"",""0"",""10107""
","
","
","""event"",""trial"",""time""
""fullscreenenter"",""0"",""10107""
","
","null","<p></p>","null","","","","","","","","","","","","","","","","","","","","","","",""
"","do_trial","106","556556","0.0-61.0-0.0","""event"",""trial"",""time""
""fullscreenenter"",""0"",""10107""
","
","
","""event"",""trial"",""time""
""fullscreenenter"",""0"",""10107""
","
","286.1999999284744","","","","","","","","49","0,0,0","0","coast","1","probe-16","0.6060629714168719","0.19434139044918952","0.1800903023317568","0","","","","","","","",""
"","html-keyboard-response","107","557569","0.0-61.0-1.0","""event"",""trial"",""time""
""fullscreenenter"",""0"",""10107""
","
","
","""event"",""trial"",""time""
""fullscreenenter"",""0"",""10107""
","
","null","<p></p>","null","","","","","","","","","","","","","","","","","","","","","","",""
"","do_trial","108","562488","0.0-62.0-0.0","""event"",""trial"",""time""
""fullscreenenter"",""0"",""10107""
","
","
","""event"",""trial"",""time""
""fullscreenenter"",""0"",""10107""
","
","373.10000002384186","","","","","","","","49","1,1,0","0","coast","2","probe-158","0.6857439662955924","0.3780554289899436","0.05229583443180122","1","","","","","","","",""
"","html-keyboard-response","109","563502","0.0-62.0-1.0","""event"",""trial"",""time""
""fullscreenenter"",""0"",""10107""
","
","
","""event"",""trial"",""time""
""fullscreenenter"",""0"",""10107""
","
","null","<p></p>","null","","","","","","","","","","","","","","","","","","","","","","",""
"","do_trial","110","568663","0.0-63.0-0.0","""event"",""trial"",""time""
""fullscreenenter"",""0"",""10107""
","
","
","""event"",""trial"",""time""
""fullscreenenter"",""0"",""10107""
","
","628.8999999761581","","","","","","","","49","1,0,0","0","coast","3","probe-50","0.6536908326091515","0.21693713154045718","0.05206505210665193","1","","","","","","","",""
"","html-keyboard-response","111","569677","0.0-63.0-1.0","""event"",""trial"",""time""
""fullscreenenter"",""0"",""10107""
","
","
","""event"",""trial"",""time""
""fullscreenenter"",""0"",""10107""
","
","null","<p></p>","null","","","","","","","","","","","","","","","","","","","","","","",""
"","do_trial","112","574899","0.0-64.0-0.0","""event"",""trial"",""time""
""fullscreenenter"",""0"",""10107""
","
","
","""event"",""trial"",""time""
""fullscreenenter"",""0"",""10107""
","
","683.6999999284744","","","","","","","","49","0,0,0","0","coast","4","probe-130","0.5816408427150168","0.2101260291813411","0.07991596389657543","0","","","","","","","",""
"","html-keyboard-response","113","575913","0.0-64.0-1.0","""event"",""trial"",""time""
""fullscreenenter"",""0"",""10107""
","
","
","""event"",""trial"",""time""
""fullscreenenter"",""0"",""10107""
","
","null","<p></p>","null","","","","","","","","","","","","","","","","","","","","","","",""
"","do_trial","114","580854","0.0-65.0-0.0","""event"",""trial"",""time""
""fullscreenenter"",""0"",""10107""
","
","
","""event"",""trial"",""time""
""fullscreenenter"",""0"",""10107""
","
","396.5","","","","","","","","49","0,0,0","0","coast","5","probe-197","0.5550592863245611","0.2628840840109002","0.13886160625366248","0","","","","","","","",""
"","html-keyboard-response","115","581867","0.0-65.0-1.0","""event"",""trial"",""time""
""fullscreenenter"",""0"",""10107""
","
","
","""event"",""trial"",""time""
""fullscreenenter"",""0"",""10107""
","
","null","<p></p>","null","","","","","","","","","","","","","","","","","","","","","","",""
"","do_trial","116","587301","0.0-66.0-0.0","""event"",""trial"",""time""
""fullscreenenter"",""0"",""10107""
","
","
","""event"",""trial"",""time""
""fullscreenenter"",""0"",""10107""
","
","887.3000000715256","","","","","","","","49","0,0,0","0","coast","6","probe-212","0.6886105675175702","0.277171892151547","0.06327766948448559","0","","","","","","","",""
"","html-keyboard-response","117","588314","0.0-66.0-1.0","""event"",""trial"",""time""
""fullscreenenter"",""0"",""10107""
","
","
","""event"",""trial"",""time""
""fullscreenenter"",""0"",""10107""
","
","null","<p></p>","null","","","","","","","","","","","","","","","","","","","","","","",""
"","do_trial","118","594050","0.0-67.0-0.0","""event"",""trial"",""time""
""fullscreenenter"",""0"",""10107""
","
","
","""event"",""trial"",""time""
""fullscreenenter"",""0"",""10107""
","
","1192.0999999046326","","","","","","","","49","0,0,0","0","coast","7","probe-86","0.6132252108577089","0.29757299879064514","0.13935360665305804","0","","","","","","","",""
"","html-keyboard-response","119","595061","0.0-67.0-1.0","""event"",""trial"",""time""
""fullscreenenter"",""0"",""10107""
","
","
","""event"",""trial"",""time""
""fullscreenenter"",""0"",""10107""
","
","null","<p></p>","null","","","","","","","","","","","","","","","","","","","","","","",""
"","do_trial","120","601066","0.0-68.0-0.0","""event"",""trial"",""time""
""fullscreenenter"",""0"",""10107""
","
","
","""event"",""trial"",""time""
""fullscreenenter"",""0"",""10107""
","
","1464.2000000476837","","","","","","","","49","1,0,0","0","coast","8","probe-114","0.6110137325054928","0.3930253705933961","0.1966753900675212","1","","","","","","","",""
"","html-keyboard-response","121","602077","0.0-68.0-1.0","""event"",""trial"",""time""
""fullscreenenter"",""0"",""10107""
","
","
","""event"",""trial"",""time""
""fullscreenenter"",""0"",""10107""
","
","null","<p></p>","null","","","","","","","","","","","","","","","","","","","","","","",""
"","do_trial","122","607356","0.0-69.0-0.0","""event"",""trial"",""time""
""fullscreenenter"",""0"",""10107""
","
","
","""event"",""trial"",""time""
""fullscreenenter"",""0"",""10107""
","
","748.2000000476837","","","","","","","","49","1,0,0","0","coast","9","probe-214","0.4966461241100673","0.3579674265037459","0.06398419672787113","1","","","","","","","",""
"","html-keyboard-response","123","608367","0.0-69.0-1.0","""event"",""trial"",""time""
""fullscreenenter"",""0"",""10107""
","
","
","""event"",""trial"",""time""
""fullscreenenter"",""0"",""10107""
","
","null","<p></p>","null","","","","","","","","","","","","","","","","","","","","","","",""
"","do_trial","124","613859","0.0-70.0-0.0","""event"",""trial"",""time""
""fullscreenenter"",""0"",""10107""
","
","
","""event"",""trial"",""time""
""fullscreenenter"",""0"",""10107""
","
","949.6999999284744","","","","","","","","49","1,1,0","0","coast","10","probe-145","0.5756292621304556","0.24651861737684036","0.0608668434764027","1","","","","","","","",""
"","html-keyboard-response","125","614872","0.0-70.0-1.0","""event"",""trial"",""time""
""fullscreenenter"",""0"",""10107""
","
","
","""event"",""trial"",""time""
""fullscreenenter"",""0"",""10107""
","
","null","<p></p>","null","","","","","","","","","","","","","","","","","","","","","","",""
"","do_trial","126","620615","0.0-71.0-0.0","""event"",""trial"",""time""
""fullscreenenter"",""0"",""10107""
","
","
","""event"",""trial"",""time""
""fullscreenenter"",""0"",""10107""
","
","1180.7000000476837","","","","","","","","49","0,1,0","0","coast","11","probe-230","0.6959589274656104","0.32291181298797017","0.07601957272432375","0","","","","","","","",""
"","html-keyboard-response","127","621628","0.0-71.0-1.0","""event"",""trial"",""time""
""fullscreenenter"",""0"",""10107""
","
","
","""event"",""trial"",""time""
""fullscreenenter"",""0"",""10107""
","
","null","<p></p>","null","","","","","","","","","","","","","","","","","","","","","","",""
"","do_trial","128","627019","0.0-72.0-0.0","""event"",""trial"",""time""
""fullscreenenter"",""0"",""10107""
","
","
","""event"",""trial"",""time""
""fullscreenenter"",""0"",""10107""
","
","848.1000000238419","","","","","","","","49","0,0,0","0","coast","12","probe-53","0.5781628805731136","0.34129804039143957","0.08512991586213182","0","","","","","","","",""
"","html-keyboard-response","129","628033","0.0-72.0-1.0","""event"",""trial"",""time""
""fullscreenenter"",""0"",""10107""
","
","
","""event"",""trial"",""time""
""fullscreenenter"",""0"",""10107""
","
","null","<p></p>","null","","","","","","","","","","","","","","","","","","","","","","",""
"","do_trial","130","633389","0.0-73.0-0.0","""event"",""trial"",""time""
""fullscreenenter"",""0"",""10107""
","
","
","""event"",""trial"",""time""
""fullscreenenter"",""0"",""10107""
","
","824.6000000238419","","","","","","","","49","1,0,0","0","coast","13","probe-52","0.6868452339289077","0.14742233467599827","0.051097125573502086","1","","","","","","","",""
"","html-keyboard-response","131","634402","0.0-73.0-1.0","""event"",""trial"",""time""
""fullscreenenter"",""0"",""10107""
","
","
","""event"",""trial"",""time""
""fullscreenenter"",""0"",""10107""
","
","null","<p></p>","null","","","","","","","","","","","","","","","","","","","","","","",""
"","do_trial","132","639869","0.0-74.0-0.0","""event"",""trial"",""time""
""fullscreenenter"",""0"",""10107""
","
","
","""event"",""trial"",""time""
""fullscreenenter"",""0"",""10107""
","
","923.8000000715256","","","","","","","","49","1,0,0","0","coast","14","probe-143","0.5269666989254204","0.24069981010861444","0.09460802491660054","1","","","","","","","",""
"","html-keyboard-response","133","640881","0.0-74.0-1.0","""event"",""trial"",""time""
""fullscreenenter"",""0"",""10107""
","
","
","""event"",""trial"",""time""
""fullscreenenter"",""0"",""10107""
","
","null","<p></p>","null","","","","","","","","","","","","","","","","","","","","","","",""
"","do_trial","134","646239","0.0-75.0-0.0","""event"",""trial"",""time""
""fullscreenenter"",""0"",""10107""
","
","
","""event"",""trial"",""time""
""fullscreenenter"",""0"",""10107""
","
","825.6999999284744","","","","","","","","49","1,0,0","0","coast","15","probe-60","0.5853875471489457","0.21168431951481634","0.17564065734545387","1","","","","","","","",""
"","html-keyboard-response","135","647253","0.0-75.0-1.0","""event"",""trial"",""time""
""fullscreenenter"",""0"",""10107""
","
","
","""event"",""trial"",""time""
""fullscreenenter"",""0"",""10107""
","
","null","<p></p>","null","","","","","","","","","","","","","","","","","","","","","","",""
"","do_trial","136","652470","0.0-76.0-0.0","""event"",""trial"",""time""
""fullscreenenter"",""0"",""10107""
","
","
","""event"",""trial"",""time""
""fullscreenenter"",""0"",""10107""
","
","671","","","","","","","","49","0,0,0","0","coast","16","probe-109","0.6058133616102132","0.14647088013071474","0.15875276940410335","0","","","","","","","",""
"","html-keyboard-response","137","653483","0.0-76.0-1.0","""event"",""trial"",""time""
""fullscreenenter"",""0"",""10107""
","
","
","""event"",""trial"",""time""
""fullscreenenter"",""0"",""10107""
","
","null","<p></p>","null","","","","","","","","","","","","","","","","","","","","","","",""
"","do_trial","138","658734","0.0-77.0-0.0","""event"",""trial"",""time""
""fullscreenenter"",""0"",""10107""
","
","
","""event"",""trial"",""time""
""fullscreenenter"",""0"",""10107""
","
","715.8000000715256","","","","","","","","49","0,0,1","0","coast","17","probe-57","0.642706138512798","0.20315772209927613","0.16053145390231907","0","","","","","","","",""
"","html-keyboard-response","139","659749","0.0-77.0-1.0","""event"",""trial"",""time""
""fullscreenenter"",""0"",""10107""
","
","
","""event"",""trial"",""time""
""fullscreenenter"",""0"",""10107""
","
","null","<p></p>","null","","","","","","","","","","","","","","","","","","","","","","",""
"","do_trial","140","664846","0.0-78.0-0.0","""event"",""trial"",""time""
""fullscreenenter"",""0"",""10107""
","
","
","""event"",""trial"",""time""
""fullscreenenter"",""0"",""10107""
","
","561.4000000953674","","","","","","","","51","1,0,1","0","coast","18","probe-105","0.7179184420103312","0.08192156099913513","0.3358142668939147","1","","","","","","","",""
"","html-keyboard-response","141","665859","0.0-78.0-1.0","""event"",""trial"",""time""
""fullscreenenter"",""0"",""10107""
","
","
","""event"",""trial"",""time""
""fullscreenenter"",""0"",""10107""
","
","null","<p></p>","null","","","","","","","","","","","","","","","","","","","","","","",""
"","do_trial","142","671277","0.0-79.0-0.0","""event"",""trial"",""time""
""fullscreenenter"",""0"",""10107""
","
","
","""event"",""trial"",""time""
""fullscreenenter"",""0"",""10107""
","
","887.5999999046326","","","","","","","","51","1,0,0","0","coast","19","probe-177","0.7223429512051085","0.09859555600228916","0.1350043270701966","0","","","","","","","",""
"","html-keyboard-response","143","672290","0.0-79.0-1.0","""event"",""trial"",""time""
""fullscreenenter"",""0"",""10107""
","
","
","""event"",""trial"",""time""
""fullscreenenter"",""0"",""10107""
","
","null","<p></p>","null","","","","","","","","","","","","","","","","","","","","","","",""
"","do_trial","144","677641","0.0-80.0-0.0","""event"",""trial"",""time""
""fullscreenenter"",""0"",""10107""
","
","
","""event"",""trial"",""time""
""fullscreenenter"",""0"",""10107""
","
","799.8999999761581","","","","","","","","51","1,0,1","0","coast","20","probe-06","0.6976868410453365","0.11557420802907759","0.26342902093359394","1","","","","","","","",""
"","html-keyboard-response","145","678654","0.0-80.0-1.0","""event"",""trial"",""time""
""fullscreenenter"",""0"",""10107""
","
","
","""event"",""trial"",""time""
""fullscreenenter"",""0"",""10107""
","
","null","<p></p>","null","","","","","","","","","","","","","","","","","","","","","","",""
"","do_trial","146","683921","0.0-81.0-0.0","""event"",""trial"",""time""
""fullscreenenter"",""0"",""10107""
","
","
","""event"",""trial"",""time""
""fullscreenenter"",""0"",""10107""
","
","723","","","","","","","","51","0,0,1","0","coast","21","probe-221","0.5981505256356944","0.2614404227279524","0.14801711391609335","1","","","","","","","",""
"","html-keyboard-response","147","684936","0.0-81.0-1.0","""event"",""trial"",""time""
""fullscreenenter"",""0"",""10107""
","
","
","""event"",""trial"",""time""
""fullscreenenter"",""0"",""10107""
","
","null","<p></p>","null","","","","","","","","","","","","","","","","","","","","","","",""
"","do_trial","148","690434","0.0-82.0-0.0","""event"",""trial"",""time""
""fullscreenenter"",""0"",""10107""
","
","
","""event"",""trial"",""time""
""fullscreenenter"",""0"",""10107""
","
","955.2000000476837","","","","","","","","51","0,1,0","0","coast","22","probe-58","0.6083454983255129","0.25680525347402483","0.08658737112499981","0","","","","","","","",""
"","html-keyboard-response","149","691449","0.0-82.0-1.0","""event"",""trial"",""time""
""fullscreenenter"",""0"",""10107""
","
","
","""event"",""trial"",""time""
""fullscreenenter"",""0"",""10107""
","
","null","<p></p>","null","","","","","","","","","","","","","","","","","","","","","","",""
"","do_trial","150","696591","0.0-83.0-0.0","""event"",""trial"",""time""
""fullscreenenter"",""0"",""10107""
","
","
","""event"",""trial"",""time""
""fullscreenenter"",""0"",""10107""
","
","601.9000000953674","","","","","","","","51","0,1,0","0","coast","23","probe-79","0.6848503361540577","0.2764131808880028","0.11331469077740439","0","","","","","","","",""
"","html-keyboard-response","151","697604","0.0-83.0-1.0","""event"",""trial"",""time""
""fullscreenenter"",""0"",""10107""
","
","
","""event"",""trial"",""time""
""fullscreenenter"",""0"",""10107""
","
","null","<p></p>","null","","","","","","","","","","","","","","","","","","","","","","",""
"","do_trial","152","702441","0.0-84.0-0.0","""event"",""trial"",""time""
""fullscreenenter"",""0"",""10107""
","
","
","""event"",""trial"",""time""
""fullscreenenter"",""0"",""10107""
","
","307.6999999284744","","","","","","","","50","1,1,0","0","coast","24","probe-38","0.6464010091969113","0.28032789929651303","0.09145549189518577","1","","","","","","","",""
"","html-keyboard-response","153","703455","0.0-84.0-1.0","""event"",""trial"",""time""
""fullscreenenter"",""0"",""10107""
","
","
","""event"",""trial"",""time""
""fullscreenenter"",""0"",""10107""
","
","null","<p></p>","null","","","","","","","","","","","","","","","","","","","","","","",""
"","do_trial","154","708457","0.0-85.0-0.0","""event"",""trial"",""time""
""fullscreenenter"",""0"",""10107""
","
","
","""event"",""trial"",""time""
""fullscreenenter"",""0"",""10107""
","
","457.5","","","","","","","","50","0,0,0","0","coast","25","probe-98","0.5736578688057532","0.3450548322725247","0.14602061067236569","0","","","","","","","",""
"","html-keyboard-response","155","709473","0.0-85.0-1.0","""event"",""trial"",""time""
""fullscreenenter"",""0"",""10107""
","
","
","""event"",""trial"",""time""
""fullscreenenter"",""0"",""10107""
","
","null","<p></p>","null","","","","","","","","","","","","","","","","","","","","","","",""
"","do_trial","156","714710","0.0-86.0-0.0","""event"",""trial"",""time""
""fullscreenenter"",""0"",""10107""
","
","
","""event"",""trial"",""time""
""fullscreenenter"",""0"",""10107""
","
","703.7000000476837","","","","","","","","50","1,0,0","0","coast","26","probe-17","0.6941562635752687","0.3705597512088923","0.14557399117420283","0","","","","","","","",""
"","html-keyboard-response","157","715722","0.0-86.0-1.0","""event"",""trial"",""time""
""fullscreenenter"",""0"",""10107""
","
","
","""event"",""trial"",""time""
""fullscreenenter"",""0"",""10107""
","
","null","<p></p>","null","","","","","","","","","","","","","","","","","","","","","","",""
"","do_trial","158","720878","0.0-87.0-0.0","""event"",""trial"",""time""
""fullscreenenter"",""0"",""10107""
","
","
","""event"",""trial"",""time""
""fullscreenenter"",""0"",""10107""
","
","612.1000000238419","","","","","","","","50","1,0,1","0","coast","27","probe-19","0.7578781152601738","0.3474340594657339","0.1287797200883248","0","","","","","","","",""
"","html-keyboard-response","159","721892","0.0-87.0-1.0","""event"",""trial"",""time""
""fullscreenenter"",""0"",""10107""
","
","
","""event"",""trial"",""time""
""fullscreenenter"",""0"",""10107""
","
","null","<p></p>","null","","","","","","","","","","","","","","","","","","","","","","",""
"","do_trial","160","726727","0.0-88.0-0.0","""event"",""trial"",""time""
""fullscreenenter"",""0"",""10107""
","
","
","""event"",""trial"",""time""
""fullscreenenter"",""0"",""10107""
","
","306","","","","","","","","50","1,1,0","0","coast","28","probe-35","0.6349072041701531","0.33797856019620875","0.15450775920154858","1","","","","","","","",""
"","html-keyboard-response","161","727739","0.0-88.0-1.0","""event"",""trial"",""time""
""fullscreenenter"",""0"",""10107""
","
","
","""event"",""trial"",""time""
""fullscreenenter"",""0"",""10107""
","
","null","<p></p>","null","","","","","","","","","","","","","","","","","","","","","","",""
"","do_trial","162","732895","0.0-89.0-0.0","""event"",""trial"",""time""
""fullscreenenter"",""0"",""10107""
","
","
","""event"",""trial"",""time""
""fullscreenenter"",""0"",""10107""
","
","623.5","","","","","","","","50","1,0,1","0","coast","29","probe-11","0.6831103462284877","0.1868393945478528","0.11065144550968598","0","","","","","","","",""
"","html-keyboard-response","163","733908","0.0-89.0-1.0","""event"",""trial"",""time""
""fullscreenenter"",""0"",""10107""
","
","
","""event"",""trial"",""time""
""fullscreenenter"",""0"",""10107""
","
","null","<p></p>","null","","","","","","","","","","","","","","","","","","","","","","",""
"","do_bye","164","735425","0.0-90.0-0.0","""event"",""trial"",""time""
""fullscreenenter"",""0"",""10107""
","
","
","""event"",""trial"",""time""
""fullscreenenter"",""0"",""10107""
","
","null","","","","","","","","null","","","","","","","","","","","","","","","","",""
"","break","165","739719","0.0-90.0-1.0","""event"",""trial"",""time""
""fullscreenenter"",""0"",""10107""
","
","
","""event"",""trial"",""time""
""fullscreenenter"",""0"",""10107""
","
","4293.400000095367","<div class='center'><p>Time to take a quick break! You have 2 minutes to rest, but you can move on sooner if you'd like.</p><p> Press the <b>space bar</b> to continue.</p></div>","32","","","","","","","","","","","","","","","","","","","","","","",""
"","do_travel","166","748721","0.0-91.0-0.0","""event"",""trial"",""time""
""fullscreenenter"",""0"",""10107""
","
","
","""event"",""trial"",""time""
""fullscreenenter"",""0"",""10107""
","
","null","","","","","","","","null","","","","","","","","","","","","","","","","",""
"","do_welcome","167","752731","0.0-91.0-1.0","""event"",""trial"",""time""
""fullscreenenter"",""0"",""10107""
","
","
","""event"",""trial"",""time""
""fullscreenenter"",""0"",""10107""
","
","null","","","","","","","","null","","","","","","","","","","","","","","","","",""
"","do_trial","168","758230","0.0-92.0-0.0","""event"",""trial"",""time""
""fullscreenenter"",""0"",""10107""
","
","
","""event"",""trial"",""time""
""fullscreenenter"",""0"",""10107""
","
","954.3999999761581","","","","","","","","49","1,0,0","1","forest","30","probe-228","1","0.2771186304065505","0.07411381130715906","1","","","","","","","",""
"","html-keyboard-response","169","759242","0.0-92.0-1.0","""event"",""trial"",""time""
""fullscreenenter"",""0"",""10107""
","
","
","""event"",""trial"",""time""
""fullscreenenter"",""0"",""10107""
","
","null","<p></p>","null","","","","","","","","","","","","","","","","","","","","","","",""
"","do_trial","170","764373","0.0-93.0-0.0","""event"",""trial"",""time""
""fullscreenenter"",""0"",""10107""
","
","
","""event"",""trial"",""time""
""fullscreenenter"",""0"",""10107""
","
","589.8999999761581","","","","","","","","49","1,0,0","1","forest","31","probe-43","1","0.3444006228882999","0.06363864777333135","1","","","","","","","",""
"","html-keyboard-response","171","765387","0.0-93.0-1.0","""event"",""trial"",""time""
""fullscreenenter"",""0"",""10107""
","
","
","""event"",""trial"",""time""
""fullscreenenter"",""0"",""10107""
","
","null","<p></p>","null","","","","","","","","","","","","","","","","","","","","","","",""
"","do_trial","172","770440","0.0-94.0-0.0","""event"",""trial"",""time""
""fullscreenenter"",""0"",""10107""
","
","
","""event"",""trial"",""time""
""fullscreenenter"",""0"",""10107""
","
","515.5","","","","","","","","49","1,0,0","1","forest","32","probe-163","1","0.226240160958805","0.07713823418700065","1","","","","","","","",""
"","html-keyboard-response","173","771452","0.0-94.0-1.0","""event"",""trial"",""time""
""fullscreenenter"",""0"",""10107""
","
","
","""event"",""trial"",""time""
""fullscreenenter"",""0"",""10107""
","
","null","<p></p>","null","","","","","","","","","","","","","","","","","","","","","","",""
"","do_trial","174","776887","0.0-95.0-0.0","""event"",""trial"",""time""
""fullscreenenter"",""0"",""10107""
","
","
","""event"",""trial"",""time""
""fullscreenenter"",""0"",""10107""
","
","901.1999999284744","","","","","","","","49","1,0,1","1","forest","33","probe-133","0.8798274595180239","0.33298215017474825","0.21739598056049528","1","","","","","","","",""
"","html-keyboard-response","175","777902","0.0-95.0-1.0","""event"",""trial"",""time""
""fullscreenenter"",""0"",""10107""
","
","
","""event"",""trial"",""time""
""fullscreenenter"",""0"",""10107""
","
","null","<p></p>","null","","","","","","","","","","","","","","","","","","","","","","",""
"","do_trial","176","782830","0.0-96.0-0.0","""event"",""trial"",""time""
""fullscreenenter"",""0"",""10107""
","
","
","""event"",""trial"",""time""
""fullscreenenter"",""0"",""10107""
","
","395.8000000715256","","","","","","","","49","1,1,1","1","forest","34","probe-211","0.8301288179204146","0.41838554871853134","0.2856323052489615","1","","","","","","","",""
"","html-keyboard-response","177","783845","0.0-96.0-1.0","""event"",""trial"",""time""
""fullscreenenter"",""0"",""10107""
","
","
","""event"",""trial"",""time""
""fullscreenenter"",""0"",""10107""
","
","null","<p></p>","null","","","","","","","","","","","","","","","","","","","","","","",""
"","do_trial","178","788692","0.0-97.0-0.0","""event"",""trial"",""time""
""fullscreenenter"",""0"",""10107""
","
","
","""event"",""trial"",""time""
""fullscreenenter"",""0"",""10107""
","
","308.2000000476837","","","","","","","","49","1,0,0","1","forest","35","probe-115","0.8003975533020868","0.45798214452982416","0.19501422245091096","1","","","","","","","",""
"","html-keyboard-response","179","789704","0.0-97.0-1.0","""event"",""trial"",""time""
""fullscreenenter"",""0"",""10107""
","
","
","""event"",""trial"",""time""
""fullscreenenter"",""0"",""10107""
","
","null","<p></p>","null","","","","","","","","","","","","","","","","","","","","","","",""
"","do_trial","180","794939","0.0-98.0-0.0","""event"",""trial"",""time""
""fullscreenenter"",""0"",""10107""
","
","
","""event"",""trial"",""time""
""fullscreenenter"",""0"",""10107""
","
","698.5","","","","","","","","49","0,0,0","1","forest","36","probe-150","0.6341735361432307","0.37968590403990105","0.07824086744007118","0","","","","","","","",""
"","html-keyboard-response","181","795949","0.0-98.0-1.0","""event"",""trial"",""time""
""fullscreenenter"",""0"",""10107""
","
","
","""event"",""trial"",""time""
""fullscreenenter"",""0"",""10107""
","
","null","<p></p>","null","","","","","","","","","","","","","","","","","","","","","","",""
"","do_trial","182","801079","0.0-99.0-0.0","""event"",""trial"",""time""
""fullscreenenter"",""0"",""10107""
","
","
","""event"",""trial"",""time""
""fullscreenenter"",""0"",""10107""
","
","592","","","","","","","","49","1,0,0","1","forest","37","probe-61","0.7710567759956389","0.390448391565869","0.17358892031696296","1","","","","","","","",""
"","html-keyboard-response","183","802092","0.0-99.0-1.0","""event"",""trial"",""time""
""fullscreenenter"",""0"",""10107""
","
","
","""event"",""trial"",""time""
""fullscreenenter"",""0"",""10107""
","
","null","<p></p>","null","","","","","","","","","","","","","","","","","","","","","","",""
"","do_trial","184","807554","0.0-100.0-0.0","""event"",""trial"",""time""
""fullscreenenter"",""0"",""10107""
","
","
","""event"",""trial"",""time""
""fullscreenenter"",""0"",""10107""
","
","918.1999999284744","","","","","","","","49","0,0,0","1","forest","38","probe-65","0.5459773096893887","0.3116948282393943","0.18016362993398932","0","","","","","","","",""
"","html-keyboard-response","185","808567","0.0-100.0-1.0","""event"",""trial"",""time""
""fullscreenenter"",""0"",""10107""
","
","
","""event"",""trial"",""time""
""fullscreenenter"",""0"",""10107""
","
","null","<p></p>","null","","","","","","","","","","","","","","","","","","","","","","",""
"","do_trial","186","813800","0.0-101.0-0.0","""event"",""trial"",""time""
""fullscreenenter"",""0"",""10107""
","
","
","""event"",""trial"",""time""
""fullscreenenter"",""0"",""10107""
","
","692.5","","","","","","","","49","0,0,0","1","forest","39","probe-107","0.517882581206295","0.34053367207236684","0.3134812862498277","0","","","","","","","",""
"","html-keyboard-response","187","814812","0.0-101.0-1.0","""event"",""trial"",""time""
""fullscreenenter"",""0"",""10107""
","
","
","""event"",""trial"",""time""
""fullscreenenter"",""0"",""10107""
","
","null","<p></p>","null","","","","","","","","","","","","","","","","","","","","","","",""
"","do_trial","188","820152","0.0-102.0-0.0","""event"",""trial"",""time""
""fullscreenenter"",""0"",""10107""
","
","
","""event"",""trial"",""time""
""fullscreenenter"",""0"",""10107""
","
","802.5999999046326","","","","","","","","49","1,0,1","1","forest","40","probe-152","0.5702485202204877","0.39416544419713523","0.33288261150558623","1","","","","","","","",""
"","html-keyboard-response","189","821165","0.0-102.0-1.0","""event"",""trial"",""time""
""fullscreenenter"",""0"",""10107""
","
","
","""event"",""trial"",""time""
""fullscreenenter"",""0"",""10107""
","
","null","<p></p>","null","","","","","","","","","","","","","","","","","","","","","","",""
"","do_trial","190","826678","0.0-103.0-0.0","""event"",""trial"",""time""
""fullscreenenter"",""0"",""10107""
","
","
","""event"",""trial"",""time""
""fullscreenenter"",""0"",""10107""
","
","967.1999999284744","","","","","","","","49","0,0,0","1","forest","41","probe-167","0.48609828821721485","0.6173521487675268","0.3058051251607149","0","","","","","","","",""
"","html-keyboard-response","191","827692","0.0-103.0-1.0","""event"",""trial"",""time""
""fullscreenenter"",""0"",""10107""
","
","
","""event"",""trial"",""time""
""fullscreenenter"",""0"",""10107""
","
","null","<p></p>","null","","","","","","","","","","","","","","","","","","","","","","",""
"","do_trial","192","832635","0.0-104.0-0.0","""event"",""trial"",""time""
""fullscreenenter"",""0"",""10107""
","
","
","""event"",""trial"",""time""
""fullscreenenter"",""0"",""10107""
","
","397","","","","","","","","49","0,1,0","1","forest","42","probe-59","0.43080051814772213","0.4484940568918049","0.34194518809752167","0","","","","","","","",""
"","html-keyboard-response","193","833651","0.0-104.0-1.0","""event"",""trial"",""time""
""fullscreenenter"",""0"",""10107""
","
","
","""event"",""trial"",""time""
""fullscreenenter"",""0"",""10107""
","
","null","<p></p>","null","","","","","","","","","","","","","","","","","","","","","","",""
"","do_trial","194","839163","0.0-105.0-0.0","""event"",""trial"",""time""
""fullscreenenter"",""0"",""10107""
","
","
","""event"",""trial"",""time""
""fullscreenenter"",""0"",""10107""
","
","974.7000000476837","","","","","","","","49","1,0,0","1","forest","43","probe-49","0.3276684927746705","0.23863817704704446","0.43806292615760845","1","","","","","","","",""
"","html-keyboard-response","195","840176","0.0-105.0-1.0","""event"",""trial"",""time""
""fullscreenenter"",""0"",""10107""
","
","
","""event"",""trial"",""time""
""fullscreenenter"",""0"",""10107""
","
","null","<p></p>","null","","","","","","","","","","","","","","","","","","","","","","",""
"","do_trial","196","845504","0.0-106.0-0.0","""event"",""trial"",""time""
""fullscreenenter"",""0"",""10107""
","
","
","""event"",""trial"",""time""
""fullscreenenter"",""0"",""10107""
","
","794.8999999761581","","","","","","","","50","0,0,1","1","forest","44","probe-217","0.39403755608793517","0.20653915160007713","0.6635713091629128","0","","","","","","","",""
"","html-keyboard-response","197","846517","0.0-106.0-1.0","""event"",""trial"",""time""
""fullscreenenter"",""0"",""10107""
","
","
","""event"",""trial"",""time""
""fullscreenenter"",""0"",""10107""
","
","null","<p></p>","null","","","","","","","","","","","","","","","","","","","","","","",""
"","do_trial","198","851369","0.0-107.0-0.0","""event"",""trial"",""time""
""fullscreenenter"",""0"",""10107""
","
","
","""event"",""trial"",""time""
""fullscreenenter"",""0"",""10107""
","
","320.10000002384186","","","","","","","","50","0,0,1","1","forest","45","probe-01","0.37280555598722404","0.1613678437961316","0.6568791939826629","0","","","","","","","",""
"","html-keyboard-response","199","852381","0.0-107.0-1.0","""event"",""trial"",""time""
""fullscreenenter"",""0"",""10107""
","
","
","""event"",""trial"",""time""
""fullscreenenter"",""0"",""10107""
","
","null","<p></p>","null","","","","","","","","","","","","","","","","","","","","","","",""
"","do_trial","200","857606","0.0-108.0-0.0","""event"",""trial"",""time""
""fullscreenenter"",""0"",""10107""
","
","
","""event"",""trial"",""time""
""fullscreenenter"",""0"",""10107""
","
","679.7000000476837","","","","","","","","51","0,0,1","1","forest","46","probe-198","0.4593772053814219","0.12878719638090433","0.7315183557942032","1","","","","","","","",""
"","html-keyboard-response","201","858619","0.0-108.0-1.0","""event"",""trial"",""time""
""fullscreenenter"",""0"",""10107""
","
","
","""event"",""trial"",""time""
""fullscreenenter"",""0"",""10107""
","
","null","<p></p>","null","","","","","","","","","","","","","","","","","","","","","","",""
"","do_trial","202","863743","0.0-109.0-0.0","""event"",""trial"",""time""
""fullscreenenter"",""0"",""10107""
","
","
","""event"",""trial"",""time""
""fullscreenenter"",""0"",""10107""
","
","588.2000000476837","","","","","","","","51","0,0,1","1","forest","47","probe-48","0.4184942184422947","0.05673354191966995","0.7039507448673784","1","","","","","","","",""
"","html-keyboard-response","203","864755","0.0-109.0-1.0","""event"",""trial"",""time""
""fullscreenenter"",""0"",""10107""
","
","
","""event"",""trial"",""time""
""fullscreenenter"",""0"",""10107""
","
","null","<p></p>","null","","","","","","","","","","","","","","","","","","","","","","",""
"","do_trial","204","870006","0.0-110.0-0.0","""event"",""trial"",""time""
""fullscreenenter"",""0"",""10107""
","
","
","""event"",""trial"",""time""
""fullscreenenter"",""0"",""10107""
","
","716.7000000476837","","","","","","","","51","0,0,1","1","forest","48","probe-112","0.3601424006264178","0.26870444292114415","0.626061933475343","1","","","","","","","",""
"","html-keyboard-response","205","871019","0.0-110.0-1.0","""event"",""trial"",""time""
""fullscreenenter"",""0"",""10107""
","
","
","""event"",""trial"",""time""
""fullscreenenter"",""0"",""10107""
","
","null","<p></p>","null","","","","","","","","","","","","","","","","","","","","","","",""
"","do_trial","206","875884","0.0-111.0-0.0","""event"",""trial"",""time""
""fullscreenenter"",""0"",""10107""
","
","
","""event"",""trial"",""time""
""fullscreenenter"",""0"",""10107""
","
","332.6999999284744","","","","","","","","51","0,1,1","1","forest","49","probe-08","0.28076769535376556","0.30164362618875645","0.6335172443846664","1","","","","","","","",""
"","html-keyboard-response","207","876897","0.0-111.0-1.0","""event"",""trial"",""time""
""fullscreenenter"",""0"",""10107""
","
","
","""event"",""trial"",""time""
""fullscreenenter"",""0"",""10107""
","
","null","<p></p>","null","","","","","","","","","","","","","","","","","","","","","","",""
"","do_trial","208","882086","0.0-112.0-0.0","""event"",""trial"",""time""
""fullscreenenter"",""0"",""10107""
","
","
","""event"",""trial"",""time""
""fullscreenenter"",""0"",""10107""
","
","648","","","","","","","","51","0,0,1","1","forest","50","probe-161","0.3300074320096637","0.20807963596119236","0.8936881199107843","1","","","","","","","",""
"","html-keyboard-response","209","883097","0.0-112.0-1.0","""event"",""trial"",""time""
""fullscreenenter"",""0"",""10107""
","
","
","""event"",""trial"",""time""
""fullscreenenter"",""0"",""10107""
","
","null","<p></p>","null","","","","","","","","","","","","","","","","","","","","","","",""
"","do_trial","210","888439","0.0-113.0-0.0","""event"",""trial"",""time""
""fullscreenenter"",""0"",""10107""
","
","
","""event"",""trial"",""time""
""fullscreenenter"",""0"",""10107""
","
","807.3999999761581","","","","","","","","51","0,0,1","1","forest","51","probe-31","0.322243526778657","0.27094893702041384","0.7714666515268157","1","","","","","","","",""
"","html-keyboard-response","211","889451","0.0-113.0-1.0","""event"",""trial"",""time""
""fullscreenenter"",""0"",""10107""
","
","
","""event"",""trial"",""time""
""fullscreenenter"",""0"",""10107""
","
","null","<p></p>","null","","","","","","","","","","","","","","","","","","","","","","",""
"","do_trial","212","894472","0.0-114.0-0.0","""event"",""trial"",""time""
""fullscreenenter"",""0"",""10107""
","
","
","""event"",""trial"",""time""
""fullscreenenter"",""0"",""10107""
","
","478","","","","","","","","51","0,0,0","1","forest","52","probe-22","0.32836412402637705","0.0864251654408105","0.8208693288269712","0","","","","","","","",""
"","html-keyboard-response","213","895485","0.0-114.0-1.0","""event"",""trial"",""time""
""fullscreenenter"",""0"",""10107""
","
","
","""event"",""trial"",""time""
""fullscreenenter"",""0"",""10107""
","
","null","<p></p>","null","","","","","","","","","","","","","","","","","","","","","","",""
"","do_trial","214","900412","0.0-115.0-0.0","""event"",""trial"",""time""
""fullscreenenter"",""0"",""10107""
","
","
","""event"",""trial"",""time""
""fullscreenenter"",""0"",""10107""
","
","392.60000002384186","","","","","","","","51","0,0,1","1","forest","53","probe-93","0.22832199238348455","0.22419325647137975","0.7570400953407148","1","","","","","","","",""
"","html-keyboard-response","215","901424","0.0-115.0-1.0","""event"",""trial"",""time""
""fullscreenenter"",""0"",""10107""
","
","
","""event"",""trial"",""time""
""fullscreenenter"",""0"",""10107""
","
","null","<p></p>","null","","","","","","","","","","","","","","","","","","","","","","",""
"","do_trial","216","907183","0.0-116.0-0.0","""event"",""trial"",""time""
""fullscreenenter"",""0"",""10107""
","
","
","""event"",""trial"",""time""
""fullscreenenter"",""0"",""10107""
","
","1215.1999999284744","","","","","","","","51","0,0,1","1","forest","54","probe-116","0.20048823988325282","0.15691464521179424","0.5930064223633588","1","","","","","","","",""
"","html-keyboard-response","217","908195","0.0-116.0-1.0","""event"",""trial"",""time""
""fullscreenenter"",""0"",""10107""
","
","
","""event"",""trial"",""time""
""fullscreenenter"",""0"",""10107""
","
","null","<p></p>","null","","","","","","","","","","","","","","","","","","","","","","",""
"","do_trial","218","913167","0.0-117.0-0.0","""event"",""trial"",""time""
""fullscreenenter"",""0"",""10107""
","
","
","""event"",""trial"",""time""
""fullscreenenter"",""0"",""10107""
","
","444.5","","","","","","","","51","0,0,1","1","forest","55","probe-28","0.21631141831142586","0.15896335482067428","0.5048308514094434","1","","","","","","","",""
"","html-keyboard-response","219","914181","0.0-117.0-1.0","""event"",""trial"",""time""
""fullscreenenter"",""0"",""10107""
","
","
","""event"",""trial"",""time""
""fullscreenenter"",""0"",""10107""
","
","null","<p></p>","null","","","","","","","","","","","","","","","","","","","","","","",""
"","do_trial","220","919554","0.0-118.0-0.0","""event"",""trial"",""time""
""fullscreenenter"",""0"",""10107""
","
","
","""event"",""trial"",""time""
""fullscreenenter"",""0"",""10107""
","
","833.1999999284744","","","","","","","","51","0,0,1","1","forest","56","probe-172","0.3631570763669927","0.17073379021978402","0.5302706259951295","1","","","","","","","",""
"","html-keyboard-response","221","920566","0.0-118.0-1.0","""event"",""trial"",""time""
""fullscreenenter"",""0"",""10107""
","
","
","""event"",""trial"",""time""
""fullscreenenter"",""0"",""10107""
","
","null","<p></p>","null","","","","","","","","","","","","","","","","","","","","","","",""
"","do_trial","222","925785","0.0-119.0-0.0","""event"",""trial"",""time""
""fullscreenenter"",""0"",""10107""
","
","
","""event"",""trial"",""time""
""fullscreenenter"",""0"",""10107""
","
","679.1999999284744","","","","","","","","51","0,0,1","1","forest","57","probe-162","0.4334191975336208","0.23574762607206146","0.7465735734121985","1","","","","","","","",""
"","html-keyboard-response","223","926800","0.0-119.0-1.0","""event"",""trial"",""time""
""fullscreenenter"",""0"",""10107""
","
","
","""event"",""trial"",""time""
""fullscreenenter"",""0"",""10107""
","
","null","<p></p>","null","","","","","","","","","","","","","","","","","","","","","","",""
"","do_trial","224","931834","0.0-120.0-0.0","""event"",""trial"",""time""
""fullscreenenter"",""0"",""10107""
","
","
","""event"",""trial"",""time""
""fullscreenenter"",""0"",""10107""
","
","498.90000009536743","","","","","","","","51","0,0,0","1","forest","58","probe-94","0.3594993869971103","0.08418701644746211","0.6750804458884159","0","","","","","","","",""
"","html-keyboard-response","225","932847","0.0-120.0-1.0","""event"",""trial"",""time""
""fullscreenenter"",""0"",""10107""
","
","
","""event"",""trial"",""time""
""fullscreenenter"",""0"",""10107""
","
","null","<p></p>","null","","","","","","","","","","","","","","","","","","","","","","",""
"","do_trial","226","937957","0.0-121.0-0.0","""event"",""trial"",""time""
""fullscreenenter"",""0"",""10107""
","
","
","""event"",""trial"",""time""
""fullscreenenter"",""0"",""10107""
","
","568.1000000238419","","","","","","","","51","1,0,0","1","forest","59","probe-41","0.4257410335107254","0.07861592865699142","0.48886716761246557","0","","","","","","","",""
"","html-keyboard-response","227","938969","0.0-121.0-1.0","""event"",""trial"",""time""
""fullscreenenter"",""0"",""10107""
","
","
","""event"",""trial"",""time""
""fullscreenenter"",""0"",""10107""
","
","null","<p></p>","null","","","","","","","","","","","","","","","","","","","","","","",""
"","do_trial","228","944099","0.0-122.0-0.0","""event"",""trial"",""time""
""fullscreenenter"",""0"",""10107""
","
","
","""event"",""trial"",""time""
""fullscreenenter"",""0"",""10107""
","
","590.6999999284744","","","","","","","","51","0,0,0","1","forest","60","probe-27","0.3926488610315696","0.08168296170868196","0.4764470480212523","0","","","","","","","",""
"","html-keyboard-response","229","945113","0.0-122.0-1.0","""event"",""trial"",""time""
""fullscreenenter"",""0"",""10107""
","
","
","""event"",""trial"",""time""
""fullscreenenter"",""0"",""10107""
","
","null","<p></p>","null","","","","","","","","","","","","","","","","","","","","","","",""
"","do_trial","230","950128","0.0-123.0-0.0","""event"",""trial"",""time""
""fullscreenenter"",""0"",""10107""
","
","
","""event"",""trial"",""time""
""fullscreenenter"",""0"",""10107""
","
","471.7000000476837","","","","","","","","49","1,0,0","1","forest","61","probe-32","0.4053576249790574","0.17690470031806002","0.531708059100433","1","","","","","","","",""
"","html-keyboard-response","231","951141","0.0-123.0-1.0","""event"",""trial"",""time""
""fullscreenenter"",""0"",""10107""
","
","
","""event"",""trial"",""time""
""fullscreenenter"",""0"",""10107""
","
","null","<p></p>","null","","","","","","","","","","","","","","","","","","","","","","",""
"","do_trial","232","956894","0.0-124.0-0.0","""event"",""trial"",""time""
""fullscreenenter"",""0"",""10107""
","
","
","""event"",""trial"",""time""
""fullscreenenter"",""0"",""10107""
","
","1214.1000000238419","","","","","","","","49","0,0,0","1","forest","62","probe-216","0.2715546842371125","0.0826242461849459","0.5406830826594018","0","","","","","","","",""
"","html-keyboard-response","233","957909","0.0-124.0-1.0","""event"",""trial"",""time""
""fullscreenenter"",""0"",""10107""
","
","
","""event"",""trial"",""time""
""fullscreenenter"",""0"",""10107""
","
","null","<p></p>","null","","","","","","","","","","","","","","","","","","","","","","",""
"","do_trial","234","963326","0.0-125.0-0.0","""event"",""trial"",""time""
""fullscreenenter"",""0"",""10107""
","
","
","""event"",""trial"",""time""
""fullscreenenter"",""0"",""10107""
","
","878.6999999284744","","","","","","","","49","0,0,0","1","forest","63","probe-23","0.42842435898917663","0.15107487883269152","0.5654064657294222","0","","","","","","","",""
"","html-keyboard-response","235","964339","0.0-125.0-1.0","""event"",""trial"",""time""
""fullscreenenter"",""0"",""10107""
","
","
","""event"",""trial"",""time""
""fullscreenenter"",""0"",""10107""
","
","null","<p></p>","null","","","","","","","","","","","","","","","","","","","","","","",""
"","do_trial","236","969573","0.0-126.0-0.0","""event"",""trial"",""time""
""fullscreenenter"",""0"",""10107""
","
","
","""event"",""trial"",""time""
""fullscreenenter"",""0"",""10107""
","
","688.8000000715256","","","","","","","","49","0,0,0","1","forest","64","probe-03","0.3365440322984274","0.0874476702681784","0.517290157538173","0","","","","","","","",""
"","html-keyboard-response","237","970586","0.0-126.0-1.0","""event"",""trial"",""time""
""fullscreenenter"",""0"",""10107""
","
","
","""event"",""trial"",""time""
""fullscreenenter"",""0"",""10107""
","
","null","<p></p>","null","","","","","","","","","","","","","","","","","","","","","","",""
"","do_trial","238","975699","0.0-127.0-0.0","""event"",""trial"",""time""
""fullscreenenter"",""0"",""10107""
","
","
","""event"",""trial"",""time""
""fullscreenenter"",""0"",""10107""
","
","554.5","","","","","","","","51","1,0,1","1","forest","65","probe-182","0.29518834511390035","0.11194284884517895","0.5396883582598538","1","","","","","","","",""
"","html-keyboard-response","239","976712","0.0-127.0-1.0","""event"",""trial"",""time""
""fullscreenenter"",""0"",""10107""
","
","
","""event"",""trial"",""time""
""fullscreenenter"",""0"",""10107""
","
","null","<p></p>","null","","","","","","","","","","","","","","","","","","","","","","",""
"","do_trial","240","981654","0.0-128.0-0.0","""event"",""trial"",""time""
""fullscreenenter"",""0"",""10107""
","
","
","""event"",""trial"",""time""
""fullscreenenter"",""0"",""10107""
","
","404.2999999523163","","","","","","","","51","1,0,0","1","forest","66","probe-104","0.3987273989090718","0.1536298937175288","0.5022715640648207","0","","","","","","","",""
"","html-keyboard-response","241","982667","0.0-128.0-1.0","""event"",""trial"",""time""
""fullscreenenter"",""0"",""10107""
","
","
","""event"",""trial"",""time""
""fullscreenenter"",""0"",""10107""
","
","null","<p></p>","null","","","","","","","","","","","","","","","","","","","","","","",""
"","do_trial","242","987551","0.0-129.0-0.0","""event"",""trial"",""time""
""fullscreenenter"",""0"",""10107""
","
","
","""event"",""trial"",""time""
""fullscreenenter"",""0"",""10107""
","
","351.6999999284744","","","","","","","","49","1,0,0","1","forest","67","probe-203","0.4287371004090747","0.10072972889638575","0.5741791337099514","1","","","","","","","",""
"","html-keyboard-response","243","988562","0.0-129.0-1.0","""event"",""trial"",""time""
""fullscreenenter"",""0"",""10107""
","
","
","""event"",""trial"",""time""
""fullscreenenter"",""0"",""10107""
","
","null","<p></p>","null","","","","","","","","","","","","","","","","","","","","","","",""
"","do_trial","244","993630","0.0-130.0-0.0","""event"",""trial"",""time""
""fullscreenenter"",""0"",""10107""
","
","
","""event"",""trial"",""time""
""fullscreenenter"",""0"",""10107""
","
","531","","","","","","","","49","0,0,1","1","forest","68","probe-91","0.3944373329819244","0.13383001908325676","0.5470655920798683","0","","","","","","","",""
"","html-keyboard-response","245","994644","0.0-130.0-1.0","""event"",""trial"",""time""
""fullscreenenter"",""0"",""10107""
","
","
","""event"",""trial"",""time""
""fullscreenenter"",""0"",""10107""
","
","null","<p></p>","null","","","","","","","","","","","","","","","","","","","","","","",""
"","do_trial","246","999557","0.0-131.0-0.0","""event"",""trial"",""time""
""fullscreenenter"",""0"",""10107""
","
","
","""event"",""trial"",""time""
""fullscreenenter"",""0"",""10107""
","
","377.1999999284744","","","","","","","","50","0,0,1","1","forest","69","probe-67","0.3315448093110748","0.1667340520954226","0.5102243107629445","0","","","","","","","",""
"","html-keyboard-response","247","1000570","0.0-131.0-1.0","""event"",""trial"",""time""
""fullscreenenter"",""0"",""10107""
","
","
","""event"",""trial"",""time""
""fullscreenenter"",""0"",""10107""
","
","null","<p></p>","null","","","","","","","","","","","","","","","","","","","","","","",""
"","do_bye","248","1002075","0.0-132.0-0.0","""event"",""trial"",""time""
""fullscreenenter"",""0"",""10107""
","
","
","""event"",""trial"",""time""
""fullscreenenter"",""0"",""10107""
","
","null","","","","","","","","null","","","","","","","","","","","","","","","","",""
"","break","249","1002762","0.0-132.0-1.0","""event"",""trial"",""time""
""fullscreenenter"",""0"",""10107""
","
","
","""event"",""trial"",""time""
""fullscreenenter"",""0"",""10107""
","
","686.8999999761581","<div class='center'><p>Time to take a quick break! You have 2 minutes to rest, but you can move on sooner if you'd like.</p><p> Press the <b>space bar</b> to continue.</p></div>","32","","","","","","","","","","","","","","","","","","","","","","",""
"","do_travel","250","1011775","0.0-133.0-0.0","""event"",""trial"",""time""
""fullscreenenter"",""0"",""10107""
","
","
","""event"",""trial"",""time""
""fullscreenenter"",""0"",""10107""
","
","null","","","","","","","","null","","","","","","","","","","","","","","","","",""
"","do_welcome","251","1015788","0.0-133.0-1.0","""event"",""trial"",""time""
""fullscreenenter"",""0"",""10107""
","
","
","""event"",""trial"",""time""
""fullscreenenter"",""0"",""10107""
","
","null","","","","","","","","null","","","","","","","","","","","","","","","","",""
"","do_trial","252","1021730","0.0-134.0-0.0","""event"",""trial"",""time""
""fullscreenenter"",""0"",""10107""
","
","
","""event"",""trial"",""time""
""fullscreenenter"",""0"",""10107""
","
","1395.7999999523163","","","","","","","","49","0,1,1","2","countryside","70","probe-97","0.3705072055480622","0.07044470125541227","1","0","","","","","","","",""
"","html-keyboard-response","253","1022742","0.0-134.0-1.0","""event"",""trial"",""time""
""fullscreenenter"",""0"",""10107""
","
","
","""event"",""trial"",""time""
""fullscreenenter"",""0"",""10107""
","
","null","<p></p>","null","","","","","","","","","","","","","","","","","","","","","","",""
"","do_trial","254","1027962","0.0-135.0-0.0","""event"",""trial"",""time""
""fullscreenenter"",""0"",""10107""
","
","
","""event"",""trial"",""time""
""fullscreenenter"",""0"",""10107""
","
","677.9000000953674","","","","","","","","50","1,0,1","2","countryside","71","probe-47","0.45731056809476117","0.09003520582642258","1","0","","","","","","","",""
"","html-keyboard-response","255","1028974","0.0-135.0-1.0","""event"",""trial"",""time""
""fullscreenenter"",""0"",""10107""
","
","
","""event"",""trial"",""time""
""fullscreenenter"",""0"",""10107""
","
","null","<p></p>","null","","","","","","","","","","","","","","","","","","","","","","",""
"","do_trial","256","1034516","0.0-136.0-0.0","""event"",""trial"",""time""
""fullscreenenter"",""0"",""10107""
","
","
","""event"",""trial"",""time""
""fullscreenenter"",""0"",""10107""
","
","1004.1000000238419","","","","","","","","51","1,1,1","2","countryside","72","probe-90","0.3933136349759249","0.06193062089008806","0.8231601538230452","1","","","","","","","",""
"","html-keyboard-response","257","1035530","0.0-136.0-1.0","""event"",""trial"",""time""
""fullscreenenter"",""0"",""10107""
","
","
","""event"",""trial"",""time""
""fullscreenenter"",""0"",""10107""
","
","null","<p></p>","null","","","","","","","","","","","","","","","","","","","","","","",""
