"success","trial_type","trial_index","time_elapsed","internal_node_id","interactions","blur_events","focus_events","fullscreenenter_events","fullscreenexit_events","rt","stimulus","key_press","subject_id","participant_id","age","gender","prompt","response","choice_outcomes","context_n","context_img_id","trial_n","probe_img_id","pR_red","pR_white","pR_black","outcome","contextArray_ind","validImageProbes","invalidImageProbes","pRew_Red","pRew_White","pRew_Black","availableForMemProbe","choice_blocks"
"true","fullscreen","0","4969","0.0-0.0","""event"",""trial"",""time""
""fullscreenenter"",""0"",""4004""
","
","
","""event"",""trial"",""time""
""fullscreenenter"",""0"",""4004""
","
","","","","","","","","","","","","","","","","","","","","","","","","","",""
"","pavlovia","1","4975","0.0-1.0","""event"",""trial"",""time""
""fullscreenenter"",""0"",""4004""
","
","
","""event"",""trial"",""time""
""fullscreenenter"",""0"",""4004""
","
","","","","","","","","","","","","","","","","","","","","","","","","","",""
"","instruc1","2","50108","0.0-2.0","""event"",""trial"",""time""
""fullscreenenter"",""0"",""4004""
","
","
","""event"",""trial"",""time""
""fullscreenenter"",""0"",""4004""
","
","null","run_exp/static/audio/clip_1_welcome.m4a","null","288","51","15","Female","<div class='center'><p>Welcome! This is the first part of the study. It will last ~30 minutes. In part 1 and part 2 of the study, you are the head captain of a pirate ship traveling around the world to different islands. You will play a few different games throughout these two parts. Here is an overview of them:</p><br><p>Part 1 (today)</p><p>1. Instructions, practice game, and quiz</p><p>2. Pick a pirate game on 6 different islands</p><br><p>Part 2 (tomorrow)</p><p>3. Pick a pirate game and memory game</p><p>4. Where did you see this ship? </p></div>","","","","","","","","","","","","","","","","","",""
"","html-keyboard-response","3","52364","0.0-3.0","""event"",""trial"",""time""
""fullscreenenter"",""0"",""4004""
","
","
","""event"",""trial"",""time""
""fullscreenenter"",""0"",""4004""
","
","2253.4000000059605","<div class='center'><p>Welcome! This is the first part of the study. It will last ~30 minutes. In part 1 and part 2 of the study, you are the head captain of a pirate ship traveling around the world to different islands. You will play a few different games throughout these two parts. Here is an overview of them:</p><br><p>Part 1 (today)</p><p>1. Instructions, practice game, and quiz</p><p>2. Pick a pirate game on 6 different islands</p><br><p>Part 2 (tomorrow)</p><p>3. Pick a pirate game and memory game</p><p>4. Where did you see this ship? </p><p><b>[Press the space bar to continue]</b></p></div>","32","","","","","","","","","","","","","","","","","","","","","","",""
"","instruc2","4","57647","0.0-4.0","""event"",""trial"",""time""
""fullscreenenter"",""0"",""4004""
","
","
","""event"",""trial"",""time""
""fullscreenenter"",""0"",""4004""
","
","null","run_exp/static/audio/clip_2_different_places.m4a","null","","","","","<div class='center'><p>Today, you’ll visit these 6 islands on your journey. You'll be able to see these islands from your ship.</p><p><img src='run_exp/static/images/contexts/all_contexts.png' height='500'></p></div>","","","","","","","","","","","","","","","","","",""
"","html-keyboard-response","5","62707","0.0-5.0","""event"",""trial"",""time""
""fullscreenenter"",""0"",""4004""
","
","
","""event"",""trial"",""time""
""fullscreenenter"",""0"",""4004""
","
","5057.199999988079","<div class='center'><p>Today, you’ll visit these 6 islands on your journey. You'll be able to see these islands from your ship.</p><p><img src='run_exp/static/images/contexts/all_contexts.png' height='500'></p><p><b>[Press the space bar to continue]</b></p></div>","32","","","","","","","","","","","","","","","","","","","","","","",""
"","instruc3","6","72387","0.0-6.0","""event"",""trial"",""time""
""fullscreenenter"",""0"",""4004""
","
","
","""event"",""trial"",""time""
""fullscreenenter"",""0"",""4004""
","
","null","run_exp/static/audio/clip_3_goal_of_game_1.m4a","null","","","","","<div class='center'><p> The pirates on your ship will rob other ships as they leave the island.</p> These ships have just sold their goods to the islanders, so they will be filled with lots and lots of gold.</p><p><img src='run_exp/static/images/tutorial/ship_center.png' height='400'></p></div>","","","","","","","","","","","","","","","","","",""
"","html-keyboard-response","7","74083","0.0-7.0","""event"",""trial"",""time""
""fullscreenenter"",""0"",""4004""
","
","
","""event"",""trial"",""time""
""fullscreenenter"",""0"",""4004""
","
","1693.9000000059605","<div class='center'><p> The pirates on your ship will rob other ships as they leave the island.</p> These ships have just sold their goods to the islanders, so they will be filled with lots and lots of gold.</p><p><img src='run_exp/static/images/tutorial/ship_center.png' height='400'></p><p><b>[Press the space bar to continue]</b></p></div>","32","","","","","","","","","","","","","","","","","","","","","","",""
"","instruc4","8","102067","0.0-8.0","""event"",""trial"",""time""
""fullscreenenter"",""0"",""4004""
","
","
","""event"",""trial"",""time""
""fullscreenenter"",""0"",""4004""
","
","null","run_exp/static/audio/clip_4_goal_of_game_2.m4a","null","","","","","<div class='center'><p>As the head captain, you do not have to rob any ships yourself. Another pirate will be doing the robbing for you. First, you will choose a pirate to rob the next ship.</p><p><img src='run_exp/static/images/tutorial/pirates_all_crop.png' height='200'></p><p>Then, you'll see if the pirate successfully robbed the ship of their gold. If they were successful, then you'll get a stack of gold coins like this:</p><p><img src='run_exp/static/images/tutorial/reward.png' height='150'></p><p> If they were <b>not</b> successful, then you'll get no gold coins, and you'll see a big red x like this: </p><p><img src='run_exp/static/images/tutorial/reward_no.png' height='150'></p><p> How much bonus money you make is based on how many gold coins you collect.</p><div>","","","","","","","","","","","","","","","","","",""
"","html-keyboard-response","9","111747","0.0-9.0","""event"",""trial"",""time""
""fullscreenenter"",""0"",""4004""
","
","
","""event"",""trial"",""time""
""fullscreenenter"",""0"",""4004""
","
","9676.800000011921","<div class='center'><p>As the head captain, you do not have to rob any ships yourself. Another pirate will be doing the robbing for you. First, you will choose a pirate to rob the next ship.</p><p><img src='run_exp/static/images/tutorial/pirates_all_crop.png' height='200'></p><p>Then, you'll see if the pirate successfully robbed the ship of their gold. If they were successful, then you'll get a stack of gold coins like this:</p><p><img src='run_exp/static/images/tutorial/reward.png' height='150'></p><p> If they were <b>not</b> successful, then you'll get no gold coins, and you'll see a big red x like this: </p><p><img src='run_exp/static/images/tutorial/reward_no.png' height='150'></p><p> How much bonus money you make is based on how many gold coins you collect.</p<p><b>[Press the space bar to continue]</b></p></div>","32","","","","","","","","","","","","","","","","","","","","","","",""
"","instruc5","10","133610","0.0-10.0","""event"",""trial"",""time""
""fullscreenenter"",""0"",""4004""
","
","
","""event"",""trial"",""time""
""fullscreenenter"",""0"",""4004""
","
","21862.20000001788","run_exp/static/audio/clip_5_probabilistic.m4a","49","","","","","<div class='center'><p>Even the most skilled pirate can not rob EVERY ship.</p><p> Some ships will have very strong protections against pirate attacks.</p><p> Blue beard, here, is very, very good at robbing ships, but he won't be successful every time he tries to rob one.</p><p> You can press the <b>‘1’</b> key on the keyboard to choose him.</p><p> Try choosing him 10 times to see how often he succeeds at robbing a ship. </p><p><img src='run_exp/static/images/tutorial/blue.png' height='500'></p></div>","","","","","","","","","","","","","","","","","",""
"","html-keyboard-response","11","135122","0.0-11.0","""event"",""trial"",""time""
""fullscreenenter"",""0"",""4004""
","
","
","""event"",""trial"",""time""
""fullscreenenter"",""0"",""4004""
","
","null","<div class='center'><p><img src='run_exp/static/images/tutorial/blue_win.png' height='500'></p></div>","null","","","","","","","","","","","","","","","","","","","","","","",""
"","html-keyboard-response","12","136338","0.0-12.0","""event"",""trial"",""time""
""fullscreenenter"",""0"",""4004""
","
","
","""event"",""trial"",""time""
""fullscreenenter"",""0"",""4004""
","
","1214.199999988079","<div class='center'><img src='run_exp/static/images/tutorial/blue.png' height='500'></p></div>","49","","","","","","","","","","","","","","","","","","","","","","",""
"","html-keyboard-response","13","137852","0.0-13.0","""event"",""trial"",""time""
""fullscreenenter"",""0"",""4004""
","
","
","""event"",""trial"",""time""
""fullscreenenter"",""0"",""4004""
","
","null","<div class='center'><p><img src='run_exp/static/images/tutorial/blue_win.png' height='500'></p></div>","null","","","","","","","","","","","","","","","","","","","","","","",""
"","html-keyboard-response","14","138634","0.0-14.0","""event"",""trial"",""time""
""fullscreenenter"",""0"",""4004""
","
","
","""event"",""trial"",""time""
""fullscreenenter"",""0"",""4004""
","
","780.3000000119209","<div class='center'><img src='run_exp/static/images/tutorial/blue.png' height='500'></p></div>","49","","","","","","","","","","","","","","","","","","","","","","",""
"","html-keyboard-response","15","140136","0.0-15.0","""event"",""trial"",""time""
""fullscreenenter"",""0"",""4004""
","
","
","""event"",""trial"",""time""
""fullscreenenter"",""0"",""4004""
","
","null","<div class='center'><p><img src='run_exp/static/images/tutorial/blue_win.png' height='500'></p></div>","null","","","","","","","","","","","","","","","","","","","","","","",""
"","html-keyboard-response","16","140722","0.0-16.0","""event"",""trial"",""time""
""fullscreenenter"",""0"",""4004""
","
","
","""event"",""trial"",""time""
""fullscreenenter"",""0"",""4004""
","
","584.4000000059605","<div class='center'><img src='run_exp/static/images/tutorial/blue.png' height='500'></p></div>","49","","","","","","","","","","","","","","","","","","","","","","",""
"","html-keyboard-response","17","142227","0.0-17.0","""event"",""trial"",""time""
""fullscreenenter"",""0"",""4004""
","
","
","""event"",""trial"",""time""
""fullscreenenter"",""0"",""4004""
","
","null","<div class='center'><p><img src='run_exp/static/images/tutorial/blue_no_win.png' height='500'></p></div>","null","","","","","","","","","","","","","","","","","","","","","","",""
"","html-keyboard-response","18","142890","0.0-18.0","""event"",""trial"",""time""
""fullscreenenter"",""0"",""4004""
","
","
","""event"",""trial"",""time""
""fullscreenenter"",""0"",""4004""
","
","661.6000000238419","<div class='center'><img src='run_exp/static/images/tutorial/blue.png' height='500'></p></div>","49","","","","","","","","","","","","","","","","","","","","","","",""
"","html-keyboard-response","19","144400","0.0-19.0","""event"",""trial"",""time""
""fullscreenenter"",""0"",""4004""
","
","
","""event"",""trial"",""time""
""fullscreenenter"",""0"",""4004""
","
","null","<div class='center'><p><img src='run_exp/static/images/tutorial/blue_win.png' height='500'></p></div>","null","","","","","","","","","","","","","","","","","","","","","","",""
"","html-keyboard-response","20","144913","0.0-20.0","""event"",""trial"",""time""
""fullscreenenter"",""0"",""4004""
","
","
","""event"",""trial"",""time""
""fullscreenenter"",""0"",""4004""
","
","512.3000000119209","<div class='center'><img src='run_exp/static/images/tutorial/blue.png' height='500'></p></div>","49","","","","","","","","","","","","","","","","","","","","","","",""
"","html-keyboard-response","21","146430","0.0-21.0","""event"",""trial"",""time""
""fullscreenenter"",""0"",""4004""
","
","
","""event"",""trial"",""time""
""fullscreenenter"",""0"",""4004""
","
","null","<div class='center'><p><img src='run_exp/static/images/tutorial/blue_win.png' height='500'></p></div>","null","","","","","","","","","","","","","","","","","","","","","","",""
"","html-keyboard-response","22","146914","0.0-22.0","""event"",""trial"",""time""
""fullscreenenter"",""0"",""4004""
","
","
","""event"",""trial"",""time""
""fullscreenenter"",""0"",""4004""
","
","482.89999997615814","<div class='center'><img src='run_exp/static/images/tutorial/blue.png' height='500'></p></div>","49","","","","","","","","","","","","","","","","","","","","","","",""
"","html-keyboard-response","23","148423","0.0-23.0","""event"",""trial"",""time""
""fullscreenenter"",""0"",""4004""
","
","
","""event"",""trial"",""time""
""fullscreenenter"",""0"",""4004""
","
","null","<div class='center'><p><img src='run_exp/static/images/tutorial/blue_win.png' height='500'></p></div>","null","","","","","","","","","","","","","","","","","","","","","","",""
"","html-keyboard-response","24","148962","0.0-24.0","""event"",""trial"",""time""
""fullscreenenter"",""0"",""4004""
","
","
","""event"",""trial"",""time""
""fullscreenenter"",""0"",""4004""
","
","537.7000000178814","<div class='center'><img src='run_exp/static/images/tutorial/blue.png' height='500'></p></div>","49","","","","","","","","","","","","","","","","","","","","","","",""
"","html-keyboard-response","25","150475","0.0-25.0","""event"",""trial"",""time""
""fullscreenenter"",""0"",""4004""
","
","
","""event"",""trial"",""time""
""fullscreenenter"",""0"",""4004""
","
","null","<div class='center'><p><img src='run_exp/static/images/tutorial/blue_no_win.png' height='500'></p></div>","null","","","","","","","","","","","","","","","","","","","","","","",""
"","html-keyboard-response","26","151010","0.0-26.0","""event"",""trial"",""time""
""fullscreenenter"",""0"",""4004""
","
","
","""event"",""trial"",""time""
""fullscreenenter"",""0"",""4004""
","
","533.1999999880791","<div class='center'><img src='run_exp/static/images/tutorial/blue.png' height='500'></p></div>","49","","","","","","","","","","","","","","","","","","","","","","",""
"","html-keyboard-response","27","152527","0.0-27.0","""event"",""trial"",""time""
""fullscreenenter"",""0"",""4004""
","
","
","""event"",""trial"",""time""
""fullscreenenter"",""0"",""4004""
","
","null","<div class='center'><p><img src='run_exp/static/images/tutorial/blue_win.png' height='500'></p></div>","null","","","","","","","","","","","","","","","","","","","","","","",""
"","html-keyboard-response","28","153058","0.0-28.0","""event"",""trial"",""time""
""fullscreenenter"",""0"",""4004""
","
","
","""event"",""trial"",""time""
""fullscreenenter"",""0"",""4004""
","
","530","<div class='center'><img src='run_exp/static/images/tutorial/blue.png' height='500'></p></div>","49","","","","","","","","","","","","","","","","","","","","","","",""
"","html-keyboard-response","29","154571","0.0-29.0","""event"",""trial"",""time""
""fullscreenenter"",""0"",""4004""
","
","
","""event"",""trial"",""time""
""fullscreenenter"",""0"",""4004""
","
","null","<div class='center'><p><img src='run_exp/static/images/tutorial/blue_win.png' height='500'></p></div>","null","","","","","","","","","","","","","","","","","","","","","","",""
"","instruc6","30","159976","0.0-30.0","""event"",""trial"",""time""
""fullscreenenter"",""0"",""4004""
","
","
","""event"",""trial"",""time""
""fullscreenenter"",""0"",""4004""
","
","null","run_exp/static/audio/clip_6_blue_beard_outcome.m4a","null","","","","","<div class='center'><p> See, he succeeded in robbing the ships most of the time but not every time. </p></div>","","","","","","","","","","","","","","","","","",""
"","html-keyboard-response","31","162674","0.0-31.0","""event"",""trial"",""time""
""fullscreenenter"",""0"",""4004""
","
","
","""event"",""trial"",""time""
""fullscreenenter"",""0"",""4004""
","
","2696","<div class='center'><p> See, he succeeded in robbing the ships most of the time but not every time. </p><p><b>[Press the space bar to continue]</b></p></div>","32","","","","","","","","","","","","","","","","","","","","","","",""
"","audio-keyboard-response","32","179658","0.0-32.0","""event"",""trial"",""time""
""fullscreenenter"",""0"",""4004""
","
","
","""event"",""trial"",""time""
""fullscreenenter"",""0"",""4004""
","
","16981.5","run_exp/static/audio/clip_7_pick_pirate.m4a","51","","","","","","","","","","","","","","","","","","","","","","",""
"","audio-keyboard-response","33","184033","0.0-33.0-0.0","""event"",""trial"",""time""
""fullscreenenter"",""0"",""4004""
","
","
","""event"",""trial"",""time""
""fullscreenenter"",""0"",""4004""
","
","4372.300000011921","run_exp/static/audio/clip_8_chosen_pirate_win.m4a","32","","","","","","","","","","","","","","","","","","","","","","",""
"","audio-keyboard-response","34","186777","0.0-33.0-1.0","""event"",""trial"",""time""
""fullscreenenter"",""0"",""4004""
","
","
","""event"",""trial"",""time""
""fullscreenenter"",""0"",""4004""
","
","2742.4000000059605","run_exp/static/audio/clip_9_pick_a_pirate_again.m4a","50","","","","","","","","","","","","","","","","","","","","","","",""
"","audio-keyboard-response","35","191281","0.0-34.0-0.0","""event"",""trial"",""time""
""fullscreenenter"",""0"",""4004""
","
","
","""event"",""trial"",""time""
""fullscreenenter"",""0"",""4004""
","
","4501.299999982119","run_exp/static/audio/clip_10_chosen_pirate_loss.m4a","32","","","","","","","","","","","","","","","","","","","","","","",""
"","instruc9","36","196756","0.0-35.0-0.0","""event"",""trial"",""time""
""fullscreenenter"",""0"",""4004""
","
","
","""event"",""trial"",""time""
""fullscreenenter"",""0"",""4004""
","
","null","run_exp/static/audio/clip_11_time_out.m4a","null","","","","","<div class='center'><p>If you don’t make your choice fast enough, you’ll have to wait a few seconds before you can make another one. </p><p><img src='run_exp/static/images/miscellaneous/hurry_up.png' height='500'></p></div>","","","","","","","","","","","","","","","","","",""
"","html-keyboard-response","37","198411","0.0-35.0-1.0","""event"",""trial"",""time""
""fullscreenenter"",""0"",""4004""
","
","
","""event"",""trial"",""time""
""fullscreenenter"",""0"",""4004""
","
","1653.4000000059605","<div class='center'><p>If you don’t make your choice fast enough, you’ll have to wait a few seconds before you can make another one. </p><p><img src='run_exp/static/images/miscellaneous/hurry_up.png' height='500'></p><p><b>[Press the space bar to continue]</b></p></div>","32","","","","","","","","","","","","","","","","","","","","","","",""
"","instruc10","38","237496","0.0-35.0-2.0","""event"",""trial"",""time""
""fullscreenenter"",""0"",""4004""
","
","
","""event"",""trial"",""time""
""fullscreenenter"",""0"",""4004""
","
","null","run_exp/static/audio/clip_12_probe.m4a","null","","","","","<div class='center'><p>Once you've chosen a pirate, you’ll be shown the ship they are robbing. You will never rob the same ship twice. Ships can be told apart from one another by the image on them. These are the goods that they sell. See, this ship has a travel mug on it. </p><p> You’ll have to remember which island you saw each ship on. You will win more gold coins and hence more bonus money if you remember correctly! To help you remember, you can imagine a story. For example, here, you could imagine a mug full of water in the desert. Or, as another example, if on the forest island, your pirate robbed a ship with an apple on it, you could imagine an apple falling from a tree in the forest. </p><p><img src='run_exp/static/images/tutorial/example_probe.png' height='500'></p></div>","","","","","","","","","","","","","","","","","",""
"","html-keyboard-response","39","239194","0.0-35.0-3.0","""event"",""trial"",""time""
""fullscreenenter"",""0"",""4004""
","
","
","""event"",""trial"",""time""
""fullscreenenter"",""0"",""4004""
","
","1695.800000011921","<div class='center'><p>Once you've chosen a pirate, you’ll be shown the ship they are robbing. You will never rob the same ship twice. Ships can be told apart from one another by the image on them. These are the goods that they sell. See, this ship has a travel mug on it. </p><p> You’ll have to remember which island you saw each ship on. You will win more gold coins and hence more bonus money if you remember correctly! To help you remember, you can imagine a story. For example, here, you could imagine a mug full of water in the desert. Or, as another example, if on the forest island, your pirate robbed a ship with an apple on it, you could imagine an apple falling from a tree in the forest. </p><p><img src='run_exp/static/images/tutorial/example_probe.png' height='500'></p><p><b>[Press the space bar to continue]</b></p></div>","32","","","","","","","","","","","","","","","","","","","","","","",""
"","instruc11","40","255596","0.0-35.0-4.0","""event"",""trial"",""time""
""fullscreenenter"",""0"",""4004""
","
","
","""event"",""trial"",""time""
""fullscreenenter"",""0"",""4004""
","
","null","run_exp/static/audio/clip_13_changepoint.m4a","null","","","","","<div class='center'><p>How successful a pirate is at robbing ships will depend on the island you’re on.</p><p> A pirate may have visited this island many times before and gained a lot of practice robbing ships there.</p><p>So, they’re more likely to be successful than a pirate who has never visited the island before.</p></div>","","","","","","","","","","","","","","","","","",""
"","html-keyboard-response","41","264065","0.0-35.0-5.0","""event"",""trial"",""time""
""fullscreenenter"",""0"",""4004""
","
","
","""event"",""trial"",""time""
""fullscreenenter"",""0"",""4004""
","
","8468.800000011921","<div class='center'><p>How successful a pirate is at robbing ships will depend on the island you’re on.</p><p> A pirate may have visited this island many times before and gained a lot of practice robbing ships there.</p><p>So, they’re more likely to be successful than a pirate who has never visited the island before.</p><p><b>[Press the space bar to continue]</b></p></div>","32","","","","","","","","","","","","","","","","","","","","","","",""
"","instruc12","42","305155","0.0-35.0-6.0","""event"",""trial"",""time""
""fullscreenenter"",""0"",""4004""
","
","
","""event"",""trial"",""time""
""fullscreenenter"",""0"",""4004""
","
","null","run_exp/static/audio/clip_14_drift.m4a","null","","","","","<div class='center'><p>How successful a pirate is at robbing ships can also change over the time spent on the island. </p><p> Ships may hear from islanders about the pirates coming and will improve their protections against the attack. This may make it harder to rob them.</p><p> Ships may also become lazy and weaken the strength of their protections. This may make it easier to rob them.</p><br><p>Things are always changing on the high seas! So, try your best to pay attention!</p><p><img src='run_exp/static/images/tutorial/contingency.png' height='500'></p></div>","","","","","","","","","","","","","","","","","",""
"","html-keyboard-response","43","324033","0.0-35.0-7.0","""event"",""trial"",""time""
""fullscreenenter"",""0"",""4004""
","
","
","""event"",""trial"",""time""
""fullscreenenter"",""0"",""4004""
","
","18876.09999999404","<div class='center'><p>How successful a pirate is at robbing ships can also change over the time spent on the island. </p><p> Ships may hear from islanders about the pirates coming and will improve their protections against the attack. This may make it harder to rob them.</p><p> Ships may also become lazy and weaken the strength of their protections. This may make it easier to rob them.</p><br><p>Things are always changing on the high seas! So, try your best to pay attention!</p><p><img src='run_exp/static/images/tutorial/contingency.png' height='500'></p><p><b>[Press the space bar to continue]</b></p></div>","32","","","","","","","","","","","","","","","","","","","","","","",""
"","instruc13","44","359219","0.0-35.0-8.0","""event"",""trial"",""time""
""fullscreenenter"",""0"",""4004""
","
","
","""event"",""trial"",""time""
""fullscreenenter"",""0"",""4004""
","
","null","run_exp/static/audio/clip_15_summary.m4a","null","","","","","<div class='center'><p>Let's go over the instructions quickly again. You have two important things to do: </p><b><p> 1. Pick the pirate who is the best at robbing ships on the current island. </p></b><b><p> 2. Remember on which island a ship was robbed.</p> </b><p>The amount of bonus money you can win depends on both.</p><p><br><p>Let’s try a practice game. The game will start by showing you the pirates. First, pick a pirate using the <b> 1, 2, 3 </b> keys on your keyboard. When you are shown a ship, try to remember which island you’re on by making up a story.</p><p>This is just a practice game, so you’re not playing for money. </p><p> Good luck! This game will be very difficult but try your best!</p></div>","","","","","","","","","","","","","","","","","",""
"","html-keyboard-response","45","363361","0.0-35.0-9.0","""event"",""trial"",""time""
""fullscreenenter"",""0"",""4004""
","
","
","""event"",""trial"",""time""
""fullscreenenter"",""0"",""4004""
","
","4141.0999999940395","<div class='center'><p>Let's go over the instructions quickly again. You have two important things to do: </p><b><p> 1. Pick the pirate who is the best at robbing ships on the current island. </p></b><b><p> 2. Remember on which island a ship was robbed.</p> </b><p>The amount of bonus money you can win depends on both.</p><p><br><p>Let’s try a practice game. The game will start by showing you the pirates. First, pick a pirate using the <b> 1, 2, 3 </b> keys on your keyboard. When you are shown a ship, try to remember which island you’re on by making up a story.</p><p>This is just a practice game, so you’re not playing for money. </p><p> Good luck! This game will be very difficult but try your best!</p><p><b>[Press the space bar to continue]</b></p></div>","32","","","","","","","","","","","","","","","","","","","","","","",""
"","do_welcome","46","367386","0.0-35.0-10.0","""event"",""trial"",""time""
""fullscreenenter"",""0"",""4004""
","
","
","""event"",""trial"",""time""
""fullscreenenter"",""0"",""4004""
","
","null","","","","","","","","null","","","","","","","","","","","","","","","","",""
"","do_trial","47","374011","0.0-35.0-11.0","""event"",""trial"",""time""
""fullscreenenter"",""0"",""4004""
","
","
","""event"",""trial"",""time""
""fullscreenenter"",""0"",""4004""
","
","2110","","","","","","","","51","1,0,0","","","","","","","","","","","","","","","",""
"","html-keyboard-response","48","375025","0.0-36.0-0.0","""event"",""trial"",""time""
""fullscreenenter"",""0"",""4004""
","
","
","""event"",""trial"",""time""
""fullscreenenter"",""0"",""4004""
","
","null","<p></p>","null","","","","","","","","","","","","","","","","","","","","","","",""
"","do_trial","49","380465","0.0-36.0-1.0","""event"",""trial"",""time""
""fullscreenenter"",""0"",""4004""
","
","
","""event"",""trial"",""time""
""fullscreenenter"",""0"",""4004""
","
","927.8000000119209","","","","","","","","50","1,1,0","","","","","","","","","","","","","","","",""
"","html-keyboard-response","50","381472","0.0-37.0-0.0","""event"",""trial"",""time""
""fullscreenenter"",""0"",""4004""
","
","
","""event"",""trial"",""time""
""fullscreenenter"",""0"",""4004""
","
","null","<p></p>","null","","","","","","","","","","","","","","","","","","","","","","",""
"","do_trial","51","387378","0.0-37.0-1.0","""event"",""trial"",""time""
""fullscreenenter"",""0"",""4004""
","
","
","""event"",""trial"",""time""
""fullscreenenter"",""0"",""4004""
","
","1392.5","","","","","","","","49","1,0,1","","","","","","","","","","","","","","","",""
"","html-keyboard-response","52","388385","0.0-38.0-0.0","""event"",""trial"",""time""
""fullscreenenter"",""0"",""4004""
","
","
","""event"",""trial"",""time""
""fullscreenenter"",""0"",""4004""
","
","null","<p></p>","null","","","","","","","","","","","","","","","","","","","","","","",""
"","do_trial","53","394292","0.0-38.0-1.0","""event"",""trial"",""time""
""fullscreenenter"",""0"",""4004""
","
","
","""event"",""trial"",""time""
""fullscreenenter"",""0"",""4004""
","
","1383.0999999940395","","","","","","","","50","0,1,0","","","","","","","","","","","","","","","",""
"","html-keyboard-response","54","395305","0.0-39.0-0.0","""event"",""trial"",""time""
""fullscreenenter"",""0"",""4004""
","
","
","""event"",""trial"",""time""
""fullscreenenter"",""0"",""4004""
","
","null","<p></p>","null","","","","","","","","","","","","","","","","","","","","","","",""
"","do_trial","55","400338","0.0-39.0-1.0","""event"",""trial"",""time""
""fullscreenenter"",""0"",""4004""
","
","
","""event"",""trial"",""time""
""fullscreenenter"",""0"",""4004""
","
","509.60000002384186","","","","","","","","51","1,0,0","","","","","","","","","","","","","","","",""
"","do_bye","56","401844","0.0-40.0-0.0","""event"",""trial"",""time""
""fullscreenenter"",""0"",""4004""
","
","
","""event"",""trial"",""time""
""fullscreenenter"",""0"",""4004""
","
","null","","","","","","","","null","","","","","","","","","","","","","","","","",""
"","do_travel","57","410859","0.0-40.0-1.0","""event"",""trial"",""time""
""fullscreenenter"",""0"",""4004""
","
","
","""event"",""trial"",""time""
""fullscreenenter"",""0"",""4004""
","
","null","","","","","","","","null","","","","","","","","","","","","","","","","",""
"","do_welcome","58","414874","0.0-40.0-2.0","""event"",""trial"",""time""
""fullscreenenter"",""0"",""4004""
","
","
","""event"",""trial"",""time""
""fullscreenenter"",""0"",""4004""
","
","null","","","","","","","","null","","","","","","","","","","","","","","","","",""
"","do_trial","59","421453","0.0-40.0-3.0","""event"",""trial"",""time""
""fullscreenenter"",""0"",""4004""
","
","
","""event"",""trial"",""time""
""fullscreenenter"",""0"",""4004""
","
","2070.0999999940395","","","","","","","","50","1,0,0","","","","","","","","","","","","","","","",""
"","html-keyboard-response","60","422456","0.0-41.0-0.0","""event"",""trial"",""time""
""fullscreenenter"",""0"",""4004""
","
","
","""event"",""trial"",""time""
""fullscreenenter"",""0"",""4004""
","
","null","<p></p>","null","","","","","","","","","","","","","","","","","","","","","","",""
"","do_trial","61","427925","0.0-41.0-1.0","""event"",""trial"",""time""
""fullscreenenter"",""0"",""4004""
","
","
","""event"",""trial"",""time""
""fullscreenenter"",""0"",""4004""
","
","959.6999999880791","","","","","","","","49","1,0,1","","","","","","","","","","","","","","","",""
"","html-keyboard-response","62","428936","0.0-42.0-0.0","""event"",""trial"",""time""
""fullscreenenter"",""0"",""4004""
","
","
","""event"",""trial"",""time""
""fullscreenenter"",""0"",""4004""
","
","null","<p></p>","null","","","","","","","","","","","","","","","","","","","","","","",""
"","do_trial","63","433528","0.0-42.0-1.0","""event"",""trial"",""time""
""fullscreenenter"",""0"",""4004""
","
","
","""event"",""trial"",""time""
""fullscreenenter"",""0"",""4004""
","
","72.40000000596046","","","","","","","","51","1,1,0","","","","","","","","","","","","","","","",""
"","html-keyboard-response","64","434535","0.0-43.0-0.0","""event"",""trial"",""time""
""fullscreenenter"",""0"",""4004""
","
","
","""event"",""trial"",""time""
""fullscreenenter"",""0"",""4004""
","
","null","<p></p>","null","","","","","","","","","","","","","","","","","","","","","","",""
"","do_trial","65","440068","0.0-43.0-1.0","""event"",""trial"",""time""
""fullscreenenter"",""0"",""4004""
","
","
","""event"",""trial"",""time""
""fullscreenenter"",""0"",""4004""
","
","1017.0999999940395","","","","","","","","50","0,0,1","","","","","","","","","","","","","","","",""
"","html-keyboard-response","66","441074","0.0-44.0-0.0","""event"",""trial"",""time""
""fullscreenenter"",""0"",""4004""
","
","
","""event"",""trial"",""time""
""fullscreenenter"",""0"",""4004""
","
","null","<p></p>","null","","","","","","","","","","","","","","","","","","","","","","",""
"","do_trial","67","446802","0.0-44.0-1.0","""event"",""trial"",""time""
""fullscreenenter"",""0"",""4004""
","
","
","""event"",""trial"",""time""
""fullscreenenter"",""0"",""4004""
","
","1213.5999999940395","","","","","","","","49","1,0,1","","","","","","","","","","","","","","","",""
"","html-keyboard-response","68","451792","0.0-45.0-0.0","""event"",""trial"",""time""
""fullscreenenter"",""0"",""4004""
","
","
","""event"",""trial"",""time""
""fullscreenenter"",""0"",""4004""
","
","4987.100000023842","<div class='center'><p><img src='run_exp/static/images/tutorial/prac_best_pirate.png'  height='500'></p></div>","49","","","","","","","","","","","","","","","","","","","","","","",""
"","html-keyboard-response","69","454687","0.0-46.0-0.0","""event"",""trial"",""time""
""fullscreenenter"",""0"",""4004""
","
","
","""event"",""trial"",""time""
""fullscreenenter"",""0"",""4004""
","
","2894.0999999940395","<div class='center'><p>That's correct! Red beard was the best.</p><p><b>[Press the space bar to continue]</b></p></div>","32","","","","","","","","","","","","","","","","","","","","","","",""
"","html-keyboard-response","70","459223","0.0-46.0-1.0","""event"",""trial"",""time""
""fullscreenenter"",""0"",""4004""
","
","
","""event"",""trial"",""time""
""fullscreenenter"",""0"",""4004""
","
","4534.9000000059605","<div class='center'><p><img src='run_exp/static/images/tutorial/prac_source.png'  height='500'></p></div>","50","","","","","","","","","","","","","","","","","","","","","","",""
"","html-keyboard-response","71","461047","0.0-47.0-0.0","""event"",""trial"",""time""
""fullscreenenter"",""0"",""4004""
","
","
","""event"",""trial"",""time""
""fullscreenenter"",""0"",""4004""
","
","1822.2000000178814","<div class='center'><p>That's correct! You saw this ship on the cavern island.</p><p><b>[Press the space bar to continue]</b></p></div>","32","","","","","","","","","","","","","","","","","","","","","","",""
"","quiz_beginning","72","472268","0.0-47.0-1.0","""event"",""trial"",""time""
""fullscreenenter"",""0"",""4004""
","
","
","""event"",""trial"",""time""
""fullscreenenter"",""0"",""4004""
","
","null","run_exp/static/audio/clip_16_quiz_intro.m4a","null","","","","","<div class='center'><p>Good job on the practice game! Now, you will be asked some true or false questions to make sure you really understand the rules of the game.</p><p> Press <b>'1'</b> on the keyboard for true and press <b>'2'</b> for false.</p></div>","","","","","","","","","","","","","","","","","",""
"","audio-keyboard-response","73","494695","0.0-47.0-2.0","""event"",""trial"",""time""
""fullscreenenter"",""0"",""4004""
","
","
","""event"",""trial"",""time""
""fullscreenenter"",""0"",""4004""
","
","22425.40000000596","run_exp/static/audio/clip_17_q1.m4a","50","","","","","","","","","","","","","","","","","","","","","","",""
"","q1_err","74","499583","0.0-48.0-0.0","""event"",""trial"",""time""
""fullscreenenter"",""0"",""4004""
","
","
","""event"",""trial"",""time""
""fullscreenenter"",""0"",""4004""
","
","null","run_exp/static/audio/clip_19_wrong_q1.m4a","null","","","","","<div class='center'><p>That’s incorrect. You win bonus money by collecting gold coins.</p></div>","","","","","","","","","","","","","","","","","",""
"","html-keyboard-response","75","502582","0.0-48.0-1.0","""event"",""trial"",""time""
""fullscreenenter"",""0"",""4004""
","
","
","""event"",""trial"",""time""
""fullscreenenter"",""0"",""4004""
","
","2998.199999988079","<div class='center'><p>That’s incorrect. You win bonus money by collecting gold coins.</p><p><b>[Press the space bar to continue]</b></p></div>","32","","","","","","","","","","","","","","","","","","","","","","",""
"","audio-keyboard-response","76","513215","0.0-48.0-2.0","""event"",""trial"",""time""
""fullscreenenter"",""0"",""4004""
","
","
","""event"",""trial"",""time""
""fullscreenenter"",""0"",""4004""
","
","10631.59999999404","run_exp/static/audio/clip_20_q2.m4a","50","","","","","","","","","","","","","","","","","","","","","","",""
"","correct","77","515623","0.0-49.0-0.0","""event"",""trial"",""time""
""fullscreenenter"",""0"",""4004""
","
","
","""event"",""trial"",""time""
""fullscreenenter"",""0"",""4004""
","
","null","run_exp/static/audio/clip_18_correct.m4a","null","","","","","<div class='center'><p>That's correct!</p></div>","","","","","","","","","","","","","","","","","",""
"","html-keyboard-response","78","517255","0.0-49.0-1.0","""event"",""trial"",""time""
""fullscreenenter"",""0"",""4004""
","
","
","""event"",""trial"",""time""
""fullscreenenter"",""0"",""4004""
","
","1630.800000011921","<div class='center'><p>That's correct!</p><p><b>[Press the space bar to continue]</b></p></div>","32","","","","","","","","","","","","","","","","","","","","","","",""
"","audio-keyboard-response","79","524287","0.0-49.0-2.0","""event"",""trial"",""time""
""fullscreenenter"",""0"",""4004""
","
","
","""event"",""trial"",""time""
""fullscreenenter"",""0"",""4004""
","
","7030.800000011921","run_exp/static/audio/clip_22_q3.m4a","50","","","","","","","","","","","","","","","","","","","","","","",""
"","correct","80","526683","0.0-50.0-0.0","""event"",""trial"",""time""
""fullscreenenter"",""0"",""4004""
","
","
","""event"",""trial"",""time""
""fullscreenenter"",""0"",""4004""
","
","null","run_exp/static/audio/clip_18_correct.m4a","null","","","","","<div class='center'><p>That's correct!</p></div>","","","","","","","","","","","","","","","","","",""
"","html-keyboard-response","81","527086","0.0-50.0-1.0","""event"",""trial"",""time""
""fullscreenenter"",""0"",""4004""
","
","
","""event"",""trial"",""time""
""fullscreenenter"",""0"",""4004""
","
","402.09999999403954","<div class='center'><p>That's correct!</p><p><b>[Press the space bar to continue]</b></p></div>","32","","","","","","","","","","","","","","","","","","","","","","",""
"","audio-keyboard-response","82","533126","0.0-50.0-2.0","""event"",""trial"",""time""
""fullscreenenter"",""0"",""4004""
","
","
","""event"",""trial"",""time""
""fullscreenenter"",""0"",""4004""
","
","6038.700000017881","run_exp/static/audio/clip_24_q4.m4a","49","","","","","","","","","","","","","","","","","","","","","","",""
"","correct","83","535523","0.0-51.0-0.0","""event"",""trial"",""time""
""fullscreenenter"",""0"",""4004""
","
","
","""event"",""trial"",""time""
""fullscreenenter"",""0"",""4004""
","
","null","run_exp/static/audio/clip_18_correct.m4a","null","","","","","<div class='center'><p>That's correct!</p></div>","","","","","","","","","","","","","","","","","",""
"","html-keyboard-response","84","535814","0.0-51.0-1.0","""event"",""trial"",""time""
""fullscreenenter"",""0"",""4004""
","
","
","""event"",""trial"",""time""
""fullscreenenter"",""0"",""4004""
","
","290.5","<div class='center'><p>That's correct!</p><p><b>[Press the space bar to continue]</b></p></div>","32","","","","","","","","","","","","","","","","","","","","","","",""
"","q_all_err","85","542003","0.0-52.0-0.0","""event"",""trial"",""time""
""fullscreenenter"",""0"",""4004""
","
","
","""event"",""trial"",""time""
""fullscreenenter"",""0"",""4004""
","
","null","run_exp/static/audio/clip_26_quiz_redo.m4a","null","","","","","<div class='center'><p>Oops, you missed some questions. Now that you’ve heard the correct answers. Try the quiz again! </p></div>","","","","","","","","","","","","","","","","","",""
"","html-keyboard-response","86","544118","0.0-52.0-1.0","""event"",""trial"",""time""
""fullscreenenter"",""0"",""4004""
","
","
","""event"",""trial"",""time""
""fullscreenenter"",""0"",""4004""
","
","2113.699999988079","<div class='center'><p>Oops, you missed some questions. Now that you’ve heard the correct answers. Try the quiz again! </p><p><b>[Press the space bar to continue]</b></p></div>","32","","","","","","","","","","","","","","","","","","","","","","",""
"","audio-keyboard-response","87","546151","0.0-52.0-2.0","""event"",""trial"",""time""
""fullscreenenter"",""0"",""4004""
","
","
","""event"",""trial"",""time""
""fullscreenenter"",""0"",""4004""
","
","2032.4000000059605","run_exp/static/audio/clip_17_q1.m4a","49","","","","","","","","","","","","","","","","","","","","","","",""
"","correct","88","548543","0.0-53.0-0.0","""event"",""trial"",""time""
""fullscreenenter"",""0"",""4004""
","
","
","""event"",""trial"",""time""
""fullscreenenter"",""0"",""4004""
","
","null","run_exp/static/audio/clip_18_correct.m4a","null","","","","","<div class='center'><p>That's correct!</p></div>","","","","","","","","","","","","","","","","","",""
"","html-keyboard-response","89","548886","0.0-53.0-1.0","""event"",""trial"",""time""
""fullscreenenter"",""0"",""4004""
","
","
","""event"",""trial"",""time""
""fullscreenenter"",""0"",""4004""
","
","341.90000000596046","<div class='center'><p>That's correct!</p><p><b>[Press the space bar to continue]</b></p></div>","32","","","","","","","","","","","","","","","","","","","","","","",""
"","audio-keyboard-response","90","552750","0.0-53.0-2.0","""event"",""trial"",""time""
""fullscreenenter"",""0"",""4004""
","
","
","""event"",""trial"",""time""
""fullscreenenter"",""0"",""4004""
","
","3863","run_exp/static/audio/clip_20_q2.m4a","50","","","","","","","","","","","","","","","","","","","","","","",""
"","correct","91","555143","0.0-54.0-0.0","""event"",""trial"",""time""
""fullscreenenter"",""0"",""4004""
","
","
","""event"",""trial"",""time""
""fullscreenenter"",""0"",""4004""
","
","null","run_exp/static/audio/clip_18_correct.m4a","null","","","","","<div class='center'><p>That's correct!</p></div>","","","","","","","","","","","","","","","","","",""
"","html-keyboard-response","92","555551","0.0-54.0-1.0","""event"",""trial"",""time""
""fullscreenenter"",""0"",""4004""
","
","
","""event"",""trial"",""time""
""fullscreenenter"",""0"",""4004""
","
","406.59999999403954","<div class='center'><p>That's correct!</p><p><b>[Press the space bar to continue]</b></p></div>","32","","","","","","","","","","","","","","","","","","","","","","",""
"","audio-keyboard-response","93","560831","0.0-54.0-2.0","""event"",""trial"",""time""
""fullscreenenter"",""0"",""4004""
","
","
","""event"",""trial"",""time""
""fullscreenenter"",""0"",""4004""
","
","5279.199999988079","run_exp/static/audio/clip_22_q3.m4a","50","","","","","","","","","","","","","","","","","","","","","","",""
"","correct","94","563223","0.0-55.0-0.0","""event"",""trial"",""time""
""fullscreenenter"",""0"",""4004""
","
","
","""event"",""trial"",""time""
""fullscreenenter"",""0"",""4004""
","
","null","run_exp/static/audio/clip_18_correct.m4a","null","","","","","<div class='center'><p>That's correct!</p></div>","","","","","","","","","","","","","","","","","",""
"","html-keyboard-response","95","564254","0.0-55.0-1.0","""event"",""trial"",""time""
""fullscreenenter"",""0"",""4004""
","
","
","""event"",""trial"",""time""
""fullscreenenter"",""0"",""4004""
","
","1030.800000011921","<div class='center'><p>That's correct!</p><p><b>[Press the space bar to continue]</b></p></div>","32","","","","","","","","","","","","","","","","","","","","","","",""
"","audio-keyboard-response","96","566934","0.0-55.0-2.0","""event"",""trial"",""time""
""fullscreenenter"",""0"",""4004""
","
","
","""event"",""trial"",""time""
""fullscreenenter"",""0"",""4004""
","
","2678.800000011921","run_exp/static/audio/clip_24_q4.m4a","49","","","","","","","","","","","","","","","","","","","","","","",""
"","correct","97","569383","0.0-56.0-0.0","""event"",""trial"",""time""
""fullscreenenter"",""0"",""4004""
","
","
","""event"",""trial"",""time""
""fullscreenenter"",""0"",""4004""
","
","null","run_exp/static/audio/clip_18_correct.m4a","null","","","","","<div class='center'><p>That's correct!</p></div>","","","","","","","","","","","","","","","","","",""
"","html-keyboard-response","98","569878","0.0-56.0-1.0","""event"",""trial"",""time""
""fullscreenenter"",""0"",""4004""
","
","
","""event"",""trial"",""time""
""fullscreenenter"",""0"",""4004""
","
","494.2000000178814","<div class='center'><p>That's correct!</p><p><b>[Press the space bar to continue]</b></p></div>","32","","","","","","","","","","","","","","","","","","","","","","",""
"","q_all_corr","99","578363","0.0-57.0-0.0","""event"",""trial"",""time""
""fullscreenenter"",""0"",""4004""
","
","
","""event"",""trial"",""time""
""fullscreenenter"",""0"",""4004""
","
","null","run_exp/static/audio/clip_27_quiz_all_correct.m4a","null","","","","","<div class='center'><p>Good job! You’re now ready to move on to the real game! Remember this game will be difficult but don't get discouraged and try your best!</p></div>","","","","","","","","","","","","","","","","","",""
"","html-keyboard-response","100","582007","0.0-57.0-1.0","""event"",""trial"",""time""
""fullscreenenter"",""0"",""4004""
","
","
","""event"",""trial"",""time""
""fullscreenenter"",""0"",""4004""
","
","3642.2999999821186","<div class='center'><p>Good job! You’re now ready to move on to the real game! Remember this game will be difficult but don't get discouraged and try your best!</p><p><b>[Press the space bar to continue]</b></p></div>","32","","","","","","","","","","","","","","","","","","","","","","",""
"","do_welcome","101","586029","0.0-58.0-0.0","""event"",""trial"",""time""
""fullscreenenter"",""0"",""4004""
","
","
","""event"",""trial"",""time""
""fullscreenenter"",""0"",""4004""
","
","null","","","","","","","","null","","","","","","","","","","","","","","","","",""
"","do_trial","102","593340","0.0-59.0-0.0","""event"",""trial"",""time""
""fullscreenenter"",""0"",""4004""
","
","
","""event"",""trial"",""time""
""fullscreenenter"",""0"",""4004""
","
","2733.0999999940395","","","","","","","","51","0,0,0","0","city","0","probe-168","0.6","0.3","0.1","0","","","","","","","",""
"","html-keyboard-response","103","594351","0.0-59.0-1.0","""event"",""trial"",""time""
""fullscreenenter"",""0"",""4004""
","
","
","""event"",""trial"",""time""
""fullscreenenter"",""0"",""4004""
","
","null","<p></p>","null","","","","","","","","","","","","","","","","","","","","","","",""
"","do_trial","104","600074","0.0-60.0-0.0","""event"",""trial"",""time""
""fullscreenenter"",""0"",""4004""
","
","
","""event"",""trial"",""time""
""fullscreenenter"",""0"",""4004""
","
","1153.8999999761581","","","","","","","","50","0,0,0","0","city","1","probe-95","0.621020098371673","0.16008719061757495","0.1852940808201522","0","","","","","","","",""
"","html-keyboard-response","105","601083","0.0-60.0-1.0","""event"",""trial"",""time""
""fullscreenenter"",""0"",""4004""
","
","
","""event"",""trial"",""time""
""fullscreenenter"",""0"",""4004""
","
","null","<p></p>","null","","","","","","","","","","","","","","","","","","","","","","",""
"","do_trial","106","607890","0.0-61.0-0.0","""event"",""trial"",""time""
""fullscreenenter"",""0"",""4004""
","
","
","""event"",""trial"",""time""
""fullscreenenter"",""0"",""4004""
","
","2258.7000000178814","","","","","","","","49","1,1,0","0","city","2","probe-215","0.580190245708444","0.37170357693791345","0.06664855419778608","1","","","","","","","",""
"","html-keyboard-response","107","608893","0.0-61.0-1.0","""event"",""trial"",""time""
""fullscreenenter"",""0"",""4004""
","
","
","""event"",""trial"",""time""
""fullscreenenter"",""0"",""4004""
","
","null","<p></p>","null","","","","","","","","","","","","","","","","","","","","","","",""
"","do_trial","108","615821","0.0-62.0-0.0","""event"",""trial"",""time""
""fullscreenenter"",""0"",""4004""
","
","
","""event"",""trial"",""time""
""fullscreenenter"",""0"",""4004""
","
","2361.9000000059605","","","","","","","","49","1,0,0","0","city","3","probe-220","0.5887968300097745","0.2724513286655415","0.14662016386389262","1","","","","","","","",""
"","html-keyboard-response","109","616827","0.0-62.0-1.0","""event"",""trial"",""time""
""fullscreenenter"",""0"",""4004""
","
","
","""event"",""trial"",""time""
""fullscreenenter"",""0"",""4004""
","
","null","<p></p>","null","","","","","","","","","","","","","","","","","","","","","","",""
"","do_trial","110","622245","0.0-63.0-0.0","""event"",""trial"",""time""
""fullscreenenter"",""0"",""4004""
","
","
","""event"",""trial"",""time""
""fullscreenenter"",""0"",""4004""
","
","863.5","","","","","","","","49","0,0,1","0","city","4","probe-68","0.6421342892666562","0.17664360745487326","0.059063346635037255","0","","","","","","","",""
"","html-keyboard-response","111","623252","0.0-63.0-1.0","""event"",""trial"",""time""
""fullscreenenter"",""0"",""4004""
","
","
","""event"",""trial"",""time""
""fullscreenenter"",""0"",""4004""
","
","null","<p></p>","null","","","","","","","","","","","","","","","","","","","","","","",""
"","do_trial","112","629263","0.0-64.0-0.0","""event"",""trial"",""time""
""fullscreenenter"",""0"",""4004""
","
","
","""event"",""trial"",""time""
""fullscreenenter"",""0"",""4004""
","
","1447.300000011921","","","","","","","","49","0,0,0","0","city","5","probe-107","0.5539627156161057","0.23604170309240705","0.11238684577347816","0","","","","","","","",""
"","html-keyboard-response","113","630272","0.0-64.0-1.0","""event"",""trial"",""time""
""fullscreenenter"",""0"",""4004""
","
","
","""event"",""trial"",""time""
""fullscreenenter"",""0"",""4004""
","
","null","<p></p>","null","","","","","","","","","","","","","","","","","","","","","","",""
"","do_trial","114","635349","0.0-65.0-0.0","""event"",""trial"",""time""
""fullscreenenter"",""0"",""4004""
","
","
","""event"",""trial"",""time""
""fullscreenenter"",""0"",""4004""
","
","523","","","","","","","","50","0,1,0","0","city","6","probe-29","0.5282115032645021","0.19652651763536086","0.10031386877305021","1","","","","","","","",""
"","html-keyboard-response","115","636358","0.0-65.0-1.0","""event"",""trial"",""time""
""fullscreenenter"",""0"",""4004""
","
","
","""event"",""trial"",""time""
""fullscreenenter"",""0"",""4004""
","
","null","<p></p>","null","","","","","","","","","","","","","","","","","","","","","","",""
"","do_trial","116","642102","0.0-66.0-0.0","""event"",""trial"",""time""
""fullscreenenter"",""0"",""4004""
","
","
","""event"",""trial"",""time""
""fullscreenenter"",""0"",""4004""
","
","1182.1000000238419","","","","","","","","50","1,0,0","0","city","7","probe-151","0.6724658475031632","0.27015814990828","0.08980574858432902","0","","","","","","","",""
"","html-keyboard-response","117","643105","0.0-66.0-1.0","""event"",""trial"",""time""
""fullscreenenter"",""0"",""4004""
","
","
","""event"",""trial"",""time""
""fullscreenenter"",""0"",""4004""
","
","null","<p></p>","null","","","","","","","","","","","","","","","","","","","","","","",""
"","do_trial","118","648298","0.0-67.0-0.0","""event"",""trial"",""time""
""fullscreenenter"",""0"",""4004""
","
","
","""event"",""trial"",""time""
""fullscreenenter"",""0"",""4004""
","
","626.4000000059605","","","","","","","","51","1,0,0","0","city","8","probe-27","0.5290450530914506","0.2805382413848502","0.16474476406247449","0","","","","","","","",""
"","html-keyboard-response","119","649300","0.0-67.0-1.0","""event"",""trial"",""time""
""fullscreenenter"",""0"",""4004""
","
","
","""event"",""trial"",""time""
""fullscreenenter"",""0"",""4004""
","
","null","<p></p>","null","","","","","","","","","","","","","","","","","","","","","","",""
"","do_trial","120","655880","0.0-68.0-0.0","""event"",""trial"",""time""
""fullscreenenter"",""0"",""4004""
","
","
","""event"",""trial"",""time""
""fullscreenenter"",""0"",""4004""
","
","2008.0999999940395","","","","","","","","51","1,1,1","0","city","9","probe-31","0.5952564645002727","0.3694448853752427","0.33637404641371405","1","","","","","","","",""
"","html-keyboard-response","121","656888","0.0-68.0-1.0","""event"",""trial"",""time""
""fullscreenenter"",""0"",""4004""
","
","
","""event"",""trial"",""time""
""fullscreenenter"",""0"",""4004""
","
","null","<p></p>","null","","","","","","","","","","","","","","","","","","","","","","",""
"","do_trial","122","663368","0.0-69.0-0.0","""event"",""trial"",""time""
""fullscreenenter"",""0"",""4004""
","
","
","""event"",""trial"",""time""
""fullscreenenter"",""0"",""4004""
","
","1914.5","","","","","","","","51","0,0,1","0","city","10","probe-205","0.5408570278073515","0.4379923265623442","0.28289844173637796","1","","","","","","","",""
"","html-keyboard-response","123","664371","0.0-69.0-1.0","""event"",""trial"",""time""
""fullscreenenter"",""0"",""4004""
","
","
","""event"",""trial"",""time""
""fullscreenenter"",""0"",""4004""
","
","null","<p></p>","null","","","","","","","","","","","","","","","","","","","","","","",""
"","do_trial","124","671678","0.0-70.0-0.0","""event"",""trial"",""time""
""fullscreenenter"",""0"",""4004""
","
","
","""event"",""trial"",""time""
""fullscreenenter"",""0"",""4004""
","
","2743.5999999940395","","","","","","","","51","1,0,0","0","city","11","probe-184","0.7239323553600565","0.31806351024400537","0.2983796961079308","0","","","","","","","",""
"","html-keyboard-response","125","672685","0.0-70.0-1.0","""event"",""trial"",""time""
""fullscreenenter"",""0"",""4004""
","
","
","""event"",""trial"",""time""
""fullscreenenter"",""0"",""4004""
","
","null","<p></p>","null","","","","","","","","","","","","","","","","","","","","","","",""
"","do_trial","126","678492","0.0-71.0-0.0","""event"",""trial"",""time""
""fullscreenenter"",""0"",""4004""
","
","
","""event"",""trial"",""time""
""fullscreenenter"",""0"",""4004""
","
","1254.7000000178814","","","","","","","","50","1,0,0","0","city","12","probe-36","0.6655474413833651","0.3132216772759833","0.20278429313744134","0","","","","","","","",""
"","html-keyboard-response","127","679497","0.0-71.0-1.0","""event"",""trial"",""time""
""fullscreenenter"",""0"",""4004""
","
","
","""event"",""trial"",""time""
""fullscreenenter"",""0"",""4004""
","
","null","<p></p>","null","","","","","","","","","","","","","","","","","","","","","","",""
"","do_trial","128","684692","0.0-72.0-0.0","""event"",""trial"",""time""
""fullscreenenter"",""0"",""4004""
","
","
","""event"",""trial"",""time""
""fullscreenenter"",""0"",""4004""
","
","645.1999999880791","","","","","","","","49","1,0,0","0","city","13","probe-194","0.666755695533036","0.08292174116225656","0.11688310511404257","1","","","","","","","",""
"","html-keyboard-response","129","685696","0.0-72.0-1.0","""event"",""trial"",""time""
""fullscreenenter"",""0"",""4004""
","
","
","""event"",""trial"",""time""
""fullscreenenter"",""0"",""4004""
","
","null","<p></p>","null","","","","","","","","","","","","","","","","","","","","","","",""
"","do_trial","130","691537","0.0-73.0-0.0","""event"",""trial"",""time""
""fullscreenenter"",""0"",""4004""
","
","
","""event"",""trial"",""time""
""fullscreenenter"",""0"",""4004""
","
","1288.7000000178814","","","","","","","","49","1,0,0","0","city","14","probe-162","0.7079601132108475","0.25099420178211745","0.16846649296928307","1","","","","","","","",""
"","html-keyboard-response","131","692540","0.0-73.0-1.0","""event"",""trial"",""time""
""fullscreenenter"",""0"",""4004""
","
","
","""event"",""trial"",""time""
""fullscreenenter"",""0"",""4004""
","
","null","<p></p>","null","","","","","","","","","","","","","","","","","","","","","","",""
"","do_trial","132","697989","0.0-74.0-0.0","""event"",""trial"",""time""
""fullscreenenter"",""0"",""4004""
","
","
","""event"",""trial"",""time""
""fullscreenenter"",""0"",""4004""
","
","892.8999999761581","","","","","","","","49","1,0,1","0","city","15","probe-93","0.6609083439855811","0.21486433948109132","0.18462480418970664","1","","","","","","","",""
"","html-keyboard-response","133","698990","0.0-74.0-1.0","""event"",""trial"",""time""
""fullscreenenter"",""0"",""4004""
","
","
","""event"",""trial"",""time""
""fullscreenenter"",""0"",""4004""
","
","null","<p></p>","null","","","","","","","","","","","","","","","","","","","","","","",""
"","do_trial","134","705056","0.0-75.0-0.0","""event"",""trial"",""time""
""fullscreenenter"",""0"",""4004""
","
","
","""event"",""trial"",""time""
""fullscreenenter"",""0"",""4004""
","
","null","","","","","","","","null","1,0,0","0","city","16","probe-48","0.5757773618669818","0.2957726338496688","0.1346177025461201","","","","","","","","",""
"","html-keyboard-response","135","706058","0.0-75.0-1.0","""event"",""trial"",""time""
""fullscreenenter"",""0"",""4004""
","
","
","""event"",""trial"",""time""
""fullscreenenter"",""0"",""4004""
","
","null","<p></p>","null","","","","","","","","","","","","","","","","","","","","","","",""
"","do_trial","136","711625","0.0-76.0-0.0","""event"",""trial"",""time""
""fullscreenenter"",""0"",""4004""
","
","
","""event"",""trial"",""time""
""fullscreenenter"",""0"",""4004""
","
","993.3999999761581","","","","","","","","49","0,0,1","0","city","17","probe-26","0.5916437565686309","0.12645065066365788","0.21053326742512113","0","","","","","","","",""
"","html-keyboard-response","137","712632","0.0-76.0-1.0","""event"",""trial"",""time""
""fullscreenenter"",""0"",""4004""
","
","
","""event"",""trial"",""time""
""fullscreenenter"",""0"",""4004""
","
","null","<p></p>","null","","","","","","","","","","","","","","","","","","","","","","",""
"","do_trial","138","717627","0.0-77.0-0.0","""event"",""trial"",""time""
""fullscreenenter"",""0"",""4004""
","
","
","""event"",""trial"",""time""
""fullscreenenter"",""0"",""4004""
","
","428","","","","","","","","50","0,0,0","0","city","18","probe-23","0.6313780599659635","0.29611246944503805","0.24489899972097906","0","","","","","","","",""
"","html-keyboard-response","139","718629","0.0-77.0-1.0","""event"",""trial"",""time""
""fullscreenenter"",""0"",""4004""
","
","
","""event"",""trial"",""time""
""fullscreenenter"",""0"",""4004""
","
","null","<p></p>","null","","","","","","","","","","","","","","","","","","","","","","",""
"","do_trial","140","725055","0.0-78.0-0.0","""event"",""trial"",""time""
""fullscreenenter"",""0"",""4004""
","
","
","""event"",""trial"",""time""
""fullscreenenter"",""0"",""4004""
","
","1854.2999999821186","","","","","","","","51","1,0,0","0","city","19","probe-28","0.5033819487352111","0.35116394795066636","0.213607278545529","0","","","","","","","",""
"","html-keyboard-response","141","726057","0.0-78.0-1.0","""event"",""trial"",""time""
""fullscreenenter"",""0"",""4004""
","
","
","""event"",""trial"",""time""
""fullscreenenter"",""0"",""4004""
","
","null","<p></p>","null","","","","","","","","","","","","","","","","","","","","","","",""
"","do_trial","142","732421","0.0-79.0-0.0","""event"",""trial"",""time""
""fullscreenenter"",""0"",""4004""
","
","
","""event"",""trial"",""time""
""fullscreenenter"",""0"",""4004""
","
","1812.4000000059605","","","","","","","","49","1,0,0","0","city","20","probe-69","0.5474921743003203","0.4195612643564093","0.20701385532959166","1","","","","","","","",""
"","html-keyboard-response","143","733429","0.0-79.0-1.0","""event"",""trial"",""time""
""fullscreenenter"",""0"",""4004""
","
","
","""event"",""trial"",""time""
""fullscreenenter"",""0"",""4004""
","
","null","<p></p>","null","","","","","","","","","","","","","","","","","","","","","","",""
"","do_trial","144","739112","0.0-80.0-0.0","""event"",""trial"",""time""
""fullscreenenter"",""0"",""4004""
","
","
","""event"",""trial"",""time""
""fullscreenenter"",""0"",""4004""
","
","1141.300000011921","","","","","","","","49","0,0,1","0","city","21","probe-62","0.5125726002149252","0.3476868100672425","0.25740134989888114","0","","","","","","","",""
"","html-keyboard-response","145","740129","0.0-80.0-1.0","""event"",""trial"",""time""
""fullscreenenter"",""0"",""4004""
","
","
","""event"",""trial"",""time""
""fullscreenenter"",""0"",""4004""
","
","null","<p></p>","null","","","","","","","","","","","","","","","","","","","","","","",""
"","do_trial","146","746217","0.0-81.0-0.0","""event"",""trial"",""time""
""fullscreenenter"",""0"",""4004""
","
","
","""event"",""trial"",""time""
""fullscreenenter"",""0"",""4004""
","
","1520.5","","","","","","","","50","1,0,0","0","city","22","probe-177","0.3839739182482178","0.36618060244231837","0.2790860241545592","0","","","","","","","",""
"","html-keyboard-response","147","747222","0.0-81.0-1.0","""event"",""trial"",""time""
""fullscreenenter"",""0"",""4004""
","
","
","""event"",""trial"",""time""
""fullscreenenter"",""0"",""4004""
","
","null","<p></p>","null","","","","","","","","","","","","","","","","","","","","","","",""
"","do_trial","148","752747","0.0-82.0-0.0","""event"",""trial"",""time""
""fullscreenenter"",""0"",""4004""
","
","
","""event"",""trial"",""time""
""fullscreenenter"",""0"",""4004""
","
","951.1999999880791","","","","","","","","51","1,1,0","0","city","23","probe-138","0.5096575580590573","0.24703056728041972","0.35288835124401857","0","","","","","","","",""
"","html-keyboard-response","149","753754","0.0-82.0-1.0","""event"",""trial"",""time""
""fullscreenenter"",""0"",""4004""
","
","
","""event"",""trial"",""time""
""fullscreenenter"",""0"",""4004""
","
","null","<p></p>","null","","","","","","","","","","","","","","","","","","","","","","",""
"","do_trial","150","759495","0.0-83.0-0.0","""event"",""trial"",""time""
""fullscreenenter"",""0"",""4004""
","
","
","""event"",""trial"",""time""
""fullscreenenter"",""0"",""4004""
","
","1184.1000000238419","","","","","","","","49","1,0,1","0","city","24","probe-201","0.449005313139781","0.17568140953097733","0.1804403400779245","1","","","","","","","",""
"","html-keyboard-response","151","760502","0.0-83.0-1.0","""event"",""trial"",""time""
""fullscreenenter"",""0"",""4004""
","
","
","""event"",""trial"",""time""
""fullscreenenter"",""0"",""4004""
","
","null","<p></p>","null","","","","","","","","","","","","","","","","","","","","","","",""
"","do_trial","152","765583","0.0-84.0-0.0","""event"",""trial"",""time""
""fullscreenenter"",""0"",""4004""
","
","
","""event"",""trial"",""time""
""fullscreenenter"",""0"",""4004""
","
","537.5","","","","","","","","50","1,0,0","0","city","25","probe-207","0.5488207626478679","0.14458542170838326","0.1560046585025294","0","","","","","","","",""
"","html-keyboard-response","153","766588","0.0-84.0-1.0","""event"",""trial"",""time""
""fullscreenenter"",""0"",""4004""
","
","
","""event"",""trial"",""time""
""fullscreenenter"",""0"",""4004""
","
","null","<p></p>","null","","","","","","","","","","","","","","","","","","","","","","",""
"","do_trial","154","771707","0.0-85.0-0.0","""event"",""trial"",""time""
""fullscreenenter"",""0"",""4004""
","
","
","""event"",""trial"",""time""
""fullscreenenter"",""0"",""4004""
","
","569.1999999880791","","","","","","","","49","0,0,0","0","city","26","probe-66","0.6430031834843025","0.06267911584199096","0.09767692688758317","0","","","","","","","",""
"","html-keyboard-response","155","772722","0.0-85.0-1.0","""event"",""trial"",""time""
""fullscreenenter"",""0"",""4004""
","
","
","""event"",""trial"",""time""
""fullscreenenter"",""0"",""4004""
","
","null","<p></p>","null","","","","","","","","","","","","","","","","","","","","","","",""
"","do_trial","156","777863","0.0-86.0-0.0","""event"",""trial"",""time""
""fullscreenenter"",""0"",""4004""
","
","
","""event"",""trial"",""time""
""fullscreenenter"",""0"",""4004""
","
","578.0999999940395","","","","","","","","50","0,0,0","0","city","27","probe-157","0.6868115721034852","0.09994453265823644","0.1976331108648607","0","","","","","","","",""
"","html-keyboard-response","157","778869","0.0-86.0-1.0","""event"",""trial"",""time""
""fullscreenenter"",""0"",""4004""
","
","
","""event"",""trial"",""time""
""fullscreenenter"",""0"",""4004""
","
","null","<p></p>","null","","","","","","","","","","","","","","","","","","","","","","",""
"","do_trial","158","784135","0.0-87.0-0.0","""event"",""trial"",""time""
""fullscreenenter"",""0"",""4004""
","
","
","""event"",""trial"",""time""
""fullscreenenter"",""0"",""4004""
","
","692.9000000059605","","","","","","","","49","0,0,1","0","city","28","probe-214","0.6508742973002056","0.21490812099980566","0.2887574615579868","0","","","","","","","",""
"","html-keyboard-response","159","785143","0.0-87.0-1.0","""event"",""trial"",""time""
""fullscreenenter"",""0"",""4004""
","
","
","""event"",""trial"",""time""
""fullscreenenter"",""0"",""4004""
","
","null","<p></p>","null","","","","","","","","","","","","","","","","","","","","","","",""
"","do_trial","160","792002","0.0-88.0-0.0","""event"",""trial"",""time""
""fullscreenenter"",""0"",""4004""
","
","
","""event"",""trial"",""time""
""fullscreenenter"",""0"",""4004""
","
","2302.2999999821186","","","","","","","","51","1,0,0","0","city","29","probe-219","0.755481927039291","0.3279173164641005","0.21484700562265563","0","","","","","","","",""
"","html-keyboard-response","161","793007","0.0-88.0-1.0","""event"",""trial"",""time""
""fullscreenenter"",""0"",""4004""
","
","
","""event"",""trial"",""time""
""fullscreenenter"",""0"",""4004""
","
","null","<p></p>","null","","","","","","","","","","","","","","","","","","","","","","",""
"","do_bye","162","794515","0.0-89.0-0.0","""event"",""trial"",""time""
""fullscreenenter"",""0"",""4004""
","
","
","""event"",""trial"",""time""
""fullscreenenter"",""0"",""4004""
","
","null","","","","","","","","null","","","","","","","","","","","","","","","","",""
"","break","163","798780","0.0-89.0-1.0","""event"",""trial"",""time""
""fullscreenenter"",""0"",""4004""
","
","
","""event"",""trial"",""time""
""fullscreenenter"",""0"",""4004""
","
","4264.4000000059605","<div class='center'><p>Time to take a quick break! You have 2 minutes to rest, but you can move on sooner if you'd like.</p><p> Press the <b>space bar</b> to continue.</p></div>","32","","","","","","","","","","","","","","","","","","","","","","",""
"","do_travel","164","807790","0.0-90.0-0.0","""event"",""trial"",""time""
""fullscreenenter"",""0"",""4004""
","
","
","""event"",""trial"",""time""
""fullscreenenter"",""0"",""4004""
","
","null","","","","","","","","null","","","","","","","","","","","","","","","","",""
"","do_welcome","165","811802","0.0-90.0-1.0","""event"",""trial"",""time""
""fullscreenenter"",""0"",""4004""
","
","
","""event"",""trial"",""time""
""fullscreenenter"",""0"",""4004""
","
","null","","","","","","","","null","","","","","","","","","","","","","","","","",""
"","do_trial","166","818034","0.0-91.0-0.0","""event"",""trial"",""time""
""fullscreenenter"",""0"",""4004""
","
","
","""event"",""trial"",""time""
""fullscreenenter"",""0"",""4004""
","
","1668.800000011921","","","","","","","","50","1,1,0","1","mountain","30","probe-94","1","0.3729802463248041","0.10079672596795551","1","","","","","","","",""
"","html-keyboard-response","167","819047","0.0-91.0-1.0","""event"",""trial"",""time""
""fullscreenenter"",""0"",""4004""
","
","
","""event"",""trial"",""time""
""fullscreenenter"",""0"",""4004""
","
","null","<p></p>","null","","","","","","","","","","","","","","","","","","","","","","",""
"","do_trial","168","824573","0.0-92.0-0.0","""event"",""trial"",""time""
""fullscreenenter"",""0"",""4004""
","
","
","""event"",""trial"",""time""
""fullscreenenter"",""0"",""4004""
","
","959.1999999880791","","","","","","","","50","1,0,1","1","mountain","31","probe-192","1","0.22587342102079472","0.14472718937164508","0","","","","","","","",""
"","html-keyboard-response","169","825577","0.0-92.0-1.0","""event"",""trial"",""time""
""fullscreenenter"",""0"",""4004""
","
","
","""event"",""trial"",""time""
""fullscreenenter"",""0"",""4004""
","
","null","<p></p>","null","","","","","","","","","","","","","","","","","","","","","","",""
"","do_trial","170","830808","0.0-93.0-0.0","""event"",""trial"",""time""
""fullscreenenter"",""0"",""4004""
","
","
","""event"",""trial"",""time""
""fullscreenenter"",""0"",""4004""
","
","689.2999999821186","","","","","","","","50","1,0,0","1","mountain","32","probe-78","1","0.20761710907096664","0.09313922620440357","0","","","","","","","",""
"","html-keyboard-response","171","831823","0.0-93.0-1.0","""event"",""trial"",""time""
""fullscreenenter"",""0"",""4004""
","
","
","""event"",""trial"",""time""
""fullscreenenter"",""0"",""4004""
","
","null","<p></p>","null","","","","","","","","","","","","","","","","","","","","","","",""
"","do_trial","172","837147","0.0-94.0-0.0","""event"",""trial"",""time""
""fullscreenenter"",""0"",""4004""
","
","
","""event"",""trial"",""time""
""fullscreenenter"",""0"",""4004""
","
","764.5","","","","","","","","49","1,1,0","1","mountain","33","probe-165","0.8342880962479176","0.27921986845517394","0.17581762270463416","1","","","","","","","",""
"","html-keyboard-response","173","838153","0.0-94.0-1.0","""event"",""trial"",""time""
""fullscreenenter"",""0"",""4004""
","
","
","""event"",""trial"",""time""
""fullscreenenter"",""0"",""4004""
","
","null","<p></p>","null","","","","","","","","","","","","","","","","","","","","","","",""
"","do_trial","174","844851","0.0-95.0-0.0","""event"",""trial"",""time""
""fullscreenenter"",""0"",""4004""
","
","
","""event"",""trial"",""time""
""fullscreenenter"",""0"",""4004""
","
","2136.100000023842","","","","","","","","50","0,0,0","1","mountain","34","probe-47","0.7698310488508112","0.20093989497581233","0.07648999813731433","0","","","","","","","",""
"","html-keyboard-response","175","845861","0.0-95.0-1.0","""event"",""trial"",""time""
""fullscreenenter"",""0"",""4004""
","
","
","""event"",""trial"",""time""
""fullscreenenter"",""0"",""4004""
","
","null","<p></p>","null","","","","","","","","","","","","","","","","","","","","","","",""
"","do_trial","176","850985","0.0-96.0-0.0","""event"",""trial"",""time""
""fullscreenenter"",""0"",""4004""
","
","
","""event"",""trial"",""time""
""fullscreenenter"",""0"",""4004""
","
","590.6999999880791","","","","","","","","51","0,0,0","1","mountain","35","probe-131","0.8018793758636015","0.2894140780316407","0.09308164580718188","0","","","","","","","",""
"","html-keyboard-response","177","851988","0.0-96.0-1.0","""event"",""trial"",""time""
""fullscreenenter"",""0"",""4004""
","
","
","""event"",""trial"",""time""
""fullscreenenter"",""0"",""4004""
","
","null","<p></p>","null","","","","","","","","","","","","","","","","","","","","","","",""
"","do_trial","178","857026","0.0-97.0-0.0","""event"",""trial"",""time""
""fullscreenenter"",""0"",""4004""
","
","
","""event"",""trial"",""time""
""fullscreenenter"",""0"",""4004""
","
","483.19999998807907","","","","","","","","49","1,1,0","1","mountain","36","probe-221","0.6749584977002874","0.3730478278891723","0.15937396028000853","1","","","","","","","",""
"","html-keyboard-response","179","858043","0.0-97.0-1.0","""event"",""trial"",""time""
""fullscreenenter"",""0"",""4004""
","
","
","""event"",""trial"",""time""
""fullscreenenter"",""0"",""4004""
","
","null","<p></p>","null","","","","","","","","","","","","","","","","","","","","","","",""
"","do_trial","180","863589","0.0-98.0-0.0","""event"",""trial"",""time""
""fullscreenenter"",""0"",""4004""
","
","
","""event"",""trial"",""time""
""fullscreenenter"",""0"",""4004""
","
","982.5999999940395","","","","","","","","50","0,0,0","1","mountain","37","probe-211","0.6380844649478741","0.2692569002151165","0.10469164717885138","0","","","","","","","",""
"","html-keyboard-response","181","864592","0.0-98.0-1.0","""event"",""trial"",""time""
""fullscreenenter"",""0"",""4004""
","
","
","""event"",""trial"",""time""
""fullscreenenter"",""0"",""4004""
","
","null","<p></p>","null","","","","","","","","","","","","","","","","","","","","","","",""
"","do_trial","182","870232","0.0-99.0-0.0","""event"",""trial"",""time""
""fullscreenenter"",""0"",""4004""
","
","
","""event"",""trial"",""time""
""fullscreenenter"",""0"",""4004""
","
","1073.4000000059605","","","","","","","","49","1,0,0","1","mountain","38","probe-124","0.5221787307540369","0.3722119735271969","0.20000203041104056","1","","","","","","","",""
"","html-keyboard-response","183","871236","0.0-99.0-1.0","""event"",""trial"",""time""
""fullscreenenter"",""0"",""4004""
","
","
","""event"",""trial"",""time""
""fullscreenenter"",""0"",""4004""
","
","null","<p></p>","null","","","","","","","","","","","","","","","","","","","","","","",""
"","do_trial","184","877127","0.0-100.0-0.0","""event"",""trial"",""time""
""fullscreenenter"",""0"",""4004""
","
","
","""event"",""trial"",""time""
""fullscreenenter"",""0"",""4004""
","
","1321.5","","","","","","","","49","0,1,0","1","mountain","39","probe-158","0.553163132180816","0.37322771364889074","0.20255489976296712","0","","","","","","","",""
"","html-keyboard-response","185","878136","0.0-100.0-1.0","""event"",""trial"",""time""
""fullscreenenter"",""0"",""4004""
","
","
","""event"",""trial"",""time""
""fullscreenenter"",""0"",""4004""
","
","null","<p></p>","null","","","","","","","","","","","","","","","","","","","","","","",""
"","do_trial","186","883493","0.0-101.0-0.0","""event"",""trial"",""time""
""fullscreenenter"",""0"",""4004""
","
","
","""event"",""trial"",""time""
""fullscreenenter"",""0"",""4004""
","
","781.9000000059605","","","","","","","","49","1,0,0","1","mountain","40","probe-40","0.7323908908150406","0.2848815383404935","0.056930684384350665","1","","","","","","","",""
"","html-keyboard-response","187","884500","0.0-101.0-1.0","""event"",""trial"",""time""
""fullscreenenter"",""0"",""4004""
","
","
","""event"",""trial"",""time""
""fullscreenenter"",""0"",""4004""
","
","null","<p></p>","null","","","","","","","","","","","","","","","","","","","","","","",""
"","do_trial","188","890079","0.0-102.0-0.0","""event"",""trial"",""time""
""fullscreenenter"",""0"",""4004""
","
","
","""event"",""trial"",""time""
""fullscreenenter"",""0"",""4004""
","
","1006.0999999940395","","","","","","","","49","1,0,0","1","mountain","41","probe-17","0.6173674773045894","0.24489502940189675","0.1323334194893565","1","","","","","","","",""
"","html-keyboard-response","189","891082","0.0-102.0-1.0","""event"",""trial"",""time""
""fullscreenenter"",""0"",""4004""
","
","
","""event"",""trial"",""time""
""fullscreenenter"",""0"",""4004""
","
","null","<p></p>","null","","","","","","","","","","","","","","","","","","","","","","",""
"","do_trial","190","896859","0.0-103.0-0.0","""event"",""trial"",""time""
""fullscreenenter"",""0"",""4004""
","
","
","""event"",""trial"",""time""
""fullscreenenter"",""0"",""4004""
","
","1214.0999999940395","","","","","","","","49","1,1,0","1","mountain","42","probe-05","0.4865432099581486","0.2846518278492564","0.12246167302693296","1","","","","","","","",""
"","html-keyboard-response","191","897865","0.0-103.0-1.0","""event"",""trial"",""time""
""fullscreenenter"",""0"",""4004""
","
","
","""event"",""trial"",""time""
""fullscreenenter"",""0"",""4004""
","
","null","<p></p>","null","","","","","","","","","","","","","","","","","","","","","","",""
"","do_trial","192","903833","0.0-104.0-0.0","""event"",""trial"",""time""
""fullscreenenter"",""0"",""4004""
","
","
","""event"",""trial"",""time""
""fullscreenenter"",""0"",""4004""
","
","1408.9000000059605","","","","","","","","49","1,1,0","1","mountain","43","probe-12","0.4261588858418973","0.38252694836089457","0.07479279428507236","1","","","","","","","",""
"","html-keyboard-response","193","904839","0.0-104.0-1.0","""event"",""trial"",""time""
""fullscreenenter"",""0"",""4004""
","
","
","""event"",""trial"",""time""
""fullscreenenter"",""0"",""4004""
","
","null","<p></p>","null","","","","","","","","","","","","","","","","","","","","","","",""
"","do_trial","194","910007","0.0-105.0-0.0","""event"",""trial"",""time""
""fullscreenenter"",""0"",""4004""
","
","
","""event"",""trial"",""time""
""fullscreenenter"",""0"",""4004""
","
","595","","","","","","","","49","1,0,0","1","mountain","44","probe-154","0.4152637918684752","0.49490900919100483","0.09121301076705052","1","","","","","","","",""
"","html-keyboard-response","195","911018","0.0-105.0-1.0","""event"",""trial"",""time""
""fullscreenenter"",""0"",""4004""
","
","
","""event"",""trial"",""time""
""fullscreenenter"",""0"",""4004""
","
","null","<p></p>","null","","","","","","","","","","","","","","","","","","","","","","",""
"","do_trial","196","916578","0.0-106.0-0.0","""event"",""trial"",""time""
""fullscreenenter"",""0"",""4004""
","
","
","""event"",""trial"",""time""
""fullscreenenter"",""0"",""4004""
","
","988.0999999940395","","","","","","","","49","0,0,0","1","mountain","45","probe-97","0.34614188330886436","0.537521285838327","0.2714829444211754","0","","","","","","","",""
"","html-keyboard-response","197","917584","0.0-106.0-1.0","""event"",""trial"",""time""
""fullscreenenter"",""0"",""4004""
","
","
","""event"",""trial"",""time""
""fullscreenenter"",""0"",""4004""
","
","null","<p></p>","null","","","","","","","","","","","","","","","","","","","","","","",""
"","do_trial","198","922581","0.0-107.0-0.0","""event"",""trial"",""time""
""fullscreenenter"",""0"",""4004""
","
","
","""event"",""trial"",""time""
""fullscreenenter"",""0"",""4004""
","
","441.2000000178814","","","","","","","","49","0,1,0","1","mountain","46","probe-128","0.452255113858483","0.7511437818102278","0.0733881981063882","0","","","","","","","",""
"","html-keyboard-response","199","923598","0.0-107.0-1.0","""event"",""trial"",""time""
""fullscreenenter"",""0"",""4004""
","
","
","""event"",""trial"",""time""
""fullscreenenter"",""0"",""4004""
","
","null","<p></p>","null","","","","","","","","","","","","","","","","","","","","","","",""
"","do_trial","200","928702","0.0-108.0-0.0","""event"",""trial"",""time""
""fullscreenenter"",""0"",""4004""
","
","
","""event"",""trial"",""time""
""fullscreenenter"",""0"",""4004""
","
","544","","","","","","","","49","0,1,0","1","mountain","47","probe-102","0.40777706788180185","0.7377461174796653","0.1595847663762291","0","","","","","","","",""
"","html-keyboard-response","201","929708","0.0-108.0-1.0","""event"",""trial"",""time""
""fullscreenenter"",""0"",""4004""
","
","
","""event"",""trial"",""time""
""fullscreenenter"",""0"",""4004""
","
","null","<p></p>","null","","","","","","","","","","","","","","","","","","","","","","",""
"","do_trial","202","935093","0.0-109.0-0.0","""event"",""trial"",""time""
""fullscreenenter"",""0"",""4004""
","
","
","""event"",""trial"",""time""
""fullscreenenter"",""0"",""4004""
","
","819.9000000059605","","","","","","","","49","0,0,0","1","mountain","48","probe-38","0.4022733647344201","0.8200471431043586","0.12108848225279996","0","","","","","","","",""
"","html-keyboard-response","203","936102","0.0-109.0-1.0","""event"",""trial"",""time""
""fullscreenenter"",""0"",""4004""
","
","
","""event"",""trial"",""time""
""fullscreenenter"",""0"",""4004""
","
","null","<p></p>","null","","","","","","","","","","","","","","","","","","","","","","",""
"","do_trial","204","941522","0.0-110.0-0.0","""event"",""trial"",""time""
""fullscreenenter"",""0"",""4004""
","
","
","""event"",""trial"",""time""
""fullscreenenter"",""0"",""4004""
","
","851.5999999940395","","","","","","","","50","0,0,0","1","mountain","49","probe-10","0.3717632224669668","0.5770859461868879","0.16530281065427482","0","","","","","","","",""
"","html-keyboard-response","205","942525","0.0-110.0-1.0","""event"",""trial"",""time""
""fullscreenenter"",""0"",""4004""
","
","
","""event"",""trial"",""time""
""fullscreenenter"",""0"",""4004""
","
","null","<p></p>","null","","","","","","","","","","","","","","","","","","","","","","",""
"","do_trial","206","947623","0.0-111.0-0.0","""event"",""trial"",""time""
""fullscreenenter"",""0"",""4004""
","
","
","""event"",""trial"",""time""
""fullscreenenter"",""0"",""4004""
","
","543.0999999940395","","","","","","","","49","1,0,1","1","mountain","50","probe-203","0.4615285901780118","0.40851566186680366","0.24490717621650918","1","","","","","","","",""
"","html-keyboard-response","207","948638","0.0-111.0-1.0","""event"",""trial"",""time""
""fullscreenenter"",""0"",""4004""
","
","
","""event"",""trial"",""time""
""fullscreenenter"",""0"",""4004""
","
","null","<p></p>","null","","","","","","","","","","","","","","","","","","","","","","",""
"","do_trial","208","954316","0.0-112.0-0.0","""event"",""trial"",""time""
""fullscreenenter"",""0"",""4004""
","
","
","""event"",""trial"",""time""
""fullscreenenter"",""0"",""4004""
","
","1106.4000000059605","","","","","","","","49","0,1,1","1","mountain","51","probe-164","0.3389294290632337","0.4962224796105432","0.20442914529517617","0","","","","","","","",""
"","html-keyboard-response","209","955326","0.0-112.0-1.0","""event"",""trial"",""time""
""fullscreenenter"",""0"",""4004""
","
","
","""event"",""trial"",""time""
""fullscreenenter"",""0"",""4004""
","
","null","<p></p>","null","","","","","","","","","","","","","","","","","","","","","","",""
"","do_trial","210","960894","0.0-113.0-0.0","""event"",""trial"",""time""
""fullscreenenter"",""0"",""4004""
","
","
","""event"",""trial"",""time""
""fullscreenenter"",""0"",""4004""
","
","1011.5","","","","","","","","49","0,1,1","1","mountain","52","probe-216","0.3450061899952672","0.523334060125925","0.23142106275780516","0","","","","","","","",""
"","html-keyboard-response","211","961901","0.0-113.0-1.0","""event"",""trial"",""time""
""fullscreenenter"",""0"",""4004""
","
","
","""event"",""trial"",""time""
""fullscreenenter"",""0"",""4004""
","
","null","<p></p>","null","","","","","","","","","","","","","","","","","","","","","","",""
"","do_trial","212","967257","0.0-114.0-0.0","""event"",""trial"",""time""
""fullscreenenter"",""0"",""4004""
","
","
","""event"",""trial"",""time""
""fullscreenenter"",""0"",""4004""
","
","788.3999999761581","","","","","","","","50","1,1,1","1","mountain","53","probe-113","0.29535736693953124","0.5278489644081832","0.23446688312987957","1","","","","","","","",""
"","html-keyboard-response","213","968265","0.0-114.0-1.0","""event"",""trial"",""time""
""fullscreenenter"",""0"",""4004""
","
","
","""event"",""trial"",""time""
""fullscreenenter"",""0"",""4004""
","
","null","<p></p>","null","","","","","","","","","","","","","","","","","","","","","","",""
"","do_trial","214","973648","0.0-115.0-0.0","""event"",""trial"",""time""
""fullscreenenter"",""0"",""4004""
","
","
","""event"",""trial"",""time""
""fullscreenenter"",""0"",""4004""
","
","826.7999999821186","","","","","","","","50","0,0,0","1","mountain","54","probe-87","0.2654155044269944","0.5899041250813054","0.12513921012799928","0","","","","","","","",""
"","html-keyboard-response","215","974655","0.0-115.0-1.0","""event"",""trial"",""time""
""fullscreenenter"",""0"",""4004""
","
","
","""event"",""trial"",""time""
""fullscreenenter"",""0"",""4004""
","
","null","<p></p>","null","","","","","","","","","","","","","","","","","","","","","","",""
"","do_trial","216","980046","0.0-116.0-0.0","""event"",""trial"",""time""
""fullscreenenter"",""0"",""4004""
","
","
","""event"",""trial"",""time""
""fullscreenenter"",""0"",""4004""
","
","829.1999999880791","","","","","","","","50","0,1,0","1","mountain","55","probe-86","0.23168963188119104","0.5883755685374626","0.11819321957922582","1","","","","","","","",""
"","html-keyboard-response","217","981050","0.0-116.0-1.0","""event"",""trial"",""time""
""fullscreenenter"",""0"",""4004""
","
","
","""event"",""trial"",""time""
""fullscreenenter"",""0"",""4004""
","
","null","<p></p>","null","","","","","","","","","","","","","","","","","","","","","","",""
"","do_trial","218","986592","0.0-117.0-0.0","""event"",""trial"",""time""
""fullscreenenter"",""0"",""4004""
","
","
","""event"",""trial"",""time""
""fullscreenenter"",""0"",""4004""
","
","963.4000000059605","","","","","","","","50","0,0,0","1","mountain","56","probe-83","0.1784314992982966","0.4950758708339331","0.07640888808420405","0","","","","","","","",""
"","html-keyboard-response","219","987597","0.0-117.0-1.0","""event"",""trial"",""time""
""fullscreenenter"",""0"",""4004""
","
","
","""event"",""trial"",""time""
""fullscreenenter"",""0"",""4004""
","
","null","<p></p>","null","","","","","","","","","","","","","","","","","","","","","","",""
"","do_trial","220","992881","0.0-118.0-0.0","""event"",""trial"",""time""
""fullscreenenter"",""0"",""4004""
","
","
","""event"",""trial"",""time""
""fullscreenenter"",""0"",""4004""
","
","732.8000000119209","","","","","","","","50","0,1,0","1","mountain","57","probe-199","0.16340507229068016","0.4895942462225659","0.05497009441811328","1","","","","","","","",""
"","html-keyboard-response","221","993890","0.0-118.0-1.0","""event"",""trial"",""time""
""fullscreenenter"",""0"",""4004""
","
","
","""event"",""trial"",""time""
""fullscreenenter"",""0"",""4004""
","
","null","<p></p>","null","","","","","","","","","","","","","","","","","","","","","","",""
"","do_trial","222","999357","0.0-119.0-0.0","""event"",""trial"",""time""
""fullscreenenter"",""0"",""4004""
","
","
","""event"",""trial"",""time""
""fullscreenenter"",""0"",""4004""
","
","920.3000000119209","","","","","","","","50","0,1,0","1","mountain","58","probe-196","0.19559407497215164","0.5008060536717731","0.09020880436579677","1","","","","","","","",""
"","html-keyboard-response","223","1000365","0.0-119.0-1.0","""event"",""trial"",""time""
""fullscreenenter"",""0"",""4004""
","
","
","""event"",""trial"",""time""
""fullscreenenter"",""0"",""4004""
","
","null","<p></p>","null","","","","","","","","","","","","","","","","","","","","","","",""
"","do_trial","224","1006200","0.0-120.0-0.0","""event"",""trial"",""time""
""fullscreenenter"",""0"",""4004""
","
","
","""event"",""trial"",""time""
""fullscreenenter"",""0"",""4004""
","
","1274.4000000059605","","","","","","","","50","1,1,0","1","mountain","59","probe-161","0.34973824325802055","0.6230130082474107","0.11060368773683585","1","","","","","","","",""
"","html-keyboard-response","225","1007208","0.0-120.0-1.0","""event"",""trial"",""time""
""fullscreenenter"",""0"",""4004""
","
","
","""event"",""trial"",""time""
""fullscreenenter"",""0"",""4004""
","
","null","<p></p>","null","","","","","","","","","","","","","","","","","","","","","","",""
"","do_trial","226","1012657","0.0-121.0-0.0","""event"",""trial"",""time""
""fullscreenenter"",""0"",""4004""
","
","
","""event"",""trial"",""time""
""fullscreenenter"",""0"",""4004""
","
","884.1999999880791","","","","","","","","50","0,0,0","1","mountain","60","probe-213","0.23289118346639456","0.5587603642459884","0.1198483348153491","0","","","","","","","",""
"","html-keyboard-response","227","1013663","0.0-121.0-1.0","""event"",""trial"",""time""
""fullscreenenter"",""0"",""4004""
","
","
","""event"",""trial"",""time""
""fullscreenenter"",""0"",""4004""
","
","null","<p></p>","null","","","","","","","","","","","","","","","","","","","","","","",""
"","do_trial","228","1018871","0.0-122.0-0.0","""event"",""trial"",""time""
""fullscreenenter"",""0"",""4004""
","
","
","""event"",""trial"",""time""
""fullscreenenter"",""0"",""4004""
","
","657.2999999821186","","","","","","","","50","0,1,0","1","mountain","61","probe-49","0.14946780039699215","0.5857352073969523","0.1103360799177964","1","","","","","","","",""
"","html-keyboard-response","229","1019873","0.0-122.0-1.0","""event"",""trial"",""time""
""fullscreenenter"",""0"",""4004""
","
","
","""event"",""trial"",""time""
""fullscreenenter"",""0"",""4004""
","
","null","<p></p>","null","","","","","","","","","","","","","","","","","","","","","","",""
"","do_trial","230","1025530","0.0-123.0-0.0","""event"",""trial"",""time""
""fullscreenenter"",""0"",""4004""
","
","
","""event"",""trial"",""time""
""fullscreenenter"",""0"",""4004""
","
","1095","","","","","","","","50","0,1,0","1","mountain","62","probe-140","0.24312357265015394","0.563058754328453","0.057540445516731174","1","","","","","","","",""
"","html-keyboard-response","231","1026536","0.0-123.0-1.0","""event"",""trial"",""time""
""fullscreenenter"",""0"",""4004""
","
","
","""event"",""trial"",""time""
""fullscreenenter"",""0"",""4004""
","
","null","<p></p>","null","","","","","","","","","","","","","","","","","","","","","","",""
"","do_trial","232","1032087","0.0-124.0-0.0","""event"",""trial"",""time""
""fullscreenenter"",""0"",""4004""
","
","
","""event"",""trial"",""time""
""fullscreenenter"",""0"",""4004""
","
","999.9000000059605","","","","","","","","50","0,0,0","1","mountain","63","probe-118","0.19577958739131937","0.5734516688371921","0.06606202055640754","0","","","","","","","",""
"","html-keyboard-response","233","1033097","0.0-124.0-1.0","""event"",""trial"",""time""
""fullscreenenter"",""0"",""4004""
","
","
","""event"",""trial"",""time""
""fullscreenenter"",""0"",""4004""
","
","null","<p></p>","null","","","","","","","","","","","","","","","","","","","","","","",""
"","do_trial","234","1038365","0.0-125.0-0.0","""event"",""trial"",""time""
""fullscreenenter"",""0"",""4004""
","
","
","""event"",""trial"",""time""
""fullscreenenter"",""0"",""4004""
","
","699.5","","","","","","","","50","1,1,0","1","mountain","64","probe-105","0.24699956210744073","0.5364327670977684","0.11742477665442866","1","","","","","","","",""
"","html-keyboard-response","235","1039367","0.0-125.0-1.0","""event"",""trial"",""time""
""fullscreenenter"",""0"",""4004""
","
","
","""event"",""trial"",""time""
""fullscreenenter"",""0"",""4004""
","
","null","<p></p>","null","","","","","","","","","","","","","","","","","","","","","","",""
"","do_trial","236","1044996","0.0-126.0-0.0","""event"",""trial"",""time""
""fullscreenenter"",""0"",""4004""
","
","
","""event"",""trial"",""time""
""fullscreenenter"",""0"",""4004""
","
","1061.0999999940395","","","","","","","","50","0,0,0","1","mountain","65","probe-71","0.22424546266757311","0.5049792878918709","0.14411884572442268","0","","","","","","","",""
"","html-keyboard-response","237","1046006","0.0-126.0-1.0","""event"",""trial"",""time""
""fullscreenenter"",""0"",""4004""
","
","
","""event"",""trial"",""time""
""fullscreenenter"",""0"",""4004""
","
","null","<p></p>","null","","","","","","","","","","","","","","","","","","","","","","",""
"","do_trial","238","1051146","0.0-127.0-0.0","""event"",""trial"",""time""
""fullscreenenter"",""0"",""4004""
","
","
","""event"",""trial"",""time""
""fullscreenenter"",""0"",""4004""
","
","581.2999999821186","","","","","","","","50","0,1,0","1","mountain","66","probe-171","0.3101242315402144","0.5665468480856408","0.05696168691994773","1","","","","","","","",""
"","html-keyboard-response","239","1052153","0.0-127.0-1.0","""event"",""trial"",""time""
""fullscreenenter"",""0"",""4004""
","
","
","""event"",""trial"",""time""
""fullscreenenter"",""0"",""4004""
","
","null","<p></p>","null","","","","","","","","","","","","","","","","","","","","","","",""
"","do_trial","240","1057100","0.0-128.0-0.0","""event"",""trial"",""time""
""fullscreenenter"",""0"",""4004""
","
","
","""event"",""trial"",""time""
""fullscreenenter"",""0"",""4004""
","
","362.60000002384186","","","","","","","","49","1,1,0","1","mountain","67","probe-108","0.3361013452008475","0.4885284405603476","0.15730325284369787","1","","","","","","","",""
"","html-keyboard-response","241","1058109","0.0-128.0-1.0","""event"",""trial"",""time""
""fullscreenenter"",""0"",""4004""
","
","
","""event"",""trial"",""time""
""fullscreenenter"",""0"",""4004""
","
","null","<p></p>","null","","","","","","","","","","","","","","","","","","","","","","",""
"","do_trial","242","1063873","0.0-129.0-0.0","""event"",""trial"",""time""
""fullscreenenter"",""0"",""4004""
","
","
","""event"",""trial"",""time""
""fullscreenenter"",""0"",""4004""
","
","1194.7999999821186","","","","","","","","50","0,0,0","1","mountain","68","probe-114","0.35989235195910446","0.5512463805190099","0.22072879550674224","0","","","","","","","",""
"","html-keyboard-response","243","1064877","0.0-129.0-1.0","""event"",""trial"",""time""
""fullscreenenter"",""0"",""4004""
","
","
","""event"",""trial"",""time""
""fullscreenenter"",""0"",""4004""
","
","null","<p></p>","null","","","","","","","","","","","","","","","","","","","","","","",""
"","do_trial","244","1070295","0.0-130.0-0.0","""event"",""trial"",""time""
""fullscreenenter"",""0"",""4004""
","
","
","""event"",""trial"",""time""
""fullscreenenter"",""0"",""4004""
","
","866.8000000119209","","","","","","","","49","0,1,1","1","mountain","69","probe-58","0.11327895409101534","0.5796960565513538","0.19833545353626172","0","","","","","","","",""
"","html-keyboard-response","245","1071303","0.0-130.0-1.0","""event"",""trial"",""time""
""fullscreenenter"",""0"",""4004""
","
","
","""event"",""trial"",""time""
""fullscreenenter"",""0"",""4004""
","
","null","<p></p>","null","","","","","","","","","","","","","","","","","","","","","","",""
"","do_bye","246","1072820","0.0-131.0-0.0","""event"",""trial"",""time""
""fullscreenenter"",""0"",""4004""
","
","
","""event"",""trial"",""time""
""fullscreenenter"",""0"",""4004""
","
","null","","","","","","","","null","","","","","","","","","","","","","","","","",""
"","break","247","1122793","0.0-131.0-1.0","""event"",""trial"",""time""
""fullscreenenter"",""0"",""4004""
","
","
","""event"",""trial"",""time""
""fullscreenenter"",""0"",""4004""
","
","49971.69999998808","<div class='center'><p>Time to take a quick break! You have 2 minutes to rest, but you can move on sooner if you'd like.</p><p> Press the <b>space bar</b> to continue.</p></div>","32","","","","","","","","","","","","","","","","","","","","","","",""
"","do_travel","248","1131808","0.0-132.0-0.0","""event"",""trial"",""time""
""fullscreenenter"",""0"",""4004""
","
","
","""event"",""trial"",""time""
""fullscreenenter"",""0"",""4004""
","
","null","","","","","","","","null","","","","","","","","","","","","","","","","",""
"","do_welcome","249","1135821","0.0-132.0-1.0","""event"",""trial"",""time""
""fullscreenenter"",""0"",""4004""
","
","
","""event"",""trial"",""time""
""fullscreenenter"",""0"",""4004""
","
","null","","","","","","","","null","","","","","","","","","","","","","","","","",""
"","do_trial","250","1141992","0.0-133.0-0.0","""event"",""trial"",""time""
""fullscreenenter"",""0"",""4004""
","
","
","""event"",""trial"",""time""
""fullscreenenter"",""0"",""4004""
","
","1592.5","","","","","","","","49","1,1,0","2","countryside","70","probe-88","0.3840361271933967","1","0.21543829051664928","1","","","","","","","",""
"","html-keyboard-response","251","1143008","0.0-133.0-1.0","""event"",""trial"",""time""
""fullscreenenter"",""0"",""4004""
","
","
","""event"",""trial"",""time""
""fullscreenenter"",""0"",""4004""
","
","null","<p></p>","null","","","","","","","","","","","","","","","","","","","","","","",""
"","do_trial","252","1149080","0.0-134.0-0.0","""event"",""trial"",""time""
""fullscreenenter"",""0"",""4004""
","
","
","""event"",""trial"",""time""
""fullscreenenter"",""0"",""4004""
","
","1492.5999999940395","","","","","","","","51","0,1,0","2","countryside","71","probe-34","0.48952095834429526","1","0.16662297150538283","0","","","","","","","",""
"","html-keyboard-response","253","1150098","0.0-134.0-1.0","""event"",""trial"",""time""
""fullscreenenter"",""0"",""4004""
","
","
","""event"",""trial"",""time""
""fullscreenenter"",""0"",""4004""
","
","null","<p></p>","null","","","","","","","","","","","","","","","","","","","","","","",""
"","do_trial","254","1155218","0.0-135.0-0.0","""event"",""trial"",""time""
""fullscreenenter"",""0"",""4004""
","
","
","""event"",""trial"",""time""
""fullscreenenter"",""0"",""4004""
","
","559.3000000119209","","","","","","","","50","0,1,0","2","countryside","72","probe-222","0.3639198731205459","0.8202800812766008","0.11114483159774664","1","","","","","","","",""
"","html-keyboard-response","255","1156226","0.0-135.0-1.0","""event"",""trial"",""time""
""fullscreenenter"",""0"",""4004""
","
","
","""event"",""trial"",""time""
""fullscreenenter"",""0"",""4004""
","
","null","<p></p>","null","","","","","","","","","","","","","","","","","","","","","","",""
"","do_trial","256","1161357","0.0-136.0-0.0","""event"",""trial"",""time""
""fullscreenenter"",""0"",""4004""
","
","
","""event"",""trial"",""time""
""fullscreenenter"",""0"",""4004""
","
","589.4000000059605","","","","","","","","50","1,0,0","2","countryside","73","probe-224","0.41734062613516737","0.7345406932133703","0.06835864363337242","0","","","","","","","",""
"","html-keyboard-response","257","1162369","0.0-136.0-1.0","""event"",""trial"",""time""
""fullscreenenter"",""0"",""4004""
","
","
","""event"",""trial"",""time""
""fullscreenenter"",""0"",""4004""
","
","null","<p></p>","null","","","","","","","","","","","","","","","","","","","","","","",""
"","do_trial","258","1167576","0.0-137.0-0.0","""event"",""trial"",""time""
""fullscreenenter"",""0"",""4004""
","
","
","""event"",""trial"",""time""
""fullscreenenter"",""0"",""4004""
","
","649.4000000059605","","","","","","","","50","1,1,0","2","countryside","74","probe-103","0.4386141344472958","0.6341933456716727","0.06811703674379523","1","","","","","","","",""
