"success","trial_type","trial_index","time_elapsed","internal_node_id","interactions","blur_events","focus_events","fullscreenenter_events","fullscreenexit_events","rt","stimulus","key_press","subject_id","participant_id","age","gender","prompt"
"true","fullscreen","0","5205","0.0-0.0","""event"",""trial"",""time""
""focus"",""0"",""0""
","
","""event"",""trial"",""time""
""focus"",""0"",""0""
","
","
","","","","","","","",""
"","pavlovia","1","5212","0.0-1.0","""event"",""trial"",""time""
""focus"",""0"",""0""
""fullscreenenter"",""2"",""5347""
","
","""event"",""trial"",""time""
""focus"",""0"",""0""
","""event"",""trial"",""time""
""fullscreenenter"",""2"",""5347""
","
","","","","","","","",""
"","instruc1","2","50721","0.0-2.0","""event"",""trial"",""time""
""focus"",""0"",""0""
""fullscreenenter"",""2"",""5347""
","
","""event"",""trial"",""time""
""focus"",""0"",""0""
","""event"",""trial"",""time""
""fullscreenenter"",""2"",""5347""
","
","null","run_exp/static/audio/clip_1_welcome.m4a","null","1143","1143","15","Female","<div class='center'><p>Welcome! This is the first part of the study. It will last ~30 minutes. In part 1 and part 2 of the study, you are the head captain of a pirate ship traveling around the world to different islands. You will play a few different games throughout these two parts. Here is an overview of them:</p><br><p>Part 1 (today)</p><p>1. Instructions, practice game, and quiz</p><p>2. Pick a pirate game on 6 different islands</p><br><p>Part 2 (tomorrow)</p><p>3. Pick a pirate game and memory game</p><p>4. Where did you see this ship? </p></div>"
"","html-keyboard-response","3","52051","0.0-3.0","""event"",""trial"",""time""
""focus"",""0"",""0""
""fullscreenenter"",""2"",""5347""
","
","""event"",""trial"",""time""
""focus"",""0"",""0""
","""event"",""trial"",""time""
""fullscreenenter"",""2"",""5347""
","
","1325","<div class='center'><p>Welcome! This is the first part of the study. It will last ~30 minutes. In part 1 and part 2 of the study, you are the head captain of a pirate ship traveling around the world to different islands. You will play a few different games throughout these two parts. Here is an overview of them:</p><br><p>Part 1 (today)</p><p>1. Instructions, practice game, and quiz</p><p>2. Pick a pirate game on 6 different islands</p><br><p>Part 2 (tomorrow)</p><p>3. Pick a pirate game and memory game</p><p>4. Where did you see this ship? </p><p><b>[Press the space bar to continue]</b></p></div>","32","","","","",""
"","instruc2","4","57457","0.0-4.0","""event"",""trial"",""time""
""focus"",""0"",""0""
""fullscreenenter"",""2"",""5347""
","
","""event"",""trial"",""time""
""focus"",""0"",""0""
","""event"",""trial"",""time""
""fullscreenenter"",""2"",""5347""
","
","null","run_exp/static/audio/clip_2_different_places.m4a","null","","","","","<div class='center'><p>Today, you’ll visit these 6 islands on your journey. You'll be able to see these islands from your ship.</p><p><img src='run_exp/static/images/contexts/all_contexts.png' height='500'></p></div>"
"","html-keyboard-response","5","58635","0.0-5.0","""event"",""trial"",""time""
""focus"",""0"",""0""
""fullscreenenter"",""2"",""5347""
","
","""event"",""trial"",""time""
""focus"",""0"",""0""
","""event"",""trial"",""time""
""fullscreenenter"",""2"",""5347""
","
","1173","<div class='center'><p>Today, you’ll visit these 6 islands on your journey. You'll be able to see these islands from your ship.</p><p><img src='run_exp/static/images/contexts/all_contexts.png' height='500'></p><p><b>[Press the space bar to continue]</b></p></div>","32","","","","",""
"","instruc3","6","68437","0.0-6.0","""event"",""trial"",""time""
""focus"",""0"",""0""
""fullscreenenter"",""2"",""5347""
","
","""event"",""trial"",""time""
""focus"",""0"",""0""
","""event"",""trial"",""time""
""fullscreenenter"",""2"",""5347""
","
","null","run_exp/static/audio/clip_3_goal_of_game_1.m4a","null","","","","","<div class='center'><p> The pirates on your ship will rob other ships as they leave the island.</p> These ships have just sold their goods to the islanders, so they will be filled with lots and lots of gold.</p><p><img src='run_exp/static/images/tutorial/ship_center.png' height='400'></p></div>"
"","html-keyboard-response","7","69035","0.0-7.0","""event"",""trial"",""time""
""focus"",""0"",""0""
""fullscreenenter"",""2"",""5347""
","
","""event"",""trial"",""time""
""focus"",""0"",""0""
","""event"",""trial"",""time""
""fullscreenenter"",""2"",""5347""
","
","588","<div class='center'><p> The pirates on your ship will rob other ships as they leave the island.</p> These ships have just sold their goods to the islanders, so they will be filled with lots and lots of gold.</p><p><img src='run_exp/static/images/tutorial/ship_center.png' height='400'></p><p><b>[Press the space bar to continue]</b></p></div>","32","","","","",""
"","instruc4","8","97107","0.0-8.0","""event"",""trial"",""time""
""focus"",""0"",""0""
""fullscreenenter"",""2"",""5347""
","
","""event"",""trial"",""time""
""focus"",""0"",""0""
","""event"",""trial"",""time""
""fullscreenenter"",""2"",""5347""
","
","null","run_exp/static/audio/clip_4_goal_of_game_2.m4a","null","","","","","<div class='center'><p>As the head captain, you do not have to rob any ships yourself. Another pirate will be doing the robbing for you. First, you will choose a pirate to rob the next ship.</p><p><img src='run_exp/static/images/tutorial/pirates_all_crop.png' height='200'></p><p>Then, you'll see if the pirate successfully robbed the ship of their gold. If they were successful, then you'll get a stack of gold coins like this:</p><p><img src='run_exp/static/images/tutorial/reward.png' height='150'></p><p> If they were <b>not</b> successful, then you'll get no gold coins, and you'll see a big red x like this: </p><p><img src='run_exp/static/images/tutorial/reward_no.png' height='150'></p><p> How much bonus money you make is based on how many gold coins you collect.</p><div>"
"","html-keyboard-response","9","98555","0.0-9.0","""event"",""trial"",""time""
""focus"",""0"",""0""
""fullscreenenter"",""2"",""5347""
","
","""event"",""trial"",""time""
""focus"",""0"",""0""
","""event"",""trial"",""time""
""fullscreenenter"",""2"",""5347""
","
","1443","<div class='center'><p>As the head captain, you do not have to rob any ships yourself. Another pirate will be doing the robbing for you. First, you will choose a pirate to rob the next ship.</p><p><img src='run_exp/static/images/tutorial/pirates_all_crop.png' height='200'></p><p>Then, you'll see if the pirate successfully robbed the ship of their gold. If they were successful, then you'll get a stack of gold coins like this:</p><p><img src='run_exp/static/images/tutorial/reward.png' height='150'></p><p> If they were <b>not</b> successful, then you'll get no gold coins, and you'll see a big red x like this: </p><p><img src='run_exp/static/images/tutorial/reward_no.png' height='150'></p><p> How much bonus money you make is based on how many gold coins you collect.</p<p><b>[Press the space bar to continue]</b></p></div>","32","","","","",""
"","instruc5","10","121234","0.0-10.0","""event"",""trial"",""time""
""focus"",""0"",""0""
""fullscreenenter"",""2"",""5347""
""blur"",""11"",""122681""
","""event"",""trial"",""time""
""blur"",""11"",""122681""
","""event"",""trial"",""time""
""focus"",""0"",""0""
","""event"",""trial"",""time""
""fullscreenenter"",""2"",""5347""
","
","22675","run_exp/static/audio/clip_5_probabilistic.m4a","49","","","","","<div class='center'><p>Even the most skilled pirate can not rob EVERY ship.</p><p> Some ships will have very strong protections against pirate attacks.</p><p> Blue beard, here, is very, very good at robbing ships, but he won't be successful every time he tries to rob one.</p><p> You can press the <b>‘1’</b> key on the keyboard to choose him.</p><p> Try choosing him 10 times to see how often he succeeds at robbing a ship. </p><p><img src='run_exp/static/images/tutorial/blue.png' height='500'></p></div>"
"","html-keyboard-response","11","122748","0.0-11.0","""event"",""trial"",""time""
""focus"",""0"",""0""
""fullscreenenter"",""2"",""5347""
""blur"",""11"",""122681""
""focus"",""12"",""134459""
""blur"",""12"",""136492""
""focus"",""12"",""140902""
""blur"",""12"",""148213""
""focus"",""12"",""150057""
""blur"",""12"",""154751""
""focus"",""12"",""168663""
""blur"",""12"",""170911""
""focus"",""12"",""175947""
""blur"",""12"",""220751""
""focus"",""12"",""225787""
""blur"",""12"",""231420""
""focus"",""12"",""236463""
""blur"",""12"",""237074""
""focus"",""12"",""246317""
""blur"",""12"",""248635""
""focus"",""12"",""248806""
""blur"",""12"",""249215""
""focus"",""12"",""249425""
""blur"",""12"",""249687""
""focus"",""12"",""249809""
""blur"",""12"",""250030""
""focus"",""12"",""250197""
""blur"",""12"",""250374""
""focus"",""12"",""250538""
""blur"",""12"",""250677""
""focus"",""12"",""250871""
""blur"",""12"",""250939""
""focus"",""12"",""251797""
""blur"",""12"",""269364""
""focus"",""12"",""274408""
""blur"",""12"",""276715""
""focus"",""12"",""281738""
""blur"",""12"",""286798""
""focus"",""12"",""291833""
""blur"",""12"",""329405""
""focus"",""12"",""334444""
""blur"",""12"",""400647""
""focus"",""12"",""405690""
""blur"",""12"",""430208""
""focus"",""12"",""432757""
""blur"",""12"",""510104""
""focus"",""12"",""516750""
""blur"",""12"",""524312""
""focus"",""12"",""526936""
""blur"",""12"",""527512""
""focus"",""12"",""533528""
""blur"",""12"",""561869""
""focus"",""12"",""561870""
","""event"",""trial"",""time""
""blur"",""11"",""122681""
""blur"",""12"",""136492""
""blur"",""12"",""148213""
""blur"",""12"",""154751""
""blur"",""12"",""170911""
""blur"",""12"",""220751""
""blur"",""12"",""231420""
""blur"",""12"",""237074""
""blur"",""12"",""248635""
""blur"",""12"",""249215""
""blur"",""12"",""249687""
""blur"",""12"",""250030""
""blur"",""12"",""250374""
""blur"",""12"",""250677""
""blur"",""12"",""250939""
""blur"",""12"",""269364""
""blur"",""12"",""276715""
""blur"",""12"",""286798""
""blur"",""12"",""329405""
""blur"",""12"",""400647""
""blur"",""12"",""430208""
""blur"",""12"",""510104""
""blur"",""12"",""524312""
""blur"",""12"",""527512""
""blur"",""12"",""561869""
","""event"",""trial"",""time""
""focus"",""0"",""0""
""focus"",""12"",""134459""
""focus"",""12"",""140902""
""focus"",""12"",""150057""
""focus"",""12"",""168663""
""focus"",""12"",""175947""
""focus"",""12"",""225787""
""focus"",""12"",""236463""
""focus"",""12"",""246317""
""focus"",""12"",""248806""
""focus"",""12"",""249425""
""focus"",""12"",""249809""
""focus"",""12"",""250197""
""focus"",""12"",""250538""
""focus"",""12"",""250871""
""focus"",""12"",""251797""
""focus"",""12"",""274408""
""focus"",""12"",""281738""
""focus"",""12"",""291833""
""focus"",""12"",""334444""
""focus"",""12"",""405690""
""focus"",""12"",""432757""
""focus"",""12"",""516750""
""focus"",""12"",""526936""
""focus"",""12"",""533528""
""focus"",""12"",""561870""
","""event"",""trial"",""time""
""fullscreenenter"",""2"",""5347""
","
","null","<div class='center'><p><img src='run_exp/static/images/tutorial/blue_win.png' height='500'></p></div>","null","","","","",""
