"success","trial_type","trial_index","time_elapsed","internal_node_id","interactions","blur_events","focus_events","fullscreenenter_events","fullscreenexit_events","rt","stimulus","key_press","subject_id","participant_id","age","gender","prompt","response","choice_outcomes","context_n","context_img_id","trial_n","probe_img_id","pR_red","pR_white","pR_black","outcome","contextArray_ind","validImageProbes","invalidImageProbes","pRew_Red","pRew_White","pRew_Black","availableForMemProbe","choice_blocks"
"true","fullscreen","0","3807","0.0-0.0","""event"",""trial"",""time""
""fullscreenenter"",""0"",""2814""
","
","
","""event"",""trial"",""time""
""fullscreenenter"",""0"",""2814""
","
","","","","","","","","","","","","","","","","","","","","","","","","","",""
"","pavlovia","1","3813","0.0-1.0","""event"",""trial"",""time""
""fullscreenenter"",""0"",""2814""
","
","
","""event"",""trial"",""time""
""fullscreenenter"",""0"",""2814""
","
","","","","","","","","","","","","","","","","","","","","","","","","","",""
"","instruc1","2","48927","0.0-2.0","""event"",""trial"",""time""
""fullscreenenter"",""0"",""2814""
","
","
","""event"",""trial"",""time""
""fullscreenenter"",""0"",""2814""
","
","null","run_exp/static/audio/clip_1_welcome.m4a","null","278","132","14","Female","<div class='center'><p>Welcome! This is the first part of the study. It will last ~30 minutes. In part 1 and part 2 of the study, you are the head captain of a pirate ship traveling around the world to different islands. You will play a few different games throughout these two parts. Here is an overview of them:</p><br><p>Part 1 (today)</p><p>1. Instructions, practice game, and quiz</p><p>2. Pick a pirate game on 6 different islands</p><br><p>Part 2 (tomorrow)</p><p>3. Pick a pirate game and memory game</p><p>4. Where did you see this ship? </p></div>","","","","","","","","","","","","","","","","","",""
"","html-keyboard-response","3","78042","0.0-3.0","""event"",""trial"",""time""
""fullscreenenter"",""0"",""2814""
","
","
","""event"",""trial"",""time""
""fullscreenenter"",""0"",""2814""
","
","29111.399999976158","<div class='center'><p>Welcome! This is the first part of the study. It will last ~30 minutes. In part 1 and part 2 of the study, you are the head captain of a pirate ship traveling around the world to different islands. You will play a few different games throughout these two parts. Here is an overview of them:</p><br><p>Part 1 (today)</p><p>1. Instructions, practice game, and quiz</p><p>2. Pick a pirate game on 6 different islands</p><br><p>Part 2 (tomorrow)</p><p>3. Pick a pirate game and memory game</p><p>4. Where did you see this ship? </p><p><b>[Press the space bar to continue]</b></p></div>","32","","","","","","","","","","","","","","","","","","","","","","",""
"","instruc2","4","83454","0.0-4.0","""event"",""trial"",""time""
""fullscreenenter"",""0"",""2814""
","
","
","""event"",""trial"",""time""
""fullscreenenter"",""0"",""2814""
","
","null","run_exp/static/audio/clip_2_different_places.m4a","null","","","","","<div class='center'><p>Today, you’ll visit these 6 islands on your journey. You'll be able to see these islands from your ship.</p><p><img src='run_exp/static/images/contexts/all_contexts.png' height='500'></p></div>","","","","","","","","","","","","","","","","","",""
"","html-keyboard-response","5","90957","0.0-5.0","""event"",""trial"",""time""
""fullscreenenter"",""0"",""2814""
","
","
","""event"",""trial"",""time""
""fullscreenenter"",""0"",""2814""
","
","7500.600000023842","<div class='center'><p>Today, you’ll visit these 6 islands on your journey. You'll be able to see these islands from your ship.</p><p><img src='run_exp/static/images/contexts/all_contexts.png' height='500'></p><p><b>[Press the space bar to continue]</b></p></div>","32","","","","","","","","","","","","","","","","","","","","","","",""
"","instruc3","6","100661","0.0-6.0","""event"",""trial"",""time""
""fullscreenenter"",""0"",""2814""
","
","
","""event"",""trial"",""time""
""fullscreenenter"",""0"",""2814""
","
","null","run_exp/static/audio/clip_3_goal_of_game_1.m4a","null","","","","","<div class='center'><p> The pirates on your ship will rob other ships as they leave the island.</p> These ships have just sold their goods to the islanders, so they will be filled with lots and lots of gold.</p><p><img src='run_exp/static/images/tutorial/ship_center.png' height='400'></p></div>","","","","","","","","","","","","","","","","","",""
"","html-keyboard-response","7","101982","0.0-7.0","""event"",""trial"",""time""
""fullscreenenter"",""0"",""2814""
","
","
","""event"",""trial"",""time""
""fullscreenenter"",""0"",""2814""
","
","1319.699999988079","<div class='center'><p> The pirates on your ship will rob other ships as they leave the island.</p> These ships have just sold their goods to the islanders, so they will be filled with lots and lots of gold.</p><p><img src='run_exp/static/images/tutorial/ship_center.png' height='400'></p><p><b>[Press the space bar to continue]</b></p></div>","32","","","","","","","","","","","","","","","","","","","","","","",""
"","instruc4","8","129988","0.0-8.0","""event"",""trial"",""time""
""fullscreenenter"",""0"",""2814""
","
","
","""event"",""trial"",""time""
""fullscreenenter"",""0"",""2814""
","
","null","run_exp/static/audio/clip_4_goal_of_game_2.m4a","null","","","","","<div class='center'><p>As the head captain, you do not have to rob any ships yourself. Another pirate will be doing the robbing for you. First, you will choose a pirate to rob the next ship.</p><p><img src='run_exp/static/images/tutorial/pirates_all_crop.png' height='200'></p><p>Then, you'll see if the pirate successfully robbed the ship of their gold. If they were successful, then you'll get a stack of gold coins like this:</p><p><img src='run_exp/static/images/tutorial/reward.png' height='150'></p><p> If they were <b>not</b> successful, then you'll get no gold coins, and you'll see a big red x like this: </p><p><img src='run_exp/static/images/tutorial/reward_no.png' height='150'></p><p> How much bonus money you make is based on how many gold coins you collect.</p><div>","","","","","","","","","","","","","","","","","",""
"","html-keyboard-response","9","131370","0.0-9.0","""event"",""trial"",""time""
""fullscreenenter"",""0"",""2814""
","
","
","""event"",""trial"",""time""
""fullscreenenter"",""0"",""2814""
","
","1379.699999988079","<div class='center'><p>As the head captain, you do not have to rob any ships yourself. Another pirate will be doing the robbing for you. First, you will choose a pirate to rob the next ship.</p><p><img src='run_exp/static/images/tutorial/pirates_all_crop.png' height='200'></p><p>Then, you'll see if the pirate successfully robbed the ship of their gold. If they were successful, then you'll get a stack of gold coins like this:</p><p><img src='run_exp/static/images/tutorial/reward.png' height='150'></p><p> If they were <b>not</b> successful, then you'll get no gold coins, and you'll see a big red x like this: </p><p><img src='run_exp/static/images/tutorial/reward_no.png' height='150'></p><p> How much bonus money you make is based on how many gold coins you collect.</p<p><b>[Press the space bar to continue]</b></p></div>","32","","","","","","","","","","","","","","","","","","","","","","",""
"","instruc5","10","155661","0.0-10.0","""event"",""trial"",""time""
""fullscreenenter"",""0"",""2814""
","
","
","""event"",""trial"",""time""
""fullscreenenter"",""0"",""2814""
","
","24287.30000001192","run_exp/static/audio/clip_5_probabilistic.m4a","49","","","","","<div class='center'><p>Even the most skilled pirate can not rob EVERY ship.</p><p> Some ships will have very strong protections against pirate attacks.</p><p> Blue beard, here, is very, very good at robbing ships, but he won't be successful every time he tries to rob one.</p><p> You can press the <b>‘1’</b> key on the keyboard to choose him.</p><p> Try choosing him 10 times to see how often he succeeds at robbing a ship. </p><p><img src='run_exp/static/images/tutorial/blue.png' height='500'></p></div>","","","","","","","","","","","","","","","","","",""
"","html-keyboard-response","11","157169","0.0-11.0","""event"",""trial"",""time""
""fullscreenenter"",""0"",""2814""
","
","
","""event"",""trial"",""time""
""fullscreenenter"",""0"",""2814""
","
","null","<div class='center'><p><img src='run_exp/static/images/tutorial/blue_win.png' height='500'></p></div>","null","","","","","","","","","","","","","","","","","","","","","","",""
"","html-keyboard-response","12","157240","0.0-12.0","""event"",""trial"",""time""
""fullscreenenter"",""0"",""2814""
","
","
","""event"",""trial"",""time""
""fullscreenenter"",""0"",""2814""
","
","69.90000003576279","<div class='center'><img src='run_exp/static/images/tutorial/blue.png' height='500'></p></div>","49","","","","","","","","","","","","","","","","","","","","","","",""
"","html-keyboard-response","13","158746","0.0-13.0","""event"",""trial"",""time""
""fullscreenenter"",""0"",""2814""
","
","
","""event"",""trial"",""time""
""fullscreenenter"",""0"",""2814""
","
","null","<div class='center'><p><img src='run_exp/static/images/tutorial/blue_win.png' height='500'></p></div>","null","","","","","","","","","","","","","","","","","","","","","","",""
"","html-keyboard-response","14","159514","0.0-14.0","""event"",""trial"",""time""
""fullscreenenter"",""0"",""2814""
","
","
","""event"",""trial"",""time""
""fullscreenenter"",""0"",""2814""
","
","766.3000000119209","<div class='center'><img src='run_exp/static/images/tutorial/blue.png' height='500'></p></div>","49","","","","","","","","","","","","","","","","","","","","","","",""
"","html-keyboard-response","15","161020","0.0-15.0","""event"",""trial"",""time""
""fullscreenenter"",""0"",""2814""
","
","
","""event"",""trial"",""time""
""fullscreenenter"",""0"",""2814""
","
","null","<div class='center'><p><img src='run_exp/static/images/tutorial/blue_win.png' height='500'></p></div>","null","","","","","","","","","","","","","","","","","","","","","","",""
"","html-keyboard-response","16","161690","0.0-16.0","""event"",""trial"",""time""
""fullscreenenter"",""0"",""2814""
","
","
","""event"",""trial"",""time""
""fullscreenenter"",""0"",""2814""
","
","668.1999999880791","<div class='center'><img src='run_exp/static/images/tutorial/blue.png' height='500'></p></div>","49","","","","","","","","","","","","","","","","","","","","","","",""
"","html-keyboard-response","17","163196","0.0-17.0","""event"",""trial"",""time""
""fullscreenenter"",""0"",""2814""
","
","
","""event"",""trial"",""time""
""fullscreenenter"",""0"",""2814""
","
","null","<div class='center'><p><img src='run_exp/static/images/tutorial/blue_no_win.png' height='500'></p></div>","null","","","","","","","","","","","","","","","","","","","","","","",""
"","html-keyboard-response","18","163692","0.0-18.0","""event"",""trial"",""time""
""fullscreenenter"",""0"",""2814""
","
","
","""event"",""trial"",""time""
""fullscreenenter"",""0"",""2814""
","
","494.30000001192093","<div class='center'><img src='run_exp/static/images/tutorial/blue.png' height='500'></p></div>","49","","","","","","","","","","","","","","","","","","","","","","",""
"","html-keyboard-response","19","165196","0.0-19.0","""event"",""trial"",""time""
""fullscreenenter"",""0"",""2814""
","
","
","""event"",""trial"",""time""
""fullscreenenter"",""0"",""2814""
","
","null","<div class='center'><p><img src='run_exp/static/images/tutorial/blue_win.png' height='500'></p></div>","null","","","","","","","","","","","","","","","","","","","","","","",""
"","html-keyboard-response","20","165529","0.0-20.0","""event"",""trial"",""time""
""fullscreenenter"",""0"",""2814""
","
","
","""event"",""trial"",""time""
""fullscreenenter"",""0"",""2814""
","
","331.2000000476837","<div class='center'><img src='run_exp/static/images/tutorial/blue.png' height='500'></p></div>","49","","","","","","","","","","","","","","","","","","","","","","",""
"","html-keyboard-response","21","167035","0.0-21.0","""event"",""trial"",""time""
""fullscreenenter"",""0"",""2814""
","
","
","""event"",""trial"",""time""
""fullscreenenter"",""0"",""2814""
","
","null","<div class='center'><p><img src='run_exp/static/images/tutorial/blue_win.png' height='500'></p></div>","null","","","","","","","","","","","","","","","","","","","","","","",""
"","html-keyboard-response","22","168318","0.0-22.0","""event"",""trial"",""time""
""fullscreenenter"",""0"",""2814""
","
","
","""event"",""trial"",""time""
""fullscreenenter"",""0"",""2814""
","
","1281.8999999761581","<div class='center'><img src='run_exp/static/images/tutorial/blue.png' height='500'></p></div>","49","","","","","","","","","","","","","","","","","","","","","","",""
"","html-keyboard-response","23","169820","0.0-23.0","""event"",""trial"",""time""
""fullscreenenter"",""0"",""2814""
","
","
","""event"",""trial"",""time""
""fullscreenenter"",""0"",""2814""
","
","null","<div class='center'><p><img src='run_exp/static/images/tutorial/blue_win.png' height='500'></p></div>","null","","","","","","","","","","","","","","","","","","","","","","",""
"","html-keyboard-response","24","170512","0.0-24.0","""event"",""trial"",""time""
""fullscreenenter"",""0"",""2814""
","
","
","""event"",""trial"",""time""
""fullscreenenter"",""0"",""2814""
","
","690.5","<div class='center'><img src='run_exp/static/images/tutorial/blue.png' height='500'></p></div>","49","","","","","","","","","","","","","","","","","","","","","","",""
"","html-keyboard-response","25","172018","0.0-25.0","""event"",""trial"",""time""
""fullscreenenter"",""0"",""2814""
","
","
","""event"",""trial"",""time""
""fullscreenenter"",""0"",""2814""
","
","null","<div class='center'><p><img src='run_exp/static/images/tutorial/blue_no_win.png' height='500'></p></div>","null","","","","","","","","","","","","","","","","","","","","","","",""
"","html-keyboard-response","26","172884","0.0-26.0","""event"",""trial"",""time""
""fullscreenenter"",""0"",""2814""
","
","
","""event"",""trial"",""time""
""fullscreenenter"",""0"",""2814""
","
","865.5","<div class='center'><img src='run_exp/static/images/tutorial/blue.png' height='500'></p></div>","49","","","","","","","","","","","","","","","","","","","","","","",""
"","html-keyboard-response","27","174391","0.0-27.0","""event"",""trial"",""time""
""fullscreenenter"",""0"",""2814""
","
","
","""event"",""trial"",""time""
""fullscreenenter"",""0"",""2814""
","
","null","<div class='center'><p><img src='run_exp/static/images/tutorial/blue_win.png' height='500'></p></div>","null","","","","","","","","","","","","","","","","","","","","","","",""
"","html-keyboard-response","28","174872","0.0-28.0","""event"",""trial"",""time""
""fullscreenenter"",""0"",""2814""
","
","
","""event"",""trial"",""time""
""fullscreenenter"",""0"",""2814""
","
","480.4000000357628","<div class='center'><img src='run_exp/static/images/tutorial/blue.png' height='500'></p></div>","49","","","","","","","","","","","","","","","","","","","","","","",""
"","html-keyboard-response","29","176379","0.0-29.0","""event"",""trial"",""time""
""fullscreenenter"",""0"",""2814""
","
","
","""event"",""trial"",""time""
""fullscreenenter"",""0"",""2814""
","
","null","<div class='center'><p><img src='run_exp/static/images/tutorial/blue_win.png' height='500'></p></div>","null","","","","","","","","","","","","","","","","","","","","","","",""
"","instruc6","30","181883","0.0-30.0","""event"",""trial"",""time""
""fullscreenenter"",""0"",""2814""
","
","
","""event"",""trial"",""time""
""fullscreenenter"",""0"",""2814""
","
","null","run_exp/static/audio/clip_6_blue_beard_outcome.m4a","null","","","","","<div class='center'><p> See, he succeeded in robbing the ships most of the time but not every time. </p></div>","","","","","","","","","","","","","","","","","",""
"","html-keyboard-response","31","182937","0.0-31.0","""event"",""trial"",""time""
""fullscreenenter"",""0"",""2814""
","
","
","""event"",""trial"",""time""
""fullscreenenter"",""0"",""2814""
","
","1052.7000000476837","<div class='center'><p> See, he succeeded in robbing the ships most of the time but not every time. </p><p><b>[Press the space bar to continue]</b></p></div>","32","","","","","","","","","","","","","","","","","","","","","","",""
"","audio-keyboard-response","32","199656","0.0-32.0","""event"",""trial"",""time""
""fullscreenenter"",""0"",""2814""
","
","
","""event"",""trial"",""time""
""fullscreenenter"",""0"",""2814""
","
","16716.19999998808","run_exp/static/audio/clip_7_pick_pirate.m4a","50","","","","","","","","","","","","","","","","","","","","","","",""
"","audio-keyboard-response","33","203864","0.0-33.0-0.0","""event"",""trial"",""time""
""fullscreenenter"",""0"",""2814""
","
","
","""event"",""trial"",""time""
""fullscreenenter"",""0"",""2814""
","
","4204.400000035763","run_exp/static/audio/clip_8_chosen_pirate_win.m4a","32","","","","","","","","","","","","","","","","","","","","","","",""
"","audio-keyboard-response","34","206303","0.0-33.0-1.0","""event"",""trial"",""time""
""fullscreenenter"",""0"",""2814""
","
","
","""event"",""trial"",""time""
""fullscreenenter"",""0"",""2814""
","
","2436.699999988079","run_exp/static/audio/clip_9_pick_a_pirate_again.m4a","51","","","","","","","","","","","","","","","","","","","","","","",""
"","audio-keyboard-response","35","211097","0.0-34.0-0.0","""event"",""trial"",""time""
""fullscreenenter"",""0"",""2814""
","
","
","""event"",""trial"",""time""
""fullscreenenter"",""0"",""2814""
","
","4791","run_exp/static/audio/clip_10_chosen_pirate_loss.m4a","32","","","","","","","","","","","","","","","","","","","","","","",""
"","instruc9","36","216598","0.0-35.0-0.0","""event"",""trial"",""time""
""fullscreenenter"",""0"",""2814""
","
","
","""event"",""trial"",""time""
""fullscreenenter"",""0"",""2814""
","
","null","run_exp/static/audio/clip_11_time_out.m4a","null","","","","","<div class='center'><p>If you don’t make your choice fast enough, you’ll have to wait a few seconds before you can make another one. </p><p><img src='run_exp/static/images/miscellaneous/hurry_up.png' height='500'></p></div>","","","","","","","","","","","","","","","","","",""
"","html-keyboard-response","37","217343","0.0-35.0-1.0","""event"",""trial"",""time""
""fullscreenenter"",""0"",""2814""
","
","
","""event"",""trial"",""time""
""fullscreenenter"",""0"",""2814""
","
","743.6999999880791","<div class='center'><p>If you don’t make your choice fast enough, you’ll have to wait a few seconds before you can make another one. </p><p><img src='run_exp/static/images/miscellaneous/hurry_up.png' height='500'></p><p><b>[Press the space bar to continue]</b></p></div>","32","","","","","","","","","","","","","","","","","","","","","","",""
"","instruc10","38","256444","0.0-35.0-2.0","""event"",""trial"",""time""
""fullscreenenter"",""0"",""2814""
","
","
","""event"",""trial"",""time""
""fullscreenenter"",""0"",""2814""
","
","null","run_exp/static/audio/clip_12_probe.m4a","null","","","","","<div class='center'><p>Once you've chosen a pirate, you’ll be shown the ship they are robbing. You will never rob the same ship twice. Ships can be told apart from one another by the image on them. These are the goods that they sell. See, this ship has a travel mug on it. </p><p> You’ll have to remember which island you saw each ship on. You will win more gold coins and hence more bonus money if you remember correctly! To help you remember, you can imagine a story. For example, here, you could imagine a mug full of water in the desert. Or, as another example, if on the forest island, your pirate robbed a ship with an apple on it, you could imagine an apple falling from a tree in the forest. </p><p><img src='run_exp/static/images/tutorial/example_probe.png' height='500'></p></div>","","","","","","","","","","","","","","","","","",""
"","html-keyboard-response","39","258921","0.0-35.0-3.0","""event"",""trial"",""time""
""fullscreenenter"",""0"",""2814""
","
","
","""event"",""trial"",""time""
""fullscreenenter"",""0"",""2814""
","
","2475.099999964237","<div class='center'><p>Once you've chosen a pirate, you’ll be shown the ship they are robbing. You will never rob the same ship twice. Ships can be told apart from one another by the image on them. These are the goods that they sell. See, this ship has a travel mug on it. </p><p> You’ll have to remember which island you saw each ship on. You will win more gold coins and hence more bonus money if you remember correctly! To help you remember, you can imagine a story. For example, here, you could imagine a mug full of water in the desert. Or, as another example, if on the forest island, your pirate robbed a ship with an apple on it, you could imagine an apple falling from a tree in the forest. </p><p><img src='run_exp/static/images/tutorial/example_probe.png' height='500'></p><p><b>[Press the space bar to continue]</b></p></div>","32","","","","","","","","","","","","","","","","","","","","","","",""
"","instruc11","40","275346","0.0-35.0-4.0","""event"",""trial"",""time""
""fullscreenenter"",""0"",""2814""
","
","
","""event"",""trial"",""time""
""fullscreenenter"",""0"",""2814""
","
","null","run_exp/static/audio/clip_13_changepoint.m4a","null","","","","","<div class='center'><p>How successful a pirate is at robbing ships will depend on the island you’re on.</p><p> A pirate may have visited this island many times before and gained a lot of practice robbing ships there.</p><p>So, they’re more likely to be successful than a pirate who has never visited the island before.</p></div>","","","","","","","","","","","","","","","","","",""
"","html-keyboard-response","41","276325","0.0-35.0-5.0","""event"",""trial"",""time""
""fullscreenenter"",""0"",""2814""
","
","
","""event"",""trial"",""time""
""fullscreenenter"",""0"",""2814""
","
","978.1999999880791","<div class='center'><p>How successful a pirate is at robbing ships will depend on the island you’re on.</p><p> A pirate may have visited this island many times before and gained a lot of practice robbing ships there.</p><p>So, they’re more likely to be successful than a pirate who has never visited the island before.</p><p><b>[Press the space bar to continue]</b></p></div>","32","","","","","","","","","","","","","","","","","","","","","","",""
"","instruc12","42","317421","0.0-35.0-6.0","""event"",""trial"",""time""
""fullscreenenter"",""0"",""2814""
","
","
","""event"",""trial"",""time""
""fullscreenenter"",""0"",""2814""
","
","null","run_exp/static/audio/clip_14_drift.m4a","null","","","","","<div class='center'><p>How successful a pirate is at robbing ships can also change over the time spent on the island. </p><p> Ships may hear from islanders about the pirates coming and will improve their protections against the attack. This may make it harder to rob them.</p><p> Ships may also become lazy and weaken the strength of their protections. This may make it easier to rob them.</p><br><p>Things are always changing on the high seas! So, try your best to pay attention!</p><p><img src='run_exp/static/images/tutorial/contingency.png' height='500'></p></div>","","","","","","","","","","","","","","","","","",""
"","html-keyboard-response","43","327960","0.0-35.0-7.0","""event"",""trial"",""time""
""fullscreenenter"",""0"",""2814""
","
","
","""event"",""trial"",""time""
""fullscreenenter"",""0"",""2814""
","
","10537.300000011921","<div class='center'><p>How successful a pirate is at robbing ships can also change over the time spent on the island. </p><p> Ships may hear from islanders about the pirates coming and will improve their protections against the attack. This may make it harder to rob them.</p><p> Ships may also become lazy and weaken the strength of their protections. This may make it easier to rob them.</p><br><p>Things are always changing on the high seas! So, try your best to pay attention!</p><p><img src='run_exp/static/images/tutorial/contingency.png' height='500'></p><p><b>[Press the space bar to continue]</b></p></div>","32","","","","","","","","","","","","","","","","","","","","","","",""
"","instruc13","44","363153","0.0-35.0-8.0","""event"",""trial"",""time""
""fullscreenenter"",""0"",""2814""
","
","
","""event"",""trial"",""time""
""fullscreenenter"",""0"",""2814""
","
","null","run_exp/static/audio/clip_15_summary.m4a","null","","","","","<div class='center'><p>Let's go over the instructions quickly again. You have two important things to do: </p><b><p> 1. Pick the pirate who is the best at robbing ships on the current island. </p></b><b><p> 2. Remember on which island a ship was robbed.</p> </b><p>The amount of bonus money you can win depends on both.</p><p><br><p>Let’s try a practice game. The game will start by showing you the pirates. First, pick a pirate using the <b> 1, 2, 3 </b> keys on your keyboard. When you are shown a ship, try to remember which island you’re on by making up a story.</p><p>This is just a practice game, so you’re not playing for money. </p><p> Good luck! This game will be very difficult but try your best!</p></div>","","","","","","","","","","","","","","","","","",""
"","html-keyboard-response","45","364377","0.0-35.0-9.0","""event"",""trial"",""time""
""fullscreenenter"",""0"",""2814""
","
","
","""event"",""trial"",""time""
""fullscreenenter"",""0"",""2814""
","
","1221.8999999761581","<div class='center'><p>Let's go over the instructions quickly again. You have two important things to do: </p><b><p> 1. Pick the pirate who is the best at robbing ships on the current island. </p></b><b><p> 2. Remember on which island a ship was robbed.</p> </b><p>The amount of bonus money you can win depends on both.</p><p><br><p>Let’s try a practice game. The game will start by showing you the pirates. First, pick a pirate using the <b> 1, 2, 3 </b> keys on your keyboard. When you are shown a ship, try to remember which island you’re on by making up a story.</p><p>This is just a practice game, so you’re not playing for money. </p><p> Good luck! This game will be very difficult but try your best!</p><p><b>[Press the space bar to continue]</b></p></div>","32","","","","","","","","","","","","","","","","","","","","","","",""
"","do_welcome","46","368392","0.0-35.0-10.0","""event"",""trial"",""time""
""fullscreenenter"",""0"",""2814""
","
","
","""event"",""trial"",""time""
""fullscreenenter"",""0"",""2814""
","
","null","","","","","","","","null","","","","","","","","","","","","","","","","",""
"","do_trial","47","375264","0.0-35.0-11.0","""event"",""trial"",""time""
""fullscreenenter"",""0"",""2814""
","
","
","""event"",""trial"",""time""
""fullscreenenter"",""0"",""2814""
","
","2359.900000035763","","","","","","","","49","1,0,0","","","","","","","","","","","","","","","",""
"","html-keyboard-response","48","376270","0.0-36.0-0.0","""event"",""trial"",""time""
""fullscreenenter"",""0"",""2814""
","
","
","""event"",""trial"",""time""
""fullscreenenter"",""0"",""2814""
","
","null","<p></p>","null","","","","","","","","","","","","","","","","","","","","","","",""
"","do_trial","49","382282","0.0-36.0-1.0","""event"",""trial"",""time""
""fullscreenenter"",""0"",""2814""
","
","
","""event"",""trial"",""time""
""fullscreenenter"",""0"",""2814""
","
","null","","","","","","","","null","1,1,0","","","","","","","","","","","","","","","",""
"","html-keyboard-response","50","383285","0.0-37.0-0.0","""event"",""trial"",""time""
""fullscreenenter"",""0"",""2814""
","
","
","""event"",""trial"",""time""
""fullscreenenter"",""0"",""2814""
","
","null","<p></p>","null","","","","","","","","","","","","","","","","","","","","","","",""
"","do_trial","51","388816","0.0-37.0-1.0","""event"",""trial"",""time""
""fullscreenenter"",""0"",""2814""
","
","
","""event"",""trial"",""time""
""fullscreenenter"",""0"",""2814""
","
","1017.2000000476837","","","","","","","","51","1,1,0","","","","","","","","","","","","","","","",""
"","html-keyboard-response","52","389822","0.0-38.0-0.0","""event"",""trial"",""time""
""fullscreenenter"",""0"",""2814""
","
","
","""event"",""trial"",""time""
""fullscreenenter"",""0"",""2814""
","
","null","<p></p>","null","","","","","","","","","","","","","","","","","","","","","","",""
"","do_trial","53","396499","0.0-38.0-1.0","""event"",""trial"",""time""
""fullscreenenter"",""0"",""2814""
","
","
","""event"",""trial"",""time""
""fullscreenenter"",""0"",""2814""
","
","2162.800000011921","","","","","","","","50","1,0,1","","","","","","","","","","","","","","","",""
"","html-keyboard-response","54","397504","0.0-39.0-0.0","""event"",""trial"",""time""
""fullscreenenter"",""0"",""2814""
","
","
","""event"",""trial"",""time""
""fullscreenenter"",""0"",""2814""
","
","null","<p></p>","null","","","","","","","","","","","","","","","","","","","","","","",""
"","do_trial","55","404212","0.0-39.0-1.0","""event"",""trial"",""time""
""fullscreenenter"",""0"",""2814""
","
","
","""event"",""trial"",""time""
""fullscreenenter"",""0"",""2814""
","
","2194","","","","","","","","49","0,1,0","","","","","","","","","","","","","","","",""
"","html-keyboard-response","56","405217","0.0-40.0-0.0","""event"",""trial"",""time""
""fullscreenenter"",""0"",""2814""
","
","
","""event"",""trial"",""time""
""fullscreenenter"",""0"",""2814""
","
","null","<p></p>","null","","","","","","","","","","","","","","","","","","","","","","",""
"","do_trial","57","410932","0.0-40.0-1.0","""event"",""trial"",""time""
""fullscreenenter"",""0"",""2814""
","
","
","""event"",""trial"",""time""
""fullscreenenter"",""0"",""2814""
","
","1202.800000011921","","","","","","","","51","1,0,0","","","","","","","","","","","","","","","",""
"","do_bye","58","412444","0.0-41.0-0.0","""event"",""trial"",""time""
""fullscreenenter"",""0"",""2814""
","
","
","""event"",""trial"",""time""
""fullscreenenter"",""0"",""2814""
","
","null","","","","","","","","null","","","","","","","","","","","","","","","","",""
"","do_travel","59","421449","0.0-41.0-1.0","""event"",""trial"",""time""
""fullscreenenter"",""0"",""2814""
","
","
","""event"",""trial"",""time""
""fullscreenenter"",""0"",""2814""
","
","null","","","","","","","","null","","","","","","","","","","","","","","","","",""
"","do_welcome","60","425461","0.0-41.0-2.0","""event"",""trial"",""time""
""fullscreenenter"",""0"",""2814""
","
","
","""event"",""trial"",""time""
""fullscreenenter"",""0"",""2814""
","
","null","","","","","","","","null","","","","","","","","","","","","","","","","",""
"","do_trial","61","431556","0.0-41.0-3.0","""event"",""trial"",""time""
""fullscreenenter"",""0"",""2814""
","
","
","""event"",""trial"",""time""
""fullscreenenter"",""0"",""2814""
","
","1581.5","","","","","","","","50","1,0,0","","","","","","","","","","","","","","","",""
"","html-keyboard-response","62","432561","0.0-42.0-0.0","""event"",""trial"",""time""
""fullscreenenter"",""0"",""2814""
","
","
","""event"",""trial"",""time""
""fullscreenenter"",""0"",""2814""
","
","null","<p></p>","null","","","","","","","","","","","","","","","","","","","","","","",""
"","do_trial","63","437554","0.0-42.0-1.0","""event"",""trial"",""time""
""fullscreenenter"",""0"",""2814""
","
","
","""event"",""trial"",""time""
""fullscreenenter"",""0"",""2814""
","
","479.19999998807907","","","","","","","","51","1,0,1","","","","","","","","","","","","","","","",""
"","html-keyboard-response","64","438559","0.0-43.0-0.0","""event"",""trial"",""time""
""fullscreenenter"",""0"",""2814""
","
","
","""event"",""trial"",""time""
""fullscreenenter"",""0"",""2814""
","
","null","<p></p>","null","","","","","","","","","","","","","","","","","","","","","","",""
"","do_trial","65","444492","0.0-43.0-1.0","""event"",""trial"",""time""
""fullscreenenter"",""0"",""2814""
","
","
","""event"",""trial"",""time""
""fullscreenenter"",""0"",""2814""
","
","1420","","","","","","","","51","1,1,0","","","","","","","","","","","","","","","",""
"","html-keyboard-response","66","445498","0.0-44.0-0.0","""event"",""trial"",""time""
""fullscreenenter"",""0"",""2814""
","
","
","""event"",""trial"",""time""
""fullscreenenter"",""0"",""2814""
","
","null","<p></p>","null","","","","","","","","","","","","","","","","","","","","","","",""
"","do_trial","67","450185","0.0-44.0-1.0","""event"",""trial"",""time""
""fullscreenenter"",""0"",""2814""
","
","
","""event"",""trial"",""time""
""fullscreenenter"",""0"",""2814""
","
","173.89999997615814","","","","","","","","51","0,0,1","","","","","","","","","","","","","","","",""
"","html-keyboard-response","68","451190","0.0-45.0-0.0","""event"",""trial"",""time""
""fullscreenenter"",""0"",""2814""
","
","
","""event"",""trial"",""time""
""fullscreenenter"",""0"",""2814""
","
","null","<p></p>","null","","","","","","","","","","","","","","","","","","","","","","",""
"","do_trial","69","455873","0.0-45.0-1.0","""event"",""trial"",""time""
""fullscreenenter"",""0"",""2814""
","
","
","""event"",""trial"",""time""
""fullscreenenter"",""0"",""2814""
","
","168.5","","","","","","","","49","1,0,1","","","","","","","","","","","","","","","",""
"","html-keyboard-response","70","458936","0.0-46.0-0.0","""event"",""trial"",""time""
""fullscreenenter"",""0"",""2814""
","
","
","""event"",""trial"",""time""
""fullscreenenter"",""0"",""2814""
","
","3060.699999988079","<div class='center'><p><img src='run_exp/static/images/tutorial/prac_best_pirate.png'  height='500'></p></div>","51","","","","","","","","","","","","","","","","","","","","","","",""
"","html-keyboard-response","71","460772","0.0-47.0-0.0","""event"",""trial"",""time""
""fullscreenenter"",""0"",""2814""
","
","
","""event"",""trial"",""time""
""fullscreenenter"",""0"",""2814""
","
","1835","<div class='center'><p>That's incorrect! Red beard was the best.</p><p><b>[Press the space bar to continue]</b></p></div>","32","","","","","","","","","","","","","","","","","","","","","","",""
"","html-keyboard-response","72","463725","0.0-47.0-1.0","""event"",""trial"",""time""
""fullscreenenter"",""0"",""2814""
","
","
","""event"",""trial"",""time""
""fullscreenenter"",""0"",""2814""
","
","2951.2999999523163","<div class='center'><p><img src='run_exp/static/images/tutorial/prac_source.png'  height='500'></p></div>","50","","","","","","","","","","","","","","","","","","","","","","",""
"","html-keyboard-response","73","465253","0.0-48.0-0.0","""event"",""trial"",""time""
""fullscreenenter"",""0"",""2814""
","
","
","""event"",""trial"",""time""
""fullscreenenter"",""0"",""2814""
","
","1527.300000011921","<div class='center'><p>That's correct! You saw this ship on the cavern island.</p><p><b>[Press the space bar to continue]</b></p></div>","32","","","","","","","","","","","","","","","","","","","","","","",""
"","quiz_beginning","74","476564","0.0-48.0-1.0","""event"",""trial"",""time""
""fullscreenenter"",""0"",""2814""
","
","
","""event"",""trial"",""time""
""fullscreenenter"",""0"",""2814""
","
","null","run_exp/static/audio/clip_16_quiz_intro.m4a","null","","","","","<div class='center'><p>Good job on the practice game! Now, you will be asked some true or false questions to make sure you really understand the rules of the game.</p><p> Press <b>'1'</b> on the keyboard for true and press <b>'2'</b> for false.</p></div>","","","","","","","","","","","","","","","","","",""
"","audio-keyboard-response","75","480747","0.0-48.0-2.0","""event"",""trial"",""time""
""fullscreenenter"",""0"",""2814""
","
","
","""event"",""trial"",""time""
""fullscreenenter"",""0"",""2814""
","
","4181","run_exp/static/audio/clip_17_q1.m4a","49","","","","","","","","","","","","","","","","","","","","","","",""
"","correct","76","483159","0.0-49.0-0.0","""event"",""trial"",""time""
""fullscreenenter"",""0"",""2814""
","
","
","""event"",""trial"",""time""
""fullscreenenter"",""0"",""2814""
","
","null","run_exp/static/audio/clip_18_correct.m4a","null","","","","","<div class='center'><p>That's correct!</p></div>","","","","","","","","","","","","","","","","","",""
"","html-keyboard-response","77","484380","0.0-49.0-1.0","""event"",""trial"",""time""
""fullscreenenter"",""0"",""2814""
","
","
","""event"",""trial"",""time""
""fullscreenenter"",""0"",""2814""
","
","1219.8999999761581","<div class='center'><p>That's correct!</p><p><b>[Press the space bar to continue]</b></p></div>","32","","","","","","","","","","","","","","","","","","","","","","",""
"","audio-keyboard-response","78","492236","0.0-49.0-2.0","""event"",""trial"",""time""
""fullscreenenter"",""0"",""2814""
","
","
","""event"",""trial"",""time""
""fullscreenenter"",""0"",""2814""
","
","7854.699999988079","run_exp/static/audio/clip_20_q2.m4a","50","","","","","","","","","","","","","","","","","","","","","","",""
"","correct","79","494653","0.0-50.0-0.0","""event"",""trial"",""time""
""fullscreenenter"",""0"",""2814""
","
","
","""event"",""trial"",""time""
""fullscreenenter"",""0"",""2814""
","
","null","run_exp/static/audio/clip_18_correct.m4a","null","","","","","<div class='center'><p>That's correct!</p></div>","","","","","","","","","","","","","","","","","",""
"","html-keyboard-response","80","495389","0.0-50.0-1.0","""event"",""trial"",""time""
""fullscreenenter"",""0"",""2814""
","
","
","""event"",""trial"",""time""
""fullscreenenter"",""0"",""2814""
","
","735.3999999761581","<div class='center'><p>That's correct!</p><p><b>[Press the space bar to continue]</b></p></div>","32","","","","","","","","","","","","","","","","","","","","","","",""
"","audio-keyboard-response","81","503298","0.0-50.0-2.0","""event"",""trial"",""time""
""fullscreenenter"",""0"",""2814""
","
","
","""event"",""trial"",""time""
""fullscreenenter"",""0"",""2814""
","
","7907.399999976158","run_exp/static/audio/clip_22_q3.m4a","49","","","","","","","","","","","","","","","","","","","","","","",""
"","q3_err","82","509793","0.0-51.0-0.0","""event"",""trial"",""time""
""fullscreenenter"",""0"",""2814""
","
","
","""event"",""trial"",""time""
""fullscreenenter"",""0"",""2814""
","
","null","run_exp/static/audio/clip_23_wrong_q3.m4a","null","","","","","<div class='center'><p>That’s incorrect. How good a pirate is at robbing ships will change from island to island!</p></div>","","","","","","","","","","","","","","","","","",""
"","html-keyboard-response","83","510442","0.0-51.0-1.0","""event"",""trial"",""time""
""fullscreenenter"",""0"",""2814""
","
","
","""event"",""trial"",""time""
""fullscreenenter"",""0"",""2814""
","
","647.6999999880791","<div class='center'><p>That’s incorrect. How good a pirate is at robbing ships will change from island to island!</p><p><b>[Press the space bar to continue]</b></p></div>","32","","","","","","","","","","","","","","","","","","","","","","",""
"","audio-keyboard-response","84","513392","0.0-51.0-2.0","""event"",""trial"",""time""
""fullscreenenter"",""0"",""2814""
","
","
","""event"",""trial"",""time""
""fullscreenenter"",""0"",""2814""
","
","2948.300000011921","run_exp/static/audio/clip_24_q4.m4a","49","","","","","","","","","","","","","","","","","","","","","","",""
"","correct","85","515807","0.0-52.0-0.0","""event"",""trial"",""time""
""fullscreenenter"",""0"",""2814""
","
","
","""event"",""trial"",""time""
""fullscreenenter"",""0"",""2814""
","
","null","run_exp/static/audio/clip_18_correct.m4a","null","","","","","<div class='center'><p>That's correct!</p></div>","","","","","","","","","","","","","","","","","",""
"","html-keyboard-response","86","516467","0.0-52.0-1.0","""event"",""trial"",""time""
""fullscreenenter"",""0"",""2814""
","
","
","""event"",""trial"",""time""
""fullscreenenter"",""0"",""2814""
","
","659.0999999642372","<div class='center'><p>That's correct!</p><p><b>[Press the space bar to continue]</b></p></div>","32","","","","","","","","","","","","","","","","","","","","","","",""
"","q_all_err","87","522680","0.0-53.0-0.0","""event"",""trial"",""time""
""fullscreenenter"",""0"",""2814""
","
","
","""event"",""trial"",""time""
""fullscreenenter"",""0"",""2814""
","
","null","run_exp/static/audio/clip_26_quiz_redo.m4a","null","","","","","<div class='center'><p>Oops, you missed some questions. Now that you’ve heard the correct answers. Try the quiz again! </p></div>","","","","","","","","","","","","","","","","","",""
"","html-keyboard-response","88","523197","0.0-53.0-1.0","""event"",""trial"",""time""
""fullscreenenter"",""0"",""2814""
","
","
","""event"",""trial"",""time""
""fullscreenenter"",""0"",""2814""
","
","515.5","<div class='center'><p>Oops, you missed some questions. Now that you’ve heard the correct answers. Try the quiz again! </p><p><b>[Press the space bar to continue]</b></p></div>","32","","","","","","","","","","","","","","","","","","","","","","",""
"","audio-keyboard-response","89","524173","0.0-53.0-2.0","""event"",""trial"",""time""
""fullscreenenter"",""0"",""2814""
","
","
","""event"",""trial"",""time""
""fullscreenenter"",""0"",""2814""
","
","974","run_exp/static/audio/clip_17_q1.m4a","49","","","","","","","","","","","","","","","","","","","","","","",""
"","correct","90","526581","0.0-54.0-0.0","""event"",""trial"",""time""
""fullscreenenter"",""0"",""2814""
","
","
","""event"",""trial"",""time""
""fullscreenenter"",""0"",""2814""
","
","null","run_exp/static/audio/clip_18_correct.m4a","null","","","","","<div class='center'><p>That's correct!</p></div>","","","","","","","","","","","","","","","","","",""
"","html-keyboard-response","91","527070","0.0-54.0-1.0","""event"",""trial"",""time""
""fullscreenenter"",""0"",""2814""
","
","
","""event"",""trial"",""time""
""fullscreenenter"",""0"",""2814""
","
","487.5","<div class='center'><p>That's correct!</p><p><b>[Press the space bar to continue]</b></p></div>","32","","","","","","","","","","","","","","","","","","","","","","",""
"","audio-keyboard-response","92","529052","0.0-54.0-2.0","""event"",""trial"",""time""
""fullscreenenter"",""0"",""2814""
","
","
","""event"",""trial"",""time""
""fullscreenenter"",""0"",""2814""
","
","1980.300000011921","run_exp/static/audio/clip_20_q2.m4a","50","","","","","","","","","","","","","","","","","","","","","","",""
"","correct","93","531458","0.0-55.0-0.0","""event"",""trial"",""time""
""fullscreenenter"",""0"",""2814""
","
","
","""event"",""trial"",""time""
""fullscreenenter"",""0"",""2814""
","
","null","run_exp/static/audio/clip_18_correct.m4a","null","","","","","<div class='center'><p>That's correct!</p></div>","","","","","","","","","","","","","","","","","",""
"","html-keyboard-response","94","531796","0.0-55.0-1.0","""event"",""trial"",""time""
""fullscreenenter"",""0"",""2814""
","
","
","""event"",""trial"",""time""
""fullscreenenter"",""0"",""2814""
","
","337","<div class='center'><p>That's correct!</p><p><b>[Press the space bar to continue]</b></p></div>","32","","","","","","","","","","","","","","","","","","","","","","",""
"","audio-keyboard-response","95","535483","0.0-55.0-2.0","""event"",""trial"",""time""
""fullscreenenter"",""0"",""2814""
","
","
","""event"",""trial"",""time""
""fullscreenenter"",""0"",""2814""
","
","3686","run_exp/static/audio/clip_22_q3.m4a","50","","","","","","","","","","","","","","","","","","","","","","",""
"","correct","96","537890","0.0-56.0-0.0","""event"",""trial"",""time""
""fullscreenenter"",""0"",""2814""
","
","
","""event"",""trial"",""time""
""fullscreenenter"",""0"",""2814""
","
","null","run_exp/static/audio/clip_18_correct.m4a","null","","","","","<div class='center'><p>That's correct!</p></div>","","","","","","","","","","","","","","","","","",""
"","html-keyboard-response","97","538415","0.0-56.0-1.0","""event"",""trial"",""time""
""fullscreenenter"",""0"",""2814""
","
","
","""event"",""trial"",""time""
""fullscreenenter"",""0"",""2814""
","
","524.5","<div class='center'><p>That's correct!</p><p><b>[Press the space bar to continue]</b></p></div>","32","","","","","","","","","","","","","","","","","","","","","","",""
"","audio-keyboard-response","98","540000","0.0-56.0-2.0","""event"",""trial"",""time""
""fullscreenenter"",""0"",""2814""
","
","
","""event"",""trial"",""time""
""fullscreenenter"",""0"",""2814""
","
","1583.5","run_exp/static/audio/clip_24_q4.m4a","49","","","","","","","","","","","","","","","","","","","","","","",""
"","correct","99","542465","0.0-57.0-0.0","""event"",""trial"",""time""
""fullscreenenter"",""0"",""2814""
","
","
","""event"",""trial"",""time""
""fullscreenenter"",""0"",""2814""
","
","null","run_exp/static/audio/clip_18_correct.m4a","null","","","","","<div class='center'><p>That's correct!</p></div>","","","","","","","","","","","","","","","","","",""
"","html-keyboard-response","100","542883","0.0-57.0-1.0","""event"",""trial"",""time""
""fullscreenenter"",""0"",""2814""
","
","
","""event"",""trial"",""time""
""fullscreenenter"",""0"",""2814""
","
","416.7999999523163","<div class='center'><p>That's correct!</p><p><b>[Press the space bar to continue]</b></p></div>","32","","","","","","","","","","","","","","","","","","","","","","",""
"","q_all_corr","101","551381","0.0-58.0-0.0","""event"",""trial"",""time""
""fullscreenenter"",""0"",""2814""
","
","
","""event"",""trial"",""time""
""fullscreenenter"",""0"",""2814""
","
","null","run_exp/static/audio/clip_27_quiz_all_correct.m4a","null","","","","","<div class='center'><p>Good job! You’re now ready to move on to the real game! Remember this game will be difficult but don't get discouraged and try your best!</p></div>","","","","","","","","","","","","","","","","","",""
"","html-keyboard-response","102","552345","0.0-58.0-1.0","""event"",""trial"",""time""
""fullscreenenter"",""0"",""2814""
","
","
","""event"",""trial"",""time""
""fullscreenenter"",""0"",""2814""
","
","962.1000000238419","<div class='center'><p>Good job! You’re now ready to move on to the real game! Remember this game will be difficult but don't get discouraged and try your best!</p><p><b>[Press the space bar to continue]</b></p></div>","32","","","","","","","","","","","","","","","","","","","","","","",""
"","do_welcome","103","556356","0.0-59.0-0.0","""event"",""trial"",""time""
""fullscreenenter"",""0"",""2814""
","
","
","""event"",""trial"",""time""
""fullscreenenter"",""0"",""2814""
","
","null","","","","","","","","null","","","","","","","","","","","","","","","","",""
"","do_trial","104","563300","0.0-60.0-0.0","""event"",""trial"",""time""
""fullscreenenter"",""0"",""2814""
","
","
","""event"",""trial"",""time""
""fullscreenenter"",""0"",""2814""
","
","2390.7000000476837","","","","","","","","49","1,0,0","0","coast","0","probe-220","0.6","0.3","0.1","1","","","","","","","",""
"","html-keyboard-response","105","564305","0.0-60.0-1.0","""event"",""trial"",""time""
""fullscreenenter"",""0"",""2814""
","
","
","""event"",""trial"",""time""
""fullscreenenter"",""0"",""2814""
","
","null","<p></p>","null","","","","","","","","","","","","","","","","","","","","","","",""
"","do_trial","106","570978","0.0-61.0-0.0","""event"",""trial"",""time""
""fullscreenenter"",""0"",""2814""
","
","
","""event"",""trial"",""time""
""fullscreenenter"",""0"",""2814""
","
","2106.199999988079","","","","","","","","50","1,0,0","0","coast","1","probe-214","0.6284466907920583","0.33932383427776575","0.08602008088351495","0","","","","","","","",""
"","html-keyboard-response","107","571983","0.0-61.0-1.0","""event"",""trial"",""time""
""fullscreenenter"",""0"",""2814""
","
","
","""event"",""trial"",""time""
""fullscreenenter"",""0"",""2814""
","
","null","<p></p>","null","","","","","","","","","","","","","","","","","","","","","","",""
"","do_trial","108","578097","0.0-62.0-0.0","""event"",""trial"",""time""
""fullscreenenter"",""0"",""2814""
","
","
","""event"",""trial"",""time""
""fullscreenenter"",""0"",""2814""
","
","1561.199999988079","","","","","","","","51","1,0,0","0","coast","2","probe-114","0.525255869311536","0.3916968771386117","0.20777326356689557","0","","","","","","","",""
"","html-keyboard-response","109","579101","0.0-62.0-1.0","""event"",""trial"",""time""
""fullscreenenter"",""0"",""2814""
","
","
","""event"",""trial"",""time""
""fullscreenenter"",""0"",""2814""
","
","null","<p></p>","null","","","","","","","","","","","","","","","","","","","","","","",""
"","do_trial","110","584313","0.0-63.0-0.0","""event"",""trial"",""time""
""fullscreenenter"",""0"",""2814""
","
","
","""event"",""trial"",""time""
""fullscreenenter"",""0"",""2814""
","
","652.8999999761581","","","","","","","","49","1,0,0","0","coast","3","probe-135","0.6806870246689232","0.3952324021538035","0.22148376501014747","1","","","","","","","",""
"","html-keyboard-response","111","585318","0.0-63.0-1.0","""event"",""trial"",""time""
""fullscreenenter"",""0"",""2814""
","
","
","""event"",""trial"",""time""
""fullscreenenter"",""0"",""2814""
","
","null","<p></p>","null","","","","","","","","","","","","","","","","","","","","","","",""
"","do_trial","112","590537","0.0-64.0-0.0","""event"",""trial"",""time""
""fullscreenenter"",""0"",""2814""
","
","
","""event"",""trial"",""time""
""fullscreenenter"",""0"",""2814""
","
","654.3999999761581","","","","","","","","49","1,1,0","0","coast","4","probe-153","0.516489221405704","0.33579469994482725","0.17235902750085455","1","","","","","","","",""
"","html-keyboard-response","113","591541","0.0-64.0-1.0","""event"",""trial"",""time""
""fullscreenenter"",""0"",""2814""
","
","
","""event"",""trial"",""time""
""fullscreenenter"",""0"",""2814""
","
","null","<p></p>","null","","","","","","","","","","","","","","","","","","","","","","",""
"","do_trial","114","598442","0.0-65.0-0.0","""event"",""trial"",""time""
""fullscreenenter"",""0"",""2814""
","
","
","""event"",""trial"",""time""
""fullscreenenter"",""0"",""2814""
","
","2348.899999976158","","","","","","","","50","1,0,0","0","coast","5","probe-230","0.7022775309935771","0.3280163136679772","0.13202532214526874","0","","","","","","","",""
"","html-keyboard-response","115","599447","0.0-65.0-1.0","""event"",""trial"",""time""
""fullscreenenter"",""0"",""2814""
","
","
","""event"",""trial"",""time""
""fullscreenenter"",""0"",""2814""
","
","null","<p></p>","null","","","","","","","","","","","","","","","","","","","","","","",""
"","do_trial","116","604475","0.0-66.0-0.0","""event"",""trial"",""time""
""fullscreenenter"",""0"",""2814""
","
","
","""event"",""trial"",""time""
""fullscreenenter"",""0"",""2814""
","
","469","","","","","","","","49","1,0,0","0","coast","6","probe-168","0.6880575928928968","0.32388339168468067","0.1384102244739404","1","","","","","","","",""
"","html-keyboard-response","117","605480","0.0-66.0-1.0","""event"",""trial"",""time""
""fullscreenenter"",""0"",""2814""
","
","
","""event"",""trial"",""time""
""fullscreenenter"",""0"",""2814""
","
","null","<p></p>","null","","","","","","","","","","","","","","","","","","","","","","",""
"","do_trial","118","610526","0.0-67.0-0.0","""event"",""trial"",""time""
""fullscreenenter"",""0"",""2814""
","
","
","""event"",""trial"",""time""
""fullscreenenter"",""0"",""2814""
","
","493.19999998807907","","","","","","","","49","1,1,0","0","coast","7","probe-173","0.6456805268458266","0.4174707798564006","0.14180948180842923","1","","","","","","","",""
"","html-keyboard-response","119","611531","0.0-67.0-1.0","""event"",""trial"",""time""
""fullscreenenter"",""0"",""2814""
","
","
","""event"",""trial"",""time""
""fullscreenenter"",""0"",""2814""
","
","null","<p></p>","null","","","","","","","","","","","","","","","","","","","","","","",""
"","do_trial","120","616556","0.0-68.0-0.0","""event"",""trial"",""time""
""fullscreenenter"",""0"",""2814""
","
","
","""event"",""trial"",""time""
""fullscreenenter"",""0"",""2814""
","
","469","","","","","","","","49","1,0,0","0","coast","8","probe-156","0.660034800872676","0.21960397539111803","0.18352376188773936","1","","","","","","","",""
"","html-keyboard-response","121","617561","0.0-68.0-1.0","""event"",""trial"",""time""
""fullscreenenter"",""0"",""2814""
","
","
","""event"",""trial"",""time""
""fullscreenenter"",""0"",""2814""
","
","null","<p></p>","null","","","","","","","","","","","","","","","","","","","","","","",""
"","do_trial","122","622681","0.0-69.0-0.0","""event"",""trial"",""time""
""fullscreenenter"",""0"",""2814""
","
","
","""event"",""trial"",""time""
""fullscreenenter"",""0"",""2814""
","
","568.1000000238419","","","","","","","","49","1,0,0","0","coast","9","probe-32","0.5961507990059953","0.19139944687701768","0.20100153528244635","1","","","","","","","",""
"","html-keyboard-response","123","623686","0.0-69.0-1.0","""event"",""trial"",""time""
""fullscreenenter"",""0"",""2814""
","
","
","""event"",""trial"",""time""
""fullscreenenter"",""0"",""2814""
","
","null","<p></p>","null","","","","","","","","","","","","","","","","","","","","","","",""
"","do_trial","124","628725","0.0-70.0-0.0","""event"",""trial"",""time""
""fullscreenenter"",""0"",""2814""
","
","
","""event"",""trial"",""time""
""fullscreenenter"",""0"",""2814""
","
","487.89999997615814","","","","","","","","49","1,0,0","0","coast","10","probe-142","0.5936959120318187","0.19765985761174792","0.12165434805264724","1","","","","","","","",""
"","html-keyboard-response","125","629729","0.0-70.0-1.0","""event"",""trial"",""time""
""fullscreenenter"",""0"",""2814""
","
","
","""event"",""trial"",""time""
""fullscreenenter"",""0"",""2814""
","
","null","<p></p>","null","","","","","","","","","","","","","","","","","","","","","","",""
"","do_trial","126","635046","0.0-71.0-0.0","""event"",""trial"",""time""
""fullscreenenter"",""0"",""2814""
","
","
","""event"",""trial"",""time""
""fullscreenenter"",""0"",""2814""
","
","767.8000000119209","","","","","","","","49","0,0,0","0","coast","11","probe-195","0.575919861042729","0.30422139374599916","0.07279991572569397","0","","","","","","","",""
"","html-keyboard-response","127","636051","0.0-71.0-1.0","""event"",""trial"",""time""
""fullscreenenter"",""0"",""2814""
","
","
","""event"",""trial"",""time""
""fullscreenenter"",""0"",""2814""
","
","null","<p></p>","null","","","","","","","","","","","","","","","","","","","","","","",""
"","do_trial","128","641083","0.0-72.0-0.0","""event"",""trial"",""time""
""fullscreenenter"",""0"",""2814""
","
","
","""event"",""trial"",""time""
""fullscreenenter"",""0"",""2814""
","
","480.5999999642372","","","","","","","","49","0,0,0","0","coast","12","probe-139","0.4648087511709082","0.36301739368705105","0.11839140090374688","0","","","","","","","",""
"","html-keyboard-response","129","642088","0.0-72.0-1.0","""event"",""trial"",""time""
""fullscreenenter"",""0"",""2814""
","
","
","""event"",""trial"",""time""
""fullscreenenter"",""0"",""2814""
","
","null","<p></p>","null","","","","","","","","","","","","","","","","","","","","","","",""
"","do_trial","130","647016","0.0-73.0-0.0","""event"",""trial"",""time""
""fullscreenenter"",""0"",""2814""
","
","
","""event"",""trial"",""time""
""fullscreenenter"",""0"",""2814""
","
","377.10000002384186","","","","","","","","49","0,0,1","0","coast","13","probe-121","0.5622233563061011","0.3468515171975288","0.11872792917829107","0","","","","","","","",""
"","html-keyboard-response","131","648021","0.0-73.0-1.0","""event"",""trial"",""time""
""fullscreenenter"",""0"",""2814""
","
","
","""event"",""trial"",""time""
""fullscreenenter"",""0"",""2814""
","
","null","<p></p>","null","","","","","","","","","","","","","","","","","","","","","","",""
"","do_trial","132","652928","0.0-74.0-0.0","""event"",""trial"",""time""
""fullscreenenter"",""0"",""2814""
","
","
","""event"",""trial"",""time""
""fullscreenenter"",""0"",""2814""
","
","353.89999997615814","","","","","","","","49","1,0,0","0","coast","14","probe-37","0.5532045358936162","0.31417234473313815","0.059879471213123016","1","","","","","","","",""
"","html-keyboard-response","133","653933","0.0-74.0-1.0","""event"",""trial"",""time""
""fullscreenenter"",""0"",""2814""
","
","
","""event"",""trial"",""time""
""fullscreenenter"",""0"",""2814""
","
","null","<p></p>","null","","","","","","","","","","","","","","","","","","","","","","",""
"","do_trial","134","659702","0.0-75.0-0.0","""event"",""trial"",""time""
""fullscreenenter"",""0"",""2814""
","
","
","""event"",""trial"",""time""
""fullscreenenter"",""0"",""2814""
","
","1206.6000000238419","","","","","","","","49","1,0,0","0","coast","15","probe-223","0.5536503259020242","0.39231892383560274","0.08208220593322536","1","","","","","","","",""
"","html-keyboard-response","135","660707","0.0-75.0-1.0","""event"",""trial"",""time""
""fullscreenenter"",""0"",""2814""
","
","
","""event"",""trial"",""time""
""fullscreenenter"",""0"",""2814""
","
","null","<p></p>","null","","","","","","","","","","","","","","","","","","","","","","",""
"","do_trial","136","666847","0.0-76.0-0.0","""event"",""trial"",""time""
""fullscreenenter"",""0"",""2814""
","
","
","""event"",""trial"",""time""
""fullscreenenter"",""0"",""2814""
","
","1589.0999999642372","","","","","","","","49","1,0,0","0","coast","16","probe-199","0.589179022364047","0.33230328438184237","0.12455491065189106","1","","","","","","","",""
"","html-keyboard-response","137","667853","0.0-76.0-1.0","""event"",""trial"",""time""
""fullscreenenter"",""0"",""2814""
","
","
","""event"",""trial"",""time""
""fullscreenenter"",""0"",""2814""
","
","null","<p></p>","null","","","","","","","","","","","","","","","","","","","","","","",""
"","do_trial","138","672871","0.0-77.0-0.0","""event"",""trial"",""time""
""fullscreenenter"",""0"",""2814""
","
","
","""event"",""trial"",""time""
""fullscreenenter"",""0"",""2814""
","
","461.30000001192093","","","","","","","","49","1,0,0","0","coast","17","probe-27","0.5224567931763585","0.2901941215272085","0.16586285792515645","1","","","","","","","",""
"","html-keyboard-response","139","673876","0.0-77.0-1.0","""event"",""trial"",""time""
""fullscreenenter"",""0"",""2814""
","
","
","""event"",""trial"",""time""
""fullscreenenter"",""0"",""2814""
","
","null","<p></p>","null","","","","","","","","","","","","","","","","","","","","","","",""
"","do_trial","140","679203","0.0-78.0-0.0","""event"",""trial"",""time""
""fullscreenenter"",""0"",""2814""
","
","
","""event"",""trial"",""time""
""fullscreenenter"",""0"",""2814""
","
","765.5999999642372","","","","","","","","49","0,0,0","0","coast","18","probe-210","0.4766608844891425","0.2051322816833217","0.06457119164858935","0","","","","","","","",""
"","html-keyboard-response","141","680207","0.0-78.0-1.0","""event"",""trial"",""time""
""fullscreenenter"",""0"",""2814""
","
","
","""event"",""trial"",""time""
""fullscreenenter"",""0"",""2814""
","
","null","<p></p>","null","","","","","","","","","","","","","","","","","","","","","","",""
"","do_trial","142","685155","0.0-79.0-0.0","""event"",""trial"",""time""
""fullscreenenter"",""0"",""2814""
","
","
","""event"",""trial"",""time""
""fullscreenenter"",""0"",""2814""
","
","389.30000001192093","","","","","","","","49","0,0,0","0","coast","19","probe-08","0.5541470086087241","0.3426826226422356","0.13138401199293945","0","","","","","","","",""
"","html-keyboard-response","143","686160","0.0-79.0-1.0","""event"",""trial"",""time""
""fullscreenenter"",""0"",""2814""
","
","
","""event"",""trial"",""time""
""fullscreenenter"",""0"",""2814""
","
","null","<p></p>","null","","","","","","","","","","","","","","","","","","","","","","",""
"","do_trial","144","691247","0.0-80.0-0.0","""event"",""trial"",""time""
""fullscreenenter"",""0"",""2814""
","
","
","""event"",""trial"",""time""
""fullscreenenter"",""0"",""2814""
","
","531.6000000238419","","","","","","","","49","0,0,0","0","coast","20","probe-200","0.6751594310021436","0.4140871520407902","0.1832388705587729","0","","","","","","","",""
"","html-keyboard-response","145","692251","0.0-80.0-1.0","""event"",""trial"",""time""
""fullscreenenter"",""0"",""2814""
","
","
","""event"",""trial"",""time""
""fullscreenenter"",""0"",""2814""
","
","null","<p></p>","null","","","","","","","","","","","","","","","","","","","","","","",""
"","do_trial","146","697352","0.0-81.0-0.0","""event"",""trial"",""time""
""fullscreenenter"",""0"",""2814""
","
","
","""event"",""trial"",""time""
""fullscreenenter"",""0"",""2814""
","
","550.1000000238419","","","","","","","","49","1,1,1","0","coast","21","probe-151","0.5981923721058487","0.3880809783183374","0.12767315606538848","1","","","","","","","",""
"","html-keyboard-response","147","698357","0.0-81.0-1.0","""event"",""trial"",""time""
""fullscreenenter"",""0"",""2814""
","
","
","""event"",""trial"",""time""
""fullscreenenter"",""0"",""2814""
","
","null","<p></p>","null","","","","","","","","","","","","","","","","","","","","","","",""
"","do_trial","148","704227","0.0-82.0-0.0","""event"",""trial"",""time""
""fullscreenenter"",""0"",""2814""
","
","
","""event"",""trial"",""time""
""fullscreenenter"",""0"",""2814""
","
","1315.9000000357628","","","","","","","","49","1,0,0","0","coast","22","probe-221","0.611081592916639","0.3257692685417388","0.1721844041310393","1","","","","","","","",""
"","html-keyboard-response","149","705233","0.0-82.0-1.0","""event"",""trial"",""time""
""fullscreenenter"",""0"",""2814""
","
","
","""event"",""trial"",""time""
""fullscreenenter"",""0"",""2814""
","
","null","<p></p>","null","","","","","","","","","","","","","","","","","","","","","","",""
"","do_trial","150","710341","0.0-83.0-0.0","""event"",""trial"",""time""
""fullscreenenter"",""0"",""2814""
","
","
","""event"",""trial"",""time""
""fullscreenenter"",""0"",""2814""
","
","554","","","","","","","","49","0,1,0","0","coast","23","probe-207","0.5568879258018804","0.3143421603187453","0.1078094691285813","0","","","","","","","",""
"","html-keyboard-response","151","711346","0.0-83.0-1.0","""event"",""trial"",""time""
""fullscreenenter"",""0"",""2814""
","
","
","""event"",""trial"",""time""
""fullscreenenter"",""0"",""2814""
","
","null","<p></p>","null","","","","","","","","","","","","","","","","","","","","","","",""
"","do_trial","152","716557","0.0-84.0-0.0","""event"",""trial"",""time""
""fullscreenenter"",""0"",""2814""
","
","
","""event"",""trial"",""time""
""fullscreenenter"",""0"",""2814""
","
","650.3000000119209","","","","","","","","49","1,0,1","0","coast","24","probe-116","0.6039850963263572","0.2651725436069494","0.08468356249863092","1","","","","","","","",""
"","html-keyboard-response","153","717561","0.0-84.0-1.0","""event"",""trial"",""time""
""fullscreenenter"",""0"",""2814""
","
","
","""event"",""trial"",""time""
""fullscreenenter"",""0"",""2814""
","
","null","<p></p>","null","","","","","","","","","","","","","","","","","","","","","","",""
"","do_trial","154","722648","0.0-85.0-0.0","""event"",""trial"",""time""
""fullscreenenter"",""0"",""2814""
","
","
","""event"",""trial"",""time""
""fullscreenenter"",""0"",""2814""
","
","535.3999999761581","","","","","","","","49","1,0,1","0","coast","25","probe-196","0.6463612942979243","0.16664072717125877","0.23949252571284937","1","","","","","","","",""
"","html-keyboard-response","155","723653","0.0-85.0-1.0","""event"",""trial"",""time""
""fullscreenenter"",""0"",""2814""
","
","
","""event"",""trial"",""time""
""fullscreenenter"",""0"",""2814""
","
","null","<p></p>","null","","","","","","","","","","","","","","","","","","","","","","",""
"","do_trial","156","730154","0.0-86.0-0.0","""event"",""trial"",""time""
""fullscreenenter"",""0"",""2814""
","
","
","""event"",""trial"",""time""
""fullscreenenter"",""0"",""2814""
","
","1947.5999999642372","","","","","","","","49","1,0,0","0","coast","26","probe-47","0.6319554132379855","0.12089155601284363","0.21803282339521182","1","","","","","","","",""
"","html-keyboard-response","157","731156","0.0-86.0-1.0","""event"",""trial"",""time""
""fullscreenenter"",""0"",""2814""
","
","
","""event"",""trial"",""time""
""fullscreenenter"",""0"",""2814""
","
","null","<p></p>","null","","","","","","","","","","","","","","","","","","","","","","",""
"","do_trial","158","736480","0.0-87.0-0.0","""event"",""trial"",""time""
""fullscreenenter"",""0"",""2814""
","
","
","""event"",""trial"",""time""
""fullscreenenter"",""0"",""2814""
","
","762.9000000357628","","","","","","","","49","0,0,0","0","coast","27","probe-185","0.4443730190395448","0.18666916967935163","0.120333621491509","0","","","","","","","",""
"","html-keyboard-response","159","737485","0.0-87.0-1.0","""event"",""trial"",""time""
""fullscreenenter"",""0"",""2814""
","
","
","""event"",""trial"",""time""
""fullscreenenter"",""0"",""2814""
","
","null","<p></p>","null","","","","","","","","","","","","","","","","","","","","","","",""
"","do_trial","160","743077","0.0-88.0-0.0","""event"",""trial"",""time""
""fullscreenenter"",""0"",""2814""
","
","
","""event"",""trial"",""time""
""fullscreenenter"",""0"",""2814""
","
","1031.8999999761581","","","","","","","","49","0,1,0","0","coast","28","probe-111","0.6237909428478553","0.3902783522502263","0.0652802792666051","0","","","","","","","",""
"","html-keyboard-response","161","744081","0.0-88.0-1.0","""event"",""trial"",""time""
""fullscreenenter"",""0"",""2814""
","
","
","""event"",""trial"",""time""
""fullscreenenter"",""0"",""2814""
","
","null","<p></p>","null","","","","","","","","","","","","","","","","","","","","","","",""
"","do_trial","162","748805","0.0-89.0-0.0","""event"",""trial"",""time""
""fullscreenenter"",""0"",""2814""
","
","
","""event"",""trial"",""time""
""fullscreenenter"",""0"",""2814""
","
","161.79999995231628","","","","","","","","49","0,1,0","0","coast","29","probe-208","0.6848010775806069","0.31303540474950886","0.1158825512473377","0","","","","","","","",""
"","html-keyboard-response","163","749810","0.0-89.0-1.0","""event"",""trial"",""time""
""fullscreenenter"",""0"",""2814""
","
","
","""event"",""trial"",""time""
""fullscreenenter"",""0"",""2814""
","
","null","<p></p>","null","","","","","","","","","","","","","","","","","","","","","","",""
"","do_bye","164","751321","0.0-90.0-0.0","""event"",""trial"",""time""
""fullscreenenter"",""0"",""2814""
","
","
","""event"",""trial"",""time""
""fullscreenenter"",""0"",""2814""
","
","null","","","","","","","","null","","","","","","","","","","","","","","","","",""
"","break","165","762374","0.0-90.0-1.0","""event"",""trial"",""time""
""fullscreenenter"",""0"",""2814""
","
","
","""event"",""trial"",""time""
""fullscreenenter"",""0"",""2814""
","
","11051.800000011921","<div class='center'><p>Time to take a quick break! You have 2 minutes to rest, but you can move on sooner if you'd like.</p><p> Press the <b>space bar</b> to continue.</p></div>","32","","","","","","","","","","","","","","","","","","","","","","",""
"","do_travel","166","771380","0.0-91.0-0.0","""event"",""trial"",""time""
""fullscreenenter"",""0"",""2814""
","
","
","""event"",""trial"",""time""
""fullscreenenter"",""0"",""2814""
","
","null","","","","","","","","null","","","","","","","","","","","","","","","","",""
"","do_welcome","167","775391","0.0-91.0-1.0","""event"",""trial"",""time""
""fullscreenenter"",""0"",""2814""
","
","
","""event"",""trial"",""time""
""fullscreenenter"",""0"",""2814""
","
","null","","","","","","","","null","","","","","","","","","","","","","","","","",""
"","do_trial","168","781660","0.0-92.0-0.0","""event"",""trial"",""time""
""fullscreenenter"",""0"",""2814""
","
","
","""event"",""trial"",""time""
""fullscreenenter"",""0"",""2814""
","
","1717.699999988079","","","","","","","","49","1,0,1","1","highway","30","probe-183","1","0.40261596448984277","0.2462599130103403","1","","","","","","","",""
"","html-keyboard-response","169","782665","0.0-92.0-1.0","""event"",""trial"",""time""
""fullscreenenter"",""0"",""2814""
","
","
","""event"",""trial"",""time""
""fullscreenenter"",""0"",""2814""
","
","null","<p></p>","null","","","","","","","","","","","","","","","","","","","","","","",""
"","do_trial","170","787667","0.0-93.0-0.0","""event"",""trial"",""time""
""fullscreenenter"",""0"",""2814""
","
","
","""event"",""trial"",""time""
""fullscreenenter"",""0"",""2814""
","
","450.10000002384186","","","","","","","","50","1,0,0","1","highway","31","probe-212","1","0.3321362132047564","0.26083715028959287","0","","","","","","","",""
"","html-keyboard-response","171","788673","0.0-93.0-1.0","""event"",""trial"",""time""
""fullscreenenter"",""0"",""2814""
","
","
","""event"",""trial"",""time""
""fullscreenenter"",""0"",""2814""
","
","null","<p></p>","null","","","","","","","","","","","","","","","","","","","","","","",""
"","do_trial","172","793996","0.0-94.0-0.0","""event"",""trial"",""time""
""fullscreenenter"",""0"",""2814""
","
","
","""event"",""trial"",""time""
""fullscreenenter"",""0"",""2814""
","
","765.6999999880791","","","","","","","","51","1,0,0","1","highway","32","probe-49","1","0.3063212363415756","0.16989155279979432","0","","","","","","","",""
"","html-keyboard-response","173","795000","0.0-94.0-1.0","""event"",""trial"",""time""
""fullscreenenter"",""0"",""2814""
","
","
","""event"",""trial"",""time""
""fullscreenenter"",""0"",""2814""
","
","null","<p></p>","null","","","","","","","","","","","","","","","","","","","","","","",""
"","do_trial","174","800355","0.0-95.0-0.0","""event"",""trial"",""time""
""fullscreenenter"",""0"",""2814""
","
","
","""event"",""trial"",""time""
""fullscreenenter"",""0"",""2814""
","
","799.8000000119209","","","","","","","","49","1,0,0","1","highway","33","probe-13","0.7782533839295729","0.2146884618977873","0.1071226339719542","1","","","","","","","",""
"","html-keyboard-response","175","801360","0.0-95.0-1.0","""event"",""trial"",""time""
""fullscreenenter"",""0"",""2814""
","
","
","""event"",""trial"",""time""
""fullscreenenter"",""0"",""2814""
","
","null","<p></p>","null","","","","","","","","","","","","","","","","","","","","","","",""
"","do_trial","176","807438","0.0-96.0-0.0","""event"",""trial"",""time""
""fullscreenenter"",""0"",""2814""
","
","
","""event"",""trial"",""time""
""fullscreenenter"",""0"",""2814""
","
","1515.1000000238419","","","","","","","","50","0,1,0","1","highway","34","probe-09","0.8113410295407963","0.3238512338058254","0.1383415160705246","1","","","","","","","",""
"","html-keyboard-response","177","808443","0.0-96.0-1.0","""event"",""trial"",""time""
""fullscreenenter"",""0"",""2814""
","
","
","""event"",""trial"",""time""
""fullscreenenter"",""0"",""2814""
","
","null","<p></p>","null","","","","","","","","","","","","","","","","","","","","","","",""
"","do_trial","178","814441","0.0-97.0-0.0","""event"",""trial"",""time""
""fullscreenenter"",""0"",""2814""
","
","
","""event"",""trial"",""time""
""fullscreenenter"",""0"",""2814""
","
","1446.8999999761581","","","","","","","","51","1,0,0","1","highway","35","probe-48","0.6295676485090043","0.2388072465108543","0.06105186843957487","0","","","","","","","",""
"","html-keyboard-response","179","815446","0.0-97.0-1.0","""event"",""trial"",""time""
""fullscreenenter"",""0"",""2814""
","
","
","""event"",""trial"",""time""
""fullscreenenter"",""0"",""2814""
","
","null","<p></p>","null","","","","","","","","","","","","","","","","","","","","","","",""
"","do_trial","180","821102","0.0-98.0-0.0","""event"",""trial"",""time""
""fullscreenenter"",""0"",""2814""
","
","
","""event"",""trial"",""time""
""fullscreenenter"",""0"",""2814""
","
","1104.1000000238419","","","","","","","","49","1,0,1","1","highway","36","probe-160","0.6657777179336953","0.1435735190789169","0.11324632595271451","1","","","","","","","",""
"","html-keyboard-response","181","822106","0.0-98.0-1.0","""event"",""trial"",""time""
""fullscreenenter"",""0"",""2814""
","
","
","""event"",""trial"",""time""
""fullscreenenter"",""0"",""2814""
","
","null","<p></p>","null","","","","","","","","","","","","","","","","","","","","","","",""
"","do_trial","182","828110","0.0-99.0-0.0","""event"",""trial"",""time""
""fullscreenenter"",""0"",""2814""
","
","
","""event"",""trial"",""time""
""fullscreenenter"",""0"",""2814""
","
","1451.800000011921","","","","","","","","50","1,0,0","1","highway","37","probe-23","0.6778756434261142","0.3110126209291527","0.18565079962881403","0","","","","","","","",""
"","html-keyboard-response","183","829115","0.0-99.0-1.0","""event"",""trial"",""time""
""fullscreenenter"",""0"",""2814""
","
","
","""event"",""trial"",""time""
""fullscreenenter"",""0"",""2814""
","
","null","<p></p>","null","","","","","","","","","","","","","","","","","","","","","","",""
"","do_trial","184","834280","0.0-100.0-0.0","""event"",""trial"",""time""
""fullscreenenter"",""0"",""2814""
","
","
","""event"",""trial"",""time""
""fullscreenenter"",""0"",""2814""
","
","612.8999999761581","","","","","","","","49","1,0,0","1","highway","38","probe-154","0.7005406873699477","0.3347771346042879","0.18640025357619214","1","","","","","","","",""
"","html-keyboard-response","185","835284","0.0-100.0-1.0","""event"",""trial"",""time""
""fullscreenenter"",""0"",""2814""
","
","
","""event"",""trial"",""time""
""fullscreenenter"",""0"",""2814""
","
","null","<p></p>","null","","","","","","","","","","","","","","","","","","","","","","",""
"","do_trial","186","840507","0.0-101.0-0.0","""event"",""trial"",""time""
""fullscreenenter"",""0"",""2814""
","
","
","""event"",""trial"",""time""
""fullscreenenter"",""0"",""2814""
","
","665.0999999642372","","","","","","","","49","0,1,1","1","highway","39","probe-71","0.6826685872532045","0.26891594945633074","0.057683272097437295","0","","","","","","","",""
"","html-keyboard-response","187","841512","0.0-101.0-1.0","""event"",""trial"",""time""
""fullscreenenter"",""0"",""2814""
","
","
","""event"",""trial"",""time""
""fullscreenenter"",""0"",""2814""
","
","null","<p></p>","null","","","","","","","","","","","","","","","","","","","","","","",""
"","do_trial","188","846555","0.0-102.0-0.0","""event"",""trial"",""time""
""fullscreenenter"",""0"",""2814""
","
","
","""event"",""trial"",""time""
""fullscreenenter"",""0"",""2814""
","
","476.10000002384186","","","","","","","","49","1,0,0","1","highway","40","probe-103","0.5773648577936014","0.2552021288017513","0.20285249054279575","1","","","","","","","",""
"","html-keyboard-response","189","847559","0.0-102.0-1.0","""event"",""trial"",""time""
""fullscreenenter"",""0"",""2814""
","
","
","""event"",""trial"",""time""
""fullscreenenter"",""0"",""2814""
","
","null","<p></p>","null","","","","","","","","","","","","","","","","","","","","","","",""
"","do_trial","190","852633","0.0-103.0-0.0","""event"",""trial"",""time""
""fullscreenenter"",""0"",""2814""
","
","
","""event"",""trial"",""time""
""fullscreenenter"",""0"",""2814""
","
","526.3999999761581","","","","","","","","49","1,0,0","1","highway","41","probe-20","0.6111041247803892","0.16263868561303518","0.28261402036509","1","","","","","","","",""
"","html-keyboard-response","191","853638","0.0-103.0-1.0","""event"",""trial"",""time""
""fullscreenenter"",""0"",""2814""
","
","
","""event"",""trial"",""time""
""fullscreenenter"",""0"",""2814""
","
","null","<p></p>","null","","","","","","","","","","","","","","","","","","","","","","",""
"","do_trial","192","858763","0.0-104.0-0.0","""event"",""trial"",""time""
""fullscreenenter"",""0"",""2814""
","
","
","""event"",""trial"",""time""
""fullscreenenter"",""0"",""2814""
","
","574.3999999761581","","","","","","","","49","1,0,0","1","highway","42","probe-91","0.6601510276620137","0.24357735328440502","0.23497624162540953","1","","","","","","","",""
"","html-keyboard-response","193","859768","0.0-104.0-1.0","""event"",""trial"",""time""
""fullscreenenter"",""0"",""2814""
","
","
","""event"",""trial"",""time""
""fullscreenenter"",""0"",""2814""
","
","null","<p></p>","null","","","","","","","","","","","","","","","","","","","","","","",""
"","do_trial","194","864864","0.0-105.0-0.0","""event"",""trial"",""time""
""fullscreenenter"",""0"",""2814""
","
","
","""event"",""trial"",""time""
""fullscreenenter"",""0"",""2814""
","
","536.8000000119209","","","","","","","","49","0,0,0","1","highway","43","probe-169","0.4708321582554575","0.4302574475646426","0.2453903766080205","0","","","","","","","",""
"","html-keyboard-response","195","865869","0.0-105.0-1.0","""event"",""trial"",""time""
""fullscreenenter"",""0"",""2814""
","
","
","""event"",""trial"",""time""
""fullscreenenter"",""0"",""2814""
","
","null","<p></p>","null","","","","","","","","","","","","","","","","","","","","","","",""
"","do_trial","196","871014","0.0-106.0-0.0","""event"",""trial"",""time""
""fullscreenenter"",""0"",""2814""
","
","
","""event"",""trial"",""time""
""fullscreenenter"",""0"",""2814""
","
","592.3999999761581","","","","","","","","49","0,0,0","1","highway","44","probe-155","0.3820009407778035","0.30335651109031625","0.29337680394017257","0","","","","","","","",""
"","html-keyboard-response","197","872019","0.0-106.0-1.0","""event"",""trial"",""time""
""fullscreenenter"",""0"",""2814""
","
","
","""event"",""trial"",""time""
""fullscreenenter"",""0"",""2814""
","
","null","<p></p>","null","","","","","","","","","","","","","","","","","","","","","","",""
"","do_trial","198","876994","0.0-107.0-0.0","""event"",""trial"",""time""
""fullscreenenter"",""0"",""2814""
","
","
","""event"",""trial"",""time""
""fullscreenenter"",""0"",""2814""
","
","416.69999998807907","","","","","","","","49","1,1,0","1","highway","45","probe-149","0.48309917181282774","0.3564919690431146","0.26631801296556634","1","","","","","","","",""
"","html-keyboard-response","199","877999","0.0-107.0-1.0","""event"",""trial"",""time""
""fullscreenenter"",""0"",""2814""
","
","
","""event"",""trial"",""time""
""fullscreenenter"",""0"",""2814""
","
","null","<p></p>","null","","","","","","","","","","","","","","","","","","","","","","",""
"","do_trial","200","883145","0.0-108.0-0.0","""event"",""trial"",""time""
""fullscreenenter"",""0"",""2814""
","
","
","""event"",""trial"",""time""
""fullscreenenter"",""0"",""2814""
","
","590.5999999642372","","","","","","","","49","0,1,0","1","highway","46","probe-58","0.428468331197017","0.4486318069309859","0.27910546078904097","0","","","","","","","",""
"","html-keyboard-response","201","884151","0.0-108.0-1.0","""event"",""trial"",""time""
""fullscreenenter"",""0"",""2814""
","
","
","""event"",""trial"",""time""
""fullscreenenter"",""0"",""2814""
","
","null","<p></p>","null","","","","","","","","","","","","","","","","","","","","","","",""
"","do_trial","202","890096","0.0-109.0-0.0","""event"",""trial"",""time""
""fullscreenenter"",""0"",""2814""
","
","
","""event"",""trial"",""time""
""fullscreenenter"",""0"",""2814""
","
","1383.199999988079","","","","","","","","49","1,1,0","1","highway","47","probe-177","0.5162852794117028","0.4207646311547458","0.3010869025996387","1","","","","","","","",""
"","html-keyboard-response","203","891100","0.0-109.0-1.0","""event"",""trial"",""time""
""fullscreenenter"",""0"",""2814""
","
","
","""event"",""trial"",""time""
""fullscreenenter"",""0"",""2814""
","
","null","<p></p>","null","","","","","","","","","","","","","","","","","","","","","","",""
"","do_trial","204","896462","0.0-110.0-0.0","""event"",""trial"",""time""
""fullscreenenter"",""0"",""2814""
","
","
","""event"",""trial"",""time""
""fullscreenenter"",""0"",""2814""
","
","801.1999999880791","","","","","","","","49","0,0,1","1","highway","48","probe-129","0.6311016106899037","0.35013724899941634","0.29278098151280463","0","","","","","","","",""
"","html-keyboard-response","205","897467","0.0-110.0-1.0","""event"",""trial"",""time""
""fullscreenenter"",""0"",""2814""
","
","
","""event"",""trial"",""time""
""fullscreenenter"",""0"",""2814""
","
","null","<p></p>","null","","","","","","","","","","","","","","","","","","","","","","",""
"","do_trial","206","903739","0.0-111.0-0.0","""event"",""trial"",""time""
""fullscreenenter"",""0"",""2814""
","
","
","""event"",""trial"",""time""
""fullscreenenter"",""0"",""2814""
","
","1716.199999988079","","","","","","","","49","0,1,0","1","highway","49","probe-05","0.4873374503360854","0.4497518392584676","0.3107257070641638","0","","","","","","","",""
"","html-keyboard-response","207","904744","0.0-111.0-1.0","""event"",""trial"",""time""
""fullscreenenter"",""0"",""2814""
","
","
","""event"",""trial"",""time""
""fullscreenenter"",""0"",""2814""
","
","null","<p></p>","null","","","","","","","","","","","","","","","","","","","","","","",""
"","do_trial","208","909770","0.0-112.0-0.0","""event"",""trial"",""time""
""fullscreenenter"",""0"",""2814""
","
","
","""event"",""trial"",""time""
""fullscreenenter"",""0"",""2814""
","
","471.5999999642372","","","","","","","","50","1,1,0","1","highway","50","probe-75","0.21223882427188648","0.4821307353095159","0.19737192152306435","1","","","","","","","",""
"","html-keyboard-response","209","910774","0.0-112.0-1.0","""event"",""trial"",""time""
""fullscreenenter"",""0"",""2814""
","
","
","""event"",""trial"",""time""
""fullscreenenter"",""0"",""2814""
","
","null","<p></p>","null","","","","","","","","","","","","","","","","","","","","","","",""
"","do_trial","210","915914","0.0-113.0-0.0","""event"",""trial"",""time""
""fullscreenenter"",""0"",""2814""
","
","
","""event"",""trial"",""time""
""fullscreenenter"",""0"",""2814""
","
","585.1999999880791","","","","","","","","50","0,0,0","1","highway","51","probe-73","0.1320639771199057","0.44603839601340506","0.17017141113004236","0","","","","","","","",""
"","html-keyboard-response","211","916919","0.0-113.0-1.0","""event"",""trial"",""time""
""fullscreenenter"",""0"",""2814""
","
","
","""event"",""trial"",""time""
""fullscreenenter"",""0"",""2814""
","
","null","<p></p>","null","","","","","","","","","","","","","","","","","","","","","","",""
"","do_trial","212","922194","0.0-114.0-0.0","""event"",""trial"",""time""
""fullscreenenter"",""0"",""2814""
","
","
","""event"",""trial"",""time""
""fullscreenenter"",""0"",""2814""
","
","722.3000000119209","","","","","","","","50","0,1,0","1","highway","52","probe-86","0.23435771528375224","0.5705423867167385","0.15128355218970096","1","","","","","","","",""
"","html-keyboard-response","213","923199","0.0-114.0-1.0","""event"",""trial"",""time""
""fullscreenenter"",""0"",""2814""
","
","
","""event"",""trial"",""time""
""fullscreenenter"",""0"",""2814""
","
","null","<p></p>","null","","","","","","","","","","","","","","","","","","","","","","",""
"","do_trial","214","928303","0.0-115.0-0.0","""event"",""trial"",""time""
""fullscreenenter"",""0"",""2814""
","
","
","""event"",""trial"",""time""
""fullscreenenter"",""0"",""2814""
","
","552.6000000238419","","","","","","","","50","0,0,1","1","highway","53","probe-98","0.20666378003430416","0.6413253830452114","0.2265845262264393","0","","","","","","","",""
"","html-keyboard-response","215","929307","0.0-115.0-1.0","""event"",""trial"",""time""
""fullscreenenter"",""0"",""2814""
","
","
","""event"",""trial"",""time""
""fullscreenenter"",""0"",""2814""
","
","null","<p></p>","null","","","","","","","","","","","","","","","","","","","","","","",""
"","do_trial","216","934660","0.0-116.0-0.0","""event"",""trial"",""time""
""fullscreenenter"",""0"",""2814""
","
","
","""event"",""trial"",""time""
""fullscreenenter"",""0"",""2814""
","
","801.3999999761581","","","","","","","","50","0,0,0","1","highway","54","probe-56","0.3207309149235407","0.6171307659198932","0.061260647659008766","0","","","","","","","",""
"","html-keyboard-response","217","935665","0.0-116.0-1.0","""event"",""trial"",""time""
""fullscreenenter"",""0"",""2814""
","
","
","""event"",""trial"",""time""
""fullscreenenter"",""0"",""2814""
","
","null","<p></p>","null","","","","","","","","","","","","","","","","","","","","","","",""
"","do_trial","218","941464","0.0-117.0-0.0","""event"",""trial"",""time""
""fullscreenenter"",""0"",""2814""
","
","
","""event"",""trial"",""time""
""fullscreenenter"",""0"",""2814""
","
","1234.1000000238419","","","","","","","","50","0,1,0","1","highway","55","probe-54","0.37648394328137025","0.5609424766950136","0.06173124163002533","1","","","","","","","",""
"","html-keyboard-response","219","942469","0.0-117.0-1.0","""event"",""trial"",""time""
""fullscreenenter"",""0"",""2814""
","
","
","""event"",""trial"",""time""
""fullscreenenter"",""0"",""2814""
","
","null","<p></p>","null","","","","","","","","","","","","","","","","","","","","","","",""
"","do_trial","220","947513","0.0-118.0-0.0","""event"",""trial"",""time""
""fullscreenenter"",""0"",""2814""
","
","
","""event"",""trial"",""time""
""fullscreenenter"",""0"",""2814""
","
","492.9000000357628","","","","","","","","49","0,0,0","1","highway","56","probe-162","0.3763748637486971","0.6409994124779363","0.06242485933296443","0","","","","","","","",""
"","html-keyboard-response","221","948517","0.0-118.0-1.0","""event"",""trial"",""time""
""fullscreenenter"",""0"",""2814""
","
","
","""event"",""trial"",""time""
""fullscreenenter"",""0"",""2814""
","
","null","<p></p>","null","","","","","","","","","","","","","","","","","","","","","","",""
"","do_trial","222","953690","0.0-119.0-0.0","""event"",""trial"",""time""
""fullscreenenter"",""0"",""2814""
","
","
","""event"",""trial"",""time""
""fullscreenenter"",""0"",""2814""
","
","615.1000000238419","","","","","","","","49","0,1,0","1","highway","57","probe-179","0.30796307801214523","0.6547198353688155","0.05102373602925161","0","","","","","","","",""
"","html-keyboard-response","223","954695","0.0-119.0-1.0","""event"",""trial"",""time""
""fullscreenenter"",""0"",""2814""
","
","
","""event"",""trial"",""time""
""fullscreenenter"",""0"",""2814""
","
","null","<p></p>","null","","","","","","","","","","","","","","","","","","","","","","",""
"","do_trial","224","959591","0.0-120.0-0.0","""event"",""trial"",""time""
""fullscreenenter"",""0"",""2814""
","
","
","""event"",""trial"",""time""
""fullscreenenter"",""0"",""2814""
","
","345.10000002384186","","","","","","","","49","1,0,0","1","highway","58","probe-202","0.3030093405903935","0.6347621864220377","0.10764706036947753","1","","","","","","","",""
"","html-keyboard-response","225","960596","0.0-120.0-1.0","""event"",""trial"",""time""
""fullscreenenter"",""0"",""2814""
","
","
","""event"",""trial"",""time""
""fullscreenenter"",""0"",""2814""
","
","null","<p></p>","null","","","","","","","","","","","","","","","","","","","","","","",""
"","do_trial","226","965823","0.0-121.0-0.0","""event"",""trial"",""time""
""fullscreenenter"",""0"",""2814""
","
","
","""event"",""trial"",""time""
""fullscreenenter"",""0"",""2814""
","
","676.3000000119209","","","","","","","","49","0,1,0","1","highway","59","probe-38","0.09920642500086331","0.6531828401724167","0.19328062555324757","0","","","","","","","",""
"","html-keyboard-response","227","966828","0.0-121.0-1.0","""event"",""trial"",""time""
""fullscreenenter"",""0"",""2814""
","
","
","""event"",""trial"",""time""
""fullscreenenter"",""0"",""2814""
","
","null","<p></p>","null","","","","","","","","","","","","","","","","","","","","","","",""
"","do_trial","228","973110","0.0-122.0-0.0","""event"",""trial"",""time""
""fullscreenenter"",""0"",""2814""
","
","
","""event"",""trial"",""time""
""fullscreenenter"",""0"",""2814""
","
","1730.5","","","","","","","","51","0,1,0","1","highway","60","probe-16","0.260768345703599","0.6583599742447542","0.09642594510940944","0","","","","","","","",""
"","html-keyboard-response","229","974115","0.0-122.0-1.0","""event"",""trial"",""time""
""fullscreenenter"",""0"",""2814""
","
","
","""event"",""trial"",""time""
""fullscreenenter"",""0"",""2814""
","
","null","<p></p>","null","","","","","","","","","","","","","","","","","","","","","","",""
"","do_trial","230","979185","0.0-123.0-0.0","""event"",""trial"",""time""
""fullscreenenter"",""0"",""2814""
","
","
","""event"",""trial"",""time""
""fullscreenenter"",""0"",""2814""
","
","519.1000000238419","","","","","","","","49","0,0,0","1","highway","61","probe-112","0.15762536235811983","0.58494686374701","0.08659567747523932","0","","","","","","","",""
"","html-keyboard-response","231","980189","0.0-123.0-1.0","""event"",""trial"",""time""
""fullscreenenter"",""0"",""2814""
","
","
","""event"",""trial"",""time""
""fullscreenenter"",""0"",""2814""
","
","null","<p></p>","null","","","","","","","","","","","","","","","","","","","","","","",""
"","do_trial","232","985323","0.0-124.0-0.0","""event"",""trial"",""time""
""fullscreenenter"",""0"",""2814""
","
","
","""event"",""trial"",""time""
""fullscreenenter"",""0"",""2814""
","
","581","","","","","","","","49","0,1,0","1","highway","62","probe-83","0.134826994790112","0.6992706713712677","0.10447368941974114","0","","","","","","","",""
"","html-keyboard-response","233","986328","0.0-124.0-1.0","""event"",""trial"",""time""
""fullscreenenter"",""0"",""2814""
","
","
","""event"",""trial"",""time""
""fullscreenenter"",""0"",""2814""
","
","null","<p></p>","null","","","","","","","","","","","","","","","","","","","","","","",""
"","do_trial","234","992385","0.0-125.0-0.0","""event"",""trial"",""time""
""fullscreenenter"",""0"",""2814""
","
","
","""event"",""trial"",""time""
""fullscreenenter"",""0"",""2814""
","
","null","","","","","","","","null","0,1,0","1","highway","63","probe-64","0.2670124974711469","0.7480795522908156","0.10579535133180622","","","","","","","","",""
"","html-keyboard-response","235","993389","0.0-125.0-1.0","""event"",""trial"",""time""
""fullscreenenter"",""0"",""2814""
","
","
","""event"",""trial"",""time""
""fullscreenenter"",""0"",""2814""
","
","null","<p></p>","null","","","","","","","","","","","","","","","","","","","","","","",""
"","do_trial","236","998407","0.0-126.0-0.0","""event"",""trial"",""time""
""fullscreenenter"",""0"",""2814""
","
","
","""event"",""trial"",""time""
""fullscreenenter"",""0"",""2814""
","
","470.89999997615814","","","","","","","","49","1,1,0","1","highway","64","probe-117","0.3610636643427951","0.7192539817866223","0.10837254052893747","1","","","","","","","",""
"","html-keyboard-response","237","999412","0.0-126.0-1.0","""event"",""trial"",""time""
""fullscreenenter"",""0"",""2814""
","
","
","""event"",""trial"",""time""
""fullscreenenter"",""0"",""2814""
","
","null","<p></p>","null","","","","","","","","","","","","","","","","","","","","","","",""
"","do_trial","238","1004548","0.0-127.0-0.0","""event"",""trial"",""time""
""fullscreenenter"",""0"",""2814""
","
","
","""event"",""trial"",""time""
""fullscreenenter"",""0"",""2814""
","
","584.9000000357628","","","","","","","","49","1,0,0","1","highway","65","probe-181","0.36885136779449346","0.49926767000092137","0.07966564677776218","1","","","","","","","",""
"","html-keyboard-response","239","1005553","0.0-127.0-1.0","""event"",""trial"",""time""
""fullscreenenter"",""0"",""2814""
","
","
","""event"",""trial"",""time""
""fullscreenenter"",""0"",""2814""
","
","null","<p></p>","null","","","","","","","","","","","","","","","","","","","","","","",""
"","do_trial","240","1010589","0.0-128.0-0.0","""event"",""trial"",""time""
""fullscreenenter"",""0"",""2814""
","
","
","""event"",""trial"",""time""
""fullscreenenter"",""0"",""2814""
","
","475.60000002384186","","","","","","","","49","0,0,0","1","highway","66","probe-65","0.3830808273852382","0.44725260194490574","0.17079939364629254","0","","","","","","","",""
"","html-keyboard-response","241","1011594","0.0-128.0-1.0","""event"",""trial"",""time""
""fullscreenenter"",""0"",""2814""
","
","
","""event"",""trial"",""time""
""fullscreenenter"",""0"",""2814""
","
","null","<p></p>","null","","","","","","","","","","","","","","","","","","","","","","",""
"","do_trial","242","1016659","0.0-129.0-0.0","""event"",""trial"",""time""
""fullscreenenter"",""0"",""2814""
","
","
","""event"",""trial"",""time""
""fullscreenenter"",""0"",""2814""
","
","510.2999999523163","","","","","","","","49","0,0,0","1","highway","67","probe-34","0.25063874727305646","0.4487571784988243","0.10127273491001099","0","","","","","","","",""
"","html-keyboard-response","243","1017664","0.0-129.0-1.0","""event"",""trial"",""time""
""fullscreenenter"",""0"",""2814""
","
","
","""event"",""trial"",""time""
""fullscreenenter"",""0"",""2814""
","
","null","<p></p>","null","","","","","","","","","","","","","","","","","","","","","","",""
"","do_trial","244","1022818","0.0-130.0-0.0","""event"",""trial"",""time""
""fullscreenenter"",""0"",""2814""
","
","
","""event"",""trial"",""time""
""fullscreenenter"",""0"",""2814""
","
","603.4000000357628","","","","","","","","49","0,0,1","1","highway","68","probe-15","0.41429199131886085","0.5810005220496338","0.22974408683462832","0","","","","","","","",""
"","html-keyboard-response","245","1023823","0.0-130.0-1.0","""event"",""trial"",""time""
""fullscreenenter"",""0"",""2814""
","
","
","""event"",""trial"",""time""
""fullscreenenter"",""0"",""2814""
","
","null","<p></p>","null","","","","","","","","","","","","","","","","","","","","","","",""
"","do_trial","246","1028862","0.0-131.0-0.0","""event"",""trial"",""time""
""fullscreenenter"",""0"",""2814""
","
","
","""event"",""trial"",""time""
""fullscreenenter"",""0"",""2814""
","
","476.19999998807907","","","","","","","","49","1,0,0","1","highway","69","probe-69","0.4225048919963446","0.5884685824816037","0.18303166881887664","1","","","","","","","",""
"","html-keyboard-response","247","1029867","0.0-131.0-1.0","""event"",""trial"",""time""
""fullscreenenter"",""0"",""2814""
","
","
","""event"",""trial"",""time""
""fullscreenenter"",""0"",""2814""
","
","null","<p></p>","null","","","","","","","","","","","","","","","","","","","","","","",""
"","do_bye","248","1031378","0.0-132.0-0.0","""event"",""trial"",""time""
""fullscreenenter"",""0"",""2814""
","
","
","""event"",""trial"",""time""
""fullscreenenter"",""0"",""2814""
","
","null","","","","","","","","null","","","","","","","","","","","","","","","","",""
"","break","249","1047611","0.0-132.0-1.0","""event"",""trial"",""time""
""fullscreenenter"",""0"",""2814""
","
","
","""event"",""trial"",""time""
""fullscreenenter"",""0"",""2814""
","
","16231.699999988079","<div class='center'><p>Time to take a quick break! You have 2 minutes to rest, but you can move on sooner if you'd like.</p><p> Press the <b>space bar</b> to continue.</p></div>","32","","","","","","","","","","","","","","","","","","","","","","",""
"","do_travel","250","1056621","0.0-133.0-0.0","""event"",""trial"",""time""
""fullscreenenter"",""0"",""2814""
","
","
","""event"",""trial"",""time""
""fullscreenenter"",""0"",""2814""
","
","null","","","","","","","","null","","","","","","","","","","","","","","","","",""
"","do_welcome","251","1060633","0.0-133.0-1.0","""event"",""trial"",""time""
""fullscreenenter"",""0"",""2814""
","
","
","""event"",""trial"",""time""
""fullscreenenter"",""0"",""2814""
","
","null","","","","","","","","null","","","","","","","","","","","","","","","","",""
"","do_trial","252","1066677","0.0-134.0-0.0","""event"",""trial"",""time""
""fullscreenenter"",""0"",""2814""
","
","
","""event"",""trial"",""time""
""fullscreenenter"",""0"",""2814""
","
","1493.699999988079","","","","","","","","49","1,1,0","2","forest","70","probe-19","0.41276681706839397","1","0.0843409870330142","1","","","","","","","",""
"","html-keyboard-response","253","1067682","0.0-134.0-1.0","""event"",""trial"",""time""
""fullscreenenter"",""0"",""2814""
","
","
","""event"",""trial"",""time""
""fullscreenenter"",""0"",""2814""
","
","null","<p></p>","null","","","","","","","","","","","","","","","","","","","","","","",""
"","do_trial","254","1072762","0.0-135.0-0.0","""event"",""trial"",""time""
""fullscreenenter"",""0"",""2814""
","
","
","""event"",""trial"",""time""
""fullscreenenter"",""0"",""2814""
","
","518.6999999880791","","","","","","","","50","0,1,0","2","forest","71","probe-193","0.20649167525982062","1","0.060034497858740994","1","","","","","","","",""
"","html-keyboard-response","255","1073766","0.0-135.0-1.0","""event"",""trial"",""time""
""fullscreenenter"",""0"",""2814""
","
","
","""event"",""trial"",""time""
""fullscreenenter"",""0"",""2814""
","
","null","<p></p>","null","","","","","","","","","","","","","","","","","","","","","","",""
"","do_trial","256","1078774","0.0-136.0-0.0","""event"",""trial"",""time""
""fullscreenenter"",""0"",""2814""
","
","
","""event"",""trial"",""time""
""fullscreenenter"",""0"",""2814""
","
","449","","","","","","","","51","0,1,1","2","forest","72","probe-105","0.25153572726457235","0.8662777859341476","0.10998445958059805","1","","","","","","","",""
"","html-keyboard-response","257","1079779","0.0-136.0-1.0","""event"",""trial"",""time""
""fullscreenenter"",""0"",""2814""
","
","
","""event"",""trial"",""time""
""fullscreenenter"",""0"",""2814""
","
","null","<p></p>","null","","","","","","","","","","","","","","","","","","","","","","",""
"","do_trial","258","1084888","0.0-137.0-0.0","""event"",""trial"",""time""
""fullscreenenter"",""0"",""2814""
","
","
","""event"",""trial"",""time""
""fullscreenenter"",""0"",""2814""
","
","551.3000000119209","","","","","","","","49","1,1,0","2","forest","73","probe-225","0.20366781394527106","0.7358635167877524","0.06921413631995188","1","","","","","","","",""
"","html-keyboard-response","259","1085893","0.0-137.0-1.0","""event"",""trial"",""time""
""fullscreenenter"",""0"",""2814""
","
","
