"success","trial_type","trial_index","time_elapsed","internal_node_id","rt","stimulus","key_press","subject_id","participant_id","age","gender","prompt","response","choice_outcomes","context_n","context_img_id","trial_n","probe_img_id","pR_red","pR_white","pR_black","outcome","contextArray_ind","validImageProbes","invalidImageProbes","pRew_Red","pRew_White","pRew_Black","availableForMemProbe","choice_blocks"
"true","fullscreen","0","5254","0.0-0.0","","","","","","","","","","","","","","","","","","","","","","","","","",""
"","pavlovia","1","5258","0.0-1.0","","","","","","","","","","","","","","","","","","","","","","","","","",""
"","instruc1","2","61380","0.0-2.0","null","run_exp/static/audio/clip_1_welcome.m4a","null","57","65","9","Female","<div class='center'><p>Welcome! This is the first part of the experiment. It will last ~30 minutes. In this experiment, you are the head captain of a pirate ship traveling around the world to different islands. You will play a few different games during this experiment. Here is an overview of these games:</p><br><p>Part 1 (today)</p><p>1. Instructions, practice game, and quiz</p><p>2. Pick a pirate game on 6 different islands</p><br><p>Part 2 (1 day later)</p><p>3. Pick a pirate game and memory game</p><p>4. Where did I see this ship? game</p><p>5. Which pirate was the best? game</p><br><p>Part 3 (1 week later)</p><p>6. Alien space mining game</p><p>7. Memory game</p></div>","","","","","","","","","","","","","","","","","",""
"","html-keyboard-response","3","62240","0.0-3.0","858.6000000014901","<div class='center'><p>Welcome! This is the first part of the experiment. It will last ~30 minutes. In this experiment, you are the head captain of a pirate ship traveling around the world to different islands. You will play a few different games during this experiment. Here is an overview of these games:</p><br><p>Part 1 (today)</p><p>1. Instructions, practice game, and quiz</p><p>2. Pick a pirate game on 6 different islands</p><br><p>Part 2 (1 day later)</p><p>3. Pick a pirate game and memory game</p><p>4. Where did I see this ship? game</p><p>5. Which pirate was the best? game</p><br><p>Part 3 (1 week later)</p><p>6. Alien space mining game</p><p>7. Memory game</p><p><b>[Press the space bar to continue]</b></p></div>","32","","","","","","","","","","","","","","","","","","","","","","",""
"","instruc2","4","70233","0.0-4.0","null","run_exp/static/audio/clip_2_different_places.m4a","null","","","","","<div class='center'><p>Today, you’ll visit these 6 islands on your journey. You'll be able to see these islands from your ship.</p><p><img src='run_exp/static/images/contexts/all_contexts.png' height='500'></p></div>","","","","","","","","","","","","","","","","","",""
"","html-keyboard-response","5","71088","0.0-5.0","853.6999999955297","<div class='center'><p>Today, you’ll visit these 6 islands on your journey. You'll be able to see these islands from your ship.</p><p><img src='run_exp/static/images/contexts/all_contexts.png' height='500'></p><p><b>[Press the space bar to continue]</b></p></div>","32","","","","","","","","","","","","","","","","","","","","","","",""
"","instruc3","6","83651","0.0-6.0","null","run_exp/static/audio/clip_3_goal_of_game_1.m4a","null","","","","","<div class='center'><p> The pirates on your ship will rob other ships as they leave the island</p> These ships have just sold their things to people on the island, so they will be filled with lots and lots of gold.</p><p><img src='run_exp/static/images/tutorial/ship_center.png' height='400'></p></div>","","","","","","","","","","","","","","","","","",""
"","html-keyboard-response","7","84770","0.0-7.0","1117.7000000029802","<div class='center'><p> The pirates on your ship will rob other ships as they leave the island</p> These ships have just sold their things to people on the island, so they will be filled with lots and lots of gold.</p><p><img src='run_exp/static/images/tutorial/ship_center.png' height='400'></p><p><b>[Press the space bar to continue]</b></p></div>","32","","","","","","","","","","","","","","","","","","","","","","",""
"","instruc4","8","117998","0.0-8.0","null","run_exp/static/audio/clip_4_goal_of_game_2.m4a","null","","","","","<div class='center'><p>As the head captain, you do not have to rob any ships yourself.</p><p>Another pirate will be doing the robbing for you. </p><p>First, you will  choose a pirate to rob the next ship.</p><p><img src='run_exp/static/images/tutorial/pirates_all_crop.png' height='200'></p><p>Then, you'll see if the pirate successfully robbed the ship of their gold. If they were successful, then you'll  get a stack of gold coins like this:</p><p><img src='run_exp/static/images/tutorial/reward.png' height='150'></p><p> If they were <b>not</b> successful, then you'll get no gold coins, and you'll see a big red x like this: </p><p><img src='run_exp/static/images/tutorial/reward_no.png' height='150'></p><p> How much bonus money you make is based on how many gold coins you collect.</p><div>","","","","","","","","","","","","","","","","","",""
"","html-keyboard-response","9","118600","0.0-9.0","600","<div class='center'><p>As the head captain, you do not have to rob any ships yourself.</p><p>Another pirate will be doing the robbing for you. </p><p>First, you will  choose a pirate to rob the next ship.</p><p><img src='run_exp/static/images/tutorial/pirates_all_crop.png' height='200'></p><p>Then, you'll see if the pirate successfully robbed the ship of their gold. If they were successful, then you'll  get a stack of gold coins like this:</p><p><img src='run_exp/static/images/tutorial/reward.png' height='150'></p><p> If they were <b>not</b> successful, then you'll get no gold coins, and you'll see a big red x like this: </p><p><img src='run_exp/static/images/tutorial/reward_no.png' height='150'></p><p> How much bonus money you make is based on how many gold coins you collect.</p<p><b>[Press the space bar to continue]</b></p></div>","32","","","","","","","","","","","","","","","","","","","","","","",""
"","instruc5","10","139023","0.0-10.0","20422.19999999553","run_exp/static/audio/clip_5_probabilistic.m4a","49","","","","","<div class='center'><p>Even the most skilled pirate can not rob EVERY ship.</p><p> Some ships will have very strong protections against pirate attacks.</p><p> Blue beard, here, is very, very good at robbing ships, but he won't be successful every time he tries to rob one.</p><p> You can press the <b>‘1’</b> key on the keyboard to choose him.</p><p> Try choosing him 10 times to see how often he succeeds at robbing a ship. </p><p><img src='run_exp/static/images/tutorial/blue.png' height='500'></p></div>","","","","","","","","","","","","","","","","","",""
"","html-keyboard-response","11","140526","0.0-11.0","null","<div class='center'><p><img src='run_exp/static/images/tutorial/blue_win.png' height='500'></p></div>","null","","","","","","","","","","","","","","","","","","","","","","",""
"","html-keyboard-response","12","142026","0.0-12.0","1499.1000000014901","<div class='center'><img src='run_exp/static/images/tutorial/blue.png' height='500'></p></div>","49","","","","","","","","","","","","","","","","","","","","","","",""
"","html-keyboard-response","13","143529","0.0-13.0","null","<div class='center'><p><img src='run_exp/static/images/tutorial/blue_win.png' height='500'></p></div>","null","","","","","","","","","","","","","","","","","","","","","","",""
"","html-keyboard-response","14","144429","0.0-14.0","898.5999999940395","<div class='center'><img src='run_exp/static/images/tutorial/blue.png' height='500'></p></div>","49","","","","","","","","","","","","","","","","","","","","","","",""
"","html-keyboard-response","15","145934","0.0-15.0","null","<div class='center'><p><img src='run_exp/static/images/tutorial/blue_win.png' height='500'></p></div>","null","","","","","","","","","","","","","","","","","","","","","","",""
"","html-keyboard-response","16","146759","0.0-16.0","824.8999999985099","<div class='center'><img src='run_exp/static/images/tutorial/blue.png' height='500'></p></div>","49","","","","","","","","","","","","","","","","","","","","","","",""
"","html-keyboard-response","17","148265","0.0-17.0","null","<div class='center'><p><img src='run_exp/static/images/tutorial/blue_no_win.png' height='500'></p></div>","null","","","","","","","","","","","","","","","","","","","","","","",""
"","html-keyboard-response","18","148912","0.0-18.0","645.6999999955297","<div class='center'><img src='run_exp/static/images/tutorial/blue.png' height='500'></p></div>","49","","","","","","","","","","","","","","","","","","","","","","",""
"","html-keyboard-response","19","150413","0.0-19.0","null","<div class='center'><p><img src='run_exp/static/images/tutorial/blue_win.png' height='500'></p></div>","null","","","","","","","","","","","","","","","","","","","","","","",""
"","html-keyboard-response","20","151125","0.0-20.0","711","<div class='center'><img src='run_exp/static/images/tutorial/blue.png' height='500'></p></div>","49","","","","","","","","","","","","","","","","","","","","","","",""
"","html-keyboard-response","21","152629","0.0-21.0","null","<div class='center'><p><img src='run_exp/static/images/tutorial/blue_win.png' height='500'></p></div>","null","","","","","","","","","","","","","","","","","","","","","","",""
"","html-keyboard-response","22","153214","0.0-22.0","583.8000000044703","<div class='center'><img src='run_exp/static/images/tutorial/blue.png' height='500'></p></div>","49","","","","","","","","","","","","","","","","","","","","","","",""
"","html-keyboard-response","23","154719","0.0-23.0","null","<div class='center'><p><img src='run_exp/static/images/tutorial/blue_win.png' height='500'></p></div>","null","","","","","","","","","","","","","","","","","","","","","","",""
"","html-keyboard-response","24","155229","0.0-24.0","509.19999999552965","<div class='center'><img src='run_exp/static/images/tutorial/blue.png' height='500'></p></div>","49","","","","","","","","","","","","","","","","","","","","","","",""
"","html-keyboard-response","25","156730","0.0-25.0","null","<div class='center'><p><img src='run_exp/static/images/tutorial/blue_no_win.png' height='500'></p></div>","null","","","","","","","","","","","","","","","","","","","","","","",""
"","html-keyboard-response","26","157212","0.0-26.0","481.3999999985099","<div class='center'><img src='run_exp/static/images/tutorial/blue.png' height='500'></p></div>","49","","","","","","","","","","","","","","","","","","","","","","",""
"","html-keyboard-response","27","158713","0.0-27.0","null","<div class='center'><p><img src='run_exp/static/images/tutorial/blue_win.png' height='500'></p></div>","null","","","","","","","","","","","","","","","","","","","","","","",""
"","html-keyboard-response","28","159084","0.0-28.0","370.09999999403954","<div class='center'><img src='run_exp/static/images/tutorial/blue.png' height='500'></p></div>","49","","","","","","","","","","","","","","","","","","","","","","",""
"","html-keyboard-response","29","160590","0.0-29.0","null","<div class='center'><p><img src='run_exp/static/images/tutorial/blue_win.png' height='500'></p></div>","null","","","","","","","","","","","","","","","","","","","","","","",""
"","instruc6","30","167258","0.0-30.0","null","run_exp/static/audio/clip_6_blue_beard_outcome.m4a","null","","","","","<div class='center'><p> See, he succeeded in robbing the ships most of the time but not every time. </p></div>","","","","","","","","","","","","","","","","","",""
"","html-keyboard-response","31","168877","0.0-31.0","1617.5","<div class='center'><p> See, he succeeded in robbing the ships most of the time but not every time. </p><p><b>[Press the space bar to continue]</b></p></div>","32","","","","","","","","","","","","","","","","","","","","","","",""
"","audio-keyboard-response","32","189801","0.0-32.0","20923.39999999851","run_exp/static/audio/clip_7_pick_pirate.m4a","49","","","","","","","","","","","","","","","","","","","","","","",""
"","audio-keyboard-response","33","197107","0.0-33.0-0.0","7304.39999999851","run_exp/static/audio/clip_8_chosen_pirate_win.m4a","32","","","","","","","","","","","","","","","","","","","","","","",""
"","audio-keyboard-response","34","198039","0.0-33.0-1.0","931.2000000029802","run_exp/static/audio/clip_9_pick_a_pirate_again.m4a","50","","","","","","","","","","","","","","","","","","","","","","",""
"","audio-keyboard-response","35","202826","0.0-34.0-0.0","4784.60000000149","run_exp/static/audio/clip_10_chosen_pirate_loss.m4a","32","","","","","","","","","","","","","","","","","","","","","","",""
"","instruc9","36","209968","0.0-35.0-0.0","null","run_exp/static/audio/clip_11_time_out.m4a","null","","","","","<div class='center'><p>If you don’t make your choice fast enough, you’ll have to wait a few seconds before you can make another one. </p><p><img src='run_exp/static/images/miscellaneous/hurry_up.png' height='500'></p></div>","","","","","","","","","","","","","","","","","",""
"","html-keyboard-response","37","210753","0.0-35.0-1.0","784.5999999940395","<div class='center'><p>If you don’t make your choice fast enough, you’ll have to wait a few seconds before you can make another one. </p><p><img src='run_exp/static/images/miscellaneous/hurry_up.png' height='500'></p><p><b>[Press the space bar to continue]</b></p></div>","32","","","","","","","","","","","","","","","","","","","","","","",""
"","instruc10","38","259376","0.0-35.0-2.0","null","run_exp/static/audio/clip_12_probe.m4a","null","","","","","<div class='center'><p>Once you've choose a pirate, you’ll be shown the ship they are robbing.</p><p>You will never rob the same ship twice. After all, ships that have already been robbed won’t have gold on them. </p><p>Ships can be told apart from one another by the image on them. See, this one has a travel mug on it. </p><p> You’ll have to remember which island you saw each ship on.You will win more bonus money if you remember correctly! To help you remember, you can imagine a story. For example, here, you could imagine a mug full of water in the desert. Or, as another example, if on the forest island, your pirate robbed a ship with an apple on it, you could imagine an apple falling from a tree in the forest. </p><p><img src='run_exp/static/images/tutorial/example_probe.png' height='500'></p></div>","","","","","","","","","","","","","","","","","",""
"","html-keyboard-response","39","259922","0.0-35.0-3.0","544.5","<div class='center'><p>Once you've choose a pirate, you’ll be shown the ship they are robbing.</p><p>You will never rob the same ship twice. After all, ships that have already been robbed won’t have gold on them. </p><p>Ships can be told apart from one another by the image on them. See, this one has a travel mug on it. </p><p> You’ll have to remember which island you saw each ship on.You will win more bonus money if you remember correctly! To help you remember, you can imagine a story. For example, here, you could imagine a mug full of water in the desert. Or, as another example, if on the forest island, your pirate robbed a ship with an apple on it, you could imagine an apple falling from a tree in the forest. </p><p><img src='run_exp/static/images/tutorial/example_probe.png' height='500'></p><p><b>[Press the space bar to continue]</b></p></div>","32","","","","","","","","","","","","","","","","","","","","","","",""
"","instruc11","40","280783","0.0-35.0-4.0","null","run_exp/static/audio/clip_13_changepoint.m4a","null","","","","","<div class='center'><p>How successful a pirate is at robbing ships will depend on the island you’re on.</p><p> A pirate may have visited this island many times before and gained a lot of practice robbing ships there.</p><p>So, they’re more likely to be successful than a pirate who has never visited the island before.</p></div>","","","","","","","","","","","","","","","","","",""
"","html-keyboard-response","41","281300","0.0-35.0-5.0","516.1999999955297","<div class='center'><p>How successful a pirate is at robbing ships will depend on the island you’re on.</p><p> A pirate may have visited this island many times before and gained a lot of practice robbing ships there.</p><p>So, they’re more likely to be successful than a pirate who has never visited the island before.</p><p><b>[Press the space bar to continue]</b></p></div>","32","","","","","","","","","","","","","","","","","","","","","","",""
"","instruc12","42","309294","0.0-35.0-6.0","null","run_exp/static/audio/clip_14_drift.m4a","null","","","","","<div class='center'><p>How successful a pirate is at robbing ships can also change over the time spent on the island. </p><p> Ships may hear from islanders about the pirates coming and will improve their protections against the attack. This may make it harder to rob them.</p><p> Ships may also become lazy and weaken the strength of their protections. This may make it easier to rob them.</p><br><p>Things are always changing on the high seas! So, try your best to pay attention!</p><p><img src='run_exp/static/images/tutorial/contingency.png' height='500'></p></div>","","","","","","","","","","","","","","","","","",""
"","html-keyboard-response","43","310010","0.0-35.0-7.0","714.6000000014901","<div class='center'><p>How successful a pirate is at robbing ships can also change over the time spent on the island. </p><p> Ships may hear from islanders about the pirates coming and will improve their protections against the attack. This may make it harder to rob them.</p><p> Ships may also become lazy and weaken the strength of their protections. This may make it easier to rob them.</p><br><p>Things are always changing on the high seas! So, try your best to pay attention!</p><p><img src='run_exp/static/images/tutorial/contingency.png' height='500'></p><p><b>[Press the space bar to continue]</b></p></div>","32","","","","","","","","","","","","","","","","","","","","","","",""
"","instruc13","44","354667","0.0-35.0-8.0","null","run_exp/static/audio/clip_15_summary.m4a","null","","","","","<div class='center'><p>Let's go over the instructions quickly again. You have two important things to do: </p><b><p> 1. Pick the pirate who is the best at robbing ships on the current island. This way you'll collect more gold coins!</p></b><b><p> 2. Remember on which island a ship was robbed.</p> </b><p>The amount of bonus money you can win depends on both.</p><p><br><p>Let’s try a practice game. The game will start by showing you the pirates. First, pick a pirate using the <b> 1, 2, 3 </b> keys on your keyboard. When you are shown a ship, try to remember which island you’re on by making up a story.</p><p>This is just a practice game, so you’re not playing for money. </p><p> Good luck!</p></div>","","","","","","","","","","","","","","","","","",""
"","html-keyboard-response","45","354938","0.0-35.0-9.0","270.3999999985099","<div class='center'><p>Let's go over the instructions quickly again. You have two important things to do: </p><b><p> 1. Pick the pirate who is the best at robbing ships on the current island. This way you'll collect more gold coins!</p></b><b><p> 2. Remember on which island a ship was robbed.</p> </b><p>The amount of bonus money you can win depends on both.</p><p><br><p>Let’s try a practice game. The game will start by showing you the pirates. First, pick a pirate using the <b> 1, 2, 3 </b> keys on your keyboard. When you are shown a ship, try to remember which island you’re on by making up a story.</p><p>This is just a practice game, so you’re not playing for money. </p><p> Good luck!</p><p><b>[Press the space bar to continue]</b></p></div>","32","","","","","","","","","","","","","","","","","","","","","","",""
"","do_welcome","46","356442","0.0-35.0-10.0","null","","","","","","","","null","","","","","","","","","","","","","","","","",""
"","do_trial","47","362569","0.0-35.0-11.0","1618.4000000059605","","","","","","","","49","1,0,0","","","","","","","","","","","","","","","",""
"","html-keyboard-response","48","363576","0.0-36.0-0.0","null","<p></p>","null","","","","","","","","","","","","","","","","","","","","","","",""
"","do_trial","49","369232","0.0-36.0-1.0","1145.2000000029802","","","","","","","","51","1,1,0","","","","","","","","","","","","","","","",""
"","html-keyboard-response","50","370236","0.0-37.0-0.0","null","<p></p>","null","","","","","","","","","","","","","","","","","","","","","","",""
"","do_trial","51","375177","0.0-37.0-1.0","430.79999999701977","","","","","","","","50","1,0,1","","","","","","","","","","","","","","","",""
"","html-keyboard-response","52","376183","0.0-38.0-0.0","null","<p></p>","null","","","","","","","","","","","","","","","","","","","","","","",""
"","do_trial","53","381861","0.0-38.0-1.0","1167","","","","","","","","49","0,1,0","","","","","","","","","","","","","","","",""
"","html-keyboard-response","54","382865","0.0-39.0-0.0","null","<p></p>","null","","","","","","","","","","","","","","","","","","","","","","",""
"","do_trial","55","388503","0.0-39.0-1.0","1130.1999999955297","","","","","","","","50","1,0,0","","","","","","","","","","","","","","","",""
"","do_bye","56","390013","0.0-40.0-0.0","null","","","","","","","","null","","","","","","","","","","","","","","","","",""
"","do_travel","57","396019","0.0-40.0-1.0","null","","","","","","","","null","","","","","","","","","","","","","","","","",""
"","do_welcome","58","397529","0.0-40.0-2.0","null","","","","","","","","null","","","","","","","","","","","","","","","","",""
"","do_trial","59","403436","0.0-40.0-3.0","1398.6000000014901","","","","","","","","49","1,0,0","","","","","","","","","","","","","","","",""
"","html-keyboard-response","60","404442","0.0-41.0-0.0","null","<p></p>","null","","","","","","","","","","","","","","","","","","","","","","",""
"","do_trial","61","409425","0.0-41.0-1.0","476.30000000447035","","","","","","","","50","1,0,1","","","","","","","","","","","","","","","",""
"","html-keyboard-response","62","410429","0.0-42.0-0.0","null","<p></p>","null","","","","","","","","","","","","","","","","","","","","","","",""
"","do_trial","63","415403","0.0-42.0-1.0","462.79999999701977","","","","","","","","51","1,1,0","","","","","","","","","","","","","","","",""
"","html-keyboard-response","64","416409","0.0-43.0-0.0","null","<p></p>","null","","","","","","","","","","","","","","","","","","","","","","",""
"","do_trial","65","421359","0.0-43.0-1.0","439","","","","","","","","49","0,0,1","","","","","","","","","","","","","","","",""
"","html-keyboard-response","66","422361","0.0-44.0-0.0","null","<p></p>","null","","","","","","","","","","","","","","","","","","","","","","",""
"","do_trial","67","429448","0.0-44.0-1.0","2578","","","","","","","","49","1,0,1","","","","","","","","","","","","","","","",""
"","html-keyboard-response","68","430826","0.0-45.0-0.0","1377.0999999940395","<div class='center'><p><img src='run_exp/static/images/tutorial/prac_best_pirate.png'  height='500'></p></div>","49","","","","","","","","","","","","","","","","","","","","","","",""
"","html-keyboard-response","69","432841","0.0-46.0-0.0","2013.6000000014901","<div class='center'><p>That's correct! Red beard was the best.</p><p><b>[Press the space bar to continue]</b></p></div>","32","","","","","","","","","","","","","","","","","","","","","","",""
"","html-keyboard-response","70","436424","0.0-46.0-1.0","3582.2000000029802","<div class='center'><p><img src='run_exp/static/images/tutorial/prac_source.png'  height='500'></p></div>","50","","","","","","","","","","","","","","","","","","","","","","",""
"","html-keyboard-response","71","438057","0.0-47.0-0.0","1632.8999999985099","<div class='center'><p>That's correct! You saw this ship on the cavern island.</p><p><b>[Press the space bar to continue]</b></p></div>","32","","","","","","","","","","","","","","","","","","","","","","",""
"","quiz_beginning","72","451516","0.0-47.0-1.0","null","run_exp/static/audio/clip_16_quiz_intro.m4a","null","","","","","<div class='center'><p>Good job on the practice game! Now, you will be asked some true or false questions to make sure you really understand the rules of the game.</p><p> Press <b>'1'</b> on the keyboard for true and press <b>'2'</b> for false.</p></div>","","","","","","","","","","","","","","","","","",""
"","audio-keyboard-response","73","457358","0.0-47.0-2.0","5841.60000000149","run_exp/static/audio/clip_17_q1.m4a","49","","","","","","","","","","","","","","","","","","","","","","",""
"","q1_err","74","464977","0.0-48.0-0.0","null","run_exp/static/audio/clip_19_wrong_q1.m4a","null","","","","","<div class='center'><p>That’s incorrect! You win bonus money by collecting as many gold coins as possible!</p></div>","","","","","","","","","","","","","","","","","",""
"","html-keyboard-response","75","466309","0.0-48.0-1.0","1331.5","<div class='center'><p>That’s incorrect! You win bonus money by collecting as many gold coins as possible!</p><p><b>[Press the space bar to continue]</b></p></div>","32","","","","","","","","","","","","","","","","","","","","","","",""
"","audio-keyboard-response","76","472612","0.0-48.0-2.0","6302.10000000149","run_exp/static/audio/clip_20_q2.m4a","50","","","","","","","","","","","","","","","","","","","","","","",""
"","correct","77","475580","0.0-49.0-0.0","null","run_exp/static/audio/clip_18_correct.m4a","null","","","","","<div class='center'><p>That's correct!</p></div>","","","","","","","","","","","","","","","","","",""
"","html-keyboard-response","78","476831","0.0-49.0-1.0","1250.6000000014901","<div class='center'><p>That's correct!</p><p><b>[Press the space bar to continue]</b></p></div>","32","","","","","","","","","","","","","","","","","","","","","","",""
"","audio-keyboard-response","79","485686","0.0-49.0-2.0","8854.19999999553","run_exp/static/audio/clip_22_q3.m4a","50","","","","","","","","","","","","","","","","","","","","","","",""
"","correct","80","488636","0.0-50.0-0.0","null","run_exp/static/audio/clip_18_correct.m4a","null","","","","","<div class='center'><p>That's correct!</p></div>","","","","","","","","","","","","","","","","","",""
"","html-keyboard-response","81","488762","0.0-50.0-1.0","125.60000000149012","<div class='center'><p>That's correct!</p><p><b>[Press the space bar to continue]</b></p></div>","32","","","","","","","","","","","","","","","","","","","","","","",""
"","audio-keyboard-response","82","494676","0.0-50.0-2.0","5913.4000000059605","run_exp/static/audio/clip_24_q4.m4a","49","","","","","","","","","","","","","","","","","","","","","","",""
"","correct","83","497638","0.0-51.0-0.0","null","run_exp/static/audio/clip_18_correct.m4a","null","","","","","<div class='center'><p>That's correct!</p></div>","","","","","","","","","","","","","","","","","",""
"","html-keyboard-response","84","498457","0.0-51.0-1.0","817.1000000014901","<div class='center'><p>That's correct!</p><p><b>[Press the space bar to continue]</b></p></div>","32","","","","","","","","","","","","","","","","","","","","","","",""
"","q_all_err","85","505980","0.0-52.0-0.0","null","run_exp/static/audio/clip_26_quiz_redo.m4a","null","","","","","<div class='center'><p>Oops, you missed some questions. Now that you’ve heard the correct answers. Try the quiz again! </p></div>","","","","","","","","","","","","","","","","","",""
"","html-keyboard-response","86","506512","0.0-52.0-1.0","531.6999999955297","<div class='center'><p>Oops, you missed some questions. Now that you’ve heard the correct answers. Try the quiz again! </p><p><b>[Press the space bar to continue]</b></p></div>","32","","","","","","","","","","","","","","","","","","","","","","",""
"","audio-keyboard-response","87","512338","0.0-52.0-2.0","5824.79999999702","run_exp/static/audio/clip_17_q1.m4a","50","","","","","","","","","","","","","","","","","","","","","","",""
"","correct","88","515302","0.0-53.0-0.0","null","run_exp/static/audio/clip_18_correct.m4a","null","","","","","<div class='center'><p>That's correct!</p></div>","","","","","","","","","","","","","","","","","",""
"","html-keyboard-response","89","516347","0.0-53.0-1.0","1044.2000000029802","<div class='center'><p>That's correct!</p><p><b>[Press the space bar to continue]</b></p></div>","32","","","","","","","","","","","","","","","","","","","","","","",""
"","audio-keyboard-response","90","522156","0.0-53.0-2.0","5808.0999999940395","run_exp/static/audio/clip_20_q2.m4a","50","","","","","","","","","","","","","","","","","","","","","","",""
"","correct","91","525115","0.0-54.0-0.0","null","run_exp/static/audio/clip_18_correct.m4a","null","","","","","<div class='center'><p>That's correct!</p></div>","","","","","","","","","","","","","","","","","",""
"","html-keyboard-response","92","525573","0.0-54.0-1.0","457.29999999701977","<div class='center'><p>That's correct!</p><p><b>[Press the space bar to continue]</b></p></div>","32","","","","","","","","","","","","","","","","","","","","","","",""
"","audio-keyboard-response","93","534239","0.0-54.0-2.0","8665.5","run_exp/static/audio/clip_22_q3.m4a","50","","","","","","","","","","","","","","","","","","","","","","",""
"","correct","94","537190","0.0-55.0-0.0","null","run_exp/static/audio/clip_18_correct.m4a","null","","","","","<div class='center'><p>That's correct!</p></div>","","","","","","","","","","","","","","","","","",""
"","html-keyboard-response","95","538923","0.0-55.0-1.0","1732.2999999970198","<div class='center'><p>That's correct!</p><p><b>[Press the space bar to continue]</b></p></div>","32","","","","","","","","","","","","","","","","","","","","","","",""
"","audio-keyboard-response","96","547334","0.0-55.0-2.0","8410.09999999404","run_exp/static/audio/clip_24_q4.m4a","49","","","","","","","","","","","","","","","","","","","","","","",""
"","correct","97","550331","0.0-56.0-0.0","null","run_exp/static/audio/clip_18_correct.m4a","null","","","","","<div class='center'><p>That's correct!</p></div>","","","","","","","","","","","","","","","","","",""
"","html-keyboard-response","98","551094","0.0-56.0-1.0","761.5","<div class='center'><p>That's correct!</p><p><b>[Press the space bar to continue]</b></p></div>","32","","","","","","","","","","","","","","","","","","","","","","",""
"","q_all_corr","99","558075","0.0-57.0-0.0","null","run_exp/static/audio/clip_27_quiz_all_correct.m4a","null","","","","","<div class='center'><p>Good job! You’re now ready to move on to the real game!</p></div>","","","","","","","","","","","","","","","","","",""
"","html-keyboard-response","100","558688","0.0-57.0-1.0","611.8000000044703","<div class='center'><p>Good job! You’re now ready to move on to the real game!</p><p><b>[Press the space bar to continue]</b></p></div>","32","","","","","","","","","","","","","","","","","","","","","","",""
"","do_welcome","101","560193","0.0-58.0-0.0","null","","","","","","","","null","","","","","","","","","","","","","","","","",""
"","do_trial","102","566066","0.0-59.0-0.0","1328.7999999970198","","","","","","","","49","1,0,0","0","city","0","probe-158","0.6","0.3","0.1","1","","","","","","","",""
"","html-keyboard-response","103","567073","0.0-59.0-1.0","null","<p></p>","null","","","","","","","","","","","","","","","","","","","","","","",""
"","do_trial","104","572084","0.0-60.0-0.0","470.8999999985099","","","","","","","","50","1,0,1","0","city","1","probe-93","0.4697530847375666","0.34042283793020267","0.16908740393789246","0","","","","","","","",""
"","html-keyboard-response","105","573086","0.0-60.0-1.0","null","<p></p>","null","","","","","","","","","","","","","","","","","","","","","","",""
"","do_trial","106","578051","0.0-61.0-0.0","423.30000000447035","","","","","","","","51","1,1,0","0","city","2","probe-204","0.48681998599764387","0.44296454544767416","0.05811617959239511","0","","","","","","","",""
"","html-keyboard-response","107","579057","0.0-61.0-1.0","null","<p></p>","null","","","","","","","","","","","","","","","","","","","","","","",""
"","do_trial","108","584277","0.0-62.0-0.0","675.1999999955297","","","","","","","","49","1,0,0","0","city","3","probe-07","0.5198791544566208","0.3178830450349986","0.1571914657237863","1","","","","","","","",""
"","html-keyboard-response","109","585283","0.0-62.0-1.0","null","<p></p>","null","","","","","","","","","","","","","","","","","","","","","","",""
"","do_trial","110","590250","0.0-63.0-0.0","422","","","","","","","","51","1,0,0","0","city","4","probe-84","0.7533458048348913","0.24348473768067286","0.19272429354391563","0","","","","","","","",""
"","html-keyboard-response","111","591254","0.0-63.0-1.0","null","<p></p>","null","","","","","","","","","","","","","","","","","","","","","","",""
"","do_trial","112","596459","0.0-64.0-0.0","660.1999999955297","","","","","","","","49","0,0,0","0","city","5","probe-216","0.6997159769637651","0.2668830206297104","0.1204648842396189","0","","","","","","","",""
"","html-keyboard-response","113","597466","0.0-64.0-1.0","null","<p></p>","null","","","","","","","","","","","","","","","","","","","","","","",""
"","do_trial","114","602483","0.0-65.0-0.0","477.5","","","","","","","","50","1,0,0","0","city","6","probe-162","0.7863383291153114","0.25890531957569946","0.07438385263552931","0","","","","","","","",""
"","html-keyboard-response","115","603489","0.0-65.0-1.0","null","<p></p>","null","","","","","","","","","","","","","","","","","","","","","","",""
"","do_trial","116","608589","0.0-66.0-0.0","559.5","","","","","","","","49","1,1,0","0","city","7","probe-111","0.8133754419587765","0.34467068080632624","0.08612908027807827","1","","","","","","","",""
"","html-keyboard-response","117","609595","0.0-66.0-1.0","null","<p></p>","null","","","","","","","","","","","","","","","","","","","","","","",""
"","do_trial","118","616697","0.0-67.0-0.0","2556.8000000044703","","","","","","","","51","0,0,0","0","city","8","probe-222","0.6582325826411842","0.28192945633895716","0.1498901860284611","0","","","","","","","",""
"","html-keyboard-response","119","617702","0.0-67.0-1.0","null","<p></p>","null","","","","","","","","","","","","","","","","","","","","","","",""
"","do_trial","120","622916","0.0-68.0-0.0","669.3999999985099","","","","","","","","50","0,0,1","0","city","9","probe-82","0.49800019277219143","0.27087058223807453","0.20474392112593187","0","","","","","","","",""
"","html-keyboard-response","121","623917","0.0-68.0-1.0","null","<p></p>","null","","","","","","","","","","","","","","","","","","","","","","",""
"","do_trial","122","629028","0.0-69.0-0.0","565.6000000014901","","","","","","","","49","1,0,0","0","city","10","probe-58","0.5595406670178358","0.24016586288447528","0.1406562165812373","1","","","","","","","",""
"","html-keyboard-response","123","630032","0.0-69.0-1.0","null","<p></p>","null","","","","","","","","","","","","","","","","","","","","","","",""
"","do_trial","124","636205","0.0-70.0-0.0","1628.6000000014901","","","","","","","","49","1,1,1","0","city","11","probe-68","0.6547969669933384","0.17681879163884692","0.22622117643516368","1","","","","","","","",""
"","html-keyboard-response","125","637212","0.0-70.0-1.0","null","<p></p>","null","","","","","","","","","","","","","","","","","","","","","","",""
"","do_trial","126","642372","0.0-71.0-0.0","616.1000000014901","","","","","","","","51","1,0,0","0","city","12","probe-148","0.4952003473853873","0.21423612585937474","0.16763296224158417","0","","","","","","","",""
"","html-keyboard-response","127","643378","0.0-71.0-1.0","null","<p></p>","null","","","","","","","","","","","","","","","","","","","","","","",""
"","do_trial","128","648594","0.0-72.0-0.0","671.4000000059605","","","","","","","","50","1,0,0","0","city","13","probe-169","0.4965448111573992","0.20422067223779622","0.11567276789583357","0","","","","","","","",""
"","html-keyboard-response","129","649600","0.0-72.0-1.0","null","<p></p>","null","","","","","","","","","","","","","","","","","","","","","","",""
"","do_trial","130","654780","0.0-73.0-0.0","638.5","","","","","","","","49","0,1,0","0","city","14","probe-91","0.5920605329644062","0.32540936932059467","0.0838519004383135","0","","","","","","","",""
"","html-keyboard-response","131","655785","0.0-73.0-1.0","null","<p></p>","null","","","","","","","","","","","","","","","","","","","","","","",""
"","do_trial","132","660725","0.0-74.0-0.0","402.80000000447035","","","","","","","","49","1,0,0","0","city","15","probe-153","0.5663943812601335","0.19910692982321337","0.16354788391231076","1","","","","","","","",""
"","html-keyboard-response","133","661732","0.0-74.0-1.0","null","<p></p>","null","","","","","","","","","","","","","","","","","","","","","","",""
"","do_trial","134","668692","0.0-75.0-0.0","2422.9000000059605","","","","","","","","51","0,0,0","0","city","16","probe-164","0.6944155329564232","0.15599358749709075","0.060312346226089684","0","","","","","","","",""
"","html-keyboard-response","135","669699","0.0-75.0-1.0","null","<p></p>","null","","","","","","","","","","","","","","","","","","","","","","",""
"","do_trial","136","674723","0.0-76.0-0.0","486.30000000447035","","","","","","","","50","0,0,0","0","city","17","probe-86","0.583635123984836","0.21800454942021308","0.0769342181445162","0","","","","","","","",""
"","html-keyboard-response","137","675730","0.0-76.0-1.0","null","<p></p>","null","","","","","","","","","","","","","","","","","","","","","","",""
"","do_trial","138","680850","0.0-77.0-0.0","578.6000000014901","","","","","","","","49","1,1,0","0","city","18","probe-109","0.6561889371147326","0.3930246034439884","0.11379127610601657","1","","","","","","","",""
"","html-keyboard-response","139","681856","0.0-77.0-1.0","null","<p></p>","null","","","","","","","","","","","","","","","","","","","","","","",""
"","do_trial","140","688132","0.0-78.0-0.0","1730.7000000029802","","","","","","","","49","1,0,0","0","city","19","probe-223","0.7262690386316258","0.33113392848551776","0.17481947338935971","1","","","","","","","",""
"","html-keyboard-response","141","689137","0.0-78.0-1.0","null","<p></p>","null","","","","","","","","","","","","","","","","","","","","","","",""
"","do_trial","142","695665","0.0-79.0-0.0","1987.7000000029802","","","","","","","","50","1,1,0","0","city","20","probe-120","0.4931271885217733","0.32134375380917235","0.11358094275971642","1","","","","","","","",""
"","html-keyboard-response","143","696666","0.0-79.0-1.0","null","<p></p>","null","","","","","","","","","","","","","","","","","","","","","","",""
"","do_trial","144","702793","0.0-80.0-0.0","1584.1999999955297","","","","","","","","49","0,0,0","0","city","21","probe-04","0.4429149545274618","0.3886912819585734","0.11750175172042085","0","","","","","","","",""
"","html-keyboard-response","145","703799","0.0-80.0-1.0","null","<p></p>","null","","","","","","","","","","","","","","","","","","","","","","",""
"","do_trial","146","708915","0.0-81.0-0.0","575.5","","","","","","","","50","0,0,0","0","city","22","probe-34","0.6990456353279759","0.32266545908082966","0.1248860355020062","0","","","","","","","",""
"","html-keyboard-response","147","709917","0.0-81.0-1.0","null","<p></p>","null","","","","","","","","","","","","","","","","","","","","","","",""
"","do_trial","148","715300","0.0-82.0-0.0","840.2999999970198","","","","","","","","51","1,1,0","0","city","23","probe-31","0.5962887756718402","0.29644878213979625","0.18800686830682994","0","","","","","","","",""
"","html-keyboard-response","149","716306","0.0-82.0-1.0","null","<p></p>","null","","","","","","","","","","","","","","","","","","","","","","",""
"","do_trial","150","721698","0.0-83.0-0.0","849","","","","","","","","49","1,0,0","0","city","24","probe-131","0.5882545073245907","0.25094805786480684","0.16101566826883662","1","","","","","","","",""
"","html-keyboard-response","151","722703","0.0-83.0-1.0","null","<p></p>","null","","","","","","","","","","","","","","","","","","","","","","",""
"","do_trial","152","729424","0.0-84.0-0.0","2178.1999999955297","","","","","","","","49","0,0,0","0","city","25","probe-114","0.5978226659704455","0.20656790220746404","0.07774839508935381","0","","","","","","","",""
"","html-keyboard-response","153","730430","0.0-84.0-1.0","null","<p></p>","null","","","","","","","","","","","","","","","","","","","","","","",""
"","do_trial","154","735599","0.0-85.0-0.0","628.8999999985099","","","","","","","","49","1,0,0","0","city","26","probe-39","0.5874100140689713","0.08434835996068359","0.10080849875423338","1","","","","","","","",""
"","html-keyboard-response","155","736602","0.0-85.0-1.0","null","<p></p>","null","","","","","","","","","","","","","","","","","","","","","","",""
"","do_trial","156","743238","0.0-86.0-0.0","2092.6999999955297","","","","","","","","50","1,0,0","0","city","27","probe-15","0.6030944838058585","0.29792298144936036","0.06988552219940547","0","","","","","","","",""
"","html-keyboard-response","157","744244","0.0-86.0-1.0","null","<p></p>","null","","","","","","","","","","","","","","","","","","","","","","",""
"","do_trial","158","749312","0.0-87.0-0.0","523.6000000014901","","","","","","","","51","1,0,0","0","city","28","probe-156","0.48151705052046445","0.2809324090320523","0.15463898946880722","0","","","","","","","",""
"","html-keyboard-response","159","750316","0.0-87.0-1.0","null","<p></p>","null","","","","","","","","","","","","","","","","","","","","","","",""
"","do_trial","160","755674","0.0-88.0-0.0","813.0999999940395","","","","","","","","49","1,0,1","0","city","29","probe-180","0.44800591593705413","0.4432070845964165","0.0999913855369573","1","","","","","","","",""
"","html-keyboard-response","161","756680","0.0-88.0-1.0","null","<p></p>","null","","","","","","","","","","","","","","","","","","","","","","",""
"","do_bye","162","758190","0.0-89.0-0.0","null","","","","","","","","null","","","","","","","","","","","","","","","","",""
"","do_travel","163","764193","0.0-90.0-0.0","null","","","","","","","","null","","","","","","","","","","","","","","","","",""
"","do_welcome","164","765698","0.0-90.0-1.0","null","","","","","","","","null","","","","","","","","","","","","","","","","",""
"","do_trial","165","772192","0.0-91.0-0.0","1953","","","","","","","","49","1,0,0","1","coast","30","probe-38","1","0.19237740984406018","0.062001656545218865","1","","","","","","","",""
"","html-keyboard-response","166","773198","0.0-91.0-1.0","null","<p></p>","null","","","","","","","","","","","","","","","","","","","","","","",""
"","do_trial","167","778288","0.0-92.0-0.0","546.5","","","","","","","","50","1,0,0","1","coast","31","probe-70","1","0.34991446830346157","0.1134164275754698","0","","","","","","","",""
"","html-keyboard-response","168","779294","0.0-92.0-1.0","null","<p></p>","null","","","","","","","","","","","","","","","","","","","","","","",""
"","do_trial","169","784499","0.0-93.0-0.0","661.7999999970198","","","","","","","","51","1,1,0","1","coast","32","probe-134","1","0.3568228640611209","0.18780466847325208","0","","","","","","","",""
"","html-keyboard-response","170","785505","0.0-93.0-1.0","null","<p></p>","null","","","","","","","","","","","","","","","","","","","","","","",""
"","do_trial","171","790507","0.0-94.0-0.0","459.70000000298023","","","","","","","","49","1,1,0","1","coast","33","probe-89","0.8033692825432891","0.37034934886891857","0.17220956174930602","1","","","","","","","",""
"","html-keyboard-response","172","791514","0.0-94.0-1.0","null","<p></p>","null","","","","","","","","","","","","","","","","","","","","","","",""
"","do_trial","173","797224","0.0-95.0-0.0","1168.8999999985099","","","","","","","","49","0,0,1","1","coast","34","probe-51","0.5536830994725177","0.4332762696566463","0.21826668951526657","0","","","","","","","",""
"","html-keyboard-response","174","798225","0.0-95.0-1.0","null","<p></p>","null","","","","","","","","","","","","","","","","","","","","","","",""
"","do_trial","175","803454","0.0-96.0-0.0","686.7999999970198","","","","","","","","49","1,1,0","1","coast","35","probe-65","0.5351938361507019","0.3114361719255509","0.061943686568638745","1","","","","","","","",""
"","html-keyboard-response","176","804460","0.0-96.0-1.0","null","<p></p>","null","","","","","","","","","","","","","","","","","","","","","","",""
"","do_trial","177","810515","0.0-97.0-0.0","1510.2000000029802","","","","","","","","49","1,0,0","1","coast","36","probe-226","0.5909691409333447","0.16864641658628188","0.09595031103481853","1","","","","","","","",""
"","html-keyboard-response","178","811521","0.0-97.0-1.0","null","<p></p>","null","","","","","","","","","","","","","","","","","","","","","","",""
"","do_trial","179","817482","0.0-98.0-0.0","1423.3999999985099","","","","","","","","49","0,0,0","1","coast","37","probe-30","0.59893266061206","0.24189959957260168","0.06161560165596355","0","","","","","","","",""
"","html-keyboard-response","180","818488","0.0-98.0-1.0","null","<p></p>","null","","","","","","","","","","","","","","","","","","","","","","",""
"","do_trial","181","825039","0.0-99.0-0.0","2011","","","","","","","","49","1,0,0","1","coast","38","probe-35","0.48091556515993594","0.24623573903834658","0.08112911984203286","1","","","","","","","",""
"","html-keyboard-response","182","826045","0.0-99.0-1.0","null","<p></p>","null","","","","","","","","","","","","","","","","","","","","","","",""
"","do_trial","183","832470","0.0-100.0-0.0","1881.7000000029802","","","","","","","","50","0,0,0","1","coast","39","probe-107","0.45868196343755385","0.25580232502994804","0.14501447551017652","0","","","","","","","",""
"","html-keyboard-response","184","833474","0.0-100.0-1.0","null","<p></p>","null","","","","","","","","","","","","","","","","","","","","","","",""
"","do_trial","185","838692","0.0-101.0-0.0","673.7999999970198","","","","","","","","51","1,0,0","1","coast","40","probe-215","0.41955112426712615","0.22817497450414453","0.22566668310597757","0","","","","","","","",""
"","html-keyboard-response","186","839696","0.0-101.0-1.0","null","<p></p>","null","","","","","","","","","","","","","","","","","","","","","","",""
"","do_trial","187","845282","0.0-102.0-0.0","1048","","","","","","","","49","0,1,0","1","coast","41","probe-182","0.20972542752406598","0.1768694812734851","0.16381552798727497","0","","","","","","","",""
"","html-keyboard-response","188","846286","0.0-102.0-1.0","null","<p></p>","null","","","","","","","","","","","","","","","","","","","","","","",""
"","do_trial","189","852415","0.0-103.0-0.0","1587.2999999970198","","","","","","","","49","0,0,0","1","coast","42","probe-48","0.35629762086763594","0.057641863814792756","0.2555180239996429","0","","","","","","","",""
"","html-keyboard-response","190","853419","0.0-103.0-1.0","null","<p></p>","null","","","","","","","","","","","","","","","","","","","","","","",""
"","do_trial","191","859649","0.0-104.0-0.0","1686.1999999955297","","","","","","","","49","0,0,1","1","coast","43","probe-165","0.17171110038492843","0.23656231447484274","0.40793229385231394","0","","","","","","","",""
"","html-keyboard-response","192","860655","0.0-104.0-1.0","null","<p></p>","null","","","","","","","","","","","","","","","","","","","","","","",""
"","do_trial","193","866007","0.0-105.0-0.0","809.2999999970198","","","","","","","","49","1,0,1","1","coast","44","probe-37","0.3473959515338422","0.34234414627826126","0.5742747301366822","1","","","","","","","",""
"","html-keyboard-response","194","867013","0.0-105.0-1.0","null","<p></p>","null","","","","","","","","","","","","","","","","","","","","","","",""
"","do_trial","195","873243","0.0-106.0-0.0","1684.7999999970198","","","","","","","","50","0,0,1","1","coast","45","probe-75","0.28694748509914925","0.3119166470601998","0.5599374225569559","0","","","","","","","",""
"","html-keyboard-response","196","874249","0.0-106.0-1.0","null","<p></p>","null","","","","","","","","","","","","","","","","","","","","","","",""
"","do_trial","197","879524","0.0-107.0-0.0","730.8000000044703","","","","","","","","51","0,0,0","1","coast","46","probe-45","0.3067773128553609","0.2007711876339851","0.5859895671477693","0","","","","","","","",""
"","html-keyboard-response","198","880530","0.0-107.0-1.0","null","<p></p>","null","","","","","","","","","","","","","","","","","","","","","","",""
"","do_trial","199","886445","0.0-108.0-0.0","1373.2999999970198","","","","","","","","49","0,0,0","1","coast","47","probe-99","0.2394435369079998","0.2014476296914782","0.5315922727317611","0","","","","","","","",""
"","html-keyboard-response","200","887448","0.0-108.0-1.0","null","<p></p>","null","","","","","","","","","","","","","","","","","","","","","","",""
"","do_trial","201","892409","0.0-109.0-0.0","416","","","","","","","","49","0,0,1","1","coast","48","probe-128","0.24305451303824321","0.30005344569212794","0.6373833244207606","0","","","","","","","",""
"","html-keyboard-response","202","893415","0.0-109.0-1.0","null","<p></p>","null","","","","","","","","","","","","","","","","","","","","","","",""
"","do_trial","203","898645","0.0-110.0-0.0","685.0999999940395","","","","","","","","49","0,1,1","1","coast","49","probe-206","0.24682469832657794","0.21654864167469762","0.5325465445861808","0","","","","","","","",""
"","html-keyboard-response","204","899651","0.0-110.0-1.0","null","<p></p>","null","","","","","","","","","","","","","","","","","","","","","","",""
"","do_trial","205","904741","0.0-111.0-0.0","550.4000000059605","","","","","","","","49","0,0,0","1","coast","50","probe-90","0.11175997180586672","0.20533866023015862","0.6298350105931372","0","","","","","","","",""
"","html-keyboard-response","206","905742","0.0-111.0-1.0","null","<p></p>","null","","","","","","","","","","","","","","","","","","","","","","",""
"","do_trial","207","912238","0.0-112.0-0.0","1954.7999999970198","","","","","","","","49","0,1,1","1","coast","51","probe-218","0.26569890729125617","0.1859245402695053","0.6298023486781349","0","","","","","","","",""
"","html-keyboard-response","208","913242","0.0-112.0-1.0","null","<p></p>","null","","","","","","","","","","","","","","","","","","","","","","",""
"","do_trial","209","919513","0.0-113.0-0.0","1731.4000000059605","","","","","","","","50","1,1,0","1","coast","52","probe-185","0.16728624881384807","0.2583146172328765","0.6066536061362658","1","","","","","","","",""
"","html-keyboard-response","210","920518","0.0-113.0-1.0","null","<p></p>","null","","","","","","","","","","","","","","","","","","","","","","",""
"","do_trial","211","925753","0.0-114.0-0.0","691.8999999985099","","","","","","","","51","1,0,1","1","coast","53","probe-116","0.3555003992651642","0.24948247387965652","0.6194561681951305","1","","","","","","","",""
"","html-keyboard-response","212","926760","0.0-114.0-1.0","null","<p></p>","null","","","","","","","","","","","","","","","","","","","","","","",""
"","do_trial","213","932775","0.0-115.0-0.0","1472","","","","","","","","49","0,0,0","1","coast","54","probe-125","0.27588040346888393","0.17800127888475822","0.6550749179991036","0","","","","","","","",""
"","html-keyboard-response","214","933777","0.0-115.0-1.0","null","<p></p>","null","","","","","","","","","","","","","","","","","","","","","","",""
"","do_trial","215","938708","0.0-116.0-0.0","388.19999999552965","","","","","","","","50","0,0,1","1","coast","55","probe-28","0.3881988713769959","0.15900715751389435","0.5237312281360873","0","","","","","","","",""
"","html-keyboard-response","216","939714","0.0-116.0-1.0","null","<p></p>","null","","","","","","","","","","","","","","","","","","","","","","",""
"","do_trial","217","944888","0.0-117.0-0.0","632.5999999940395","","","","","","","","51","1,0,1","1","coast","56","probe-186","0.3727031086201755","0.0739644830271008","0.5469909656565225","1","","","","","","","",""
"","html-keyboard-response","218","945893","0.0-117.0-1.0","null","<p></p>","null","","","","","","","","","","","","","","","","","","","","","","",""
"","do_trial","219","951378","0.0-118.0-0.0","942.3999999985099","","","","","","","","51","0,0,1","1","coast","57","probe-79","0.4387582388796649","0.14000570060774137","0.6585112773419225","1","","","","","","","",""
"","html-keyboard-response","220","952382","0.0-118.0-1.0","null","<p></p>","null","","","","","","","","","","","","","","","","","","","","","","",""
"","do_trial","221","958397","0.0-119.0-0.0","1474.3000000044703","","","","","","","","51","0,0,0","1","coast","58","probe-137","0.4783089769342442","0.2751380028598234","0.5543540298202689","0","","","","","","","",""
"","html-keyboard-response","222","959399","0.0-119.0-1.0","null","<p></p>","null","","","","","","","","","","","","","","","","","","","","","","",""
"","do_trial","223","964531","0.0-120.0-0.0","592.3000000044703","","","","","","","","49","0,1,1","1","coast","59","probe-83","0.3144020822515849","0.2572866877111504","0.5806493331562411","0","","","","","","","",""
"","html-keyboard-response","224","965538","0.0-120.0-1.0","null","<p></p>","null","","","","","","","","","","","","","","","","","","","","","","",""
"","do_trial","225","970246","0.0-121.0-0.0","164.09999999403954","","","","","","","","50","0,1,0","1","coast","60","probe-67","0.19378387797147448","0.2665238293837407","0.5823406006727251","1","","","","","","","",""
"","html-keyboard-response","226","971252","0.0-121.0-1.0","null","<p></p>","null","","","","","","","","","","","","","","","","","","","","","","",""
"","do_trial","227","976714","0.0-122.0-0.0","921.5","","","","","","","","51","0,0,1","1","coast","61","probe-63","0.2121305763160954","0.36120750662442364","0.4780378996604627","1","","","","","","","",""
"","html-keyboard-response","228","977720","0.0-122.0-1.0","null","<p></p>","null","","","","","","","","","","","","","","","","","","","","","","",""
"","do_trial","229","983446","0.0-123.0-0.0","1184.2999999970198","","","","","","","","49","0,0,1","1","coast","62","probe-145","0.16766129876377206","0.36110987755276724","0.46693858097491026","0","","","","","","","",""
"","html-keyboard-response","230","984447","0.0-123.0-1.0","null","<p></p>","null","","","","","","","","","","","","","","","","","","","","","","",""
"","do_trial","231","989771","0.0-124.0-0.0","778.6000000014901","","","","","","","","50","0,0,1","1","coast","63","probe-36","0.3277942247241114","0.2591265728397158","0.5074788078427461","0","","","","","","","",""
"","html-keyboard-response","232","990777","0.0-124.0-1.0","null","<p></p>","null","","","","","","","","","","","","","","","","","","","","","","",""
"","do_trial","233","995913","0.0-125.0-0.0","596.6000000014901","","","","","","","","51","0,0,1","1","coast","64","probe-208","0.3749937067008676","0.1871690185409878","0.49115178077627114","1","","","","","","","",""
"","html-keyboard-response","234","996920","0.0-125.0-1.0","null","<p></p>","null","","","","","","","","","","","","","","","","","","","","","","",""
"","do_trial","235","1002958","0.0-126.0-0.0","1493.5","","","","","","","","51","0,0,1","1","coast","65","probe-80","0.25571318541925764","0.1331718081435667","0.6228394795863358","1","","","","","","","",""
"","html-keyboard-response","236","1003964","0.0-126.0-1.0","null","<p></p>","null","","","","","","","","","","","","","","","","","","","","","","",""
"","do_trial","237","1009147","0.0-127.0-0.0","643.1999999955297","","","","","","","","51","0,0,0","1","coast","66","probe-73","0.2037791963396213","0.1764611551063664","0.5704374274333869","0","","","","","","","",""
"","html-keyboard-response","238","1010153","0.0-127.0-1.0","null","<p></p>","null","","","","","","","","","","","","","","","","","","","","","","",""
"","do_trial","239","1015296","0.0-128.0-0.0","601.7000000029802","","","","","","","","49","1,0,0","1","coast","67","probe-19","0.10650783146244289","0.0878078505902814","0.5693106945703633","1","","","","","","","",""
"","html-keyboard-response","240","1016302","0.0-128.0-1.0","null","<p></p>","null","","","","","","","","","","","","","","","","","","","","","","",""
"","do_trial","241","1022279","0.0-129.0-0.0","1438.8999999985099","","","","","","","","50","1,0,0","1","coast","68","probe-157","0.22907879574894707","0.07685543590750347","0.5208839201723469","0","","","","","","","",""
"","html-keyboard-response","242","1023285","0.0-129.0-1.0","null","<p></p>","null","","","","","","","","","","","","","","","","","","","","","","",""
"","do_trial","243","1028393","0.0-130.0-0.0","564.2000000029802","","","","","","","","51","1,0,0","1","coast","69","probe-220","0.3588697194440859","0.09918295038474619","0.5250479771150516","0","","","","","","","",""
"","html-keyboard-response","244","1029399","0.0-130.0-1.0","null","<p></p>","null","","","","","","","","","","","","","","","","","","","","","","",""
"","do_bye","245","1030904","0.0-131.0-0.0","null","","","","","","","","null","","","","","","","","","","","","","","","","",""
"","do_travel","246","1036911","0.0-132.0-0.0","null","","","","","","","","null","","","","","","","","","","","","","","","","",""
"","do_welcome","247","1038420","0.0-132.0-1.0","null","","","","","","","","null","","","","","","","","","","","","","","","","",""
"","do_trial","248","1044362","0.0-133.0-0.0","1399.5999999940395","","","","","","","","49","0,0,1","2","countryside","70","probe-72","0.4567653424137512","0.08351918931959591","1","0","","","","","","","",""
"","html-keyboard-response","249","1045369","0.0-133.0-1.0","null","<p></p>","null","","","","","","","","","","","","","","","","","","","","","","",""
"","do_trial","250","1050528","0.0-134.0-0.0","615.5999999940395","","","","","","","","50","1,0,1","2","countryside","71","probe-194","0.3563881797514432","0.13652605482636143","1","0","","","","","","","",""
"","html-keyboard-response","251","1051529","0.0-134.0-1.0","null","<p></p>","null","","","","","","","","","","","","","","","","","","","","","","",""
"","do_trial","252","1056936","0.0-135.0-0.0","866","","","","","","","","51","1,0,0","2","countryside","72","probe-154","0.33136796933416635","0.09381982558701095","0.8704724986347718","0","","","","","","","",""
"","html-keyboard-response","253","1057942","0.0-135.0-1.0","null","<p></p>","null","","","","","","","","","","","","","","","","","","","","","","",""
"","do_trial","254","1062771","0.0-136.0-0.0","285.29999999701977","","","","","","","","50","1,0,1","2","countryside","73","probe-155","0.3878763196137833","0.2220175696570206","0.716226497524224","0","","","","","","","",""
"","html-keyboard-response","255","1063777","0.0-136.0-1.0","null","<p></p>","null","","","","","","","","","","","","","","","","","","","","","","",""
"","do_trial","256","1069170","0.0-137.0-0.0","850.8999999985099","","","","","","","","49","1,0,0","2","countryside","74","probe-103","0.27604646705648944","0.15346195120103553","0.6778486187313503","1","","","","","","","",""
"","html-keyboard-response","257","1070177","0.0-137.0-1.0","null","<p></p>","null","","","","","","","","","","","","","","","","","","","","","","",""
"","do_trial","258","1075303","0.0-138.0-0.0","587.8000000044703","","","","","","","","50","1,0,1","2","countryside","75","probe-193","0.23276645880851735","0.09768164952477822","0.6014561853344165","0","","","","","","","",""
"","html-keyboard-response","259","1076309","0.0-138.0-1.0","null","<p></p>","null","","","","","","","","","","","","","","","","","","","","","","",""
"","do_trial","260","1081269","0.0-139.0-0.0","415","","","","","","","","51","0,0,1","2","countryside","76","probe-124","0.19375771410789455","0.1607028477399707","0.6761849124763917","1","","","","","","","",""
"","html-keyboard-response","261","1082273","0.0-139.0-1.0","null","<p></p>","null","","","","","","","","","","","","","","","","","","","","","","",""
"","do_trial","262","1087813","0.0-140.0-0.0","998.9000000059605","","","","","","","","49","0,0,1","2","countryside","77","probe-08","0.08811324245124617","0.16811391289739339","0.6410132583378134","0","","","","","","","",""
"","html-keyboard-response","263","1088819","0.0-140.0-1.0","null","<p></p>","null","","","","","","","","","","","","","","","","","","","","","","",""
"","do_trial","264","1093763","0.0-141.0-0.0","403.79999999701977","","","","","","","","50","1,0,1","2","countryside","78","probe-229","0.3094557468208761","0.16446214623765712","0.5037650518222747","0","","","","","","","",""
"","html-keyboard-response","265","1094766","0.0-141.0-1.0","null","<p></p>","null","","","","","","","","","","","","","","","","","","","","","","",""
"","do_trial","266","1099797","0.0-142.0-0.0","491.19999999552965","","","","","","","","51","0,0,0","2","countryside","79","probe-46","0.41392989170577726","0.147591567391132","0.5618852584950311","0","","","","","","","",""
"","html-keyboard-response","267","1100803","0.0-142.0-1.0","null","<p></p>","null","","","","","","","","","","","","","","","","","","","","","","",""
"","do_trial","268","1105965","0.0-143.0-0.0","623.2000000029802","","","","","","","","49","1,0,0","2","countryside","80","probe-14","0.5226935554209107","0.2648743059360941","0.48177682432477315","1","","","","","","","",""
"","html-keyboard-response","269","1106972","0.0-143.0-1.0","null","<p></p>","null","","","","","","","","","","","","","","","","","","","","","","",""
"","do_trial","270","1112251","0.0-144.0-0.0","736.6000000014901","","","","","","","","50","1,0,0","2","countryside","81","probe-100","0.5402159734178692","0.1580775885154537","0.5135257972924012","0","","","","","","","",""
"","html-keyboard-response","271","1113257","0.0-144.0-1.0","null","<p></p>","null","","","","","","","","","","","","","","","","","","","","","","",""
"","do_trial","272","1118435","0.0-145.0-0.0","637.3000000044703","","","","","","","","51","0,0,0","2","countryside","82","probe-44","0.5934994388001216","0.15239584842966447","0.3867327348337387","0","","","","","","","",""
"","html-keyboard-response","273","1119442","0.0-145.0-1.0","null","<p></p>","null","","","","","","","","","","","","","","","","","","","","","","",""
"","do_trial","274","1124924","0.0-146.0-0.0","937.8000000044703","","","","","","","","49","0,1,1","2","countryside","83","probe-184","0.6051097687503123","0.22377752964935219","0.41472277928611173","0","","","","","","","",""
"","html-keyboard-response","275","1125929","0.0-146.0-1.0","null","<p></p>","null","","","","","","","","","","","","","","","","","","","","","","",""
"","do_trial","276","1131734","0.0-147.0-0.0","1266.6999999955297","","","","","","","","50","1,0,0","2","countryside","84","probe-202","0.632949580151815","0.06194713450816515","0.2968325270603907","0","","","","","","","",""
"","html-keyboard-response","277","1132739","0.0-147.0-1.0","null","<p></p>","null","","","","","","","","","","","","","","","","","","","","","","",""
"","do_trial","278","1138262","0.0-148.0-0.0","982.1999999955297","","","","","","","","51","0,0,0","2","countryside","85","probe-98","0.5681822188326283","0.10162651987475009","0.2565619012061235","0","","","","","","","",""
"","html-keyboard-response","279","1139268","0.0-148.0-1.0","null","<p></p>","null","","","","","","","","","","","","","","","","","","","","","","",""
"","do_trial","280","1144295","0.0-149.0-0.0","486.1000000014901","","","","","","","","49","1,0,0","2","countryside","86","probe-69","0.6979717930061867","0.08134385878416513","0.2976672140820909","1","","","","","","","",""
"","html-keyboard-response","281","1145302","0.0-149.0-1.0","null","<p></p>","null","","","","","","","","","","","","","","","","","","","","","","",""
"","do_trial","282","1150262","0.0-150.0-0.0","417","","","","","","","","50","0,0,0","2","countryside","87","probe-53","0.8056821604884562","0.08614261551487921","0.18514676929898014","0","","","","","","","",""
"","html-keyboard-response","283","1151268","0.0-150.0-1.0","null","<p></p>","null","","","","","","","","","","","","","","","","","","","","","","",""
"","do_trial","284","1156395","0.0-151.0-0.0","582.6000000014901","","","","","","","","51","1,0,0","2","countryside","88","probe-188","0.7141614531252836","0.09418739660063892","0.16408054847754072","0","","","","","","","",""
"","html-keyboard-response","285","1157401","0.0-151.0-1.0","null","<p></p>","null","","","","","","","","","","","","","","","","","","","","","","",""
"","do_trial","286","1162873","0.0-152.0-0.0","926.2999999970198","","","","","","","","49","1,0,0","2","countryside","89","probe-214","0.6512640070726003","0.1577877577968205","0.2336327046975124","1","","","","","","","",""
"","html-keyboard-response","287","1163874","0.0-152.0-1.0","null","<p></p>","null","","","","","","","","","","","","","","","","","","","","","","",""
"","do_trial","288","1168944","0.0-153.0-0.0","525.5","","","","","","","","50","1,0,1","2","countryside","90","probe-92","0.664554988218059","0.10281611130246698","0.38645576901030354","0","","","","","","","",""
"","html-keyboard-response","289","1169951","0.0-153.0-1.0","null","<p></p>","null","","","","","","","","","","","","","","","","","","","","","","",""
"","do_trial","290","1174939","0.0-154.0-0.0","443.40000000596046","","","","","","","","51","1,1,1","2","countryside","91","probe-52","0.719102050941564","0.15213949560105985","0.37807125381279816","1","","","","","","","",""
"","html-keyboard-response","291","1175945","0.0-154.0-1.0","null","<p></p>","null","","","","","","","","","","","","","","","","","","","","","","",""
"","do_trial","292","1181370","0.0-155.0-0.0","882.1000000014901","","","","","","","","49","0,0,1","2","countryside","92","probe-192","0.6810537312860291","0.11495583180247082","0.3202814061081441","0","","","","","","","",""
"","html-keyboard-response","293","1182376","0.0-155.0-1.0","null","<p></p>","null","","","","","","","","","","","","","","","","","","","","","","",""
"","do_trial","294","1187351","0.0-156.0-0.0","429.5","","","","","","","","50","1,0,0","2","countryside","93","probe-168","0.6647576443476555","0.058578208890695205","0.4407024154792388","0","","","","","","","",""
"","html-keyboard-response","295","1188353","0.0-156.0-1.0","null","<p></p>","null","","","","","","","","","","","","","","","","","","","","","","",""
"","do_trial","296","1193265","0.0-157.0-0.0","379.79999999701977","","","","","","","","51","0,0,0","2","countryside","94","probe-06","0.6296074191671024","0.05146046440542392","0.3718721700287562","0","","","","","","","",""
"","html-keyboard-response","297","1194270","0.0-157.0-1.0","null","<p></p>","null","","","","","","","","","","","","","","","","","","","","","","",""
"","do_trial","298","1200278","0.0-158.0-0.0","1460.3000000044703","","","","","","","","49","1,0,0","2","countryside","95","probe-123","0.5088538933166094","0.14022683504252037","0.3331952857534215","1","","","","","","","",""
"","html-keyboard-response","299","1201282","0.0-158.0-1.0","null","<p></p>","null","","","","","","","","","","","","","","","","","","","","","","",""
"","do_trial","300","1206979","0.0-159.0-0.0","1156","","","","","","","","50","0,0,0","2","countryside","96","probe-163","0.5405185154771014","0.14060719667956442","0.2362709626677421","0","","","","","","","",""
"","html-keyboard-response","301","1207982","0.0-159.0-1.0","null","<p></p>","null","","","","","","","","","","","","","","","","","","","","","","",""
"","do_trial","302","1212577","0.0-160.0-0.0","57.600000001490116","","","","","","","","51","0,0,0","2","countryside","97","probe-115","0.5591574644369666","0.1410088037284464","0.29586724128986086","0","","","","","","","",""
"","html-keyboard-response","303","1213578","0.0-160.0-1.0","null","<p></p>","null","","","","","","","","","","","","","","","","","","","","","","",""
"","do_trial","304","1218478","0.0-161.0-0.0","362","","","","","","","","49","0,0,0","2","countryside","98","probe-170","0.44667921949479295","0.2182254032261951","0.3033496247650232","0","","","","","","","",""
"","html-keyboard-response","305","1219484","0.0-161.0-1.0","null","<p></p>","null","","","","","","","","","","","","","","","","","","","","","","",""
"","do_trial","306","1224448","0.0-162.0-0.0","419.1000000014901","","","","","","","","50","1,0,0","2","countryside","99","probe-94","0.6177559804219905","0.08511761638705548","0.41478268181816147","0","","","","","","","",""
"","html-keyboard-response","307","1225452","0.0-162.0-1.0","null","<p></p>","null","","","","","","","","","","","","","","","","","","","","","","",""
"","do_trial","308","1230222","0.0-163.0-0.0","226.29999999701977","","","","","","","","51","1,0,0","2","countryside","100","probe-77","0.6016165239228494","0.054200294196095504","0.41751028659546363","0","","","","","","","",""
"","html-keyboard-response","309","1231223","0.0-163.0-1.0","null","<p></p>","null","","","","","","","","","","","","","","","","","","","","","","",""
"","do_trial","310","1235919","0.0-164.0-0.0","154.10000000149012","","","","","","","","49","1,0,0","2","countryside","101","probe-49","0.6530995739470257","0.12352436911359561","0.3970485339859814","1","","","","","","","",""
"","html-keyboard-response","311","1236926","0.0-164.0-1.0","null","<p></p>","null","","","","","","","","","","","","","","","","","","","","","","",""
"","do_trial","312","1242385","0.0-165.0-0.0","915.6999999955297","","","","","","","","51","0,0,0","2","countryside","102","probe-78","0.5548888879846582","0.09300394323030861","0.37620089157261843","0","","","","","","","",""
"","html-keyboard-response","313","1243391","0.0-165.0-1.0","null","<p></p>","null","","","","","","","","","","","","","","","","","","","","","","",""
"","do_trial","314","1248485","0.0-166.0-0.0","552.7999999970198","","","","","","","","49","1,0,1","2","countryside","103","probe-105","0.6853859123419714","0.07301978504893974","0.365688373109626","1","","","","","","","",""
"","html-keyboard-response","315","1249486","0.0-166.0-1.0","null","<p></p>","null","","","","","","","","","","","","","","","","","","","","","","",""
"","do_trial","316","1254678","0.0-167.0-0.0","650.8000000044703","","","","","","","","51","1,0,1","2","countryside","104","probe-190","0.6272867402145516","0.07728390484113982","0.2860223092588366","1","","","","","","","",""
"","html-keyboard-response","317","1255684","0.0-167.0-1.0","null","<p></p>","null","","","","","","","","","","","","","","","","","","","","","","",""
"","do_trial","318","1260782","0.0-168.0-0.0","557.9000000059605","","","","","","","","50","1,0,0","2","countryside","105","probe-95","0.6738122065376407","0.10045744102875061","0.3825064535196479","0","","","","","","","",""
"","html-keyboard-response","319","1261789","0.0-168.0-1.0","null","<p></p>","null","","","","","","","","","","","","","","","","","","","","","","",""
"","do_trial","320","1267005","0.0-169.0-0.0","672.8000000044703","","","","","","","","49","0,0,0","2","countryside","106","probe-196","0.7842249366191477","0.08232023904536657","0.31485378512268214","0","","","","","","","",""
"","html-keyboard-response","321","1268011","0.0-169.0-1.0","null","<p></p>","null","","","","","","","","","","","","","","","","","","","","","","",""
"","do_trial","322","1274367","0.0-170.0-0.0","1812.5","","","","","","","","50","1,0,0","2","countryside","107","probe-57","0.910170851657282","0.15767404454473355","0.25455124380177646","0","","","","","","","",""
"","html-keyboard-response","323","1275374","0.0-170.0-1.0","null","<p></p>","null","","","","","","","","","","","","","","","","","","","","","","",""
"","do_trial","324","1280338","0.0-171.0-0.0","421.5","","","","","","","","51","1,0,0","2","countryside","108","probe-17","0.8380550295460967","0.05212775194836198","0.23794235176325434","0","","","","","","","",""
"","html-keyboard-response","325","1281344","0.0-171.0-1.0","null","<p></p>","null","","","","","","","","","","","","","","","","","","","","","","",""
"","do_trial","326","1287389","0.0-172.0-0.0","null","","","","","","","","null","1,0,0","2","countryside","109","probe-18","0.7289964239547367","0.07748502337146548","0.22138444359667994","","","","","","","","",""
"","html-keyboard-response","327","1288393","0.0-172.0-1.0","null","<p></p>","null","","","","","","","","","","","","","","","","","","","","","","",""
"","do_bye","328","1289902","0.0-173.0-0.0","null","","","","","","","","null","","","","","","","","","","","","","","","","",""
"","do_travel","329","1295909","0.0-174.0-0.0","null","","","","","","","","null","","","","","","","","","","","","","","","","",""
"","do_welcome","330","1297414","0.0-174.0-1.0","null","","","","","","","","null","","","","","","","","","","","","","","","","",""
"","do_trial","331","1303796","0.0-175.0-0.0","1843.7999999970198","","","","","","","","49","1,0,0","3","forest","110","probe-16","1","0.1690074188686296","0.19735438069065062","1","","","","","","","",""
"","html-keyboard-response","332","1304799","0.0-175.0-1.0","null","<p></p>","null","","","","","","","","","","","","","","","","","","","","","","",""
"","do_trial","333","1309952","0.0-176.0-0.0","608.7000000029802","","","","","","","","50","1,0,1","3","forest","111","probe-132","1","0.18295374241234683","0.23724152326674966","0","","","","","","","",""
"","html-keyboard-response","334","1310958","0.0-176.0-1.0","null","<p></p>","null","","","","","","","","","","","","","","","","","","","","","","",""
"","do_trial","335","1318044","0.0-177.0-0.0","2542.39999999851","","","","","","","","51","1,0,0","3","forest","112","probe-179","0.8876480673586375","0.07337993375242154","0.17981691624033977","0","","","","","","","",""
"","html-keyboard-response","336","1319050","0.0-177.0-1.0","null","<p></p>","null","","","","","","","","","","","","","","","","","","","","","","",""
"","do_trial","337","1324323","0.0-178.0-0.0","731.1000000014901","","","","","","","","49","0,0,0","3","forest","113","probe-43","0.8099279334928129","0.08009804214859344","0.2998029951390268","0","","","","","","","",""
"","html-keyboard-response","338","1325325","0.0-178.0-1.0","null","<p></p>","null","","","","","","","","","","","","","","","","","","","","","","",""
"","do_trial","339","1330380","0.0-179.0-0.0","517.3000000044703","","","","","","","","50","1,0,0","3","forest","114","probe-138","0.852890551670559","0.16678389319968967","0.3349454887785784","0","","","","","","","",""
"","html-keyboard-response","340","1331386","0.0-179.0-1.0","null","<p></p>","null","","","","","","","","","","","","","","","","","","","","","","",""
"","do_trial","341","1336569","0.0-180.0-0.0","638.7999999970198","","","","","","","","51","1,0,0","3","forest","115","probe-230","0.8596836014115082","0.18433839548426065","0.41945950503735646","0","","","","","","","",""
"","html-keyboard-response","342","1337576","0.0-180.0-1.0","null","<p></p>","null","","","","","","","","","","","","","","","","","","","","","","",""
"","do_trial","343","1342540","0.0-181.0-0.0","420.5","","","","","","","","49","1,0,1","3","forest","116","probe-23","0.7282119245363993","0.11037525995101666","0.3557724609260817","1","","","","","","","",""
"","html-keyboard-response","344","1343542","0.0-181.0-1.0","null","<p></p>","null","","","","","","","","","","","","","","","","","","","","","","",""
"","do_trial","345","1349864","0.0-182.0-0.0","1778.2999999970198","","","","","","","","49","0,0,1","3","forest","117","probe-119","0.7058496906839175","0.10546756449419496","0.3821730412799342","0","","","","","","","",""
"","html-keyboard-response","346","1350871","0.0-182.0-1.0","null","<p></p>","null","","","","","","","","","","","","","","","","","","","","","","",""
"","do_trial","347","1356060","0.0-183.0-0.0","647.2000000029802","","","","","","","","50","1,0,0","3","forest","118","probe-22","0.5522444832159655","0.051373880496804636","0.4013706413720696","0","","","","","","","",""
"","html-keyboard-response","348","1357066","0.0-183.0-1.0","null","<p></p>","null","","","","","","","","","","","","","","","","","","","","","","",""
"","do_trial","349","1361984","0.0-184.0-0.0","375.20000000298023","","","","","","","","51","1,1,0","3","forest","119","probe-211","0.7739745661070319","0.2289284194412219","0.3621550646128198","0","","","","","","","",""
"","html-keyboard-response","350","1362990","0.0-184.0-1.0","null","<p></p>","null","","","","","","","","","","","","","","","","","","","","","","",""
"","do_trial","351","1367850","0.0-185.0-0.0","315.1000000014901","","","","","","","","49","1,0,0","3","forest","120","probe-108","0.6550436231689352","0.20082338852006718","0.37975888948006925","1","","","","","","","",""
"","html-keyboard-response","352","1368857","0.0-185.0-1.0","null","<p></p>","null","","","","","","","","","","","","","","","","","","","","","","",""
"","do_trial","353","1374174","0.0-186.0-0.0","775.1000000014901","","","","","","","","50","1,0,0","3","forest","121","probe-96","0.6292719649912705","0.3054127129852458","0.32486260170572495","0","","","","","","","",""
"","html-keyboard-response","354","1375176","0.0-186.0-1.0","null","<p></p>","null","","","","","","","","","","","","","","","","","","","","","","",""
"","do_trial","355","1379716","0.0-187.0-0.0","0.10000000149011612","","","","","","","","51","0,0,0","3","forest","122","probe-74","0.4318912379718401","0.30440622782468685","0.35642508567772696","0","","","","","","","",""
"","html-keyboard-response","356","1380722","0.0-187.0-1.0","null","<p></p>","null","","","","","","","","","","","","","","","","","","","","","","",""
"","do_trial","357","1385924","0.0-188.0-0.0","660.7999999970198","","","","","","","","49","1,0,0","3","forest","123","probe-11","0.26606830164243644","0.3433402385861659","0.3532644223292285","1","","","","","","","",""
"","html-keyboard-response","358","1386926","0.0-188.0-1.0","null","<p></p>","null","","","","","","","","","","","","","","","","","","","","","","",""
"","do_trial","359","1392808","0.0-189.0-0.0","1336.6999999955297","","","","","","","","50","0,0,0","3","forest","124","probe-104","0.23545355023764505","0.49586827916935383","0.2708328658829821","0","","","","","","","",""
"","html-keyboard-response","360","1393810","0.0-189.0-1.0","null","<p></p>","null","","","","","","","","","","","","","","","","","","","","","","",""
"","do_trial","361","1400626","0.0-190.0-0.0","2278.39999999851","","","","","","","","50","0,1,0","3","forest","125","probe-09","0.31377786089183995","0.72571163806621","0.20168672329445322","1","","","","","","","",""
"","html-keyboard-response","362","1401633","0.0-190.0-1.0","null","<p></p>","null","","","","","","","","","","","","","","","","","","","","","","",""
"","do_trial","363","1406641","0.0-191.0-0.0","463.69999999552965","","","","","","","","51","1,1,0","3","forest","126","probe-159","0.23038957432560545","0.6794846891733843","0.30167607932063706","0","","","","","","","",""
"","html-keyboard-response","364","1407643","0.0-191.0-1.0","null","<p></p>","null","","","","","","","","","","","","","","","","","","","","","","",""
"","do_trial","365","1412526","0.0-192.0-0.0","342.79999999701977","","","","","","","","50","0,1,0","3","forest","127","probe-183","0.19336646154897877","0.5935242674758711","0.45424125380130215","1","","","","","","","",""
"","html-keyboard-response","366","1413532","0.0-192.0-1.0","null","<p></p>","null","","","","","","","","","","","","","","","","","","","","","","",""
"","do_trial","367","1420609","0.0-193.0-0.0","2535.10000000149","","","","","","","","49","0,1,0","3","forest","128","probe-189","0.181210491440769","0.6381865496035551","0.4144113857299301","0","","","","","","","",""
"","html-keyboard-response","368","1421616","0.0-193.0-1.0","null","<p></p>","null","","","","","","","","","","","","","","","","","","","","","","",""
"","do_trial","369","1426467","0.0-194.0-0.0","308.6000000014901","","","","","","","","50","0,1,1","3","forest","129","probe-161","0.12592771078783005","0.6412405186188513","0.42231776055823844","1","","","","","","","",""
"","html-keyboard-response","370","1427471","0.0-194.0-1.0","null","<p></p>","null","","","","","","","","","","","","","","","","","","","","","","",""
"","do_trial","371","1432593","0.0-195.0-0.0","580.5","","","","","","","","51","0,0,1","3","forest","130","probe-187","0.08333840389908728","0.46855697543391783","0.34689793299480703","1","","","","","","","",""
"","html-keyboard-response","372","1433599","0.0-195.0-1.0","null","<p></p>","null","","","","","","","","","","","","","","","","","","","","","","",""
"","do_trial","373","1438492","0.0-196.0-0.0","352.69999999552965","","","","","","","","49","0,0,0","3","forest","131","probe-198","0.07027750917711106","0.4731379841713069","0.4243782943562407","0","","","","","","","",""
"","html-keyboard-response","374","1439499","0.0-196.0-1.0","null","<p></p>","null","","","","","","","","","","","","","","","","","","","","","","",""
"","do_trial","375","1444573","0.0-197.0-0.0","529.7999999970198","","","","","","","","50","0,1,0","3","forest","132","probe-160","0.14482591170064693","0.5438055494063615","0.42707896073544954","1","","","","","","","",""
"","html-keyboard-response","376","1445577","0.0-197.0-1.0","null","<p></p>","null","","","","","","","","","","","","","","","","","","","","","","",""
"","do_trial","377","1450860","0.0-198.0-0.0","741.2000000029802","","","","","","","","49","0,0,1","3","forest","133","probe-201","0.1615695402536069","0.4785249455561486","0.5142840689472395","0","","","","","","","",""
"","html-keyboard-response","378","1451864","0.0-198.0-1.0","null","<p></p>","null","","","","","","","","","","","","","","","","","","","","","","",""
"","do_trial","379","1456404","0.0-199.0-0.0","0","","","","","","","","51","0,0,0","3","forest","134","probe-61","0.1369899463031004","0.6427496271380531","0.43305062884004997","0","","","","","","","",""
"","html-keyboard-response","380","1457409","0.0-199.0-1.0","null","<p></p>","null","","","","","","","","","","","","","","","","","","","","","","",""
"","do_trial","381","1463116","0.0-200.0-0.0","1161.1000000014901","","","","","","","","49","0,1,0","3","forest","135","probe-87","0.15112538097891398","0.7371821387386485","0.2712112446859433","0","","","","","","","",""
"","html-keyboard-response","382","1464123","0.0-200.0-1.0","null","<p></p>","null","","","","","","","","","","","","","","","","","","","","","","",""
"","do_trial","383","1468668","0.0-201.0-0.0","0.10000000149011612","","","","","","","","50","0,0,0","3","forest","136","probe-126","0.06189399774641958","0.6657305435704436","0.18856449734191677","0","","","","","","","",""
"","html-keyboard-response","384","1469674","0.0-201.0-1.0","null","<p></p>","null","","","","","","","","","","","","","","","","","","","","","","",""
"","do_trial","385","1475376","0.0-202.0-0.0","1163.2999999970198","","","","","","","","51","0,0,0","3","forest","137","probe-136","0.058994573781357425","0.6589104128362171","0.30124601067002693","0","","","","","","","",""
"","html-keyboard-response","386","1476383","0.0-202.0-1.0","null","<p></p>","null","","","","","","","","","","","","","","","","","","","","","","",""
"","do_trial","387","1481979","0.0-203.0-0.0","1050.6999999955297","","","","","","","","50","1,1,1","3","forest","138","probe-227","0.11428633996916515","0.6051317849369223","0.4655937946462238","1","","","","","","","",""
"","html-keyboard-response","388","1482982","0.0-203.0-1.0","null","<p></p>","null","","","","","","","","","","","","","","","","","","","","","","",""
"","do_trial","389","1489525","0.0-204.0-0.0","2007","","","","","","","","51","0,1,1","3","forest","139","probe-25","0.14249607616871782","0.43933066429631795","0.3082354138846218","1","","","","","","","",""
"","html-keyboard-response","390","1490532","0.0-204.0-1.0","null","<p></p>","null","","","","","","","","","","","","","","","","","","","","","","",""
"","do_trial","391","1495514","0.0-205.0-0.0","440.5","","","","","","","","50","0,1,1","3","forest","140","probe-219","0.09645166531207387","0.6522466851674965","0.3313010969501081","1","","","","","","","",""
"","html-keyboard-response","392","1496520","0.0-205.0-1.0","null","<p></p>","null","","","","","","","","","","","","","","","","","","","","","","",""
"","do_trial","393","1501580","0.0-206.0-0.0","519.7999999970198","","","","","","","","51","0,1,0","3","forest","141","probe-142","0.1089293010787054","0.6258795429879184","0.35024656633331797","0","","","","","","","",""
"","html-keyboard-response","394","1502586","0.0-206.0-1.0","null","<p></p>","null","","","","","","","","","","","","","","","","","","","","","","",""
"","do_trial","395","1507573","0.0-207.0-0.0","444.6000000014901","","","","","","","","49","0,0,0","3","forest","142","probe-166","0.07372414635225379","0.7003708785853187","0.16910527519125926","0","","","","","","","",""
"","html-keyboard-response","396","1508579","0.0-207.0-1.0","null","<p></p>","null","","","","","","","","","","","","","","","","","","","","","","",""
"","do_trial","397","1513882","0.0-208.0-0.0","761.2999999970198","","","","","","","","51","0,0,1","3","forest","143","probe-129","0.052717564918633615","0.6651746064921585","0.3283023224828033","1","","","","","","","",""
"","html-keyboard-response","398","1514884","0.0-208.0-1.0","null","<p></p>","null","","","","","","","","","","","","","","","","","","","","","","",""
"","do_trial","399","1520589","0.0-209.0-0.0","1164.3999999985099","","","","","","","","50","0,1,0","3","forest","144","probe-21","0.23952593027352428","0.5747322446028724","0.10469131931473623","1","","","","","","","",""
"","html-keyboard-response","400","1521595","0.0-209.0-1.0","null","<p></p>","null","","","","","","","","","","","","","","","","","","","","","","",""
"","do_trial","401","1526984","0.0-210.0-0.0","847.6000000014901","","","","","","","","49","0,1,0","3","forest","145","probe-151","0.16968027756902979","0.6276865316497234","0.3345334419616968","0","","","","","","","",""
"","html-keyboard-response","402","1527986","0.0-210.0-1.0","null","<p></p>","null","","","","","","","","","","","","","","","","","","","","","","",""
"","do_trial","403","1532691","0.0-211.0-0.0","166.90000000596046","","","","","","","","50","0,0,0","3","forest","146","probe-173","0.09601012876017018","0.5422594042504916","0.3390520733408597","0","","","","","","","",""
"","html-keyboard-response","404","1533696","0.0-211.0-1.0","null","<p></p>","null","","","","","","","","","","","","","","","","","","","","","","",""
"","do_trial","405","1538369","0.0-212.0-0.0","136.5","","","","","","","","50","0,0,0","3","forest","147","probe-167","0.0718974614482258","0.502545988361009","0.21789071409035302","0","","","","","","","",""
"","html-keyboard-response","406","1539371","0.0-212.0-1.0","null","<p></p>","null","","","","","","","","","","","","","","","","","","","","","","",""
"","do_trial","407","1544273","0.0-213.0-0.0","363.5","","","","","","","","49","0,1,0","3","forest","148","probe-32","0.20927809058631486","0.5328599504931617","0.31281070048506077","0","","","","","","","",""
"","html-keyboard-response","408","1545279","0.0-213.0-1.0","null","<p></p>","null","","","","","","","","","","","","","","","","","","","","","","",""
"","do_trial","409","1550125","0.0-214.0-0.0","307","","","","","","","","50","0,1,0","3","forest","149","probe-139","0.11444102276152635","0.5698604042458996","0.31436638149075463","1","","","","","","","",""
"","html-keyboard-response","410","1551131","0.0-214.0-1.0","null","<p></p>","null","","","","","","","","","","","","","","","","","","","","","","",""
"","do_bye","411","1552641","0.0-215.0-0.0","null","","","","","","","","null","","","","","","","","","","","","","","","","",""
"","do_travel","412","1558647","0.0-216.0-0.0","null","","","","","","","","null","","","","","","","","","","","","","","","","",""
"","do_welcome","413","1560156","0.0-216.0-1.0","null","","","","","","","","null","","","","","","","","","","","","","","","","",""
"","do_trial","414","1566201","0.0-217.0-0.0","null","","","","","","","","null","0,1,0","4","highway","150","probe-106","0.2352978926088759","1","0.36649284119767017","","","","","","","","",""
"","html-keyboard-response","415","1567204","0.0-217.0-1.0","null","<p></p>","null","","","","","","","","","","","","","","","","","","","","","","",""
"","do_trial","416","1572341","0.0-218.0-0.0","596.1999999955297","","","","","","","","49","1,1,0","4","highway","151","probe-47","0.22204088867882563","1","0.2770458754264152","1","","","","","","","",""
"","html-keyboard-response","417","1573348","0.0-218.0-1.0","null","<p></p>","null","","","","","","","","","","","","","","","","","","","","","","",""
"","do_trial","418","1578814","0.0-219.0-0.0","921.3999999985099","","","","","","","","50","0,1,1","4","highway","152","probe-13","0.21598381798102914","0.782760608456331","0.33258701547638525","1","","","","","","","",""
"","html-keyboard-response","419","1579819","0.0-219.0-1.0","null","<p></p>","null","","","","","","","","","","","","","","","","","","","","","","",""
"","do_trial","420","1585039","0.0-220.0-0.0","675.5","","","","","","","","51","0,0,1","4","highway","153","probe-171","0.18124418600500852","0.7567687467196649","0.27219211743676974","1","","","","","","","",""
"","html-keyboard-response","421","1586041","0.0-220.0-1.0","null","<p></p>","null","","","","","","","","","","","","","","","","","","","","","","",""
"","do_trial","422","1591214","0.0-221.0-0.0","629.0999999940395","","","","","","","","49","0,0,1","4","highway","154","probe-149","0.17120271739706755","0.562291603707281","0.3183292329527517","0","","","","","","","",""
"","html-keyboard-response","423","1592220","0.0-221.0-1.0","null","<p></p>","null","","","","","","","","","","","","","","","","","","","","","","",""
"","do_trial","424","1597390","0.0-222.0-0.0","626","","","","","","","","50","0,0,0","4","highway","155","probe-217","0.15971801821238746","0.47224401846179925","0.3687344877139927","0","","","","","","","",""
"","html-keyboard-response","425","1598391","0.0-222.0-1.0","null","<p></p>","null","","","","","","","","","","","","","","","","","","","","","","",""
"","do_trial","426","1603038","0.0-223.0-0.0","105","","","","","","","","51","0,0,0","4","highway","156","probe-02","0.10223273364340857","0.4862835159995608","0.3710404608931164","0","","","","","","","",""
"","html-keyboard-response","427","1604045","0.0-223.0-1.0","null","<p></p>","null","","","","","","","","","","","","","","","","","","","","","","",""
"","do_trial","428","1609691","0.0-224.0-0.0","1106.5","","","","","","","","49","0,1,0","4","highway","157","probe-01","0.1826734411923679","0.7461936702862306","0.3412813305175814","0","","","","","","","",""
"","html-keyboard-response","429","1610697","0.0-224.0-1.0","null","<p></p>","null","","","","","","","","","","","","","","","","","","","","","","",""
"","do_trial","430","1615796","0.0-225.0-0.0","557.3999999985099","","","","","","","","51","0,0,1","4","highway","158","probe-20","0.19269081764974488","0.6679270839748048","0.3590562494266037","1","","","","","","","",""
"","html-keyboard-response","431","1616803","0.0-225.0-1.0","null","<p></p>","null","","","","","","","","","","","","","","","","","","","","","","",""
"","do_trial","432","1621999","0.0-226.0-0.0","651.3999999985099","","","","","","","","50","0,1,0","4","highway","159","probe-122","0.05019121866775809","0.648335432106096","0.37656490362373524","1","","","","","","","",""
"","html-keyboard-response","433","1623005","0.0-226.0-1.0","null","<p></p>","null","","","","","","","","","","","","","","","","","","","","","","",""
"","do_trial","434","1628123","0.0-227.0-0.0","574.8999999985099","","","","","","","","49","0,0,1","4","highway","160","probe-24","0.1121577465953879","0.5461099385152156","0.1965634633372006","0","","","","","","","",""
"","html-keyboard-response","435","1629126","0.0-227.0-1.0","null","<p></p>","null","","","","","","","","","","","","","","","","","","","","","","",""
"","do_trial","436","1634274","0.0-228.0-0.0","605","","","","","","","","51","0,0,0","4","highway","161","probe-64","0.06093227778208075","0.42828426577841805","0.10962442473444384","0","","","","","","","",""
"","html-keyboard-response","437","1635278","0.0-228.0-1.0","null","<p></p>","null","","","","","","","","","","","","","","","","","","","","","","",""
"","do_trial","438","1639872","0.0-229.0-0.0","52","","","","","","","","50","0,1,1","4","highway","162","probe-117","0.09264533922367274","0.3709267281597754","0.4717165726842181","1","","","","","","","",""
"","html-keyboard-response","439","1640874","0.0-229.0-1.0","null","<p></p>","null","","","","","","","","","","","","","","","","","","","","","","",""
"","do_trial","440","1645840","0.0-230.0-0.0","423.5","","","","","","","","49","0,1,1","4","highway","163","probe-110","0.06609723002740016","0.2480904082956897","0.7642589405574981","0","","","","","","","",""
"","html-keyboard-response","441","1646845","0.0-230.0-1.0","null","<p></p>","null","","","","","","","","","","","","","","","","","","","","","","",""
"","do_trial","442","1651865","0.0-231.0-0.0","478.20000000298023","","","","","","","","50","1,0,1","4","highway","164","probe-81","0.07507079854635046","0.19767956043742935","0.6689937179718686","0","","","","","","","",""
"","html-keyboard-response","443","1652871","0.0-231.0-1.0","null","<p></p>","null","","","","","","","","","","","","","","","","","","","","","","",""
"","do_trial","444","1658184","0.0-232.0-0.0","774.3999999985099","","","","","","","","50","0,0,1","4","highway","165","probe-176","0.06615953722490815","0.13586761625128174","0.6602492125027117","0","","","","","","","",""
"","html-keyboard-response","445","1659190","0.0-232.0-1.0","null","<p></p>","null","","","","","","","","","","","","","","","","","","","","","","",""
"","do_trial","446","1664719","0.0-233.0-0.0","989.3999999985099","","","","","","","","50","0,0,1","4","highway","166","probe-66","0.12461391282974738","0.14852322593103387","0.6990882695592358","0","","","","","","","",""
"","html-keyboard-response","447","1665726","0.0-233.0-1.0","null","<p></p>","null","","","","","","","","","","","","","","","","","","","","","","",""
"","do_trial","448","1671978","0.0-234.0-0.0","1709.0999999940395","","","","","","","","50","0,1,0","4","highway","167","probe-12","0.10329993480114327","0.12377500190014418","0.5628503153581915","1","","","","","","","",""
"","html-keyboard-response","449","1672983","0.0-234.0-1.0","null","<p></p>","null","","","","","","","","","","","","","","","","","","","","","","",""
"","do_trial","450","1678514","0.0-235.0-0.0","993.8000000044703","","","","","","","","51","0,0,1","4","highway","168","probe-40","0.19882496228822966","0.14802766164168926","0.6912541412257235","1","","","","","","","",""
"","html-keyboard-response","451","1679515","0.0-235.0-1.0","null","<p></p>","null","","","","","","","","","","","","","","","","","","","","","","",""
"","do_trial","452","1684866","0.0-236.0-0.0","809","","","","","","","","49","0,0,1","4","highway","169","probe-102","0.29147668390765746","0.3079194690557483","0.5586985127596512","0","","","","","","","",""
"","html-keyboard-response","453","1685873","0.0-236.0-1.0","null","<p></p>","null","","","","","","","","","","","","","","","","","","","","","","",""
"","do_trial","454","1690831","0.0-237.0-0.0","418.1000000014901","","","","","","","","50","0,0,1","4","highway","170","probe-55","0.07288835335460016","0.24632070609104664","0.5819239503472537","0","","","","","","","",""
"","html-keyboard-response","455","1691837","0.0-237.0-1.0","null","<p></p>","null","","","","","","","","","","","","","","","","","","","","","","",""
"","do_trial","456","1697016","0.0-238.0-0.0","635.8999999985099","","","","","","","","49","0,1,1","4","highway","171","probe-05","0.055263853032298194","0.5386113601099402","0.7130157675593161","0","","","","","","","",""
"","html-keyboard-response","457","1698023","0.0-238.0-1.0","null","<p></p>","null","","","","","","","","","","","","","","","","","","","","","","",""
"","do_trial","458","1704275","0.0-239.0-0.0","1710","","","","","","","","50","1,0,0","4","highway","172","probe-174","0.08375911567851883","0.43231879434579834","0.7203976209811519","0","","","","","","","",""
"","html-keyboard-response","459","1705281","0.0-239.0-1.0","null","<p></p>","null","","","","","","","","","","","","","","","","","","","","","","",""
"","do_trial","460","1709858","0.0-240.0-0.0","36.399999998509884","","","","","","","","51","1,1,0","4","highway","173","probe-175","0.050715552922129106","0.4013873599850944","0.8043318764887328","0","","","","","","","",""
"","html-keyboard-response","461","1710865","0.0-240.0-1.0","null","<p></p>","null","","","","","","","","","","","","","","","","","","","","","","",""
"","do_trial","462","1716455","0.0-241.0-0.0","1049.7999999970198","","","","","","","","51","0,0,1","4","highway","174","probe-143","0.06090902177526331","0.3181992135007399","0.7426560335179059","1","","","","","","","",""
"","html-keyboard-response","463","1717461","0.0-241.0-1.0","null","<p></p>","null","","","","","","","","","","","","","","","","","","","","","","",""
"","do_trial","464","1722684","0.0-242.0-0.0","678.1000000014901","","","","","","","","50","0,0,1","4","highway","175","probe-50","0.0744191172343141","0.32559739658671244","0.6280249413028041","0","","","","","","","",""
"","html-keyboard-response","465","1723690","0.0-242.0-1.0","null","<p></p>","null","","","","","","","","","","","","","","","","","","","","","","",""
"","do_trial","466","1728682","0.0-243.0-0.0","449.5","","","","","","","","50","0,0,1","4","highway","176","probe-135","0.14113042555232244","0.2859498865238274","0.6678763804863297","0","","","","","","","",""
"","html-keyboard-response","467","1729688","0.0-243.0-1.0","null","<p></p>","null","","","","","","","","","","","","","","","","","","","","","","",""
"","do_trial","468","1734571","0.0-244.0-0.0","342.8999999985099","","","","","","","","49","0,0,0","4","highway","177","probe-177","0.13401685156237927","0.23047666877278894","0.5659766875181418","0","","","","","","","",""
"","html-keyboard-response","469","1735574","0.0-244.0-1.0","null","<p></p>","null","","","","","","","","","","","","","","","","","","","","","","",""
"","do_trial","470","1741616","0.0-245.0-0.0","null","","","","","","","","null","0,1,1","4","highway","178","probe-113","0.21031924749721037","0.2946809655636847","0.5488033125061292","","","","","","","","",""
"","html-keyboard-response","471","1742619","0.0-245.0-1.0","null","<p></p>","null","","","","","","","","","","","","","","","","","","","","","","",""
"","do_trial","472","1747459","0.0-246.0-0.0","298.3999999985099","","","","","","","","50","0,0,1","4","highway","179","probe-197","0.06601711057815322","0.11271825468458048","0.6539786629704059","0","","","","","","","",""
