success,trial_type,trial_index,time_elapsed,internal_node_id,interactions,blur_events,focus_events,fullscreenenter_events,fullscreenexit_events,rt,stimulus,key_press,subject_id,participant_id,age,gender,prompt,response,choice_outcomes,context_n,context_img_id,trial_n,probe_img_id,pR_red,pR_white,pR_black,outcome,contextArray_ind,validImageProbes,invalidImageProbes,pRew_Red,pRew_White,pRew_Black,availableForMemProbe,choice_blocks
TRUE,fullscreen,0,3187,0.0-0.0,"""event"",""trial"",""time""
""fullscreenenter"",""0"",""2210""
","
","
","""event"",""trial"",""time""
""fullscreenenter"",""0"",""2210""
","
",,,,,,,,,,,,,,,,,,,,,,,,,,
,pavlovia,1,3197,0.0-1.0,"""event"",""trial"",""time""
""fullscreenenter"",""0"",""2210""
","
","
","""event"",""trial"",""time""
""fullscreenenter"",""0"",""2210""
","
",,,,,,,,,,,,,,,,,,,,,,,,,,
,instruc1,2,48294,0.0-2.0,"""event"",""trial"",""time""
""fullscreenenter"",""0"",""2210""
","
","
","""event"",""trial"",""time""
""fullscreenenter"",""0"",""2210""
","
",null,run_exp/static/audio/clip_1_welcome.m4a,null,332,754,20,Male,"<div class='center'><p>Welcome! This is the first part of the study. It will last ~30 minutes. In part 1 and part 2 of the study, you are the head captain of a pirate ship traveling around the world to different islands. You will play a few different games throughout these two parts. Here is an overview of them:</p><br><p>Part 1 (today)</p><p>1. Instructions, practice game, and quiz</p><p>2. Pick a pirate game on 6 different islands</p><br><p>Part 2 (tomorrow)</p><p>3. Pick a pirate game and memory game</p><p>4. Where did you see this ship? </p></div>",,,,,,,,,,,,,,,,,,
,html-keyboard-response,3,49458,0.0-3.0,"""event"",""trial"",""time""
""fullscreenenter"",""0"",""2210""
","
","
","""event"",""trial"",""time""
""fullscreenenter"",""0"",""2210""
","
",1161.7,"<div class='center'><p>Welcome! This is the first part of the study. It will last ~30 minutes. In part 1 and part 2 of the study, you are the head captain of a pirate ship traveling around the world to different islands. You will play a few different games throughout these two parts. Here is an overview of them:</p><br><p>Part 1 (today)</p><p>1. Instructions, practice game, and quiz</p><p>2. Pick a pirate game on 6 different islands</p><br><p>Part 2 (tomorrow)</p><p>3. Pick a pirate game and memory game</p><p>4. Where did you see this ship? </p><p><b>[Press the space bar to continue]</b></p></div>",32,,,,,,,,,,,,,,,,,,,,,,,
,instruc2,4,54774,0.0-4.0,"""event"",""trial"",""time""
""fullscreenenter"",""0"",""2210""
","
","
","""event"",""trial"",""time""
""fullscreenenter"",""0"",""2210""
","
",null,run_exp/static/audio/clip_2_different_places.m4a,null,,,,,"<div class='center'><p>Today, you’ll visit these 6 islands on your journey. You'll be able to see these islands from your ship.</p><p><img src='run_exp/static/images/contexts/all_contexts.png' height='500'></p></div>",,,,,,,,,,,,,,,,,,
,html-keyboard-response,5,62376,0.0-5.0,"""event"",""trial"",""time""
""fullscreenenter"",""0"",""2210""
","
","
","""event"",""trial"",""time""
""fullscreenenter"",""0"",""2210""
","
",7598.4,"<div class='center'><p>Today, you’ll visit these 6 islands on your journey. You'll be able to see these islands from your ship.</p><p><img src='run_exp/static/images/contexts/all_contexts.png' height='500'></p><p><b>[Press the space bar to continue]</b></p></div>",32,,,,,,,,,,,,,,,,,,,,,,,
,instruc3,6,72055,0.0-6.0,"""event"",""trial"",""time""
""fullscreenenter"",""0"",""2210""
","
","
","""event"",""trial"",""time""
""fullscreenenter"",""0"",""2210""
","
",null,run_exp/static/audio/clip_3_goal_of_game_1.m4a,null,,,,,"<div class='center'><p> The pirates on your ship will rob other ships as they leave the island.</p> These ships have just sold their goods to the islanders, so they will be filled with lots and lots of gold.</p><p><img src='run_exp/static/images/tutorial/ship_center.png' height='400'></p></div>",,,,,,,,,,,,,,,,,,
,html-keyboard-response,7,83632,0.0-7.0,"""event"",""trial"",""time""
""fullscreenenter"",""0"",""2210""
","
","
","""event"",""trial"",""time""
""fullscreenenter"",""0"",""2210""
","
",11573.7,"<div class='center'><p> The pirates on your ship will rob other ships as they leave the island.</p> These ships have just sold their goods to the islanders, so they will be filled with lots and lots of gold.</p><p><img src='run_exp/static/images/tutorial/ship_center.png' height='400'></p><p><b>[Press the space bar to continue]</b></p></div>",32,,,,,,,,,,,,,,,,,,,,,,,
,instruc4,8,111589,0.0-8.0,"""event"",""trial"",""time""
""fullscreenenter"",""0"",""2210""
","
","
","""event"",""trial"",""time""
""fullscreenenter"",""0"",""2210""
","
",null,run_exp/static/audio/clip_4_goal_of_game_2.m4a,null,,,,,"<div class='center'><p>As the head captain, you do not have to rob any ships yourself. Another pirate will be doing the robbing for you. First, you will choose a pirate to rob the next ship.</p><p><img src='run_exp/static/images/tutorial/pirates_all_crop.png' height='200'></p><p>Then, you'll see if the pirate successfully robbed the ship of their gold. If they were successful, then you'll get a stack of gold coins like this:</p><p><img src='run_exp/static/images/tutorial/reward.png' height='150'></p><p> If they were <b>not</b> successful, then you'll get no gold coins, and you'll see a big red x like this: </p><p><img src='run_exp/static/images/tutorial/reward_no.png' height='150'></p><p> How much bonus money you make is based on how many gold coins you collect.</p><div>",,,,,,,,,,,,,,,,,,
,html-keyboard-response,9,116177,0.0-9.0,"""event"",""trial"",""time""
""fullscreenenter"",""0"",""2210""
","
","
","""event"",""trial"",""time""
""fullscreenenter"",""0"",""2210""
","
",4586.9,"<div class='center'><p>As the head captain, you do not have to rob any ships yourself. Another pirate will be doing the robbing for you. First, you will choose a pirate to rob the next ship.</p><p><img src='run_exp/static/images/tutorial/pirates_all_crop.png' height='200'></p><p>Then, you'll see if the pirate successfully robbed the ship of their gold. If they were successful, then you'll get a stack of gold coins like this:</p><p><img src='run_exp/static/images/tutorial/reward.png' height='150'></p><p> If they were <b>not</b> successful, then you'll get no gold coins, and you'll see a big red x like this: </p><p><img src='run_exp/static/images/tutorial/reward_no.png' height='150'></p><p> How much bonus money you make is based on how many gold coins you collect.</p<p><b>[Press the space bar to continue]</b></p></div>",32,,,,,,,,,,,,,,,,,,,,,,,
,instruc5,10,137632,0.0-10.0,"""event"",""trial"",""time""
""fullscreenenter"",""0"",""2210""
","
","
","""event"",""trial"",""time""
""fullscreenenter"",""0"",""2210""
","
",21453,run_exp/static/audio/clip_5_probabilistic.m4a,49,,,,,"<div class='center'><p>Even the most skilled pirate can not rob EVERY ship.</p><p> Some ships will have very strong protections against pirate attacks.</p><p> Blue beard, here, is very, very good at robbing ships, but he won't be successful every time he tries to rob one.</p><p> You can press the <b>‘1’</b> key on the keyboard to choose him.</p><p> Try choosing him 10 times to see how often he succeeds at robbing a ship. </p><p><img src='run_exp/static/images/tutorial/blue.png' height='500'></p></div>",,,,,,,,,,,,,,,,,,
,html-keyboard-response,11,139136,0.0-11.0,"""event"",""trial"",""time""
""fullscreenenter"",""0"",""2210""
","
","
","""event"",""trial"",""time""
""fullscreenenter"",""0"",""2210""
","
",null,<div class='center'><p><img src='run_exp/static/images/tutorial/blue_win.png' height='500'></p></div>,null,,,,,,,,,,,,,,,,,,,,,,,
,html-keyboard-response,12,140707,0.0-12.0,"""event"",""trial"",""time""
""fullscreenenter"",""0"",""2210""
","
","
","""event"",""trial"",""time""
""fullscreenenter"",""0"",""2210""
","
",1568.8,<div class='center'><img src='run_exp/static/images/tutorial/blue.png' height='500'></p></div>,49,,,,,,,,,,,,,,,,,,,,,,,
,html-keyboard-response,13,142210,0.0-13.0,"""event"",""trial"",""time""
""fullscreenenter"",""0"",""2210""
","
","
","""event"",""trial"",""time""
""fullscreenenter"",""0"",""2210""
","
",null,<div class='center'><p><img src='run_exp/static/images/tutorial/blue_win.png' height='500'></p></div>,null,,,,,,,,,,,,,,,,,,,,,,,
,html-keyboard-response,14,143237,0.0-14.0,"""event"",""trial"",""time""
""fullscreenenter"",""0"",""2210""
","
","
","""event"",""trial"",""time""
""fullscreenenter"",""0"",""2210""
","
",1025.3,<div class='center'><img src='run_exp/static/images/tutorial/blue.png' height='500'></p></div>,49,,,,,,,,,,,,,,,,,,,,,,,
,html-keyboard-response,15,144739,0.0-15.0,"""event"",""trial"",""time""
""fullscreenenter"",""0"",""2210""
","
","
","""event"",""trial"",""time""
""fullscreenenter"",""0"",""2210""
","
",null,<div class='center'><p><img src='run_exp/static/images/tutorial/blue_win.png' height='500'></p></div>,null,,,,,,,,,,,,,,,,,,,,,,,
,html-keyboard-response,16,145046,0.0-16.0,"""event"",""trial"",""time""
""fullscreenenter"",""0"",""2210""
","
","
","""event"",""trial"",""time""
""fullscreenenter"",""0"",""2210""
","
",305.3,<div class='center'><img src='run_exp/static/images/tutorial/blue.png' height='500'></p></div>,49,,,,,,,,,,,,,,,,,,,,,,,
,html-keyboard-response,17,146549,0.0-17.0,"""event"",""trial"",""time""
""fullscreenenter"",""0"",""2210""
","
","
","""event"",""trial"",""time""
""fullscreenenter"",""0"",""2210""
","
",null,<div class='center'><p><img src='run_exp/static/images/tutorial/blue_no_win.png' height='500'></p></div>,null,,,,,,,,,,,,,,,,,,,,,,,
,html-keyboard-response,18,148274,0.0-18.0,"""event"",""trial"",""time""
""fullscreenenter"",""0"",""2210""
","
","
","""event"",""trial"",""time""
""fullscreenenter"",""0"",""2210""
","
",1724,<div class='center'><img src='run_exp/static/images/tutorial/blue.png' height='500'></p></div>,49,,,,,,,,,,,,,,,,,,,,,,,
,html-keyboard-response,19,149775,0.0-19.0,"""event"",""trial"",""time""
""fullscreenenter"",""0"",""2210""
","
","
","""event"",""trial"",""time""
""fullscreenenter"",""0"",""2210""
","
",null,<div class='center'><p><img src='run_exp/static/images/tutorial/blue_win.png' height='500'></p></div>,null,,,,,,,,,,,,,,,,,,,,,,,
,html-keyboard-response,20,150046,0.0-20.0,"""event"",""trial"",""time""
""fullscreenenter"",""0"",""2210""
","
","
","""event"",""trial"",""time""
""fullscreenenter"",""0"",""2210""
","
",270.5,<div class='center'><img src='run_exp/static/images/tutorial/blue.png' height='500'></p></div>,49,,,,,,,,,,,,,,,,,,,,,,,
,html-keyboard-response,21,151549,0.0-21.0,"""event"",""trial"",""time""
""fullscreenenter"",""0"",""2210""
","
","
","""event"",""trial"",""time""
""fullscreenenter"",""0"",""2210""
","
",null,<div class='center'><p><img src='run_exp/static/images/tutorial/blue_win.png' height='500'></p></div>,null,,,,,,,,,,,,,,,,,,,,,,,
,html-keyboard-response,22,151879,0.0-22.0,"""event"",""trial"",""time""
""fullscreenenter"",""0"",""2210""
","
","
","""event"",""trial"",""time""
""fullscreenenter"",""0"",""2210""
","
",327.6,<div class='center'><img src='run_exp/static/images/tutorial/blue.png' height='500'></p></div>,49,,,,,,,,,,,,,,,,,,,,,,,
,html-keyboard-response,23,153381,0.0-23.0,"""event"",""trial"",""time""
""fullscreenenter"",""0"",""2210""
","
","
","""event"",""trial"",""time""
""fullscreenenter"",""0"",""2210""
","
",null,<div class='center'><p><img src='run_exp/static/images/tutorial/blue_win.png' height='500'></p></div>,null,,,,,,,,,,,,,,,,,,,,,,,
,html-keyboard-response,24,153636,0.0-24.0,"""event"",""trial"",""time""
""fullscreenenter"",""0"",""2210""
","
","
","""event"",""trial"",""time""
""fullscreenenter"",""0"",""2210""
","
",252.9,<div class='center'><img src='run_exp/static/images/tutorial/blue.png' height='500'></p></div>,49,,,,,,,,,,,,,,,,,,,,,,,
,html-keyboard-response,25,155138,0.0-25.0,"""event"",""trial"",""time""
""fullscreenenter"",""0"",""2210""
","
","
","""event"",""trial"",""time""
""fullscreenenter"",""0"",""2210""
","
",null,<div class='center'><p><img src='run_exp/static/images/tutorial/blue_no_win.png' height='500'></p></div>,null,,,,,,,,,,,,,,,,,,,,,,,
,html-keyboard-response,26,155436,0.0-26.0,"""event"",""trial"",""time""
""fullscreenenter"",""0"",""2210""
","
","
","""event"",""trial"",""time""
""fullscreenenter"",""0"",""2210""
","
",296.4,<div class='center'><img src='run_exp/static/images/tutorial/blue.png' height='500'></p></div>,49,,,,,,,,,,,,,,,,,,,,,,,
,html-keyboard-response,27,156939,0.0-27.0,"""event"",""trial"",""time""
""fullscreenenter"",""0"",""2210""
","
","
","""event"",""trial"",""time""
""fullscreenenter"",""0"",""2210""
","
",null,<div class='center'><p><img src='run_exp/static/images/tutorial/blue_win.png' height='500'></p></div>,null,,,,,,,,,,,,,,,,,,,,,,,
,html-keyboard-response,28,157500,0.0-28.0,"""event"",""trial"",""time""
""fullscreenenter"",""0"",""2210""
","
","
","""event"",""trial"",""time""
""fullscreenenter"",""0"",""2210""
","
",560.1,<div class='center'><img src='run_exp/static/images/tutorial/blue.png' height='500'></p></div>,49,,,,,,,,,,,,,,,,,,,,,,,
,html-keyboard-response,29,159003,0.0-29.0,"""event"",""trial"",""time""
""fullscreenenter"",""0"",""2210""
","
","
","""event"",""trial"",""time""
""fullscreenenter"",""0"",""2210""
","
",null,<div class='center'><p><img src='run_exp/static/images/tutorial/blue_win.png' height='500'></p></div>,null,,,,,,,,,,,,,,,,,,,,,,,
,instruc6,30,164555,0.0-30.0,"""event"",""trial"",""time""
""fullscreenenter"",""0"",""2210""
","
","
","""event"",""trial"",""time""
""fullscreenenter"",""0"",""2210""
","
",null,run_exp/static/audio/clip_6_blue_beard_outcome.m4a,null,,,,,"<div class='center'><p> See, he succeeded in robbing the ships most of the time but not every time. </p></div>",,,,,,,,,,,,,,,,,,
,html-keyboard-response,31,166026,0.0-31.0,"""event"",""trial"",""time""
""fullscreenenter"",""0"",""2210""
","
","
","""event"",""trial"",""time""
""fullscreenenter"",""0"",""2210""
","
",1468.7,"<div class='center'><p> See, he succeeded in robbing the ships most of the time but not every time. </p><p><b>[Press the space bar to continue]</b></p></div>",32,,,,,,,,,,,,,,,,,,,,,,,
,audio-keyboard-response,32,182758,0.0-32.0,"""event"",""trial"",""time""
""fullscreenenter"",""0"",""2210""
","
","
","""event"",""trial"",""time""
""fullscreenenter"",""0"",""2210""
","
",16729.9,run_exp/static/audio/clip_7_pick_pirate.m4a,49,,,,,,,,,,,,,,,,,,,,,,,
,audio-keyboard-response,33,187672,0.0-33.0-0.0,"""event"",""trial"",""time""
""fullscreenenter"",""0"",""2210""
","
","
","""event"",""trial"",""time""
""fullscreenenter"",""0"",""2210""
","
",4908.4,run_exp/static/audio/clip_8_chosen_pirate_win.m4a,32,,,,,,,,,,,,,,,,,,,,,,,
,audio-keyboard-response,34,190080,0.0-33.0-1.0,"""event"",""trial"",""time""
""fullscreenenter"",""0"",""2210""
","
","
","""event"",""trial"",""time""
""fullscreenenter"",""0"",""2210""
","
",2404.8,run_exp/static/audio/clip_9_pick_a_pirate_again.m4a,50,,,,,,,,,,,,,,,,,,,,,,,
,audio-keyboard-response,35,194779,0.0-34.0-0.0,"""event"",""trial"",""time""
""fullscreenenter"",""0"",""2210""
","
","
","""event"",""trial"",""time""
""fullscreenenter"",""0"",""2210""
","
",4693.8,run_exp/static/audio/clip_10_chosen_pirate_loss.m4a,32,,,,,,,,,,,,,,,,,,,,,,,
,instruc9,36,200274,0.0-35.0-0.0,"""event"",""trial"",""time""
""fullscreenenter"",""0"",""2210""
","
","
","""event"",""trial"",""time""
""fullscreenenter"",""0"",""2210""
","
",null,run_exp/static/audio/clip_11_time_out.m4a,null,,,,,"<div class='center'><p>If you don’t make your choice fast enough, you’ll have to wait a few seconds before you can make another one. </p><p><img src='run_exp/static/images/miscellaneous/hurry_up.png' height='500'></p></div>",,,,,,,,,,,,,,,,,,
,html-keyboard-response,37,201052,0.0-35.0-1.0,"""event"",""trial"",""time""
""fullscreenenter"",""0"",""2210""
","
","
","""event"",""trial"",""time""
""fullscreenenter"",""0"",""2210""
","
",776.7,"<div class='center'><p>If you don’t make your choice fast enough, you’ll have to wait a few seconds before you can make another one. </p><p><img src='run_exp/static/images/miscellaneous/hurry_up.png' height='500'></p><p><b>[Press the space bar to continue]</b></p></div>",32,,,,,,,,,,,,,,,,,,,,,,,
,instruc10,38,240135,0.0-35.0-2.0,"""event"",""trial"",""time""
""fullscreenenter"",""0"",""2210""
","
","
","""event"",""trial"",""time""
""fullscreenenter"",""0"",""2210""
","
",null,run_exp/static/audio/clip_12_probe.m4a,null,,,,,"<div class='center'><p>Once you've chosen a pirate, you’ll be shown the ship they are robbing. You will never rob the same ship twice. Ships can be told apart from one another by the image on them. These are the goods that they sell. See, this ship has a travel mug on it. </p><p> You’ll have to remember which island you saw each ship on. You will win more gold coins and hence more bonus money if you remember correctly! To help you remember, you can imagine a story. For example, here, you could imagine a mug full of water in the desert. Or, as another example, if on the forest island, your pirate robbed a ship with an apple on it, you could imagine an apple falling from a tree in the forest. </p><p><img src='run_exp/static/images/tutorial/example_probe.png' height='500'></p></div>",,,,,,,,,,,,,,,,,,
,html-keyboard-response,39,246559,0.0-35.0-3.0,"""event"",""trial"",""time""
""fullscreenenter"",""0"",""2210""
","
","
","""event"",""trial"",""time""
""fullscreenenter"",""0"",""2210""
","
",6421.2,"<div class='center'><p>Once you've chosen a pirate, you’ll be shown the ship they are robbing. You will never rob the same ship twice. Ships can be told apart from one another by the image on them. These are the goods that they sell. See, this ship has a travel mug on it. </p><p> You’ll have to remember which island you saw each ship on. You will win more gold coins and hence more bonus money if you remember correctly! To help you remember, you can imagine a story. For example, here, you could imagine a mug full of water in the desert. Or, as another example, if on the forest island, your pirate robbed a ship with an apple on it, you could imagine an apple falling from a tree in the forest. </p><p><img src='run_exp/static/images/tutorial/example_probe.png' height='500'></p><p><b>[Press the space bar to continue]</b></p></div>",32,,,,,,,,,,,,,,,,,,,,,,,
,instruc11,40,262975,0.0-35.0-4.0,"""event"",""trial"",""time""
""fullscreenenter"",""0"",""2210""
","
","
","""event"",""trial"",""time""
""fullscreenenter"",""0"",""2210""
","
",null,run_exp/static/audio/clip_13_changepoint.m4a,null,,,,,"<div class='center'><p>How successful a pirate is at robbing ships will depend on the island you’re on.</p><p> A pirate may have visited this island many times before and gained a lot of practice robbing ships there.</p><p>So, they’re more likely to be successful than a pirate who has never visited the island before.</p></div>",,,,,,,,,,,,,,,,,,
,html-keyboard-response,41,264458,0.0-35.0-5.0,"""event"",""trial"",""time""
""fullscreenenter"",""0"",""2210""
","
","
","""event"",""trial"",""time""
""fullscreenenter"",""0"",""2210""
","
",1480,"<div class='center'><p>How successful a pirate is at robbing ships will depend on the island you’re on.</p><p> A pirate may have visited this island many times before and gained a lot of practice robbing ships there.</p><p>So, they’re more likely to be successful than a pirate who has never visited the island before.</p><p><b>[Press the space bar to continue]</b></p></div>",32,,,,,,,,,,,,,,,,,,,,,,,
,instruc12,42,305555,0.0-35.0-6.0,"""event"",""trial"",""time""
""fullscreenenter"",""0"",""2210""
","
","
","""event"",""trial"",""time""
""fullscreenenter"",""0"",""2210""
","
",null,run_exp/static/audio/clip_14_drift.m4a,null,,,,,"<div class='center'><p>How successful a pirate is at robbing ships can also change over the time spent on the island. </p><p> Ships may hear from islanders about the pirates coming and will improve their protections against the attack. This may make it harder to rob them.</p><p> Ships may also become lazy and weaken the strength of their protections. This may make it easier to rob them.</p><br><p>Things are always changing on the high seas! So, try your best to pay attention!</p><p><img src='run_exp/static/images/tutorial/contingency.png' height='500'></p></div>",,,,,,,,,,,,,,,,,,
,html-keyboard-response,43,319551,0.0-35.0-7.0,"""event"",""trial"",""time""
""fullscreenenter"",""0"",""2210""
","
","
","""event"",""trial"",""time""
""fullscreenenter"",""0"",""2210""
","
",13993.3,"<div class='center'><p>How successful a pirate is at robbing ships can also change over the time spent on the island. </p><p> Ships may hear from islanders about the pirates coming and will improve their protections against the attack. This may make it harder to rob them.</p><p> Ships may also become lazy and weaken the strength of their protections. This may make it easier to rob them.</p><br><p>Things are always changing on the high seas! So, try your best to pay attention!</p><p><img src='run_exp/static/images/tutorial/contingency.png' height='500'></p><p><b>[Press the space bar to continue]</b></p></div>",32,,,,,,,,,,,,,,,,,,,,,,,
,instruc13,44,354709,0.0-35.0-8.0,"""event"",""trial"",""time""
""fullscreenenter"",""0"",""2210""
","
","
","""event"",""trial"",""time""
""fullscreenenter"",""0"",""2210""
","
",null,run_exp/static/audio/clip_15_summary.m4a,null,,,,,"<div class='center'><p>Let's go over the instructions quickly again. You have two important things to do: </p><b><p> 1. Pick the pirate who is the best at robbing ships on the current island. </p></b><b><p> 2. Remember on which island a ship was robbed.</p> </b><p>The amount of bonus money you can win depends on both.</p><p><br><p>Let’s try a practice game. The game will start by showing you the pirates. First, pick a pirate using the <b> 1, 2, 3 </b> keys on your keyboard. When you are shown a ship, try to remember which island you’re on by making up a story.</p><p>This is just a practice game, so you’re not playing for money. </p><p> Good luck! This game will be very difficult but try your best!</p></div>",,,,,,,,,,,,,,,,,,
,html-keyboard-response,45,359296,0.0-35.0-9.0,"""event"",""trial"",""time""
""fullscreenenter"",""0"",""2210""
","
","
","""event"",""trial"",""time""
""fullscreenenter"",""0"",""2210""
","
",4583.7,"<div class='center'><p>Let's go over the instructions quickly again. You have two important things to do: </p><b><p> 1. Pick the pirate who is the best at robbing ships on the current island. </p></b><b><p> 2. Remember on which island a ship was robbed.</p> </b><p>The amount of bonus money you can win depends on both.</p><p><br><p>Let’s try a practice game. The game will start by showing you the pirates. First, pick a pirate using the <b> 1, 2, 3 </b> keys on your keyboard. When you are shown a ship, try to remember which island you’re on by making up a story.</p><p>This is just a practice game, so you’re not playing for money. </p><p> Good luck! This game will be very difficult but try your best!</p><p><b>[Press the space bar to continue]</b></p></div>",32,,,,,,,,,,,,,,,,,,,,,,,
,do_welcome,46,363312,0.0-35.0-10.0,"""event"",""trial"",""time""
""fullscreenenter"",""0"",""2210""
","
","
","""event"",""trial"",""time""
""fullscreenenter"",""0"",""2210""
","
",null,,,,,,,,null,,,,,,,,,,,,,,,,,
,do_trial,47,370751,0.0-35.0-11.0,"""event"",""trial"",""time""
""fullscreenenter"",""0"",""2210""
","
","
","""event"",""trial"",""time""
""fullscreenenter"",""0"",""2210""
","
",2921,,,,,,,,49,"1,0,0",,,,,,,,,,,,,,,,
,html-keyboard-response,48,371756,0.0-36.0-0.0,"""event"",""trial"",""time""
""fullscreenenter"",""0"",""2210""
","
","
","""event"",""trial"",""time""
""fullscreenenter"",""0"",""2210""
","
",null,<p></p>,null,,,,,,,,,,,,,,,,,,,,,,,
,do_trial,49,377513,0.0-36.0-1.0,"""event"",""trial"",""time""
""fullscreenenter"",""0"",""2210""
","
","
","""event"",""trial"",""time""
""fullscreenenter"",""0"",""2210""
","
",1242.4,,,,,,,,49,"1,1,0",,,,,,,,,,,,,,,,
,html-keyboard-response,50,378517,0.0-37.0-0.0,"""event"",""trial"",""time""
""fullscreenenter"",""0"",""2210""
","
","
","""event"",""trial"",""time""
""fullscreenenter"",""0"",""2210""
","
",null,<p></p>,null,,,,,,,,,,,,,,,,,,,,,,,
,do_trial,51,383742,0.0-37.0-1.0,"""event"",""trial"",""time""
""fullscreenenter"",""0"",""2210""
","
","
","""event"",""trial"",""time""
""fullscreenenter"",""0"",""2210""
","
",708.7,,,,,,,,49,"1,0,1",,,,,,,,,,,,,,,,
,html-keyboard-response,52,384745,0.0-38.0-0.0,"""event"",""trial"",""time""
""fullscreenenter"",""0"",""2210""
","
","
","""event"",""trial"",""time""
""fullscreenenter"",""0"",""2210""
","
",null,<p></p>,null,,,,,,,,,,,,,,,,,,,,,,,
,do_trial,53,390760,0.0-38.0-1.0,"""event"",""trial"",""time""
""fullscreenenter"",""0"",""2210""
","
","
","""event"",""trial"",""time""
""fullscreenenter"",""0"",""2210""
","
",null,,,,,,,,null,"0,1,0",,,,,,,,,,,,,,,,
,html-keyboard-response,54,391767,0.0-39.0-0.0,"""event"",""trial"",""time""
""fullscreenenter"",""0"",""2210""
","
","
","""event"",""trial"",""time""
""fullscreenenter"",""0"",""2210""
","
",null,<p></p>,null,,,,,,,,,,,,,,,,,,,,,,,
,do_trial,55,396713,0.0-39.0-1.0,"""event"",""trial"",""time""
""fullscreenenter"",""0"",""2210""
","
","
","""event"",""trial"",""time""
""fullscreenenter"",""0"",""2210""
","
",439,,,,,,,,49,"0,1,0",,,,,,,,,,,,,,,,
,html-keyboard-response,56,397714,0.0-40.0-0.0,"""event"",""trial"",""time""
""fullscreenenter"",""0"",""2210""
","
","
","""event"",""trial"",""time""
""fullscreenenter"",""0"",""2210""
","
",null,<p></p>,null,,,,,,,,,,,,,,,,,,,,,,,
,do_trial,57,402868,0.0-40.0-1.0,"""event"",""trial"",""time""
""fullscreenenter"",""0"",""2210""
","
","
","""event"",""trial"",""time""
""fullscreenenter"",""0"",""2210""
","
",641.3,,,,,,,,49,"1,0,0",,,,,,,,,,,,,,,,
,do_bye,58,404373,0.0-41.0-0.0,"""event"",""trial"",""time""
""fullscreenenter"",""0"",""2210""
","
","
","""event"",""trial"",""time""
""fullscreenenter"",""0"",""2210""
","
",null,,,,,,,,null,,,,,,,,,,,,,,,,,
,do_travel,59,413379,0.0-41.0-1.0,"""event"",""trial"",""time""
""fullscreenenter"",""0"",""2210""
","
","
","""event"",""trial"",""time""
""fullscreenenter"",""0"",""2210""
","
",null,,,,,,,,null,,,,,,,,,,,,,,,,,
,do_welcome,60,417394,0.0-41.0-2.0,"""event"",""trial"",""time""
""fullscreenenter"",""0"",""2210""
","
","
","""event"",""trial"",""time""
""fullscreenenter"",""0"",""2210""
","
",null,,,,,,,,null,,,,,,,,,,,,,,,,,
,do_trial,61,423990,0.0-41.0-3.0,"""event"",""trial"",""time""
""fullscreenenter"",""0"",""2210""
","
","
","""event"",""trial"",""time""
""fullscreenenter"",""0"",""2210""
","
",2079.6,,,,,,,,49,"1,0,0",,,,,,,,,,,,,,,,
,html-keyboard-response,62,424995,0.0-42.0-0.0,"""event"",""trial"",""time""
""fullscreenenter"",""0"",""2210""
","
","
","""event"",""trial"",""time""
""fullscreenenter"",""0"",""2210""
","
",null,<p></p>,null,,,,,,,,,,,,,,,,,,,,,,,
,do_trial,63,431113,0.0-42.0-1.0,"""event"",""trial"",""time""
""fullscreenenter"",""0"",""2210""
","
","
","""event"",""trial"",""time""
""fullscreenenter"",""0"",""2210""
","
",1613.1,,,,,,,,49,"1,0,1",,,,,,,,,,,,,,,,
,html-keyboard-response,64,432117,0.0-43.0-0.0,"""event"",""trial"",""time""
""fullscreenenter"",""0"",""2210""
","
","
","""event"",""trial"",""time""
""fullscreenenter"",""0"",""2210""
","
",null,<p></p>,null,,,,,,,,,,,,,,,,,,,,,,,
,do_trial,65,437131,0.0-43.0-1.0,"""event"",""trial"",""time""
""fullscreenenter"",""0"",""2210""
","
","
","""event"",""trial"",""time""
""fullscreenenter"",""0"",""2210""
","
",509.6,,,,,,,,49,"1,1,0",,,,,,,,,,,,,,,,
,html-keyboard-response,66,438134,0.0-44.0-0.0,"""event"",""trial"",""time""
""fullscreenenter"",""0"",""2210""
","
","
","""event"",""trial"",""time""
""fullscreenenter"",""0"",""2210""
","
",null,<p></p>,null,,,,,,,,,,,,,,,,,,,,,,,
,do_trial,67,443861,0.0-44.0-1.0,"""event"",""trial"",""time""
""fullscreenenter"",""0"",""2210""
","
","
","""event"",""trial"",""time""
""fullscreenenter"",""0"",""2210""
","
",1211.4,,,,,,,,49,"0,0,1",,,,,,,,,,,,,,,,
,html-keyboard-response,68,444866,0.0-45.0-0.0,"""event"",""trial"",""time""
""fullscreenenter"",""0"",""2210""
","
","
","""event"",""trial"",""time""
""fullscreenenter"",""0"",""2210""
","
",null,<p></p>,null,,,,,,,,,,,,,,,,,,,,,,,
,do_trial,69,450149,0.0-45.0-1.0,"""event"",""trial"",""time""
""fullscreenenter"",""0"",""2210""
","
","
","""event"",""trial"",""time""
""fullscreenenter"",""0"",""2210""
","
",774.7,,,,,,,,49,"1,0,1",,,,,,,,,,,,,,,,
,html-keyboard-response,70,452132,0.0-46.0-0.0,"""event"",""trial"",""time""
""fullscreenenter"",""0"",""2210""
","
","
","""event"",""trial"",""time""
""fullscreenenter"",""0"",""2210""
","
",1978.4,<div class='center'><p><img src='run_exp/static/images/tutorial/prac_best_pirate.png'  height='500'></p></div>,49,,,,,,,,,,,,,,,,,,,,,,,
,html-keyboard-response,71,453596,0.0-47.0-0.0,"""event"",""trial"",""time""
""fullscreenenter"",""0"",""2210""
","
","
","""event"",""trial"",""time""
""fullscreenenter"",""0"",""2210""
","
",1462.9,<div class='center'><p>That's correct! Red beard was the best.</p><p><b>[Press the space bar to continue]</b></p></div>,32,,,,,,,,,,,,,,,,,,,,,,,
,html-keyboard-response,72,456190,0.0-47.0-1.0,"""event"",""trial"",""time""
""fullscreenenter"",""0"",""2210""
","
","
","""event"",""trial"",""time""
""fullscreenenter"",""0"",""2210""
","
",2592.3,<div class='center'><p><img src='run_exp/static/images/tutorial/prac_source.png'  height='500'></p></div>,50,,,,,,,,,,,,,,,,,,,,,,,
,html-keyboard-response,73,457083,0.0-48.0-0.0,"""event"",""trial"",""time""
""fullscreenenter"",""0"",""2210""
","
","
","""event"",""trial"",""time""
""fullscreenenter"",""0"",""2210""
","
",890.3,<div class='center'><p>That's correct! You saw this ship on the cavern island.</p><p><b>[Press the space bar to continue]</b></p></div>,32,,,,,,,,,,,,,,,,,,,,,,,
,quiz_beginning,74,469020,0.0-48.0-1.0,"""event"",""trial"",""time""
""fullscreenenter"",""0"",""2210""
","
","
","""event"",""trial"",""time""
""fullscreenenter"",""0"",""2210""
","
",null,run_exp/static/audio/clip_16_quiz_intro.m4a,null,,,,,"<div class='center'><p>Good job on the practice game! Now, you will be asked some true or false questions to make sure you really understand the rules of the game.</p><p> Press <b>'1'</b> on the keyboard for true and press <b>'2'</b> for false.</p></div>",,,,,,,,,,,,,,,,,,
,audio-keyboard-response,75,474980,0.0-48.0-2.0,"""event"",""trial"",""time""
""fullscreenenter"",""0"",""2210""
","
","
","""event"",""trial"",""time""
""fullscreenenter"",""0"",""2210""
","
",5956.5,run_exp/static/audio/clip_17_q1.m4a,50,,,,,,,,,,,,,,,,,,,,,,,
,q1_err,76,479880,0.0-49.0-0.0,"""event"",""trial"",""time""
""fullscreenenter"",""0"",""2210""
","
","
","""event"",""trial"",""time""
""fullscreenenter"",""0"",""2210""
","
",null,run_exp/static/audio/clip_19_wrong_q1.m4a,null,,,,,<div class='center'><p>That’s incorrect. You win bonus money by collecting gold coins.</p></div>,,,,,,,,,,,,,,,,,,
,html-keyboard-response,77,482597,0.0-49.0-1.0,"""event"",""trial"",""time""
""fullscreenenter"",""0"",""2210""
","
","
","""event"",""trial"",""time""
""fullscreenenter"",""0"",""2210""
","
",2715.1,<div class='center'><p>That’s incorrect. You win bonus money by collecting gold coins.</p><p><b>[Press the space bar to continue]</b></p></div>,32,,,,,,,,,,,,,,,,,,,,,,,
,audio-keyboard-response,78,506472,0.0-49.0-2.0,"""event"",""trial"",""time""
""fullscreenenter"",""0"",""2210""
","
","
","""event"",""trial"",""time""
""fullscreenenter"",""0"",""2210""
","
",23872,run_exp/static/audio/clip_20_q2.m4a,50,,,,,,,,,,,,,,,,,,,,,,,
,correct,79,509524,0.0-50.0-0.0,"""event"",""trial"",""time""
""fullscreenenter"",""0"",""2210""
","
","
","""event"",""trial"",""time""
""fullscreenenter"",""0"",""2210""
","
",null,run_exp/static/audio/clip_18_correct.m4a,null,,,,,<div class='center'><p>That's correct!</p></div>,,,,,,,,,,,,,,,,,,
,html-keyboard-response,80,510303,0.0-50.0-1.0,"""event"",""trial"",""time""
""fullscreenenter"",""0"",""2210""
","
","
","""event"",""trial"",""time""
""fullscreenenter"",""0"",""2210""
","
",776.9,<div class='center'><p>That's correct!</p><p><b>[Press the space bar to continue]</b></p></div>,32,,,,,,,,,,,,,,,,,,,,,,,
,audio-keyboard-response,81,517095,0.0-50.0-2.0,"""event"",""trial"",""time""
""fullscreenenter"",""0"",""2210""
","
","
","""event"",""trial"",""time""
""fullscreenenter"",""0"",""2210""
","
",6791.4,run_exp/static/audio/clip_22_q3.m4a,50,,,,,,,,,,,,,,,,,,,,,,,
,correct,82,519484,0.0-51.0-0.0,"""event"",""trial"",""time""
""fullscreenenter"",""0"",""2210""
","
","
","""event"",""trial"",""time""
""fullscreenenter"",""0"",""2210""
","
",null,run_exp/static/audio/clip_18_correct.m4a,null,,,,,<div class='center'><p>That's correct!</p></div>,,,,,,,,,,,,,,,,,,
,html-keyboard-response,83,520099,0.0-51.0-1.0,"""event"",""trial"",""time""
""fullscreenenter"",""0"",""2210""
","
","
","""event"",""trial"",""time""
""fullscreenenter"",""0"",""2210""
","
",614.5,<div class='center'><p>That's correct!</p><p><b>[Press the space bar to continue]</b></p></div>,32,,,,,,,,,,,,,,,,,,,,,,,
,audio-keyboard-response,84,521804,0.0-51.0-2.0,"""event"",""trial"",""time""
""fullscreenenter"",""0"",""2210""
","
","
","""event"",""trial"",""time""
""fullscreenenter"",""0"",""2210""
","
",1703.3,run_exp/static/audio/clip_24_q4.m4a,49,,,,,,,,,,,,,,,,,,,,,,,
,correct,85,524202,0.0-52.0-0.0,"""event"",""trial"",""time""
""fullscreenenter"",""0"",""2210""
","
","
","""event"",""trial"",""time""
""fullscreenenter"",""0"",""2210""
","
",null,run_exp/static/audio/clip_18_correct.m4a,null,,,,,<div class='center'><p>That's correct!</p></div>,,,,,,,,,,,,,,,,,,
,html-keyboard-response,86,524860,0.0-52.0-1.0,"""event"",""trial"",""time""
""fullscreenenter"",""0"",""2210""
","
","
","""event"",""trial"",""time""
""fullscreenenter"",""0"",""2210""
","
",657.7,<div class='center'><p>That's correct!</p><p><b>[Press the space bar to continue]</b></p></div>,32,,,,,,,,,,,,,,,,,,,,,,,
,q_all_err,87,531044,0.0-53.0-0.0,"""event"",""trial"",""time""
""fullscreenenter"",""0"",""2210""
","
","
","""event"",""trial"",""time""
""fullscreenenter"",""0"",""2210""
","
",null,run_exp/static/audio/clip_26_quiz_redo.m4a,null,,,,,"<div class='center'><p>Oops, you missed some questions. Now that you’ve heard the correct answers. Try the quiz again! </p></div>",,,,,,,,,,,,,,,,,,
,html-keyboard-response,88,531747,0.0-53.0-1.0,"""event"",""trial"",""time""
""fullscreenenter"",""0"",""2210""
","
","
","""event"",""trial"",""time""
""fullscreenenter"",""0"",""2210""
","
",701.1,"<div class='center'><p>Oops, you missed some questions. Now that you’ve heard the correct answers. Try the quiz again! </p><p><b>[Press the space bar to continue]</b></p></div>",32,,,,,,,,,,,,,,,,,,,,,,,
,audio-keyboard-response,89,533063,0.0-53.0-2.0,"""event"",""trial"",""time""
""fullscreenenter"",""0"",""2210""
","
","
","""event"",""trial"",""time""
""fullscreenenter"",""0"",""2210""
","
",1314.2,run_exp/static/audio/clip_17_q1.m4a,49,,,,,,,,,,,,,,,,,,,,,,,
,correct,90,535464,0.0-54.0-0.0,"""event"",""trial"",""time""
""fullscreenenter"",""0"",""2210""
","
","
","""event"",""trial"",""time""
""fullscreenenter"",""0"",""2210""
","
",null,run_exp/static/audio/clip_18_correct.m4a,null,,,,,<div class='center'><p>That's correct!</p></div>,,,,,,,,,,,,,,,,,,
,html-keyboard-response,91,536048,0.0-54.0-1.0,"""event"",""trial"",""time""
""fullscreenenter"",""0"",""2210""
","
","
","""event"",""trial"",""time""
""fullscreenenter"",""0"",""2210""
","
",582.6,<div class='center'><p>That's correct!</p><p><b>[Press the space bar to continue]</b></p></div>,32,,,,,,,,,,,,,,,,,,,,,,,
,audio-keyboard-response,92,542135,0.0-54.0-2.0,"""event"",""trial"",""time""
""fullscreenenter"",""0"",""2210""
","
","
","""event"",""trial"",""time""
""fullscreenenter"",""0"",""2210""
","
",6084.5,run_exp/static/audio/clip_20_q2.m4a,50,,,,,,,,,,,,,,,,,,,,,,,
,correct,93,544524,0.0-55.0-0.0,"""event"",""trial"",""time""
""fullscreenenter"",""0"",""2210""
","
","
","""event"",""trial"",""time""
""fullscreenenter"",""0"",""2210""
","
",null,run_exp/static/audio/clip_18_correct.m4a,null,,,,,<div class='center'><p>That's correct!</p></div>,,,,,,,,,,,,,,,,,,
,html-keyboard-response,94,545248,0.0-55.0-1.0,"""event"",""trial"",""time""
""fullscreenenter"",""0"",""2210""
","
","
","""event"",""trial"",""time""
""fullscreenenter"",""0"",""2210""
","
",722.6,<div class='center'><p>That's correct!</p><p><b>[Press the space bar to continue]</b></p></div>,32,,,,,,,,,,,,,,,,,,,,,,,
,audio-keyboard-response,95,546718,0.0-55.0-2.0,"""event"",""trial"",""time""
""fullscreenenter"",""0"",""2210""
","
","
","""event"",""trial"",""time""
""fullscreenenter"",""0"",""2210""
","
",1467.5,run_exp/static/audio/clip_22_q3.m4a,50,,,,,,,,,,,,,,,,,,,,,,,
,correct,96,549104,0.0-56.0-0.0,"""event"",""trial"",""time""
""fullscreenenter"",""0"",""2210""
","
","
","""event"",""trial"",""time""
""fullscreenenter"",""0"",""2210""
","
",null,run_exp/static/audio/clip_18_correct.m4a,null,,,,,<div class='center'><p>That's correct!</p></div>,,,,,,,,,,,,,,,,,,
,html-keyboard-response,97,549507,0.0-56.0-1.0,"""event"",""trial"",""time""
""fullscreenenter"",""0"",""2210""
","
","
","""event"",""trial"",""time""
""fullscreenenter"",""0"",""2210""
","
",401.3,<div class='center'><p>That's correct!</p><p><b>[Press the space bar to continue]</b></p></div>,32,,,,,,,,,,,,,,,,,,,,,,,
,audio-keyboard-response,98,550939,0.0-56.0-2.0,"""event"",""trial"",""time""
""fullscreenenter"",""0"",""2210""
","
","
","""event"",""trial"",""time""
""fullscreenenter"",""0"",""2210""
","
",1430,run_exp/static/audio/clip_24_q4.m4a,49,,,,,,,,,,,,,,,,,,,,,,,
,correct,99,553383,0.0-57.0-0.0,"""event"",""trial"",""time""
""fullscreenenter"",""0"",""2210""
","
","
","""event"",""trial"",""time""
""fullscreenenter"",""0"",""2210""
","
",null,run_exp/static/audio/clip_18_correct.m4a,null,,,,,<div class='center'><p>That's correct!</p></div>,,,,,,,,,,,,,,,,,,
,html-keyboard-response,100,553906,0.0-57.0-1.0,"""event"",""trial"",""time""
""fullscreenenter"",""0"",""2210""
","
","
","""event"",""trial"",""time""
""fullscreenenter"",""0"",""2210""
","
",523.1,<div class='center'><p>That's correct!</p><p><b>[Press the space bar to continue]</b></p></div>,32,,,,,,,,,,,,,,,,,,,,,,,
,q_all_corr,101,562382,0.0-58.0-0.0,"""event"",""trial"",""time""
""fullscreenenter"",""0"",""2210""
","
","
","""event"",""trial"",""time""
""fullscreenenter"",""0"",""2210""
","
",null,run_exp/static/audio/clip_27_quiz_all_correct.m4a,null,,,,,<div class='center'><p>Good job! You’re now ready to move on to the real game! Remember this game will be difficult but don't get discouraged and try your best!</p></div>,,,,,,,,,,,,,,,,,,
,html-keyboard-response,102,562973,0.0-58.0-1.0,"""event"",""trial"",""time""
""fullscreenenter"",""0"",""2210""
","
","
","""event"",""trial"",""time""
""fullscreenenter"",""0"",""2210""
","
",589.1,<div class='center'><p>Good job! You’re now ready to move on to the real game! Remember this game will be difficult but don't get discouraged and try your best!</p><p><b>[Press the space bar to continue]</b></p></div>,32,,,,,,,,,,,,,,,,,,,,,,,
,do_welcome,103,566987,0.0-59.0-0.0,"""event"",""trial"",""time""
""fullscreenenter"",""0"",""2210""
","
","
","""event"",""trial"",""time""
""fullscreenenter"",""0"",""2210""
","
",null,,,,,,,,null,,,,,,,,,,,,,,,,,
,do_trial,104,573141,0.0-60.0-0.0,"""event"",""trial"",""time""
""fullscreenenter"",""0"",""2210""
","
","
","""event"",""trial"",""time""
""fullscreenenter"",""0"",""2210""
","
",1594.7,,,,,,,,49,"1,1,0",0,city,0,probe-107,0.6,0.3,0.1,1,,,,,,,,
,html-keyboard-response,105,574146,0.0-60.0-1.0,"""event"",""trial"",""time""
""fullscreenenter"",""0"",""2210""
","
","
","""event"",""trial"",""time""
""fullscreenenter"",""0"",""2210""
","
",null,<p></p>,null,,,,,,,,,,,,,,,,,,,,,,,
,do_trial,106,579170,0.0-61.0-0.0,"""event"",""trial"",""time""
""fullscreenenter"",""0"",""2210""
","
","
","""event"",""trial"",""time""
""fullscreenenter"",""0"",""2210""
","
",482.9,,,,,,,,49,"1,0,0",0,city,1,probe-223,0.629784455,0.117141573,0.059229091,1,,,,,,,,
,html-keyboard-response,107,580173,0.0-61.0-1.0,"""event"",""trial"",""time""
""fullscreenenter"",""0"",""2210""
","
","
","""event"",""trial"",""time""
""fullscreenenter"",""0"",""2210""
","
",null,<p></p>,null,,,,,,,,,,,,,,,,,,,,,,,
,do_trial,108,585360,0.0-62.0-0.0,"""event"",""trial"",""time""
""fullscreenenter"",""0"",""2210""
","
","
","""event"",""trial"",""time""
""fullscreenenter"",""0"",""2210""
","
",650.6,,,,,,,,49,"1,0,1",0,city,2,probe-152,0.590537303,0.207616377,0.109166437,1,,,,,,,,
,html-keyboard-response,109,586364,0.0-62.0-1.0,"""event"",""trial"",""time""
""fullscreenenter"",""0"",""2210""
","
","
","""event"",""trial"",""time""
""fullscreenenter"",""0"",""2210""
","
",null,<p></p>,null,,,,,,,,,,,,,,,,,,,,,,,
,do_trial,110,591557,0.0-63.0-0.0,"""event"",""trial"",""time""
""fullscreenenter"",""0"",""2210""
","
","
","""event"",""trial"",""time""
""fullscreenenter"",""0"",""2210""
","
",652.1,,,,,,,,49,"1,1,0",0,city,3,probe-217,0.622098926,0.276935973,0.163725521,1,,,,,,,,
,html-keyboard-response,111,592561,0.0-63.0-1.0,"""event"",""trial"",""time""
""fullscreenenter"",""0"",""2210""
","
","
","""event"",""trial"",""time""
""fullscreenenter"",""0"",""2210""
","
",null,<p></p>,null,,,,,,,,,,,,,,,,,,,,,,,
,do_trial,112,598732,0.0-64.0-0.0,"""event"",""trial"",""time""
""fullscreenenter"",""0"",""2210""
","
","
","""event"",""trial"",""time""
""fullscreenenter"",""0"",""2210""
","
",1609.4,,,,,,,,49,"1,0,0",0,city,4,probe-194,0.808061079,0.364857044,0.152961232,1,,,,,,,,
,html-keyboard-response,113,599735,0.0-64.0-1.0,"""event"",""trial"",""time""
""fullscreenenter"",""0"",""2210""
","
","
","""event"",""trial"",""time""
""fullscreenenter"",""0"",""2210""
","
",null,<p></p>,null,,,,,,,,,,,,,,,,,,,,,,,
,do_trial,114,604881,0.0-65.0-0.0,"""event"",""trial"",""time""
""fullscreenenter"",""0"",""2210""
","
","
","""event"",""trial"",""time""
""fullscreenenter"",""0"",""2210""
","
",606.7,,,,,,,,49,"1,0,0",0,city,5,probe-51,0.70853625,0.382732365,0.130687029,1,,,,,,,,
,html-keyboard-response,115,605884,0.0-65.0-1.0,"""event"",""trial"",""time""
""fullscreenenter"",""0"",""2210""
","
","
","""event"",""trial"",""time""
""fullscreenenter"",""0"",""2210""
","
",null,<p></p>,null,,,,,,,,,,,,,,,,,,,,,,,
,do_trial,116,611445,0.0-66.0-0.0,"""event"",""trial"",""time""
""fullscreenenter"",""0"",""2210""
","
","
","""event"",""trial"",""time""
""fullscreenenter"",""0"",""2210""
","
",999.1,,,,,,,,49,"1,0,0",0,city,6,probe-120,0.686105146,0.205122315,0.130472519,1,,,,,,,,
,html-keyboard-response,117,612448,0.0-66.0-1.0,"""event"",""trial"",""time""
""fullscreenenter"",""0"",""2210""
","
","
","""event"",""trial"",""time""
""fullscreenenter"",""0"",""2210""
","
",null,<p></p>,null,,,,,,,,,,,,,,,,,,,,,,,
,do_trial,118,617783,0.0-67.0-0.0,"""event"",""trial"",""time""
""fullscreenenter"",""0"",""2210""
","
","
","""event"",""trial"",""time""
""fullscreenenter"",""0"",""2210""
","
",776,,,,,,,,49,"0,0,0",0,city,7,probe-226,0.67486271,0.110166726,0.283082056,0,,,,,,,,
,html-keyboard-response,119,618786,0.0-67.0-1.0,"""event"",""trial"",""time""
""fullscreenenter"",""0"",""2210""
","
","
","""event"",""trial"",""time""
""fullscreenenter"",""0"",""2210""
","
",null,<p></p>,null,,,,,,,,,,,,,,,,,,,,,,,
,do_trial,120,624080,0.0-68.0-0.0,"""event"",""trial"",""time""
""fullscreenenter"",""0"",""2210""
","
","
","""event"",""trial"",""time""
""fullscreenenter"",""0"",""2210""
","
",754.6,,,,,,,,49,"1,0,1",0,city,8,probe-73,0.709939246,0.16363987,0.284759047,1,,,,,,,,
,html-keyboard-response,121,625083,0.0-68.0-1.0,"""event"",""trial"",""time""
""fullscreenenter"",""0"",""2210""
","
","
","""event"",""trial"",""time""
""fullscreenenter"",""0"",""2210""
","
",null,<p></p>,null,,,,,,,,,,,,,,,,,,,,,,,
,do_trial,122,630374,0.0-69.0-0.0,"""event"",""trial"",""time""
""fullscreenenter"",""0"",""2210""
","
","
","""event"",""trial"",""time""
""fullscreenenter"",""0"",""2210""
","
",752.7,,,,,,,,49,"0,0,0",0,city,9,probe-49,0.627032937,0.34126889,0.053723598,0,,,,,,,,
,html-keyboard-response,123,631377,0.0-69.0-1.0,"""event"",""trial"",""time""
""fullscreenenter"",""0"",""2210""
","
","
","""event"",""trial"",""time""
""fullscreenenter"",""0"",""2210""
","
",null,<p></p>,null,,,,,,,,,,,,,,,,,,,,,,,
,do_trial,124,636862,0.0-70.0-0.0,"""event"",""trial"",""time""
""fullscreenenter"",""0"",""2210""
","
","
","""event"",""trial"",""time""
""fullscreenenter"",""0"",""2210""
","
",928.5,,,,,,,,49,"1,0,0",0,city,10,probe-146,0.61892263,0.20333138,0.068849406,1,,,,,,,,
,html-keyboard-response,125,637864,0.0-70.0-1.0,"""event"",""trial"",""time""
""fullscreenenter"",""0"",""2210""
","
","
","""event"",""trial"",""time""
""fullscreenenter"",""0"",""2210""
","
",null,<p></p>,null,,,,,,,,,,,,,,,,,,,,,,,
,do_trial,126,643063,0.0-71.0-0.0,"""event"",""trial"",""time""
""fullscreenenter"",""0"",""2210""
","
","
","""event"",""trial"",""time""
""fullscreenenter"",""0"",""2210""
","
",660.4,,,,,,,,49,"1,1,0",0,city,11,probe-17,0.573359205,0.235135165,0.121105701,1,,,,,,,,
,html-keyboard-response,127,644066,0.0-71.0-1.0,"""event"",""trial"",""time""
""fullscreenenter"",""0"",""2210""
","
","
","""event"",""trial"",""time""
""fullscreenenter"",""0"",""2210""
","
",null,<p></p>,null,,,,,,,,,,,,,,,,,,,,,,,
,do_trial,128,649325,0.0-72.0-0.0,"""event"",""trial"",""time""
""fullscreenenter"",""0"",""2210""
","
","
","""event"",""trial"",""time""
""fullscreenenter"",""0"",""2210""
","
",717.1,,,,,,,,49,"0,0,0",0,city,12,probe-160,0.608914014,0.207385316,0.224563418,0,,,,,,,,
,html-keyboard-response,129,650328,0.0-72.0-1.0,"""event"",""trial"",""time""
""fullscreenenter"",""0"",""2210""
","
","
","""event"",""trial"",""time""
""fullscreenenter"",""0"",""2210""
","
",null,<p></p>,null,,,,,,,,,,,,,,,,,,,,,,,
,do_trial,130,655560,0.0-73.0-0.0,"""event"",""trial"",""time""
""fullscreenenter"",""0"",""2210""
","
","
","""event"",""trial"",""time""
""fullscreenenter"",""0"",""2210""
","
",691.5,,,,,,,,49,"0,0,0",0,city,13,probe-118,0.503568252,0.20463092,0.086149204,0,,,,,,,,
,html-keyboard-response,131,656564,0.0-73.0-1.0,"""event"",""trial"",""time""
""fullscreenenter"",""0"",""2210""
","
","
","""event"",""trial"",""time""
""fullscreenenter"",""0"",""2210""
","
",null,<p></p>,null,,,,,,,,,,,,,,,,,,,,,,,
,do_trial,132,662181,0.0-74.0-0.0,"""event"",""trial"",""time""
""fullscreenenter"",""0"",""2210""
","
","
","""event"",""trial"",""time""
""fullscreenenter"",""0"",""2210""
","
",1075.6,,,,,,,,50,"0,0,0",0,city,14,probe-193,0.503419119,0.24529032,0.138520517,0,,,,,,,,
,html-keyboard-response,133,663184,0.0-74.0-1.0,"""event"",""trial"",""time""
""fullscreenenter"",""0"",""2210""
","
","
","""event"",""trial"",""time""
""fullscreenenter"",""0"",""2210""
","
",null,<p></p>,null,,,,,,,,,,,,,,,,,,,,,,,
,do_trial,134,668382,0.0-75.0-0.0,"""event"",""trial"",""time""
""fullscreenenter"",""0"",""2210""
","
","
","""event"",""trial"",""time""
""fullscreenenter"",""0"",""2210""
","
",658.9,,,,,,,,51,"1,1,0",0,city,15,probe-79,0.511830548,0.27449139,0.15217382,0,,,,,,,,
,html-keyboard-response,135,669386,0.0-75.0-1.0,"""event"",""trial"",""time""
""fullscreenenter"",""0"",""2210""
","
","
","""event"",""trial"",""time""
""fullscreenenter"",""0"",""2210""
","
",null,<p></p>,null,,,,,,,,,,,,,,,,,,,,,,,
,do_trial,136,674530,0.0-76.0-0.0,"""event"",""trial"",""time""
""fullscreenenter"",""0"",""2210""
","
","
","""event"",""trial"",""time""
""fullscreenenter"",""0"",""2210""
","
",583.2,,,,,,,,49,"1,0,0",0,city,16,probe-156,0.664192405,0.26524136,0.210504291,1,,,,,,,,
,html-keyboard-response,137,675534,0.0-76.0-1.0,"""event"",""trial"",""time""
""fullscreenenter"",""0"",""2210""
","
","
","""event"",""trial"",""time""
""fullscreenenter"",""0"",""2210""
","
",null,<p></p>,null,,,,,,,,,,,,,,,,,,,,,,,
,do_trial,138,680720,0.0-77.0-0.0,"""event"",""trial"",""time""
""fullscreenenter"",""0"",""2210""
","
","
","""event"",""trial"",""time""
""fullscreenenter"",""0"",""2210""
","
",647.3,,,,,,,,49,"1,0,0",0,city,17,probe-03,0.621159191,0.206761023,0.217079291,1,,,,,,,,
,html-keyboard-response,139,681724,0.0-77.0-1.0,"""event"",""trial"",""time""
""fullscreenenter"",""0"",""2210""
","
","
","""event"",""trial"",""time""
""fullscreenenter"",""0"",""2210""
","
",null,<p></p>,null,,,,,,,,,,,,,,,,,,,,,,,
,do_trial,140,686835,0.0-78.0-0.0,"""event"",""trial"",""time""
""fullscreenenter"",""0"",""2210""
","
","
","""event"",""trial"",""time""
""fullscreenenter"",""0"",""2210""
","
",574.8,,,,,,,,49,"0,1,0",0,city,18,probe-157,0.564519456,0.19971136,0.112762196,0,,,,,,,,
,html-keyboard-response,141,687838,0.0-78.0-1.0,"""event"",""trial"",""time""
""fullscreenenter"",""0"",""2210""
","
","
","""event"",""trial"",""time""
""fullscreenenter"",""0"",""2210""
","
",null,<p></p>,null,,,,,,,,,,,,,,,,,,,,,,,
,do_trial,142,693759,0.0-79.0-0.0,"""event"",""trial"",""time""
""fullscreenenter"",""0"",""2210""
","
","
","""event"",""trial"",""time""
""fullscreenenter"",""0"",""2210""
","
",1368.4,,,,,,,,49,"0,0,0",0,city,19,probe-110,0.526176927,0.217796188,0.236189868,0,,,,,,,,
,html-keyboard-response,143,694761,0.0-79.0-1.0,"""event"",""trial"",""time""
""fullscreenenter"",""0"",""2210""
","
","
","""event"",""trial"",""time""
""fullscreenenter"",""0"",""2210""
","
",null,<p></p>,null,,,,,,,,,,,,,,,,,,,,,,,
,do_trial,144,700113,0.0-80.0-0.0,"""event"",""trial"",""time""
""fullscreenenter"",""0"",""2210""
","
","
","""event"",""trial"",""time""
""fullscreenenter"",""0"",""2210""
","
",811.7,,,,,,,,50,"1,0,0",0,city,20,probe-92,0.44106017,0.276830724,0.268321558,0,,,,,,,,
,html-keyboard-response,145,701116,0.0-80.0-1.0,"""event"",""trial"",""time""
""fullscreenenter"",""0"",""2210""
","
","
","""event"",""trial"",""time""
""fullscreenenter"",""0"",""2210""
","
",null,<p></p>,null,,,,,,,,,,,,,,,,,,,,,,,
,do_trial,146,706191,0.0-81.0-0.0,"""event"",""trial"",""time""
""fullscreenenter"",""0"",""2210""
","
","
","""event"",""trial"",""time""
""fullscreenenter"",""0"",""2210""
","
",533,,,,,,,,51,"1,1,1",0,city,21,probe-173,0.553163354,0.361482081,0.335624706,1,,,,,,,,
,html-keyboard-response,147,707194,0.0-81.0-1.0,"""event"",""trial"",""time""
""fullscreenenter"",""0"",""2210""
","
","
","""event"",""trial"",""time""
""fullscreenenter"",""0"",""2210""
","
",null,<p></p>,null,,,,,,,,,,,,,,,,,,,,,,,
,do_trial,148,712177,0.0-82.0-0.0,"""event"",""trial"",""time""
""fullscreenenter"",""0"",""2210""
","
","
","""event"",""trial"",""time""
""fullscreenenter"",""0"",""2210""
","
",442.6,,,,,,,,51,"1,1,0",0,city,22,probe-229,0.569737175,0.472958614,0.340921326,0,,,,,,,,
,html-keyboard-response,149,713181,0.0-82.0-1.0,"""event"",""trial"",""time""
""fullscreenenter"",""0"",""2210""
","
","
","""event"",""trial"",""time""
""fullscreenenter"",""0"",""2210""
","
",null,<p></p>,null,,,,,,,,,,,,,,,,,,,,,,,
,do_trial,150,719048,0.0-83.0-0.0,"""event"",""trial"",""time""
""fullscreenenter"",""0"",""2210""
","
","
","""event"",""trial"",""time""
""fullscreenenter"",""0"",""2210""
","
",1327.9,,,,,,,,51,"1,0,0",0,city,23,probe-159,0.74490802,0.359247117,0.278151043,0,,,,,,,,
,html-keyboard-response,151,720051,0.0-83.0-1.0,"""event"",""trial"",""time""
""fullscreenenter"",""0"",""2210""
","
","
","""event"",""trial"",""time""
""fullscreenenter"",""0"",""2210""
","
",null,<p></p>,null,,,,,,,,,,,,,,,,,,,,,,,
,do_trial,152,726162,0.0-84.0-0.0,"""event"",""trial"",""time""
""fullscreenenter"",""0"",""2210""
","
","
","""event"",""trial"",""time""
""fullscreenenter"",""0"",""2210""
","
",1571.1,,,,,,,,51,"1,0,0",0,city,24,probe-41,0.624120244,0.437163406,0.23387516,0,,,,,,,,
,html-keyboard-response,153,727166,0.0-84.0-1.0,"""event"",""trial"",""time""
""fullscreenenter"",""0"",""2210""
","
","
","""event"",""trial"",""time""
""fullscreenenter"",""0"",""2210""
","
",null,<p></p>,null,,,,,,,,,,,,,,,,,,,,,,,
,do_trial,154,732674,0.0-85.0-0.0,"""event"",""trial"",""time""
""fullscreenenter"",""0"",""2210""
","
","
","""event"",""trial"",""time""
""fullscreenenter"",""0"",""2210""
","
",968,,,,,,,,50,"0,1,1",0,city,25,probe-91,0.589538987,0.376635498,0.116603578,1,,,,,,,,
,html-keyboard-response,155,733678,0.0-85.0-1.0,"""event"",""trial"",""time""
""fullscreenenter"",""0"",""2210""
","
","
","""event"",""trial"",""time""
""fullscreenenter"",""0"",""2210""
","
",null,<p></p>,null,,,,,,,,,,,,,,,,,,,,,,,
,do_trial,156,738756,0.0-86.0-0.0,"""event"",""trial"",""time""
""fullscreenenter"",""0"",""2210""
","
","
","""event"",""trial"",""time""
""fullscreenenter"",""0"",""2210""
","
",539.1,,,,,,,,50,"1,0,0",0,city,26,probe-134,0.542399702,0.438078212,0.064712676,0,,,,,,,,
,html-keyboard-response,157,739761,0.0-86.0-1.0,"""event"",""trial"",""time""
""fullscreenenter"",""0"",""2210""
","
","
","""event"",""trial"",""time""
""fullscreenenter"",""0"",""2210""
","
",null,<p></p>,null,,,,,,,,,,,,,,,,,,,,,,,
,do_trial,158,744615,0.0-87.0-0.0,"""event"",""trial"",""time""
""fullscreenenter"",""0"",""2210""
","
","
","""event"",""trial"",""time""
""fullscreenenter"",""0"",""2210""
","
",313.8,,,,,,,,50,"0,0,0",0,city,27,probe-225,0.58979332,0.43454687,0.20467142,0,,,,,,,,
,html-keyboard-response,159,745618,0.0-87.0-1.0,"""event"",""trial"",""time""
""fullscreenenter"",""0"",""2210""
","
","
","""event"",""trial"",""time""
""fullscreenenter"",""0"",""2210""
","
",null,<p></p>,null,,,,,,,,,,,,,,,,,,,,,,,
,do_trial,160,750575,0.0-88.0-0.0,"""event"",""trial"",""time""
""fullscreenenter"",""0"",""2210""
","
","
","""event"",""trial"",""time""
""fullscreenenter"",""0"",""2210""
","
",420.7,,,,,,,,49,"1,1,0",0,city,28,probe-117,0.550105825,0.43833282,0.113957036,1,,,,,,,,
,html-keyboard-response,161,751578,0.0-88.0-1.0,"""event"",""trial"",""time""
""fullscreenenter"",""0"",""2210""
","
","
","""event"",""trial"",""time""
""fullscreenenter"",""0"",""2210""
","
",null,<p></p>,null,,,,,,,,,,,,,,,,,,,,,,,
,do_trial,162,756390,0.0-89.0-0.0,"""event"",""trial"",""time""
""fullscreenenter"",""0"",""2210""
","
","
","""event"",""trial"",""time""
""fullscreenenter"",""0"",""2210""
","
",272.1,,,,,,,,49,"1,1,0",0,city,29,probe-115,0.612748898,0.382125668,0.103801489,1,,,,,,,,
,html-keyboard-response,163,757394,0.0-89.0-1.0,"""event"",""trial"",""time""
""fullscreenenter"",""0"",""2210""
","
","
","""event"",""trial"",""time""
""fullscreenenter"",""0"",""2210""
","
",null,<p></p>,null,,,,,,,,,,,,,,,,,,,,,,,
,do_bye,164,758902,0.0-90.0-0.0,"""event"",""trial"",""time""
""fullscreenenter"",""0"",""2210""
","
","
","""event"",""trial"",""time""
""fullscreenenter"",""0"",""2210""
","
",null,,,,,,,,null,,,,,,,,,,,,,,,,,
,break,165,766369,0.0-90.0-1.0,"""event"",""trial"",""time""
""fullscreenenter"",""0"",""2210""
","
","
","""event"",""trial"",""time""
""fullscreenenter"",""0"",""2210""
","
",7463.9,"<div class='center'><p>Time to take a quick break! You have 2 minutes to rest, but you can move on sooner if you'd like.</p><p> Press the <b>space bar</b> to continue.</p></div>",32,,,,,,,,,,,,,,,,,,,,,,,
,do_travel,166,775374,0.0-91.0-0.0,"""event"",""trial"",""time""
""fullscreenenter"",""0"",""2210""
","
","
","""event"",""trial"",""time""
""fullscreenenter"",""0"",""2210""
","
",null,,,,,,,,null,,,,,,,,,,,,,,,,,
,do_welcome,167,779383,0.0-91.0-1.0,"""event"",""trial"",""time""
""fullscreenenter"",""0"",""2210""
","
","
","""event"",""trial"",""time""
""fullscreenenter"",""0"",""2210""
","
",null,,,,,,,,null,,,,,,,,,,,,,,,,,
,do_trial,168,785023,0.0-92.0-0.0,"""event"",""trial"",""time""
""fullscreenenter"",""0"",""2210""
","
","
","""event"",""trial"",""time""
""fullscreenenter"",""0"",""2210""
","
",1087,,,,,,,,49,"1,1,1",1,countryside,30,probe-176,1,0.417065735,0.321822083,1,,,,,,,,
,html-keyboard-response,169,786026,0.0-92.0-1.0,"""event"",""trial"",""time""
""fullscreenenter"",""0"",""2210""
","
","
","""event"",""trial"",""time""
""fullscreenenter"",""0"",""2210""
","
",null,<p></p>,null,,,,,,,,,,,,,,,,,,,,,,,
,do_trial,170,790952,0.0-93.0-0.0,"""event"",""trial"",""time""
""fullscreenenter"",""0"",""2210""
","
","
","""event"",""trial"",""time""
""fullscreenenter"",""0"",""2210""
","
",387.4,,,,,,,,49,"1,0,1",1,countryside,31,probe-202,1,0.187969778,0.295805667,1,,,,,,,,
,html-keyboard-response,171,791956,0.0-93.0-1.0,"""event"",""trial"",""time""
""fullscreenenter"",""0"",""2210""
","
","
","""event"",""trial"",""time""
""fullscreenenter"",""0"",""2210""
","
",null,<p></p>,null,,,,,,,,,,,,,,,,,,,,,,,
,do_trial,172,797040,0.0-94.0-0.0,"""event"",""trial"",""time""
""fullscreenenter"",""0"",""2210""
","
","
","""event"",""trial"",""time""
""fullscreenenter"",""0"",""2210""
","
",543.4,,,,,,,,49,"1,0,0",1,countryside,32,probe-145,1,0.273840006,0.28122551,1,,,,,,,,
,html-keyboard-response,173,798044,0.0-94.0-1.0,"""event"",""trial"",""time""
""fullscreenenter"",""0"",""2210""
","
","
","""event"",""trial"",""time""
""fullscreenenter"",""0"",""2210""
","
",null,<p></p>,null,,,,,,,,,,,,,,,,,,,,,,,
,do_trial,174,803000,0.0-95.0-0.0,"""event"",""trial"",""time""
""fullscreenenter"",""0"",""2210""
","
","
","""event"",""trial"",""time""
""fullscreenenter"",""0"",""2210""
","
",417,,,,,,,,49,"1,0,0",1,countryside,33,probe-126,0.84838837,0.372138365,0.258613605,1,,,,,,,,
,html-keyboard-response,175,804002,0.0-95.0-1.0,"""event"",""trial"",""time""
""fullscreenenter"",""0"",""2210""
","
","
","""event"",""trial"",""time""
""fullscreenenter"",""0"",""2210""
","
",null,<p></p>,null,,,,,,,,,,,,,,,,,,,,,,,
,do_trial,176,809035,0.0-96.0-0.0,"""event"",""trial"",""time""
""fullscreenenter"",""0"",""2210""
","
","
","""event"",""trial"",""time""
""fullscreenenter"",""0"",""2210""
","
",492.3,,,,,,,,49,"1,0,1",1,countryside,34,probe-50,0.827343647,0.28613165,0.380581221,1,,,,,,,,
,html-keyboard-response,177,810037,0.0-96.0-1.0,"""event"",""trial"",""time""
""fullscreenenter"",""0"",""2210""
","
","
","""event"",""trial"",""time""
""fullscreenenter"",""0"",""2210""
","
",null,<p></p>,null,,,,,,,,,,,,,,,,,,,,,,,
,do_trial,178,814877,0.0-97.0-0.0,"""event"",""trial"",""time""
""fullscreenenter"",""0"",""2210""
","
","
","""event"",""trial"",""time""
""fullscreenenter"",""0"",""2210""
","
",306.2,,,,,,,,49,"1,0,1",1,countryside,35,probe-111,0.786344635,0.198141654,0.188458826,1,,,,,,,,
,html-keyboard-response,179,815882,0.0-97.0-1.0,"""event"",""trial"",""time""
""fullscreenenter"",""0"",""2210""
","
","
","""event"",""trial"",""time""
""fullscreenenter"",""0"",""2210""
","
",null,<p></p>,null,,,,,,,,,,,,,,,,,,,,,,,
,do_trial,180,820817,0.0-98.0-0.0,"""event"",""trial"",""time""
""fullscreenenter"",""0"",""2210""
","
","
","""event"",""trial"",""time""
""fullscreenenter"",""0"",""2210""
","
",394.4,,,,,,,,49,"1,0,0",1,countryside,36,probe-71,0.7079886,0.064892584,0.160719895,1,,,,,,,,
,html-keyboard-response,181,821819,0.0-98.0-1.0,"""event"",""trial"",""time""
""fullscreenenter"",""0"",""2210""
","
","
","""event"",""trial"",""time""
""fullscreenenter"",""0"",""2210""
","
",null,<p></p>,null,,,,,,,,,,,,,,,,,,,,,,,
,do_trial,182,826721,0.0-99.0-0.0,"""event"",""trial"",""time""
""fullscreenenter"",""0"",""2210""
","
","
","""event"",""trial"",""time""
""fullscreenenter"",""0"",""2210""
","
",320.4,,,,,,,,49,"1,1,0",1,countryside,37,probe-11,0.568308535,0.128400944,0.103819616,1,,,,,,,,
,html-keyboard-response,183,827724,0.0-99.0-1.0,"""event"",""trial"",""time""
""fullscreenenter"",""0"",""2210""
","
","
","""event"",""trial"",""time""
""fullscreenenter"",""0"",""2210""
","
",null,<p></p>,null,,,,,,,,,,,,,,,,,,,,,,,
,do_trial,184,832560,0.0-100.0-0.0,"""event"",""trial"",""time""
""fullscreenenter"",""0"",""2210""
","
","
","""event"",""trial"",""time""
""fullscreenenter"",""0"",""2210""
","
",276.2,,,,,,,,49,"1,0,0",1,countryside,38,probe-114,0.633808331,0.12312993,0.157601574,1,,,,,,,,
,html-keyboard-response,185,833564,0.0-100.0-1.0,"""event"",""trial"",""time""
""fullscreenenter"",""0"",""2210""
","
","
","""event"",""trial"",""time""
""fullscreenenter"",""0"",""2210""
","
",null,<p></p>,null,,,,,,,,,,,,,,,,,,,,,,,
,do_trial,186,838379,0.0-101.0-0.0,"""event"",""trial"",""time""
""fullscreenenter"",""0"",""2210""
","
","
","""event"",""trial"",""time""
""fullscreenenter"",""0"",""2210""
","
",265.5,,,,,,,,49,"1,1,0",1,countryside,39,probe-150,0.700325643,0.188087968,0.297727515,1,,,,,,,,
,html-keyboard-response,187,839381,0.0-101.0-1.0,"""event"",""trial"",""time""
""fullscreenenter"",""0"",""2210""
","
","
","""event"",""trial"",""time""
""fullscreenenter"",""0"",""2210""
","
",null,<p></p>,null,,,,,,,,,,,,,,,,,,,,,,,
,do_trial,188,844193,0.0-102.0-0.0,"""event"",""trial"",""time""
""fullscreenenter"",""0"",""2210""
","
","
","""event"",""trial"",""time""
""fullscreenenter"",""0"",""2210""
","
",273.4,,,,,,,,49,"1,0,0",1,countryside,40,probe-80,0.720151717,0.192601262,0.211348902,1,,,,,,,,
,html-keyboard-response,189,845196,0.0-102.0-1.0,"""event"",""trial"",""time""
""fullscreenenter"",""0"",""2210""
","
","
","""event"",""trial"",""time""
""fullscreenenter"",""0"",""2210""
","
",null,<p></p>,null,,,,,,,,,,,,,,,,,,,,,,,
,do_trial,190,850066,0.0-103.0-0.0,"""event"",""trial"",""time""
""fullscreenenter"",""0"",""2210""
","
","
","""event"",""trial"",""time""
""fullscreenenter"",""0"",""2210""
","
",330.5,,,,,,,,49,"1,0,0",1,countryside,41,probe-206,0.702710061,0.257169044,0.204484309,1,,,,,,,,
,html-keyboard-response,191,851069,0.0-103.0-1.0,"""event"",""trial"",""time""
""fullscreenenter"",""0"",""2210""
","
","
","""event"",""trial"",""time""
""fullscreenenter"",""0"",""2210""
","
",null,<p></p>,null,,,,,,,,,,,,,,,,,,,,,,,
,do_trial,192,856133,0.0-104.0-0.0,"""event"",""trial"",""time""
""fullscreenenter"",""0"",""2210""
","
","
","""event"",""trial"",""time""
""fullscreenenter"",""0"",""2210""
","
",525.2,,,,,,,,49,"0,0,0",1,countryside,42,probe-204,0.362221301,0.405379422,0.283421568,0,,,,,,,,
,html-keyboard-response,193,857137,0.0-104.0-1.0,"""event"",""trial"",""time""
""fullscreenenter"",""0"",""2210""
","
","
","""event"",""trial"",""time""
""fullscreenenter"",""0"",""2210""
","
",null,<p></p>,null,,,,,,,,,,,,,,,,,,,,,,,
,do_trial,194,861919,0.0-105.0-0.0,"""event"",""trial"",""time""
""fullscreenenter"",""0"",""2210""
","
","
","""event"",""trial"",""time""
""fullscreenenter"",""0"",""2210""
","
",241.5,,,,,,,,49,"0,1,1",1,countryside,43,probe-219,0.249014412,0.3907,0.369180625,0,,,,,,,,
,html-keyboard-response,195,862922,0.0-105.0-1.0,"""event"",""trial"",""time""
""fullscreenenter"",""0"",""2210""
","
","
","""event"",""trial"",""time""
""fullscreenenter"",""0"",""2210""
","
",null,<p></p>,null,,,,,,,,,,,,,,,,,,,,,,,
,do_trial,196,867770,0.0-106.0-0.0,"""event"",""trial"",""time""
""fullscreenenter"",""0"",""2210""
","
","
","""event"",""trial"",""time""
""fullscreenenter"",""0"",""2210""
","
",309.9,,,,,,,,49,"0,0,1",1,countryside,44,probe-02,0.237911838,0.373746734,0.382971595,0,,,,,,,,
,html-keyboard-response,197,868773,0.0-106.0-1.0,"""event"",""trial"",""time""
""fullscreenenter"",""0"",""2210""
","
","
","""event"",""trial"",""time""
""fullscreenenter"",""0"",""2210""
","
",null,<p></p>,null,,,,,,,,,,,,,,,,,,,,,,,
,do_trial,198,873565,0.0-107.0-0.0,"""event"",""trial"",""time""
""fullscreenenter"",""0"",""2210""
","
","
","""event"",""trial"",""time""
""fullscreenenter"",""0"",""2210""
","
",252.3,,,,,,,,50,"1,0,0",1,countryside,45,probe-222,0.059999221,0.489756437,0.450692165,0,,,,,,,,
,html-keyboard-response,199,874568,0.0-107.0-1.0,"""event"",""trial"",""time""
""fullscreenenter"",""0"",""2210""
","
","
","""event"",""trial"",""time""
""fullscreenenter"",""0"",""2210""
","
",null,<p></p>,null,,,,,,,,,,,,,,,,,,,,,,,
,do_trial,200,879350,0.0-108.0-0.0,"""event"",""trial"",""time""
""fullscreenenter"",""0"",""2210""
","
","
","""event"",""trial"",""time""
""fullscreenenter"",""0"",""2210""
","
",243.2,,,,,,,,50,"0,0,0",1,countryside,46,probe-113,0.063491759,0.575026085,0.510154603,0,,,,,,,,
,html-keyboard-response,201,880352,0.0-108.0-1.0,"""event"",""trial"",""time""
""fullscreenenter"",""0"",""2210""
","
","
","""event"",""trial"",""time""
""fullscreenenter"",""0"",""2210""
","
",null,<p></p>,null,,,,,,,,,,,,,,,,,,,,,,,
,do_trial,202,885135,0.0-109.0-0.0,"""event"",""trial"",""time""
""fullscreenenter"",""0"",""2210""
","
","
","""event"",""trial"",""time""
""fullscreenenter"",""0"",""2210""
","
",245,,,,,,,,50,"0,0,0",1,countryside,47,probe-12,0.062240789,0.505774194,0.383908461,0,,,,,,,,
,html-keyboard-response,203,886138,0.0-109.0-1.0,"""event"",""trial"",""time""
""fullscreenenter"",""0"",""2210""
","
","
","""event"",""trial"",""time""
""fullscreenenter"",""0"",""2210""
","
",null,<p></p>,null,,,,,,,,,,,,,,,,,,,,,,,
,do_trial,204,891012,0.0-110.0-0.0,"""event"",""trial"",""time""
""fullscreenenter"",""0"",""2210""
","
","
","""event"",""trial"",""time""
""fullscreenenter"",""0"",""2210""
","
",331.9,,,,,,,,49,"1,1,1",1,countryside,48,probe-13,0.121076214,0.524160075,0.34269106,1,,,,,,,,
,html-keyboard-response,205,892016,0.0-110.0-1.0,"""event"",""trial"",""time""
""fullscreenenter"",""0"",""2210""
","
","
","""event"",""trial"",""time""
""fullscreenenter"",""0"",""2210""
","
",null,<p></p>,null,,,,,,,,,,,,,,,,,,,,,,,
,do_trial,206,896903,0.0-111.0-0.0,"""event"",""trial"",""time""
""fullscreenenter"",""0"",""2210""
","
","
","""event"",""trial"",""time""
""fullscreenenter"",""0"",""2210""
","
",348.4,,,,,,,,49,"0,1,0",1,countryside,49,probe-208,0.241099844,0.519636591,0.506474529,0,,,,,,,,
,html-keyboard-response,207,897907,0.0-111.0-1.0,"""event"",""trial"",""time""
""fullscreenenter"",""0"",""2210""
","
","
","""event"",""trial"",""time""
""fullscreenenter"",""0"",""2210""
","
",null,<p></p>,null,,,,,,,,,,,,,,,,,,,,,,,
,do_trial,208,902738,0.0-112.0-0.0,"""event"",""trial"",""time""
""fullscreenenter"",""0"",""2210""
","
","
","""event"",""trial"",""time""
""fullscreenenter"",""0"",""2210""
","
",288.8,,,,,,,,49,"0,1,1",1,countryside,50,probe-169,0.174246486,0.608571476,0.430772144,0,,,,,,,,
,html-keyboard-response,209,903741,0.0-112.0-1.0,"""event"",""trial"",""time""
""fullscreenenter"",""0"",""2210""
","
","
","""event"",""trial"",""time""
""fullscreenenter"",""0"",""2210""
","
",null,<p></p>,null,,,,,,,,,,,,,,,,,,,,,,,
,do_trial,210,908425,0.0-113.0-0.0,"""event"",""trial"",""time""
""fullscreenenter"",""0"",""2210""
","
","
","""event"",""trial"",""time""
""fullscreenenter"",""0"",""2210""
","
",141.7,,,,,,,,49,"1,1,1",1,countryside,51,probe-58,0.168970851,0.595381008,0.172267742,1,,,,,,,,
,html-keyboard-response,211,909429,0.0-113.0-1.0,"""event"",""trial"",""time""
""fullscreenenter"",""0"",""2210""
","
","
","""event"",""trial"",""time""
""fullscreenenter"",""0"",""2210""
","
",null,<p></p>,null,,,,,,,,,,,,,,,,,,,,,,,
,do_trial,212,914282,0.0-114.0-0.0,"""event"",""trial"",""time""
""fullscreenenter"",""0"",""2210""
","
","
","""event"",""trial"",""time""
""fullscreenenter"",""0"",""2210""
","
",290.6,,,,,,,,49,"0,1,0",1,countryside,52,probe-66,0.05015712,0.565200284,0.22422813,0,,,,,,,,
,html-keyboard-response,213,915287,0.0-114.0-1.0,"""event"",""trial"",""time""
""fullscreenenter"",""0"",""2210""
","
","
","""event"",""trial"",""time""
""fullscreenenter"",""0"",""2210""
","
",null,<p></p>,null,,,,,,,,,,,,,,,,,,,,,,,
,do_trial,214,920140,0.0-115.0-0.0,"""event"",""trial"",""time""
""fullscreenenter"",""0"",""2210""
","
","
","""event"",""trial"",""time""
""fullscreenenter"",""0"",""2210""
","
",295.1,,,,,,,,49,"1,0,0",1,countryside,53,probe-163,0.234260739,0.484145784,0.244757637,1,,,,,,,,
,html-keyboard-response,215,921143,0.0-115.0-1.0,"""event"",""trial"",""time""
""fullscreenenter"",""0"",""2210""
","
","
","""event"",""trial"",""time""
""fullscreenenter"",""0"",""2210""
","
",null,<p></p>,null,,,,,,,,,,,,,,,,,,,,,,,
,do_trial,216,926204,0.0-116.0-0.0,"""event"",""trial"",""time""
""fullscreenenter"",""0"",""2210""
","
","
","""event"",""trial"",""time""
""fullscreenenter"",""0"",""2210""
","
",504.5,,,,,,,,49,"1,1,0",1,countryside,54,probe-48,0.278274122,0.526465619,0.305175209,1,,,,,,,,
,html-keyboard-response,217,927208,0.0-116.0-1.0,"""event"",""trial"",""time""
""fullscreenenter"",""0"",""2210""
","
","
","""event"",""trial"",""time""
""fullscreenenter"",""0"",""2210""
","
",null,<p></p>,null,,,,,,,,,,,,,,,,,,,,,,,
,do_trial,218,932061,0.0-117.0-0.0,"""event"",""trial"",""time""
""fullscreenenter"",""0"",""2210""
","
","
","""event"",""trial"",""time""
""fullscreenenter"",""0"",""2210""
","
",293.3,,,,,,,,49,"0,0,0",1,countryside,55,probe-56,0.093240387,0.520353367,0.329096094,0,,,,,,,,
,html-keyboard-response,219,933063,0.0-117.0-1.0,"""event"",""trial"",""time""
""fullscreenenter"",""0"",""2210""
","
","
","""event"",""trial"",""time""
""fullscreenenter"",""0"",""2210""
","
",null,<p></p>,null,,,,,,,,,,,,,,,,,,,,,,,
,do_trial,220,937894,0.0-118.0-0.0,"""event"",""trial"",""time""
""fullscreenenter"",""0"",""2210""
","
","
","""event"",""trial"",""time""
""fullscreenenter"",""0"",""2210""
","
",292.2,,,,,,,,49,"0,1,0",1,countryside,56,probe-103,0.113762372,0.465796226,0.399425697,0,,,,,,,,
,html-keyboard-response,221,938898,0.0-118.0-1.0,"""event"",""trial"",""time""
""fullscreenenter"",""0"",""2210""
","
","
","""event"",""trial"",""time""
""fullscreenenter"",""0"",""2210""
","
",null,<p></p>,null,,,,,,,,,,,,,,,,,,,,,,,
,do_trial,222,943665,0.0-119.0-0.0,"""event"",""trial"",""time""
""fullscreenenter"",""0"",""2210""
","
","
","""event"",""trial"",""time""
""fullscreenenter"",""0"",""2210""
","
",228.6,,,,,,,,51,"0,1,0",1,countryside,57,probe-227,0.098943065,0.46243243,0.486800286,0,,,,,,,,
,html-keyboard-response,223,944669,0.0-119.0-1.0,"""event"",""trial"",""time""
""fullscreenenter"",""0"",""2210""
","
","
","""event"",""trial"",""time""
""fullscreenenter"",""0"",""2210""
","
",null,<p></p>,null,,,,,,,,,,,,,,,,,,,,,,,
,do_trial,224,949528,0.0-120.0-0.0,"""event"",""trial"",""time""
""fullscreenenter"",""0"",""2210""
","
","
","""event"",""trial"",""time""
""fullscreenenter"",""0"",""2210""
","
",320.7,,,,,,,,51,"0,1,1",1,countryside,58,probe-205,0.07792815,0.349380252,0.337850745,1,,,,,,,,
,html-keyboard-response,225,950531,0.0-120.0-1.0,"""event"",""trial"",""time""
""fullscreenenter"",""0"",""2210""
","
","
","""event"",""trial"",""time""
""fullscreenenter"",""0"",""2210""
","
",null,<p></p>,null,,,,,,,,,,,,,,,,,,,,,,,
,do_trial,226,955326,0.0-121.0-0.0,"""event"",""trial"",""time""
""fullscreenenter"",""0"",""2210""
","
","
","""event"",""trial"",""time""
""fullscreenenter"",""0"",""2210""
","
",255.8,,,,,,,,51,"0,0,0",1,countryside,59,probe-72,0.125579331,0.535303983,0.455431334,0,,,,,,,,
,html-keyboard-response,227,956328,0.0-121.0-1.0,"""event"",""trial"",""time""
""fullscreenenter"",""0"",""2210""
","
","
","""event"",""trial"",""time""
""fullscreenenter"",""0"",""2210""
","
",null,<p></p>,null,,,,,,,,,,,,,,,,,,,,,,,
,do_trial,228,961171,0.0-122.0-0.0,"""event"",""trial"",""time""
""fullscreenenter"",""0"",""2210""
","
","
","""event"",""trial"",""time""
""fullscreenenter"",""0"",""2210""
","
",298.8,,,,,,,,49,"0,1,0",1,countryside,60,probe-21,0.074309231,0.488384558,0.249651916,0,,,,,,,,
,html-keyboard-response,229,962173,0.0-122.0-1.0,"""event"",""trial"",""time""
""fullscreenenter"",""0"",""2210""
","
","
","""event"",""trial"",""time""
""fullscreenenter"",""0"",""2210""
","
",null,<p></p>,null,,,,,,,,,,,,,,,,,,,,,,,
,do_trial,230,967259,0.0-123.0-0.0,"""event"",""trial"",""time""
""fullscreenenter"",""0"",""2210""
","
","
","""event"",""trial"",""time""
""fullscreenenter"",""0"",""2210""
","
",546.8,,,,,,,,49,"0,0,0",1,countryside,61,probe-25,0.053296797,0.580917573,0.314164129,0,,,,,,,,
,html-keyboard-response,231,968262,0.0-123.0-1.0,"""event"",""trial"",""time""
""fullscreenenter"",""0"",""2210""
","
","
","""event"",""trial"",""time""
""fullscreenenter"",""0"",""2210""
","
",null,<p></p>,null,,,,,,,,,,,,,,,,,,,,,,,
,do_trial,232,973071,0.0-124.0-0.0,"""event"",""trial"",""time""
""fullscreenenter"",""0"",""2210""
","
","
","""event"",""trial"",""time""
""fullscreenenter"",""0"",""2210""
","
",253.5,,,,,,,,51,"0,1,0",1,countryside,62,probe-161,0.115789222,0.56810334,0.351026003,0,,,,,,,,
,html-keyboard-response,233,974073,0.0-124.0-1.0,"""event"",""trial"",""time""
""fullscreenenter"",""0"",""2210""
","
","
","""event"",""trial"",""time""
""fullscreenenter"",""0"",""2210""
","
",null,<p></p>,null,,,,,,,,,,,,,,,,,,,,,,,
,do_trial,234,978885,0.0-125.0-0.0,"""event"",""trial"",""time""
""fullscreenenter"",""0"",""2210""
","
","
","""event"",""trial"",""time""
""fullscreenenter"",""0"",""2210""
","
",272,,,,,,,,51,"1,1,1",1,countryside,63,probe-96,0.051684851,0.547376073,0.297591381,1,,,,,,,,
,html-keyboard-response,235,979888,0.0-125.0-1.0,"""event"",""trial"",""time""
""fullscreenenter"",""0"",""2210""
","
","
","""event"",""trial"",""time""
""fullscreenenter"",""0"",""2210""
","
",null,<p></p>,null,,,,,,,,,,,,,,,,,,,,,,,
,do_trial,236,984683,0.0-126.0-0.0,"""event"",""trial"",""time""
""fullscreenenter"",""0"",""2210""
","
","
","""event"",""trial"",""time""
""fullscreenenter"",""0"",""2210""
","
",251.9,,,,,,,,51,"0,1,0",1,countryside,64,probe-139,0.0717754,0.572083283,0.278349761,0,,,,,,,,
,html-keyboard-response,237,985686,0.0-126.0-1.0,"""event"",""trial"",""time""
""fullscreenenter"",""0"",""2210""
","
","
","""event"",""trial"",""time""
""fullscreenenter"",""0"",""2210""
","
",null,<p></p>,null,,,,,,,,,,,,,,,,,,,,,,,
,do_trial,238,990592,0.0-127.0-0.0,"""event"",""trial"",""time""
""fullscreenenter"",""0"",""2210""
","
","
","""event"",""trial"",""time""
""fullscreenenter"",""0"",""2210""
","
",366.6,,,,,,,,51,"0,0,0",1,countryside,65,probe-209,0.177532311,0.594869667,0.239147104,0,,,,,,,,
,html-keyboard-response,239,991595,0.0-127.0-1.0,"""event"",""trial"",""time""
""fullscreenenter"",""0"",""2210""
","
","
","""event"",""trial"",""time""
""fullscreenenter"",""0"",""2210""
","
",null,<p></p>,null,,,,,,,,,,,,,,,,,,,,,,,
,do_trial,240,996413,0.0-128.0-0.0,"""event"",""trial"",""time""
""fullscreenenter"",""0"",""2210""
","
","
","""event"",""trial"",""time""
""fullscreenenter"",""0"",""2210""
","
",281.8,,,,,,,,50,"0,0,1",1,countryside,66,probe-59,0.094310949,0.634590988,0.280524214,0,,,,,,,,
,html-keyboard-response,241,997417,0.0-128.0-1.0,"""event"",""trial"",""time""
""fullscreenenter"",""0"",""2210""
","
","
","""event"",""trial"",""time""
""fullscreenenter"",""0"",""2210""
","
",null,<p></p>,null,,,,,,,,,,,,,,,,,,,,,,,
,do_trial,242,1002425,0.0-129.0-0.0,"""event"",""trial"",""time""
""fullscreenenter"",""0"",""2210""
","
","
","""event"",""trial"",""time""
""fullscreenenter"",""0"",""2210""
","
",449.9,,,,,,,,50,"0,1,0",1,countryside,67,probe-190,0.143312309,0.508427078,0.278721872,1,,,,,,,,
,html-keyboard-response,243,1003429,0.0-129.0-1.0,"""event"",""trial"",""time""
""fullscreenenter"",""0"",""2210""
","
","
","""event"",""trial"",""time""
""fullscreenenter"",""0"",""2210""
","
",null,<p></p>,null,,,,,,,,,,,,,,,,,,,,,,,
,do_trial,244,1007998,0.0-130.0-0.0,"""event"",""trial"",""time""
""fullscreenenter"",""0"",""2210""
","
","
","""event"",""trial"",""time""
""fullscreenenter"",""0"",""2210""
","
",31.60000002,,,,,,,,50,"0,1,0",1,countryside,68,probe-201,0.153433771,0.543883408,0.184347501,1,,,,,,,,
,html-keyboard-response,245,1009007,0.0-130.0-1.0,"""event"",""trial"",""time""
""fullscreenenter"",""0"",""2210""
","
","
","""event"",""trial"",""time""
""fullscreenenter"",""0"",""2210""
","
",null,<p></p>,null,,,,,,,,,,,,,,,,,,,,,,,
,do_trial,246,1013826,0.0-131.0-0.0,"""event"",""trial"",""time""
""fullscreenenter"",""0"",""2210""
","
","
","""event"",""trial"",""time""
""fullscreenenter"",""0"",""2210""
","
",281.5,,,,,,,,50,"0,0,0",1,countryside,69,probe-105,0.237735767,0.673114256,0.108095363,0,,,,,,,,
,html-keyboard-response,247,1014830,0.0-131.0-1.0,"""event"",""trial"",""time""
""fullscreenenter"",""0"",""2210""
","
","
","""event"",""trial"",""time""
""fullscreenenter"",""0"",""2210""
","
",null,<p></p>,null,,,,,,,,,,,,,,,,,,,,,,,
,do_bye,248,1016339,0.0-132.0-0.0,"""event"",""trial"",""time""
""fullscreenenter"",""0"",""2210""
","
","
","""event"",""trial"",""time""
""fullscreenenter"",""0"",""2210""
","
",null,,,,,,,,null,,,,,,,,,,,,,,,,,
,break,249,1019424,0.0-132.0-1.0,"""event"",""trial"",""time""
""fullscreenenter"",""0"",""2210""
","
","
","""event"",""trial"",""time""
""fullscreenenter"",""0"",""2210""
","
",3082,"<div class='center'><p>Time to take a quick break! You have 2 minutes to rest, but you can move on sooner if you'd like.</p><p> Press the <b>space bar</b> to continue.</p></div>",32,,,,,,,,,,,,,,,,,,,,,,,
,do_travel,250,1028427,0.0-133.0-0.0,"""event"",""trial"",""time""
""fullscreenenter"",""0"",""2210""
","
","
","""event"",""trial"",""time""
""fullscreenenter"",""0"",""2210""
","
",null,,,,,,,,null,,,,,,,,,,,,,,,,,
,do_welcome,251,1032441,0.0-133.0-1.0,"""event"",""trial"",""time""
""fullscreenenter"",""0"",""2210""
","
","
","""event"",""trial"",""time""
""fullscreenenter"",""0"",""2210""
","
",null,,,,,,,,null,,,,,,,,,,,,,,,,,
,do_trial,252,1037811,0.0-134.0-0.0,"""event"",""trial"",""time""
""fullscreenenter"",""0"",""2210""
","
","
","""event"",""trial"",""time""
""fullscreenenter"",""0"",""2210""
","
",832.3,,,,,,,,49,"0,1,0",2,mountain,70,probe-101,0.315558993,1,0.24046474,0,,,,,,,,
,html-keyboard-response,253,1038814,0.0-134.0-1.0,"""event"",""trial"",""time""
""fullscreenenter"",""0"",""2210""
","
","
","""event"",""trial"",""time""
""fullscreenenter"",""0"",""2210""
","
",null,<p></p>,null,,,,,,,,,,,,,,,,,,,,,,,
,do_trial,254,1043624,0.0-135.0-0.0,"""event"",""trial"",""time""
""fullscreenenter"",""0"",""2210""
","
","
","""event"",""trial"",""time""
""fullscreenenter"",""0"",""2210""
","
",270.4,,,,,,,,49,"0,1,0",2,mountain,71,probe-63,0.235857549,1,0.300867436,0,,,,,,,,
,html-keyboard-response,255,1044627,0.0-135.0-1.0,"""event"",""trial"",""time""
""fullscreenenter"",""0"",""2210""
","
","
","""event"",""trial"",""time""
""fullscreenenter"",""0"",""2210""
","
",null,<p></p>,null,,,,,,,,,,,,,,,,,,,,,,,
,do_trial,256,1049889,0.0-136.0-0.0,"""event"",""trial"",""time""
""fullscreenenter"",""0"",""2210""
","
","
","""event"",""trial"",""time""
""fullscreenenter"",""0"",""2210""
","
",720,,,,,,,,49,"0,1,1",2,mountain,72,probe-182,0.189351191,0.799469726,0.307084788,0,,,,,,,,
,html-keyboard-response,257,1050892,0.0-136.0-1.0,"""event"",""trial"",""time""
""fullscreenenter"",""0"",""2210""
","
","
","""event"",""trial"",""time""
""fullscreenenter"",""0"",""2210""
","
",null,<p></p>,null,,,,,,,,,,,,,,,,,,,,,,,
,do_trial,258,1055898,0.0-137.0-0.0,"""event"",""trial"",""time""
""fullscreenenter"",""0"",""2210""
","
","
","""event"",""trial"",""time""
""fullscreenenter"",""0"",""2210""
","
",470.8,,,,,,,,50,"0,1,0",2,mountain,73,probe-52,0.209647197,0.746662793,0.198549632,1,,,,,,,,
,html-keyboard-response,259,1056902,0.0-137.0-1.0,"""event"",""trial"",""time""
""fullscreenenter"",""0"",""2210""
","
","
","""event"",""trial"",""time""
""fullscreenenter"",""0"",""2210""
","
",null,<p></p>,null,,,,,,,,,,,,,,,,,,,,,,,
,do_trial,260,1061731,0.0-138.0-0.0,"""event"",""trial"",""time""
""fullscreenenter"",""0"",""2210""
","
","
","""event"",""trial"",""time""
""fullscreenenter"",""0"",""2210""
","
",268,,,,,,,,50,"0,0,0",2,mountain,74,probe-100,0.136068543,0.507222315,0.278135039,0,,,,,,,,
,html-keyboard-response,261,1062734,0.0-138.0-1.0,"""event"",""trial"",""time""
""fullscreenenter"",""0"",""2210""
","
","
","""event"",""trial"",""time""
""fullscreenenter"",""0"",""2210""
","
",null,<p></p>,null,,,,,,,,,,,,,,,,,,,,,,,
,do_trial,262,1067499,0.0-139.0-0.0,"""event"",""trial"",""time""
""fullscreenenter"",""0"",""2210""
","
","
","""event"",""trial"",""time""
""fullscreenenter"",""0"",""2210""
","
",226.6,,,,,,,,50,"0,0,0",2,mountain,75,probe-76,0.123610163,0.648240162,0.208016959,0,,,,,,,,
,html-keyboard-response,263,1068502,0.0-139.0-1.0,"""event"",""trial"",""time""
""fullscreenenter"",""0"",""2210""
","
","
","""event"",""trial"",""time""
""fullscreenenter"",""0"",""2210""
","
",null,<p></p>,null,,,,,,,,,,,,,,,,,,,,,,,
,do_trial,264,1073575,0.0-140.0-0.0,"""event"",""trial"",""time""
""fullscreenenter"",""0"",""2210""
","
","
","""event"",""trial"",""time""
""fullscreenenter"",""0"",""2210""
","
",532.7,,,,,,,,51,"1,1,0",2,mountain,76,probe-19,0.173560277,0.582356358,0.284825652,0,,,,,,,,
,html-keyboard-response,265,1074579,0.0-140.0-1.0,"""event"",""trial"",""time""
""fullscreenenter"",""0"",""2210""
","
","
","""event"",""trial"",""time""
""fullscreenenter"",""0"",""2210""
","
",null,<p></p>,null,,,,,,,,,,,,,,,,,,,,,,,
,do_trial,266,1079447,0.0-141.0-0.0,"""event"",""trial"",""time""
""fullscreenenter"",""0"",""2210""
","
","
","""event"",""trial"",""time""
""fullscreenenter"",""0"",""2210""
","
",328.1,,,,,,,,51,"0,0,1",2,mountain,77,probe-93,0.179597775,0.528036931,0.425341274,1,,,,,,,,
,html-keyboard-response,267,1080451,0.0-141.0-1.0,"""event"",""trial"",""time""
""fullscreenenter"",""0"",""2210""
","
","
","""event"",""trial"",""time""
""fullscreenenter"",""0"",""2210""
","
",null,<p></p>,null,,,,,,,,,,,,,,,,,,,,,,,
,do_trial,268,1085254,0.0-142.0-0.0,"""event"",""trial"",""time""
""fullscreenenter"",""0"",""2210""
","
","
","""event"",""trial"",""time""
""fullscreenenter"",""0"",""2210""
","
",258.3,,,,,,,,51,"0,0,1",2,mountain,78,probe-197,0.143477097,0.510341477,0.32323015,1,,,,,,,,
,html-keyboard-response,269,1086256,0.0-142.0-1.0,"""event"",""trial"",""time""
""fullscreenenter"",""0"",""2210""
","
","
","""event"",""trial"",""time""
""fullscreenenter"",""0"",""2210""
","
",null,<p></p>,null,,,,,,,,,,,,,,,,,,,,,,,
,do_trial,270,1091065,0.0-143.0-0.0,"""event"",""trial"",""time""
""fullscreenenter"",""0"",""2210""
","
","
","""event"",""trial"",""time""
""fullscreenenter"",""0"",""2210""
","
",272.4,,,,,,,,51,"1,1,0",2,mountain,79,probe-37,0.079778617,0.567496211,0.3342788,0,,,,,,,,
,html-keyboard-response,271,1092068,0.0-143.0-1.0,"""event"",""trial"",""time""
""fullscreenenter"",""0"",""2210""
","
","
","""event"",""trial"",""time""
""fullscreenenter"",""0"",""2210""
","
",null,<p></p>,null,,,,,,,,,,,,,,,,,,,,,,,
,do_trial,272,1096847,0.0-144.0-0.0,"""event"",""trial"",""time""
""fullscreenenter"",""0"",""2210""
","
","
","""event"",""trial"",""time""
""fullscreenenter"",""0"",""2210""
","
",239.9,,,,,,,,51,"0,0,0",2,mountain,80,probe-09,0.119269926,0.51475238,0.468906889,0,,,,,,,,
,html-keyboard-response,273,1097850,0.0-144.0-1.0,"""event"",""trial"",""time""
""fullscreenenter"",""0"",""2210""
","
","
","""event"",""trial"",""time""
""fullscreenenter"",""0"",""2210""
","
",null,<p></p>,null,,,,,,,,,,,,,,,,,,,,,,,
,do_trial,274,1102716,0.0-145.0-0.0,"""event"",""trial"",""time""
""fullscreenenter"",""0"",""2210""
","
","
","""event"",""trial"",""time""
""fullscreenenter"",""0"",""2210""
","
",328.5,,,,,,,,51,"0,1,0",2,mountain,81,probe-85,0.052924831,0.487624,0.467002884,0,,,,,,,,
,html-keyboard-response,275,1103724,0.0-145.0-1.0,"""event"",""trial"",""time""
""fullscreenenter"",""0"",""2210""
","
","
","""event"",""trial"",""time""
""fullscreenenter"",""0"",""2210""
","
",null,<p></p>,null,,,,,,,,,,,,,,,,,,,,,,,
,do_trial,276,1108435,0.0-146.0-0.0,"""event"",""trial"",""time""
""fullscreenenter"",""0"",""2210""
","
","
","""event"",""trial"",""time""
""fullscreenenter"",""0"",""2210""
","
",172.1,,,,,,,,51,"0,0,1",2,mountain,82,probe-20,0.051188497,0.227085511,0.54932311,1,,,,,,,,
,html-keyboard-response,277,1109438,0.0-146.0-1.0,"""event"",""trial"",""time""
""fullscreenenter"",""0"",""2210""
","
","
","""event"",""trial"",""time""
""fullscreenenter"",""0"",""2210""
","
",null,<p></p>,null,,,,,,,,,,,,,,,,,,,,,,,
,do_trial,278,1114269,0.0-147.0-0.0,"""event"",""trial"",""time""
""fullscreenenter"",""0"",""2210""
","
","
","""event"",""trial"",""time""
""fullscreenenter"",""0"",""2210""
","
",280.7,,,,,,,,51,"1,0,1",2,mountain,83,probe-136,0.244646915,0.066099034,0.581883895,1,,,,,,,,
,html-keyboard-response,279,1115273,0.0-147.0-1.0,"""event"",""trial"",""time""
""fullscreenenter"",""0"",""2210""
","
","
","""event"",""trial"",""time""
""fullscreenenter"",""0"",""2210""
","
",null,<p></p>,null,,,,,,,,,,,,,,,,,,,,,,,
,do_trial,280,1120235,0.0-148.0-0.0,"""event"",""trial"",""time""
""fullscreenenter"",""0"",""2210""
","
","
","""event"",""trial"",""time""
""fullscreenenter"",""0"",""2210""
","
",402.3,,,,,,,,51,"0,0,1",2,mountain,84,probe-191,0.252847117,0.145176798,0.617682918,1,,,,,,,,
,html-keyboard-response,281,1121237,0.0-148.0-1.0,"""event"",""trial"",""time""
""fullscreenenter"",""0"",""2210""
","
","
","""event"",""trial"",""time""
""fullscreenenter"",""0"",""2210""
","
",null,<p></p>,null,,,,,,,,,,,,,,,,,,,,,,,
,do_trial,282,1125991,0.0-149.0-0.0,"""event"",""trial"",""time""
""fullscreenenter"",""0"",""2210""
","
","
","""event"",""trial"",""time""
""fullscreenenter"",""0"",""2210""
","
",214.2,,,,,,,,51,"0,0,1",2,mountain,85,probe-08,0.085936344,0.13868982,0.658475875,1,,,,,,,,
,html-keyboard-response,283,1126994,0.0-149.0-1.0,"""event"",""trial"",""time""
""fullscreenenter"",""0"",""2210""
","
","
","""event"",""trial"",""time""
""fullscreenenter"",""0"",""2210""
","
",null,<p></p>,null,,,,,,,,,,,,,,,,,,,,,,,
,do_trial,284,1131817,0.0-150.0-0.0,"""event"",""trial"",""time""
""fullscreenenter"",""0"",""2210""
","
","
","""event"",""trial"",""time""
""fullscreenenter"",""0"",""2210""
","
",282.4,,,,,,,,51,"0,0,0",2,mountain,86,probe-175,0.276812251,0.153176578,0.530872698,0,,,,,,,,
,html-keyboard-response,285,1132820,0.0-150.0-1.0,"""event"",""trial"",""time""
""fullscreenenter"",""0"",""2210""
","
","
","""event"",""trial"",""time""
""fullscreenenter"",""0"",""2210""
","
",null,<p></p>,null,,,,,,,,,,,,,,,,,,,,,,,
,do_trial,286,1137610,0.0-151.0-0.0,"""event"",""trial"",""time""
""fullscreenenter"",""0"",""2210""
","
","
","""event"",""trial"",""time""
""fullscreenenter"",""0"",""2210""
","
",248.5,,,,,,,,51,"0,0,0",2,mountain,87,probe-38,0.261545327,0.197784476,0.508868478,0,,,,,,,,
,html-keyboard-response,287,1138613,0.0-151.0-1.0,"""event"",""trial"",""time""
""fullscreenenter"",""0"",""2210""
","
","
","""event"",""trial"",""time""
""fullscreenenter"",""0"",""2210""
","
",null,<p></p>,null,,,,,,,,,,,,,,,,,,,,,,,
,do_trial,288,1143506,0.0-152.0-0.0,"""event"",""trial"",""time""
""fullscreenenter"",""0"",""2210""
","
","
","""event"",""trial"",""time""
""fullscreenenter"",""0"",""2210""
","
",352.9,,,,,,,,51,"0,0,1",2,mountain,88,probe-81,0.2176209,0.11728917,0.518439941,1,,,,,,,,
,html-keyboard-response,289,1144510,0.0-152.0-1.0,"""event"",""trial"",""time""
""fullscreenenter"",""0"",""2210""
","
","
","""event"",""trial"",""time""
""fullscreenenter"",""0"",""2210""
","
",null,<p></p>,null,,,,,,,,,,,,,,,,,,,,,,,
,do_trial,290,1149375,0.0-153.0-0.0,"""event"",""trial"",""time""
""fullscreenenter"",""0"",""2210""
","
","
","""event"",""trial"",""time""
""fullscreenenter"",""0"",""2210""
","
",324.5,,,,,,,,51,"0,0,0",2,mountain,89,probe-39,0.339981343,0.073747736,0.500525214,0,,,,,,,,
,html-keyboard-response,291,1150378,0.0-153.0-1.0,"""event"",""trial"",""time""
""fullscreenenter"",""0"",""2210""
","
","
","""event"",""trial"",""time""
""fullscreenenter"",""0"",""2210""
","
",null,<p></p>,null,,,,,,,,,,,,,,,,,,,,,,,
,do_trial,292,1155196,0.0-154.0-0.0,"""event"",""trial"",""time""
""fullscreenenter"",""0"",""2210""
","
","
","""event"",""trial"",""time""
""fullscreenenter"",""0"",""2210""
","
",279.5,,,,,,,,51,"1,0,0",2,mountain,90,probe-123,0.345734629,0.105154366,0.466690571,0,,,,,,,,
,html-keyboard-response,293,1156199,0.0-154.0-1.0,"""event"",""trial"",""time""
""fullscreenenter"",""0"",""2210""
","
","
","""event"",""trial"",""time""
""fullscreenenter"",""0"",""2210""
","
",null,<p></p>,null,,,,,,,,,,,,,,,,,,,,,,,
,do_trial,294,1160960,0.0-155.0-0.0,"""event"",""trial"",""time""
""fullscreenenter"",""0"",""2210""
","
","
","""event"",""trial"",""time""
""fullscreenenter"",""0"",""2210""
","
",222.6,,,,,,,,51,"0,0,1",2,mountain,91,probe-119,0.320677939,0.108853431,0.569459487,1,,,,,,,,
,html-keyboard-response,295,1161964,0.0-155.0-1.0,"""event"",""trial"",""time""
""fullscreenenter"",""0"",""2210""
","
","
","""event"",""trial"",""time""
""fullscreenenter"",""0"",""2210""
","
",null,<p></p>,null,,,,,,,,,,,,,,,,,,,,,,,
,do_trial,296,1166789,0.0-156.0-0.0,"""event"",""trial"",""time""
""fullscreenenter"",""0"",""2210""
","
","
","""event"",""trial"",""time""
""fullscreenenter"",""0"",""2210""
","
",285,,,,,,,,51,"0,0,1",2,mountain,92,probe-211,0.348649611,0.08699843,0.75813193,1,,,,,,,,
,html-keyboard-response,297,1167792,0.0-156.0-1.0,"""event"",""trial"",""time""
""fullscreenenter"",""0"",""2210""
","
","
","""event"",""trial"",""time""
""fullscreenenter"",""0"",""2210""
","
",null,<p></p>,null,,,,,,,,,,,,,,,,,,,,,,,
,do_trial,298,1172585,0.0-157.0-0.0,"""event"",""trial"",""time""
""fullscreenenter"",""0"",""2210""
","
","
","""event"",""trial"",""time""
""fullscreenenter"",""0"",""2210""
","
",253.5,,,,,,,,51,"0,0,1",2,mountain,93,probe-183,0.312328271,0.084243823,0.587150448,1,,,,,,,,
,html-keyboard-response,299,1173589,0.0-157.0-1.0,"""event"",""trial"",""time""
""fullscreenenter"",""0"",""2210""
","
","
","""event"",""trial"",""time""
""fullscreenenter"",""0"",""2210""
","
",null,<p></p>,null,,,,,,,,,,,,,,,,,,,,,,,
,do_trial,300,1178408,0.0-158.0-0.0,"""event"",""trial"",""time""
""fullscreenenter"",""0"",""2210""
","
","
","""event"",""trial"",""time""
""fullscreenenter"",""0"",""2210""
","
",284.1,,,,,,,,51,"0,1,0",2,mountain,94,probe-75,0.279546437,0.118762089,0.591429735,0,,,,,,,,
,html-keyboard-response,301,1179412,0.0-158.0-1.0,"""event"",""trial"",""time""
""fullscreenenter"",""0"",""2210""
","
","
","""event"",""trial"",""time""
""fullscreenenter"",""0"",""2210""
","
",null,<p></p>,null,,,,,,,,,,,,,,,,,,,,,,,
,do_trial,302,1184227,0.0-159.0-0.0,"""event"",""trial"",""time""
""fullscreenenter"",""0"",""2210""
","
","
","""event"",""trial"",""time""
""fullscreenenter"",""0"",""2210""
","
",275.1,,,,,,,,51,"1,0,1",2,mountain,95,probe-122,0.319730694,0.182411169,0.616036543,1,,,,,,,,
,html-keyboard-response,303,1185229,0.0-159.0-1.0,"""event"",""trial"",""time""
""fullscreenenter"",""0"",""2210""
","
","
","""event"",""trial"",""time""
""fullscreenenter"",""0"",""2210""
","
",null,<p></p>,null,,,,,,,,,,,,,,,,,,,,,,,
,do_trial,304,1190680,0.0-160.0-0.0,"""event"",""trial"",""time""
""fullscreenenter"",""0"",""2210""
","
","
","""event"",""trial"",""time""
""fullscreenenter"",""0"",""2210""
","
",896,,,,,,,,51,"0,0,1",2,mountain,96,probe-40,0.211555144,0.296080231,0.612893859,1,,,,,,,,
,html-keyboard-response,305,1191683,0.0-160.0-1.0,"""event"",""trial"",""time""
""fullscreenenter"",""0"",""2210""
","
","
","""event"",""trial"",""time""
""fullscreenenter"",""0"",""2210""
","
",null,<p></p>,null,,,,,,,,,,,,,,,,,,,,,,,
,do_trial,306,1196717,0.0-161.0-0.0,"""event"",""trial"",""time""
""fullscreenenter"",""0"",""2210""
","
","
","""event"",""trial"",""time""
""fullscreenenter"",""0"",""2210""
","
",480.6,,,,,,,,51,"0,0,0",2,mountain,97,probe-15,0.072791961,0.140240691,0.521719816,0,,,,,,,,
,html-keyboard-response,307,1197720,0.0-161.0-1.0,"""event"",""trial"",""time""
""fullscreenenter"",""0"",""2210""
","
","
","""event"",""trial"",""time""
""fullscreenenter"",""0"",""2210""
","
",null,<p></p>,null,,,,,,,,,,,,,,,,,,,,,,,
,do_trial,308,1202642,0.0-162.0-0.0,"""event"",""trial"",""time""
""fullscreenenter"",""0"",""2210""
","
","
","""event"",""trial"",""time""
""fullscreenenter"",""0"",""2210""
","
",362.1,,,,,,,,51,"1,1,0",2,mountain,98,probe-18,0.215403818,0.189182386,0.593966647,0,,,,,,,,
,html-keyboard-response,309,1203644,0.0-162.0-1.0,"""event"",""trial"",""time""
""fullscreenenter"",""0"",""2210""
","
","
","""event"",""trial"",""time""
""fullscreenenter"",""0"",""2210""
","
",null,<p></p>,null,,,,,,,,,,,,,,,,,,,,,,,
,do_trial,310,1208535,0.0-163.0-0.0,"""event"",""trial"",""time""
""fullscreenenter"",""0"",""2210""
","
","
","""event"",""trial"",""time""
""fullscreenenter"",""0"",""2210""
","
",328.4,,,,,,,,51,"0,0,1",2,mountain,99,probe-230,0.259016038,0.184186799,0.624823786,1,,,,,,,,
,html-keyboard-response,311,1209549,0.0-163.0-1.0,"""event"",""trial"",""time""
""fullscreenenter"",""0"",""2210""
","
","
","""event"",""trial"",""time""
""fullscreenenter"",""0"",""2210""
","
",null,<p></p>,null,,,,,,,,,,,,,,,,,,,,,,,
,do_trial,312,1214401,0.0-164.0-0.0,"""event"",""trial"",""time""
""fullscreenenter"",""0"",""2210""
","
","
","""event"",""trial"",""time""
""fullscreenenter"",""0"",""2210""
","
",312.1,,,,,,,,51,"0,0,0",2,mountain,100,probe-142,0.230934691,0.103906386,0.617075832,0,,,,,,,,
,html-keyboard-response,313,1215404,0.0-164.0-1.0,"""event"",""trial"",""time""
""fullscreenenter"",""0"",""2210""
","
","
","""event"",""trial"",""time""
""fullscreenenter"",""0"",""2210""
","
",null,<p></p>,null,,,,,,,,,,,,,,,,,,,,,,,
,do_trial,314,1220259,0.0-165.0-0.0,"""event"",""trial"",""time""
""fullscreenenter"",""0"",""2210""
","
","
","""event"",""trial"",""time""
""fullscreenenter"",""0"",""2210""
","
",315.4,,,,,,,,51,"0,0,1",2,mountain,101,probe-158,0.217979707,0.187991645,0.699417798,1,,,,,,,,
,html-keyboard-response,315,1221264,0.0-165.0-1.0,"""event"",""trial"",""time""
""fullscreenenter"",""0"",""2210""
","
","
","""event"",""trial"",""time""
""fullscreenenter"",""0"",""2210""
","
",null,<p></p>,null,,,,,,,,,,,,,,,,,,,,,,,
,do_trial,316,1226093,0.0-166.0-0.0,"""event"",""trial"",""time""
""fullscreenenter"",""0"",""2210""
","
","
","""event"",""trial"",""time""
""fullscreenenter"",""0"",""2210""
","
",289.2,,,,,,,,51,"0,0,1",2,mountain,102,probe-54,0.206271779,0.099421522,0.719410987,1,,,,,,,,
,html-keyboard-response,317,1227097,0.0-166.0-1.0,"""event"",""trial"",""time""
""fullscreenenter"",""0"",""2210""
","
","
","""event"",""trial"",""time""
""fullscreenenter"",""0"",""2210""
","
",null,<p></p>,null,,,,,,,,,,,,,,,,,,,,,,,
,do_trial,318,1231960,0.0-167.0-0.0,"""event"",""trial"",""time""
""fullscreenenter"",""0"",""2210""
","
","
","""event"",""trial"",""time""
""fullscreenenter"",""0"",""2210""
","
",301.9,,,,,,,,51,"1,0,1",2,mountain,103,probe-199,0.244338822,0.178395344,0.601534432,1,,,,,,,,
,html-keyboard-response,319,1232962,0.0-167.0-1.0,"""event"",""trial"",""time""
""fullscreenenter"",""0"",""2210""
","
","
","""event"",""trial"",""time""
""fullscreenenter"",""0"",""2210""
","
",null,<p></p>,null,,,,,,,,,,,,,,,,,,,,,,,
,do_trial,320,1237780,0.0-168.0-0.0,"""event"",""trial"",""time""
""fullscreenenter"",""0"",""2210""
","
","
","""event"",""trial"",""time""
""fullscreenenter"",""0"",""2210""
","
",272,,,,,,,,51,"1,1,1",2,mountain,104,probe-104,0.313315744,0.299599132,0.684693722,1,,,,,,,,
,html-keyboard-response,321,1238782,0.0-168.0-1.0,"""event"",""trial"",""time""
""fullscreenenter"",""0"",""2210""
","
","
","""event"",""trial"",""time""
""fullscreenenter"",""0"",""2210""
","
",null,<p></p>,null,,,,,,,,,,,,,,,,,,,,,,,
,do_trial,322,1243572,0.0-169.0-0.0,"""event"",""trial"",""time""
""fullscreenenter"",""0"",""2210""
","
","
","""event"",""trial"",""time""
""fullscreenenter"",""0"",""2210""
","
",250.7,,,,,,,,51,"1,0,1",2,mountain,105,probe-228,0.282700125,0.190708546,0.516065251,1,,,,,,,,
,html-keyboard-response,323,1244575,0.0-169.0-1.0,"""event"",""trial"",""time""
""fullscreenenter"",""0"",""2210""
","
","
","""event"",""trial"",""time""
""fullscreenenter"",""0"",""2210""
","
",null,<p></p>,null,,,,,,,,,,,,,,,,,,,,,,,
,do_trial,324,1249553,0.0-170.0-0.0,"""event"",""trial"",""time""
""fullscreenenter"",""0"",""2210""
","
","
","""event"",""trial"",""time""
""fullscreenenter"",""0"",""2210""
","
",443.5,,,,,,,,51,"1,1,1",2,mountain,106,probe-31,0.429872926,0.248338317,0.536329884,1,,,,,,,,
,html-keyboard-response,325,1250557,0.0-170.0-1.0,"""event"",""trial"",""time""
""fullscreenenter"",""0"",""2210""
","
","
","""event"",""trial"",""time""
""fullscreenenter"",""0"",""2210""
","
",null,<p></p>,null,,,,,,,,,,,,,,,,,,,,,,,
,do_trial,326,1255393,0.0-171.0-0.0,"""event"",""trial"",""time""
""fullscreenenter"",""0"",""2210""
","
","
","""event"",""trial"",""time""
""fullscreenenter"",""0"",""2210""
","
",295.3,,,,,,,,51,"0,0,0",2,mountain,107,probe-141,0.449062007,0.251876643,0.551127535,0,,,,,,,,
,html-keyboard-response,327,1256398,0.0-171.0-1.0,"""event"",""trial"",""time""
""fullscreenenter"",""0"",""2210""
","
","
","""event"",""trial"",""time""
""fullscreenenter"",""0"",""2210""
","
",null,<p></p>,null,,,,,,,,,,,,,,,,,,,,,,,
,do_trial,328,1261239,0.0-172.0-0.0,"""event"",""trial"",""time""
""fullscreenenter"",""0"",""2210""
","
","
","""event"",""trial"",""time""
""fullscreenenter"",""0"",""2210""
","
",302,,,,,,,,51,"0,1,0",2,mountain,108,probe-04,0.325769113,0.204221904,0.50449966,0,,,,,,,,
,html-keyboard-response,329,1262241,0.0-172.0-1.0,"""event"",""trial"",""time""
""fullscreenenter"",""0"",""2210""
","
","
","""event"",""trial"",""time""
""fullscreenenter"",""0"",""2210""
","
",null,<p></p>,null,,,,,,,,,,,,,,,,,,,,,,,
,do_trial,330,1267018,0.0-173.0-0.0,"""event"",""trial"",""time""
""fullscreenenter"",""0"",""2210""
","
","
","""event"",""trial"",""time""
""fullscreenenter"",""0"",""2210""
","
