"success","trial_type","trial_index","time_elapsed","internal_node_id","rt","stimulus","key_press","subject_id","response","choice_outcomes","context_n","context_img_id","trial_n","probe_img_id","pR_red","pR_white","pR_black","outcome","contextArray_ind","validImageProbes","invalidImageProbes","pRew_Red","pRew_White","pRew_Black","availableForMemProbe","choice_blocks"
"true","fullscreen","0","4550","0.0-0.0","","","","","","","","","","","","","","","","","","","","","",""
"","pavlovia","1","4556","0.0-1.0","","","","","","","","","","","","","","","","","","","","","",""
"","html-keyboard-response","2","24528","0.0-2.0","19971","<div class='center'><p>Welcome! This is the first day of the experiment which will last ~30 minutes. In this experiment, you are the head captain of a pirate ship traveling around the world to different places. You will complete several different tasks during this experiment. Here is an overview of these tasks:</p><br><p>Day 1</p><p>1. Tutorial and quiz</p><p>2. Pick a pirate game in 6 different places</p><br><p>Day 2</p><p>3. Pick a pirate game and memory game</p><p>4. Final questions and payment</p><br><p>If you complete the entire experiment, you will receive $15 and a possible bonus payment.</p><p><b>[Press the space bar to begin the tutorial]</b></p></div>","32","612d68e3c29fe8ce86a5d841","","","","","","","","","","","","","","","","","",""
"","html-keyboard-response","3","32514","0.0-3.0","7985","<div class='center'><p>You’ll stop at these 6 islands on your journey. You'll be able to see them in the distance from your ship.</p><p><img src='run_exp/static/images/contexts/all_contexts.png' height='500'></p><p><b>[Press the space bar to continue]</b></p></div>","32","","","","","","","","","","","","","","","","","","",""
"","html-keyboard-response","4","42528","0.0-4.0","10012","<div class='center'><p> The pirates on your ship will rob other ships as they leave island</p> These ships have just sold their things to the people living on the island, so they will have lots and lots of gold on them.</p><p><img src='run_exp/static/images/tutorial/ship_center.png' height='400'></p><p><b>[Press the space bar to continue]</b></p></div>","32","","","","","","","","","","","","","","","","","","",""
"","html-keyboard-response","5","60819","0.0-5.0","18291","<div class='center'><p>As the head captain, you do not have to rob any ships yourself.</p><p>Another pirate will be doing the robbing for you. </p><p><img src='run_exp/static/images/tutorial/pirates_all_crop.png' height='200'></p><p>If they could rob the ship, then you will get a stack of gold coins like this:</p><p><img src='run_exp/static/images/tutorial/reward.png' height='150'></p><p> If they couldn't rob the ship, then you will get no gold coins and you'll see a big red x like this: </p><p><img src='run_exp/static/images/tutorial/reward_no.png' height='150'></p><p> How much bonus money you make is based on how many gold coins you collect.</p><p><b>[Press the space bar to continue]</b></p><div>","32","","","","","","","","","","","","","","","","","","",""
"","html-keyboard-response","6","77429","0.0-6.0","16609","<div class='center'><p>Even the most skilled pirate can not rob EVERY ship.</p><p> Some ships will have very strong defenses against pirate attacks.</p><p> For example, blue beard, here, is very, very good at robbing ships.</p><p> You can press the <b>‘1’</b> button on the keyboard to choose him.</p><p> Try choosing him 10 times to see how often he can rob a ship. </p><p><img src='run_exp/static/images/tutorial/blue.png' height='500'></p></div>","49","","","","","","","","","","","","","","","","","","",""
"","html-keyboard-response","7","78932","0.0-7.0","null","<div class='center'><p><img src='run_exp/static/images/tutorial/blue_win.png' height='500'></p></div>","null","","","","","","","","","","","","","","","","","","",""
"","html-keyboard-response","8","81112","0.0-8.0","2179","<div class='center'><img src='run_exp/static/images/tutorial/blue.png' height='500'></p></div>","49","","","","","","","","","","","","","","","","","","",""
"","html-keyboard-response","9","82614","0.0-9.0","null","<div class='center'><p><img src='run_exp/static/images/tutorial/blue_win.png' height='500'></p></div>","null","","","","","","","","","","","","","","","","","","",""
"","html-keyboard-response","10","82941","0.0-10.0","325","<div class='center'><img src='run_exp/static/images/tutorial/blue.png' height='500'></p></div>","49","","","","","","","","","","","","","","","","","","",""
"","html-keyboard-response","11","84443","0.0-11.0","null","<div class='center'><p><img src='run_exp/static/images/tutorial/blue_win.png' height='500'></p></div>","null","","","","","","","","","","","","","","","","","","",""
"","html-keyboard-response","12","84544","0.0-12.0","99.0000000000291","<div class='center'><img src='run_exp/static/images/tutorial/blue.png' height='500'></p></div>","49","","","","","","","","","","","","","","","","","","",""
"","html-keyboard-response","13","86046","0.0-13.0","null","<div class='center'><p><img src='run_exp/static/images/tutorial/blue_no_win.png' height='500'></p></div>","null","","","","","","","","","","","","","","","","","","",""
"","html-keyboard-response","14","86317","0.0-14.0","269","<div class='center'><img src='run_exp/static/images/tutorial/blue.png' height='500'></p></div>","49","","","","","","","","","","","","","","","","","","",""
"","html-keyboard-response","15","87819","0.0-15.0","null","<div class='center'><p><img src='run_exp/static/images/tutorial/blue_win.png' height='500'></p></div>","null","","","","","","","","","","","","","","","","","","",""
"","html-keyboard-response","16","87847","0.0-16.0","26","<div class='center'><img src='run_exp/static/images/tutorial/blue.png' height='500'></p></div>","49","","","","","","","","","","","","","","","","","","",""
"","html-keyboard-response","17","89349","0.0-17.0","null","<div class='center'><p><img src='run_exp/static/images/tutorial/blue_win.png' height='500'></p></div>","null","","","","","","","","","","","","","","","","","","",""
"","html-keyboard-response","18","89445","0.0-18.0","94","<div class='center'><img src='run_exp/static/images/tutorial/blue.png' height='500'></p></div>","49","","","","","","","","","","","","","","","","","","",""
"","html-keyboard-response","19","90947","0.0-19.0","null","<div class='center'><p><img src='run_exp/static/images/tutorial/blue_win.png' height='500'></p></div>","null","","","","","","","","","","","","","","","","","","",""
"","html-keyboard-response","20","91048","0.0-20.0","99.9999999999709","<div class='center'><img src='run_exp/static/images/tutorial/blue.png' height='500'></p></div>","49","","","","","","","","","","","","","","","","","","",""
"","html-keyboard-response","21","92550","0.0-21.0","null","<div class='center'><p><img src='run_exp/static/images/tutorial/blue_no_win.png' height='500'></p></div>","null","","","","","","","","","","","","","","","","","","",""
"","html-keyboard-response","22","92805","0.0-22.0","253","<div class='center'><img src='run_exp/static/images/tutorial/blue.png' height='500'></p></div>","49","","","","","","","","","","","","","","","","","","",""
"","html-keyboard-response","23","94307","0.0-23.0","null","<div class='center'><p><img src='run_exp/static/images/tutorial/blue_win.png' height='500'></p></div>","null","","","","","","","","","","","","","","","","","","",""
"","html-keyboard-response","24","94520","0.0-24.0","211.0000000000291","<div class='center'><img src='run_exp/static/images/tutorial/blue.png' height='500'></p></div>","49","","","","","","","","","","","","","","","","","","",""
"","html-keyboard-response","25","96022","0.0-25.0","null","<div class='center'><p><img src='run_exp/static/images/tutorial/blue_win.png' height='500'></p></div>","null","","","","","","","","","","","","","","","","","","",""
"","html-keyboard-response","26","99024","0.0-26.0","3000","<div class='center'><p> See, he could rob the ships most of the time but not every time. </p><p><b>[Press the space bar to continue]</b></p></div>","32","","","","","","","","","","","","","","","","","","",""
"","html-keyboard-response","27","120447","0.0-27.0","21423","<div class='center'><p>You will get to choose which of three pirates you want to rob the next ship. <p>Press the <b>‘1’</b> button on your keyboard to pick the pirate with the red beard.</p><p> Press <b>‘2’</b> to pick the pirate with the white beard.</p><p> Press <b>‘3’</b> to pick the pirate with the black beard.</p><p>Try picking a pirate now!</p><p><img src='run_exp/static/images/tutorial/all_pirates.png' height='500'></p></div>","51","","","","","","","","","","","","","","","","","","",""
"","html-keyboard-response","28","122223","0.0-28.0-0.0","1773","<div class='center'><p>This pirate could rob the ship!</p><p><img src='run_exp/static/images/tutorial/black_win.png' height='500'></p><p><b>[Press the space bar to continue]</b></p></div>","32","","","","","","","","","","","","","","","","","","",""
"","html-keyboard-response","29","124439","0.0-28.0-1.0","2215","<div class='center'><p>Now try choosing another</p><p><img src='run_exp/static/images/tutorial/all_pirates.png' height='500'></p></div>","49","","","","","","","","","","","","","","","","","","",""
"","html-keyboard-response","30","125847","0.0-29.0-0.0","1406.000000000029","<div class='center'><p>This pirate could not rob the ship.</p><p><img src='run_exp/static/images/tutorial/red_no_win.png' height='500'></p><p><b>[Press the space bar to continue]</b></p></div>","32","","","","","","","","","","","","","","","","","","",""
"","html-keyboard-response","31","133587","0.0-30.0-0.0","7739","<div class='center'><p>If you don’t make your choice fast enough, you’ll have to wait a few seconds before you can make another one. </p><p>You can’t collect more gold coins. You just have to sit and wait.</p><p><img src='run_exp/static/images/miscellaneous/hurry_up.png' height='500'></p><p><b>[Press the space bar to continue]</b></p></div>","32","","","","","","","","","","","","","","","","","","",""
"","html-keyboard-response","32","167279","0.0-30.0-1.0","33692.00000000003","<div class='center'><p>Once you choose a pirate, you’ll be shown the ship they are robbing.</p><p>You will never rob the same ship twice.</p><p>Ships can be told apart from one another by the image on them.</p><p> Every time you see a ship, you will have to remember on which island you saw it.</p><p> Remembering correctly will help you win more bonus money!</p><p>A helpful strategy is to try to come up with a story of the object on the ship interacting with the current island scene.</p><p> For example, here, you could imagine a mug full of water in the desert. </p><p>For a ship with an apple on it on the forest island, you could imagine an apple falling from a tree in the forest.</p><p><img src='run_exp/static/images/tutorial/example_probe.png' height='500'></p><p><b>[Press the space bar to continue]</b></p></div>","32","","","","","","","","","","","","","","","","","","",""
"","html-keyboard-response","33","179158","0.0-30.0-2.0","11878.99999999997","<div class='center'><p>How good a pirate is at robbing ships will depend on the current island.</p><p> A pirate may have visited the island many times before and gained a lot of practice robbing ships there.</p><p>So, they're more likely to bring back gold coins than a pirate who has never visited this island before. </p><p><b>[Press the space bar to continue]</b></p></div>","32","","","","","","","","","","","","","","","","","","",""
"","html-keyboard-response","34","199263","0.0-30.0-3.0","20103.99999999997","<div class='center'><p>How good a pirate is at robbing ships can also change over the time spent on the island<p> Ships may hear from islanders about the pirates coming and will improve their protection against the attack. This may make it harder to rob them.</p><p> Ships may also become lazy and lower their protection. This may make it easier to rob them.</p><br><p>Things are always changing on the high seas! So, try your best to pay attention!</p><p><img src='run_exp/static/images/tutorial/contingency.png' height='500'></p><p><b>[Press the space bar to continue]</b></p></div>","32","","","","","","","","","","","","","","","","","","",""
"","html-keyboard-response","35","238384","0.0-30.0-4.0","39121.99999999994","<div class='center'><p>Let's go over the instructions quickly again.You have two important things to do: </p><b><p> 1. Pick the pirate who is the best at robbing ships on the current island.</p></b><b><p> 2. Remember on which island a ship was robbed.</p> </b><p>How much bonus money you make is based on both. </p><br><p>Let’s try a practice game. The game will start by showing you the pirates. First pick a pirate using the <b> 1, 2, 3 </b> buttons on your keyboard. When you are shown a ship, try to remember the island you’re on by making up a story.</p><p> You only have 3 seconds to pick a pirate, so please make a choice quickly! If you are too slow, you’ll have to wait a bit during the time out.</p><p> Don’t feel rushed, but please do try to make a choice every time.</p><p>This is just a practice game, so you’re not playing for money. </p><p> Good luck, remember press <b>'1'</b> to choose red beard, <b>'2'</b> to choose white beard, and <b>'3'</b> to choose black beard</p><p><b>[Press the space bar to begin the practice game]</b></p></div>","32","","","","","","","","","","","","","","","","","","",""
"","do_welcome","36","239890","0.0-30.0-5.0","null","","","","null","","","","","","","","","","","","","","","","",""
"","do_trial","37","245699","0.0-30.0-6.0","1299","","","","50","1,0,0","","","","","","","","","","","","","","","",""
"","html-keyboard-response","38","246701","0.0-31.0-0.0","null","<p></p>","null","","","","","","","","","","","","","","","","","","",""
"","do_trial","39","253286","0.0-31.0-1.0","2077","","","","51","1,1,0","","","","","","","","","","","","","","","",""
"","html-keyboard-response","40","254289","0.0-32.0-0.0","null","<p></p>","null","","","","","","","","","","","","","","","","","","",""
"","do_trial","41","260216","0.0-32.0-1.0","1419","","","","49","1,0,1","","","","","","","","","","","","","","","",""
"","html-keyboard-response","42","261219","0.0-33.0-0.0","null","<p></p>","null","","","","","","","","","","","","","","","","","","",""
"","do_trial","43","267317","0.0-33.0-1.0","1589.9999999999418","","","","49","0,1,0","","","","","","","","","","","","","","","",""
"","html-keyboard-response","44","268320","0.0-34.0-0.0","null","<p></p>","null","","","","","","","","","","","","","","","","","","",""
"","do_trial","45","273968","0.0-34.0-1.0","1139","","","","50","1,0,0","","","","","","","","","","","","","","","",""
"","do_bye","46","275475","0.0-35.0-0.0","null","","","","null","","","","","","","","","","","","","","","","",""
"","do_travel","47","281479","0.0-35.0-1.0","null","","","","null","","","","","","","","","","","","","","","","",""
"","do_welcome","48","282985","0.0-35.0-2.0","null","","","","null","","","","","","","","","","","","","","","","",""
"","do_trial","49","288804","0.0-35.0-3.0","1309.0000000000582","","","","51","1,0,0","","","","","","","","","","","","","","","",""
"","html-keyboard-response","50","289806","0.0-36.0-0.0","null","<p></p>","null","","","","","","","","","","","","","","","","","","",""
"","do_trial","51","295787","0.0-36.0-1.0","1473","","","","50","1,0,1","","","","","","","","","","","","","","","",""
"","html-keyboard-response","52","296790","0.0-37.0-0.0","null","<p></p>","null","","","","","","","","","","","","","","","","","","",""
"","do_trial","53","301843","0.0-37.0-1.0","544.9999999999418","","","","51","1,1,0","","","","","","","","","","","","","","","",""
"","html-keyboard-response","54","302845","0.0-38.0-0.0","null","<p></p>","null","","","","","","","","","","","","","","","","","","",""
"","do_trial","55","307907","0.0-38.0-1.0","553","","","","49","0,0,1","","","","","","","","","","","","","","","",""
"","html-keyboard-response","56","308910","0.0-39.0-0.0","null","<p></p>","null","","","","","","","","","","","","","","","","","","",""
"","do_trial","57","314370","0.0-39.0-1.0","953","","","","50","1,0,1","","","","","","","","","","","","","","","",""
"","html-keyboard-response","58","318132","0.0-40.0-0.0","3761","<div class='center'><p><img src='run_exp/static/images/tutorial/prac_best_pirate.png'  height='500'></p></div>","49","","","","","","","","","","","","","","","","","","",""
"","html-keyboard-response","59","320124","0.0-41.0-0.0","1991","<div class='center'><p>That's correct! Red beard was the best.</p><p><b>[Press the space bar to continue]</b></p></div>","32","","","","","","","","","","","","","","","","","","",""
"","html-keyboard-response","60","322652","0.0-41.0-1.0","2527","<div class='center'><p><img src='run_exp/static/images/tutorial/prac_source.png'  height='500'></p></div>","50","","","","","","","","","","","","","","","","","","",""
"","html-keyboard-response","61","323796","0.0-42.0-0.0","1142.0000000000582","<div class='center'><p>That's correct! You saw this ship on the cavern island.</p><p><b>[Press the space bar to continue]</b></p></div>","32","","","","","","","","","","","","","","","","","","",""
"","html-keyboard-response","62","334117","0.0-42.0-1.0","10321","<div class='center'><p>Good job on the practice game! Now, you will be asked you some true or false questions to make sure you really understand the rules of the game.</p><p> Press <b>'1'</b> on the keyboard for true and press <b>'2'</b> for false.</p><p><b>[Press the space bar to begin the quiz]</b></p></div>","32","","","","","","","","","","","","","","","","","","",""
"","html-keyboard-response","63","337906","0.0-42.0-2.0","3788","<div class='center'><p>You win bonus money by making choices as fast as possible.</p><p>Press 1 for true and press  2 for false.</p></div>","50","","","","","","","","","","","","","","","","","","",""
"","html-keyboard-response","64","339066","0.0-43.0-0.0","1159","<div class='center'><p>That's correct!</p> <p><b>[press the space bar to continue with the quiz]</b></p></div>","32","","","","","","","","","","","","","","","","","","",""
"","html-keyboard-response","65","344182","0.0-43.0-1.0","5115.000000000058","<div class='center'><p>You press the <b>‘3’</b> button on the keyboard to choose the red bearded pirate. </p><p>Press 1 for true and press  2 for false.</p></div>","50","","","","","","","","","","","","","","","","","","",""
"","html-keyboard-response","66","344886","0.0-44.0-0.0","702","<div class='center'><p>That's correct!</p> <p><b>[press the space bar to continue with the quiz]</b></p></div>","32","","","","","","","","","","","","","","","","","","",""
"","html-keyboard-response","67","349935","0.0-44.0-1.0","5048","<div class='center'><p>The pirate who is the best at robbing ships on the first island will be the best on every other island.</p><p>Press 1 for true and press  2 for false.</p></div>","50","","","","","","","","","","","","","","","","","","",""
"","html-keyboard-response","68","350654","0.0-45.0-0.0","718","<div class='center'><p>That's correct!</p> <p><b>[press the space bar to continue with the quiz]</b></p></div>","32","","","","","","","","","","","","","","","","","","",""
"","html-keyboard-response","69","354311","0.0-45.0-1.0","3656","<div class='center'><p>You should remember the island where a pirate robbed a ship.</p><p>Press 1 for true and press  2 for false.</p></div>","49","","","","","","","","","","","","","","","","","","",""
"","html-keyboard-response","70","354919","0.0-46.0-0.0","599","<div class='center'><p>That's correct!</p> <p><b>[press the space bar to continue with the quiz]</b></p></div>","32","","","","","","","","","","","","","","","","","","",""
"","html-keyboard-response","71","356834","0.0-47.0-0.0","1914","<div class='center'><p>Good job! You’re now ready to move on to the real game!</p> <p><br>[press the space bar to begin!]</br></p></div>","32","","","","","","","","","","","","","","","","","","",""
"","do_welcome","72","358340","0.0-48.0-0.0","null","","","","null","","","","","","","","","","","","","","","","",""
"","do_trial","73","364388","0.0-49.0-0.0","1497","","","","49","1,0,0","0","coast","0","probe-153","0.6","0.3","0.1","1","","","","","","","",""
"","html-keyboard-response","74","365392","0.0-49.0-1.0","null","<p></p>","null","","","","","","","","","","","","","","","","","","",""
"","do_trial","75","371288","0.0-50.0-0.0","1333","","","","49","1,1,0","0","coast","1","probe-38","0.6869923179089772","0.3598398737774815","0.066072178506412","1","","","","","","","",""
"","html-keyboard-response","76","372291","0.0-50.0-1.0","null","<p></p>","null","","","","","","","","","","","","","","","","","","",""
"","do_trial","77","377683","0.0-51.0-0.0","830.0000000000582","","","","50","1,0,0","0","coast","2","probe-100","0.659618013237357","0.24886381908232325","0.0597494799259398","0","","","","","","","",""
"","html-keyboard-response","78","378686","0.0-51.0-1.0","null","<p></p>","null","","","","","","","","","","","","","","","","","","",""
"","do_trial","79","383942","0.0-52.0-0.0","696","","","","49","1,0,0","0","coast","3","probe-41","0.7730340485737931","0.21830726097312675","0.10785816237314802","1","","","","","","","",""
"","html-keyboard-response","80","384944","0.0-52.0-1.0","null","<p></p>","null","","","","","","","","","","","","","","","","","","",""
"","do_trial","81","390893","0.0-53.0-0.0","1385","","","","49","0,0,0","0","coast","4","probe-227","0.7357786241602529","0.3157294952811242","0.08986941895957033","0","","","","","","","",""
"","html-keyboard-response","82","391896","0.0-53.0-1.0","null","<p></p>","null","","","","","","","","","","","","","","","","","","",""
"","do_trial","83","397329","0.0-54.0-0.0","871","","","","51","0,0,0","0","coast","5","probe-185","0.667146836923103","0.2938631258137788","0.0669346361731283","0","","","","","","","",""
"","html-keyboard-response","84","398332","0.0-54.0-1.0","null","<p></p>","null","","","","","","","","","","","","","","","","","","",""
"","do_trial","85","403563","0.0-55.0-0.0","661.9999999999418","","","","50","1,1,0","0","coast","6","probe-47","0.8047176307898256","0.24268903411658202","0.06423867554616974","1","","","","","","","",""
"","html-keyboard-response","86","404566","0.0-55.0-1.0","null","<p></p>","null","","","","","","","","","","","","","","","","","","",""
"","do_trial","87","409997","0.0-56.0-0.0","876.0000000000582","","","","49","0,0,0","0","coast","7","probe-169","0.7006838110592404","0.13805302170888153","0.1295103285338731","0","","","","","","","",""
"","html-keyboard-response","88","411000","0.0-56.0-1.0","null","<p></p>","null","","","","","","","","","","","","","","","","","","",""
"","do_trial","89","416226","0.0-57.0-0.0","668","","","","50","0,1,0","0","coast","8","probe-149","0.7660087351736072","0.16784238315832536","0.11700135364607218","1","","","","","","","",""
"","html-keyboard-response","90","417229","0.0-57.0-1.0","null","<p></p>","null","","","","","","","","","","","","","","","","","","",""
"","do_trial","91","422904","0.0-58.0-0.0","1117","","","","50","1,1,0","0","coast","9","probe-62","0.6461731392882212","0.27190597497392793","0.13731431058594346","1","","","","","","","",""
"","html-keyboard-response","92","423907","0.0-58.0-1.0","null","<p></p>","null","","","","","","","","","","","","","","","","","","",""
"","do_trial","93","429247","0.0-59.0-0.0","782.0000000000582","","","","50","1,1,0","0","coast","10","probe-116","0.6106360563015578","0.4148122437455467","0.15488638558943166","1","","","","","","","",""
"","html-keyboard-response","94","430250","0.0-59.0-1.0","null","<p></p>","null","","","","","","","","","","","","","","","","","","",""
"","do_trial","95","435559","0.0-60.0-0.0","750","","","","49","0,0,0","0","coast","11","probe-216","0.648214494663092","0.34478882627799434","0.0587185232495471","0","","","","","","","",""
"","html-keyboard-response","96","436562","0.0-60.0-1.0","null","<p></p>","null","","","","","","","","","","","","","","","","","","",""
"","do_trial","97","441759","0.0-61.0-0.0","642.0000000000582","","","","50","1,1,0","0","coast","12","probe-48","0.6021784230679831","0.3507195307998183","0.06541199043715352","1","","","","","","","",""
"","html-keyboard-response","98","442761","0.0-61.0-1.0","null","<p></p>","null","","","","","","","","","","","","","","","","","","",""
"","do_trial","99","448515","0.0-62.0-0.0","1198","","","","50","0,1,0","0","coast","13","probe-145","0.5528278909351173","0.25030595506592584","0.0829696780191295","1","","","","","","","",""
"","html-keyboard-response","100","449517","0.0-62.0-1.0","null","<p></p>","null","","","","","","","","","","","","","","","","","","",""
"","do_trial","101","454663","0.0-63.0-0.0","590","","","","50","0,0,0","0","coast","14","probe-186","0.478067726058279","0.3238970525649016","0.08243666923447088","0","","","","","","","",""
"","html-keyboard-response","102","455666","0.0-63.0-1.0","null","<p></p>","null","","","","","","","","","","","","","","","","","","",""
"","do_trial","103","460735","0.0-64.0-0.0","512","","","","51","0,1,1","0","coast","15","probe-195","0.49622219531404127","0.27866455657815065","0.1347335757607994","1","","","","","","","",""
"","html-keyboard-response","104","461738","0.0-64.0-1.0","null","<p></p>","null","","","","","","","","","","","","","","","","","","",""
"","do_trial","105","466922","0.0-65.0-0.0","629","","","","51","0,1,0","0","coast","16","probe-174","0.5840730074588225","0.3275755892857717","0.12993040083186266","0","","","","","","","",""
"","html-keyboard-response","106","467924","0.0-65.0-1.0","null","<p></p>","null","","","","","","","","","","","","","","","","","","",""
"","do_trial","107","472887","0.0-66.0-0.0","402","","","","49","1,0,0","0","coast","17","probe-27","0.729390790012296","0.4420801637677294","0.1653534094613631","1","","","","","","","",""
"","html-keyboard-response","108","473890","0.0-66.0-1.0","null","<p></p>","null","","","","","","","","","","","","","","","","","","",""
"","do_trial","109","478969","0.0-67.0-0.0","510","","","","49","0,0,0","0","coast","18","probe-58","0.7624206475566078","0.4086713582667708","0.139494452213286","0","","","","","","","",""
"","html-keyboard-response","110","479972","0.0-67.0-1.0","null","<p></p>","null","","","","","","","","","","","","","","","","","","",""
"","do_trial","111","486467","0.0-68.0-0.0","1927","","","","50","1,1,0","0","coast","19","probe-126","0.6652679833305581","0.551234533644529","0.21760325504058523","1","","","","","","","",""
"","html-keyboard-response","112","487470","0.0-68.0-1.0","null","<p></p>","null","","","","","","","","","","","","","","","","","","",""
"","do_trial","113","492853","0.0-69.0-0.0","814","","","","50","1,0,0","0","coast","20","probe-64","0.6897658913130238","0.33714364209004416","0.15768562314456894","0","","","","","","","",""
"","html-keyboard-response","114","493856","0.0-69.0-1.0","null","<p></p>","null","","","","","","","","","","","","","","","","","","",""
"","do_trial","115","498980","0.0-70.0-0.0","555","","","","49","0,0,0","0","coast","21","probe-208","0.6680185574643072","0.41267850370582504","0.0639521520722561","0","","","","","","","",""
"","html-keyboard-response","116","499983","0.0-70.0-1.0","null","<p></p>","null","","","","","","","","","","","","","","","","","","",""
"","do_trial","117","505038","0.0-71.0-0.0","487","","","","51","0,1,1","0","coast","22","probe-215","0.5237563024733206","0.2295306814841537","0.11524709449599263","1","","","","","","","",""
"","html-keyboard-response","118","506041","0.0-71.0-1.0","null","<p></p>","null","","","","","","","","","","","","","","","","","","",""
"","do_trial","119","511187","0.0-72.0-0.0","579.9999999998836","","","","51","0,0,0","0","coast","23","probe-30","0.3630007212272537","0.35302000984152615","0.052514722354577464","0","","","","","","","",""
"","html-keyboard-response","120","512190","0.0-72.0-1.0","null","<p></p>","null","","","","","","","","","","","","","","","","","","",""
"","do_trial","121","517337","0.0-73.0-0.0","577","","","","51","1,1,0","0","coast","24","probe-16","0.461793871028216","0.3082557877112158","0.06081797524927204","0","","","","","","","",""
"","html-keyboard-response","122","518340","0.0-73.0-1.0","null","<p></p>","null","","","","","","","","","","","","","","","","","","",""
"","do_trial","123","523597","0.0-74.0-0.0","686","","","","50","0,0,0","0","coast","25","probe-229","0.5788243287360973","0.28031614310901753","0.11779419408434376","0","","","","","","","",""
"","html-keyboard-response","124","524599","0.0-74.0-1.0","null","<p></p>","null","","","","","","","","","","","","","","","","","","",""
"","do_trial","125","529791","0.0-75.0-0.0","623","","","","49","1,0,0","0","coast","26","probe-140","0.49596745607847326","0.2923042488011065","0.13382969854735657","1","","","","","","","",""
"","html-keyboard-response","126","530794","0.0-75.0-1.0","null","<p></p>","null","","","","","","","","","","","","","","","","","","",""
"","do_trial","127","535944","0.0-76.0-0.0","583","","","","49","0,0,0","0","coast","27","probe-98","0.5371251208700578","0.14880949436441188","0.15836974721230168","0","","","","","","","",""
"","html-keyboard-response","128","536947","0.0-76.0-1.0","null","<p></p>","null","","","","","","","","","","","","","","","","","","",""
"","do_trial","129","542132","0.0-77.0-0.0","618","","","","49","0,0,0","0","coast","28","probe-182","0.6961735037930242","0.2646898002332984","0.2845022066897765","0","","","","","","","",""
"","html-keyboard-response","130","543135","0.0-77.0-1.0","null","<p></p>","null","","","","","","","","","","","","","","","","","","",""
"","do_trial","131","548131","0.0-78.0-0.0","428","","","","51","1,1,0","0","coast","29","probe-146","0.5909552770520047","0.2778820099695175","0.11666688406778303","0","","","","","","","",""
"","html-keyboard-response","132","549134","0.0-78.0-1.0","null","<p></p>","null","","","","","","","","","","","","","","","","","","",""
"","do_bye","133","550641","0.0-79.0-0.0","null","","","","null","","","","","","","","","","","","","","","","",""
"","do_travel","134","556645","0.0-80.0-0.0","null","","","","null","","","","","","","","","","","","","","","","",""
"","do_welcome","135","558151","0.0-80.0-1.0","null","","","","null","","","","","","","","","","","","","","","","",""
"","do_trial","136","564695","0.0-81.0-0.0","1976","","","","50","1,0,0","1","mountain","30","probe-71","1","0.231206240639385","0.05305600373602393","0","","","","","","","",""
"","html-keyboard-response","137","565698","0.0-81.0-1.0","null","<p></p>","null","","","","","","","","","","","","","","","","","","",""
"","do_trial","138","570857","0.0-82.0-0.0","590","","","","49","1,1,0","1","mountain","31","probe-89","1","0.2772913613894484","0.051690530289126485","1","","","","","","","",""
"","html-keyboard-response","139","571860","0.0-82.0-1.0","null","<p></p>","null","","","","","","","","","","","","","","","","","","",""
"","do_trial","140","577079","0.0-83.0-0.0","649","","","","49","1,0,0","1","mountain","32","probe-77","1","0.2862040196836079","0.06607127941017091","1","","","","","","","",""
"","html-keyboard-response","141","578081","0.0-83.0-1.0","null","<p></p>","null","","","","","","","","","","","","","","","","","","",""
"","do_trial","142","583130","0.0-84.0-0.0","476.9999999998836","","","","49","1,0,0","1","mountain","33","probe-59","0.8388821176976005","0.25053480380365584","0.10720076235716244","1","","","","","","","",""
"","html-keyboard-response","143","584132","0.0-84.0-1.0","null","<p></p>","null","","","","","","","","","","","","","","","","","","",""
"","do_trial","144","589320","0.0-85.0-0.0","618.9999999998836","","","","51","1,0,1","1","mountain","34","probe-173","0.7370812660188777","0.27321853102959665","0.10204441543493507","1","","","","","","","",""
"","html-keyboard-response","145","590322","0.0-85.0-1.0","null","<p></p>","null","","","","","","","","","","","","","","","","","","",""
"","do_trial","146","595413","0.0-86.0-0.0","524.0000000001164","","","","51","0,0,0","1","mountain","35","probe-106","0.6397820130827474","0.25707870280859807","0.09402325607691676","0","","","","","","","",""
"","html-keyboard-response","147","596416","0.0-86.0-1.0","null","<p></p>","null","","","","","","","","","","","","","","","","","","",""
"","do_trial","148","601429","0.0-87.0-0.0","443","","","","49","0,1,1","1","mountain","36","probe-197","0.749124954952572","0.27090218746985717","0.19986984110021155","0","","","","","","","",""
"","html-keyboard-response","149","602432","0.0-87.0-1.0","null","<p></p>","null","","","","","","","","","","","","","","","","","","",""
"","do_trial","150","607551","0.0-88.0-0.0","549","","","","50","1,1,1","1","mountain","37","probe-155","0.6799901442247258","0.2991539530855482","0.21706578005174654","1","","","","","","","",""
"","html-keyboard-response","151","608554","0.0-88.0-1.0","null","<p></p>","null","","","","","","","","","","","","","","","","","","",""
"","do_trial","152","614000","0.0-89.0-0.0","880","","","","50","1,0,0","1","mountain","38","probe-82","0.637245243852403","0.3176538350493341","0.17653498153879912","0","","","","","","","",""
"","html-keyboard-response","153","615002","0.0-89.0-1.0","null","<p></p>","null","","","","","","","","","","","","","","","","","","",""
"","do_trial","154","620202","0.0-90.0-0.0","630","","","","49","1,0,0","1","mountain","39","probe-224","0.6455253179389225","0.18242253707930192","0.14454165393358404","1","","","","","","","",""
"","html-keyboard-response","155","621205","0.0-90.0-1.0","null","<p></p>","null","","","","","","","","","","","","","","","","","","",""
"","do_trial","156","626349","0.0-91.0-0.0","578.0000000001164","","","","49","1,0,0","1","mountain","40","probe-07","0.7876971068093326","0.26968166170112357","0.1084537679266368","1","","","","","","","",""
"","html-keyboard-response","157","627352","0.0-91.0-1.0","null","<p></p>","null","","","","","","","","","","","","","","","","","","",""
"","do_trial","158","632431","0.0-92.0-0.0","511","","","","49","1,0,1","1","mountain","41","probe-95","0.7540823693091079","0.26383835968411234","0.10128924521652666","1","","","","","","","",""
"","html-keyboard-response","159","633434","0.0-92.0-1.0","null","<p></p>","null","","","","","","","","","","","","","","","","","","",""
"","do_trial","160","638619","0.0-93.0-0.0","615","","","","49","1,1,0","1","mountain","42","probe-162","0.4911843477276044","0.39176617587567836","0.21972874422852598","1","","","","","","","",""
"","html-keyboard-response","161","639621","0.0-93.0-1.0","null","<p></p>","null","","","","","","","","","","","","","","","","","","",""
"","do_trial","162","644730","0.0-94.0-0.0","540","","","","49","0,1,1","1","mountain","43","probe-37","0.3432058970506811","0.4571286339027523","0.3326402319292457","0","","","","","","","",""
"","html-keyboard-response","163","645733","0.0-94.0-1.0","null","<p></p>","null","","","","","","","","","","","","","","","","","","",""
"","do_trial","164","651050","0.0-95.0-0.0","749.0000000001164","","","","50","0,0,0","1","mountain","44","probe-131","0.2500656748378266","0.49942106783437945","0.30823648295100564","0","","","","","","","",""
"","html-keyboard-response","165","652052","0.0-95.0-1.0","null","<p></p>","null","","","","","","","","","","","","","","","","","","",""
"","do_trial","166","657164","0.0-96.0-0.0","542.9999999998836","","","","51","1,1,0","1","mountain","45","probe-170","0.1092322715407747","0.6584428271735557","0.23739845936476858","0","","","","","","","",""
"","html-keyboard-response","167","658167","0.0-96.0-1.0","null","<p></p>","null","","","","","","","","","","","","","","","","","","",""
"","do_trial","168","663341","0.0-97.0-0.0","608","","","","51","0,1,1","1","mountain","46","probe-211","0.11180264075083761","0.7055701070937973","0.22629778021329308","1","","","","","","","",""
"","html-keyboard-response","169","664344","0.0-97.0-1.0","null","<p></p>","null","","","","","","","","","","","","","","","","","","",""
"","do_trial","170","669515","0.0-98.0-0.0","605.9999999998836","","","","51","1,1,0","1","mountain","47","probe-191","0.17418610656587633","0.6641203984529221","0.3586021945853111","0","","","","","","","",""
"","html-keyboard-response","171","670518","0.0-98.0-1.0","null","<p></p>","null","","","","","","","","","","","","","","","","","","",""
"","do_trial","172","675694","0.0-99.0-0.0","607","","","","49","1,1,0","1","mountain","48","probe-141","0.208021914308806","0.6318276923426265","0.35710334773121444","1","","","","","","","",""
"","html-keyboard-response","173","676697","0.0-99.0-1.0","null","<p></p>","null","","","","","","","","","","","","","","","","","","",""
"","do_trial","174","681879","0.0-100.0-0.0","613","","","","49","0,1,0","1","mountain","49","probe-12","0.16194705446272356","0.5188761222838266","0.28929050145409085","0","","","","","","","",""
"","html-keyboard-response","175","682882","0.0-100.0-1.0","null","<p></p>","null","","","","","","","","","","","","","","","","","","",""
"","do_trial","176","687910","0.0-101.0-0.0","461","","","","50","0,0,1","1","mountain","50","probe-200","0.05587252142510064","0.63296604191392","0.30770091502567987","0","","","","","","","",""
"","html-keyboard-response","177","688913","0.0-101.0-1.0","null","<p></p>","null","","","","","","","","","","","","","","","","","","",""
"","do_trial","178","693980","0.0-102.0-0.0","500","","","","50","0,0,0","1","mountain","51","probe-40","0.10670207433153003","0.66539510172109","0.28934581751376864","0","","","","","","","",""
"","html-keyboard-response","179","694983","0.0-102.0-1.0","null","<p></p>","null","","","","","","","","","","","","","","","","","","",""
"","do_trial","180","700107","0.0-103.0-0.0","558","","","","49","1,0,0","1","mountain","52","probe-184","0.1414882106983564","0.6120428514790058","0.2067401114276401","1","","","","","","","",""
"","html-keyboard-response","181","701110","0.0-103.0-1.0","null","<p></p>","null","","","","","","","","","","","","","","","","","","",""
"","do_trial","182","706306","0.0-104.0-0.0","627","","","","49","0,0,0","1","mountain","53","probe-53","0.16237295428257606","0.6234553061105869","0.12294089244872071","0","","","","","","","",""
"","html-keyboard-response","183","707309","0.0-104.0-1.0","null","<p></p>","null","","","","","","","","","","","","","","","","","","",""
"","do_trial","184","712351","0.0-105.0-0.0","475.0000000001164","","","","49","0,1,0","1","mountain","54","probe-26","0.1371100920744557","0.6262562079226713","0.29677267466705437","0","","","","","","","",""
"","html-keyboard-response","185","713354","0.0-105.0-1.0","null","<p></p>","null","","","","","","","","","","","","","","","","","","",""
"","do_trial","186","718410","0.0-106.0-0.0","486","","","","51","0,1,0","1","mountain","55","probe-119","0.09573758687067523","0.6034603067152812","0.4424860288207415","0","","","","","","","",""
"","html-keyboard-response","187","719413","0.0-106.0-1.0","null","<p></p>","null","","","","","","","","","","","","","","","","","","",""
"","do_trial","188","724532","0.0-107.0-0.0","551.0000000001164","","","","51","0,1,1","1","mountain","56","probe-129","0.18122116293850288","0.4546162797432694","0.29989706274786687","1","","","","","","","",""
"","html-keyboard-response","189","725535","0.0-107.0-1.0","null","<p></p>","null","","","","","","","","","","","","","","","","","","",""
"","do_trial","190","730666","0.0-108.0-0.0","563","","","","51","1,0,0","1","mountain","57","probe-22","0.23013659737888453","0.38863674144620547","0.181146512505332","0","","","","","","","",""
"","html-keyboard-response","191","731669","0.0-108.0-1.0","null","<p></p>","null","","","","","","","","","","","","","","","","","","",""
"","do_trial","192","736718","0.0-109.0-0.0","476","","","","50","0,0,0","1","mountain","58","probe-23","0.08136504685521255","0.49608008642108026","0.24310225721093873","0","","","","","","","",""
"","html-keyboard-response","193","737720","0.0-109.0-1.0","null","<p></p>","null","","","","","","","","","","","","","","","","","","",""
"","do_trial","194","742818","0.0-110.0-0.0","531","","","","49","0,0,0","1","mountain","59","probe-04","0.06272672897788227","0.35852721754189204","0.29368640372072413","0","","","","","","","",""
"","html-keyboard-response","195","743821","0.0-110.0-1.0","null","<p></p>","null","","","","","","","","","","","","","","","","","","",""
"","do_trial","196","748940","0.0-111.0-0.0","552","","","","49","0,1,0","1","mountain","60","probe-79","0.12702778127252337","0.5199904994614735","0.2891921989061457","0","","","","","","","",""
"","html-keyboard-response","197","749943","0.0-111.0-1.0","null","<p></p>","null","","","","","","","","","","","","","","","","","","",""
"","do_trial","198","755040","0.0-112.0-0.0","522.9999999998836","","","","51","0,1,1","1","mountain","61","probe-76","0.09220808925509293","0.5333664779579125","0.1981349303199933","1","","","","","","","",""
"","html-keyboard-response","199","756043","0.0-112.0-1.0","null","<p></p>","null","","","","","","","","","","","","","","","","","","",""
"","do_trial","200","761525","0.0-113.0-0.0","915","","","","51","0,1,0","1","mountain","62","probe-132","0.1367780036009651","0.5766656433838887","0.2391414124022131","0","","","","","","","",""
"","html-keyboard-response","201","762528","0.0-113.0-1.0","null","<p></p>","null","","","","","","","","","","","","","","","","","","",""
"","do_trial","202","767545","0.0-114.0-0.0","447","","","","50","0,1,0","1","mountain","63","probe-187","0.15731705354165143","0.6841578035838671","0.35653224627000285","1","","","","","","","",""
"","html-keyboard-response","203","768548","0.0-114.0-1.0","null","<p></p>","null","","","","","","","","","","","","","","","","","","",""
"","do_trial","204","773719","0.0-115.0-0.0","604.0000000001164","","","","50","0,1,0","1","mountain","64","probe-73","0.23331030740836192","0.6159769412273657","0.30884239863681084","1","","","","","","","",""
"","html-keyboard-response","205","774722","0.0-115.0-1.0","null","<p></p>","null","","","","","","","","","","","","","","","","","","",""
"","do_trial","206","779890","0.0-116.0-0.0","598.9999999998836","","","","50","0,1,1","1","mountain","65","probe-49","0.10591486130455124","0.49841307584931166","0.25221005203273816","1","","","","","","","",""
"","html-keyboard-response","207","780891","0.0-116.0-1.0","null","<p></p>","null","","","","","","","","","","","","","","","","","","",""
"","do_trial","208","786028","0.0-117.0-0.0","568","","","","50","1,1,0","1","mountain","66","probe-137","0.21395611270031556","0.5582559892171153","0.30106012405771704","1","","","","","","","",""
"","html-keyboard-response","209","787031","0.0-117.0-1.0","null","<p></p>","null","","","","","","","","","","","","","","","","","","",""
"","do_trial","210","792208","0.0-118.0-0.0","607","","","","50","0,1,1","1","mountain","67","probe-01","0.20449566675182784","0.5185059614251785","0.24591977085931277","1","","","","","","","",""
"","html-keyboard-response","211","793211","0.0-118.0-1.0","null","<p></p>","null","","","","","","","","","","","","","","","","","","",""
"","do_trial","212","798328","0.0-119.0-0.0","551","","","","50","0,0,0","1","mountain","68","probe-93","0.20478712852040454","0.5257044692495688","0.1733852076157583","0","","","","","","","",""
"","html-keyboard-response","213","799330","0.0-119.0-1.0","null","<p></p>","null","","","","","","","","","","","","","","","","","","",""
"","do_trial","214","804543","0.0-120.0-0.0","644","","","","49","1,1,0","1","mountain","69","probe-25","0.2942680432406249","0.5503717108586229","0.417554061919265","1","","","","","","","",""
"","html-keyboard-response","215","805546","0.0-120.0-1.0","null","<p></p>","null","","","","","","","","","","","","","","","","","","",""
"","do_bye","216","807054","0.0-121.0-0.0","null","","","","null","","","","","","","","","","","","","","","","",""
"","do_travel","217","813060","0.0-122.0-0.0","null","","","","null","","","","","","","","","","","","","","","","",""
"","do_welcome","218","814567","0.0-122.0-1.0","null","","","","null","","","","","","","","","","","","","","","","",""
"","do_trial","219","820423","0.0-123.0-0.0","1289.0000000001164","","","","49","0,1,0","2","countryside","70","probe-78","0.08948239495450773","1","0.35269168173873444","0","","","","","","","",""
"","html-keyboard-response","220","821426","0.0-123.0-1.0","null","<p></p>","null","","","","","","","","","","","","","","","","","","",""
"","do_trial","221","826824","0.0-124.0-0.0","828.0000000001164","","","","50","0,1,1","2","countryside","71","probe-86","0.08980198557172411","1","0.4354990270769249","1","","","","","","","",""
"","html-keyboard-response","222","827826","0.0-124.0-1.0","null","<p></p>","null","","","","","","","","","","","","","","","","","","",""
"","do_trial","223","833532","0.0-125.0-0.0","1141","","","","51","0,1,0","2","countryside","72","probe-81","0.0776204036351258","0.8171965172262108","0.25604173630003807","0","","","","","","","",""
"","html-keyboard-response","224","834535","0.0-125.0-1.0","null","<p></p>","null","","","","","","","","","","","","","","","","","","",""
"","do_trial","225","839648","0.0-126.0-0.0","545","","","","50","0,1,1","2","countryside","73","probe-164","0.2886589600545884","0.7964794905266065","0.4259280990607586","1","","","","","","","",""
"","html-keyboard-response","226","840650","0.0-126.0-1.0","null","<p></p>","null","","","","","","","","","","","","","","","","","","",""
"","do_trial","227","845698","0.0-127.0-0.0","481.9999999998836","","","","50","1,1,0","2","countryside","74","probe-156","0.17467385162745283","0.8301407828777435","0.4845944227966871","1","","","","","","","",""
"","html-keyboard-response","228","846701","0.0-127.0-1.0","null","<p></p>","null","","","","","","","","","","","","","","","","","","",""
"","do_trial","229","851723","0.0-128.0-0.0","453","","","","50","0,1,0","2","countryside","75","probe-05","0.1107360699697908","0.9426706132440006","0.29594780572488394","1","","","","","","","",""
"","html-keyboard-response","230","852726","0.0-128.0-1.0","null","<p></p>","null","","","","","","","","","","","","","","","","","","",""
"","do_trial","231","857757","0.0-129.0-0.0","462","","","","50","0,0,0","2","countryside","76","probe-219","0.11573815144814127","0.8411952649095515","0.35495756681279267","0","","","","","","","",""
"","html-keyboard-response","232","858760","0.0-129.0-1.0","null","<p></p>","null","","","","","","","","","","","","","","","","","","",""
"","do_trial","233","863797","0.0-130.0-0.0","469.0000000001164","","","","49","0,1,0","2","countryside","77","probe-223","0.08364978971614702","0.7517009988415148","0.3575961150386423","0","","","","","","","",""
"","html-keyboard-response","234","864800","0.0-130.0-1.0","null","<p></p>","null","","","","","","","","","","","","","","","","","","",""
"","do_trial","235","870712","0.0-131.0-0.0","1343.9999999998836","","","","49","1,0,0","2","countryside","78","probe-31","0.17686983462719247","0.6297003285409182","0.3317021451838696","1","","","","","","","",""
"","html-keyboard-response","236","871715","0.0-131.0-1.0","null","<p></p>","null","","","","","","","","","","","","","","","","","","",""
"","do_trial","237","876774","0.0-132.0-0.0","493","","","","49","0,1,0","2","countryside","79","probe-172","0.21987511300029597","0.5569223974431224","0.2991289612998339","0","","","","","","","",""
"","html-keyboard-response","238","877777","0.0-132.0-1.0","null","<p></p>","null","","","","","","","","","","","","","","","","","","",""
"","do_trial","239","882807","0.0-133.0-0.0","463","","","","51","0,0,0","2","countryside","80","probe-90","0.2088281873186006","0.5238328969926023","0.23158607752580154","0","","","","","","","",""
"","html-keyboard-response","240","883809","0.0-133.0-1.0","null","<p></p>","null","","","","","","","","","","","","","","","","","","",""
"","do_trial","241","888887","0.0-134.0-0.0","507.0000000001164","","","","50","0,1,0","2","countryside","81","probe-151","0.23896687403648656","0.5613038031032193","0.2960527962627618","1","","","","","","","",""
"","html-keyboard-response","242","889891","0.0-134.0-1.0","null","<p></p>","null","","","","","","","","","","","","","","","","","","",""
"","do_trial","243","895038","0.0-135.0-0.0","577.9999999998836","","","","50","0,0,0","2","countryside","82","probe-51","0.056888574664472974","0.3292994782766084","0.41526744323300535","0","","","","","","","",""
"","html-keyboard-response","244","896041","0.0-135.0-1.0","null","<p></p>","null","","","","","","","","","","","","","","","","","","",""
"","do_trial","245","901051","0.0-136.0-0.0","441","","","","51","0,0,0","2","countryside","83","probe-20","0.19968722704520186","0.31755296921784476","0.6043736333823907","0","","","","","","","",""
"","html-keyboard-response","246","902054","0.0-136.0-1.0","null","<p></p>","null","","","","","","","","","","","","","","","","","","",""
"","do_trial","247","907048","0.0-137.0-0.0","427","","","","49","0,0,0","2","countryside","84","probe-36","0.06616615079288138","0.3215302952791068","0.39627550455498606","0","","","","","","","",""
"","html-keyboard-response","248","908051","0.0-137.0-1.0","null","<p></p>","null","","","","","","","","","","","","","","","","","","",""
"","do_trial","249","913129","0.0-138.0-0.0","509","","","","49","0,0,1","2","countryside","85","probe-177","0.15636091912357658","0.37185119728200905","0.4085315714867936","0","","","","","","","",""
"","html-keyboard-response","250","914132","0.0-138.0-1.0","null","<p></p>","null","","","","","","","","","","","","","","","","","","",""
"","do_trial","251","919132","0.0-139.0-0.0","432","","","","50","0,1,0","2","countryside","86","probe-136","0.08368073815474268","0.38654039545555047","0.42025027065314247","1","","","","","","","",""
"","html-keyboard-response","252","920134","0.0-139.0-1.0","null","<p></p>","null","","","","","","","","","","","","","","","","","","",""
"","do_trial","253","925302","0.0-140.0-0.0","600","","","","50","0,0,0","2","countryside","87","probe-103","0.07651082971587678","0.3087919110937789","0.5542836995344117","0","","","","","","","",""
"","html-keyboard-response","254","926305","0.0-140.0-1.0","null","<p></p>","null","","","","","","","","","","","","","","","","","","",""
"","do_trial","255","931316","0.0-141.0-0.0","441","","","","50","0,0,1","2","countryside","88","probe-163","0.11007131615609751","0.25332343370676014","0.7402161370444297","0","","","","","","","",""
"","html-keyboard-response","256","932319","0.0-141.0-1.0","null","<p></p>","null","","","","","","","","","","","","","","","","","","",""
"","do_trial","257","937393","0.0-142.0-0.0","507","","","","51","0,0,1","2","countryside","89","probe-203","0.14989198376272644","0.4153282326146117","0.6103311809193489","1","","","","","","","",""
"","html-keyboard-response","258","938396","0.0-142.0-1.0","null","<p></p>","null","","","","","","","","","","","","","","","","","","",""
"","do_trial","259","944466","0.0-143.0-0.0","null","","","","null","0,0,0","2","countryside","90","probe-225","0.20728187860177102","0.1950434658692861","0.5238230941312754","","","","","","","","",""
"","html-keyboard-response","260","945471","0.0-143.0-1.0","null","<p></p>","null","","","","","","","","","","","","","","","","","","",""
"","do_trial","261","950753","0.0-144.0-0.0","712.9999999998836","","","","51","0,0,0","2","countryside","91","probe-09","0.1896035009855731","0.28790441677562584","0.4633786092828951","0","","","","","","","",""
"","html-keyboard-response","262","951756","0.0-144.0-1.0","null","<p></p>","null","","","","","","","","","","","","","","","","","","",""
"","do_trial","263","957487","0.0-145.0-0.0","1164","","","","51","0,0,1","2","countryside","92","probe-166","0.14254822395520583","0.2653189594203466","0.5124796717171163","1","","","","","","","",""
"","html-keyboard-response","264","958490","0.0-145.0-1.0","null","<p></p>","null","","","","","","","","","","","","","","","","","","",""
"","do_trial","265","964216","0.0-146.0-0.0","1157.9999999998836","","","","51","0,0,1","2","countryside","93","probe-96","0.14286700639714706","0.22255921164614273","0.6198393056973933","1","","","","","","","",""
"","html-keyboard-response","266","965219","0.0-146.0-1.0","null","<p></p>","null","","","","","","","","","","","","","","","","","","",""
"","do_trial","267","970376","0.0-147.0-0.0","587.9999999998836","","","","51","0,0,1","2","countryside","94","probe-108","0.13505976041815118","0.15674256095901673","0.7371859502445429","1","","","","","","","",""
"","html-keyboard-response","268","971379","0.0-147.0-1.0","null","<p></p>","null","","","","","","","","","","","","","","","","","","",""
"","do_trial","269","976610","0.0-148.0-0.0","662","","","","51","0,0,1","2","countryside","95","probe-85","0.072322987979962","0.2617690461543314","0.6416699906622181","1","","","","","","","",""
"","html-keyboard-response","270","977613","0.0-148.0-1.0","null","<p></p>","null","","","","","","","","","","","","","","","","","","",""
"","do_trial","271","982784","0.0-149.0-0.0","602","","","","51","0,1,0","2","countryside","96","probe-127","0.056357304684097866","0.1965551951677113","0.48794093537269606","0","","","","","","","",""
"","html-keyboard-response","272","983787","0.0-149.0-1.0","null","<p></p>","null","","","","","","","","","","","","","","","","","","",""
"","do_trial","273","988918","0.0-150.0-0.0","563.9999999997672","","","","49","0,0,0","2","countryside","97","probe-201","0.24640370307549397","0.2893534406359865","0.4991905773913224","0","","","","","","","",""
"","html-keyboard-response","274","989921","0.0-150.0-1.0","null","<p></p>","null","","","","","","","","","","","","","","","","","","",""
"","do_trial","275","995056","0.0-151.0-0.0","564","","","","49","0,1,1","2","countryside","98","probe-87","0.17259547832597513","0.24273065805509106","0.6452623522553458","0","","","","","","","",""
"","html-keyboard-response","276","996059","0.0-151.0-1.0","null","<p></p>","null","","","","","","","","","","","","","","","","","","",""
"","do_trial","277","1001070","0.0-152.0-0.0","443","","","","49","0,0,1","2","countryside","99","probe-139","0.18829648114177752","0.20711213160651562","0.6030767400141753","0","","","","","","","",""
"","html-keyboard-response","278","1002073","0.0-152.0-1.0","null","<p></p>","null","","","","","","","","","","","","","","","","","","",""
"","do_trial","279","1007062","0.0-153.0-0.0","422","","","","50","0,1,1","2","countryside","100","probe-29","0.09526409423706929","0.3573124736408975","0.5751364020402935","1","","","","","","","",""
"","html-keyboard-response","280","1008064","0.0-153.0-1.0","null","<p></p>","null","","","","","","","","","","","","","","","","","","",""
"","do_trial","281","1013100","0.0-154.0-0.0","464","","","","50","0,1,1","2","countryside","101","probe-220","0.2091194156475342","0.2866160798380932","0.606684095444267","1","","","","","","","",""
"","html-keyboard-response","282","1014103","0.0-154.0-1.0","null","<p></p>","null","","","","","","","","","","","","","","","","","","",""
"","do_trial","283","1019149","0.0-155.0-0.0","481","","","","50","0,0,0","2","countryside","102","probe-115","0.1923634276290546","0.3421452163119962","0.6273907137129078","0","","","","","","","",""
"","html-keyboard-response","284","1020151","0.0-155.0-1.0","null","<p></p>","null","","","","","","","","","","","","","","","","","","",""
"","do_trial","285","1025189","0.0-156.0-0.0","468.00000000023283","","","","51","0,1,1","2","countryside","103","probe-83","0.20398933420019252","0.40122190967218657","0.589084011127043","1","","","","","","","",""
"","html-keyboard-response","286","1026192","0.0-156.0-1.0","null","<p></p>","null","","","","","","","","","","","","","","","","","","",""
"","do_trial","287","1031810","0.0-157.0-0.0","1049","","","","51","0,0,0","2","countryside","104","probe-102","0.08783384770299658","0.19123749171440282","0.5426895470175025","0","","","","","","","",""
"","html-keyboard-response","288","1032812","0.0-157.0-1.0","null","<p></p>","null","","","","","","","","","","","","","","","","","","",""
"","do_trial","289","1037886","0.0-158.0-0.0","503","","","","49","0,0,1","2","countryside","105","probe-88","0.07166651414555711","0.1658284622889584","0.48259205437595043","0","","","","","","","",""
"","html-keyboard-response","290","1038889","0.0-158.0-1.0","null","<p></p>","null","","","","","","","","","","","","","","","","","","",""
"","do_trial","291","1043900","0.0-159.0-0.0","442.99999999976717","","","","50","0,0,0","2","countryside","106","probe-46","0.0706169792263945","0.21908715522049904","0.42702309498602314","0","","","","","","","",""
"","html-keyboard-response","292","1044902","0.0-159.0-1.0","null","<p></p>","null","","","","","","","","","","","","","","","","","","",""
"","do_trial","293","1049953","0.0-160.0-0.0","480","","","","50","0,0,1","2","countryside","107","probe-179","0.08320620617020459","0.2707396963147984","0.4187624687635268","0","","","","","","","",""
"","html-keyboard-response","294","1050956","0.0-160.0-1.0","null","<p></p>","null","","","","","","","","","","","","","","","","","","",""
"","do_trial","295","1056024","0.0-161.0-0.0","502.00000000023283","","","","49","0,0,1","2","countryside","108","probe-160","0.06101063416279599","0.3000998249747956","0.5106280849981784","0","","","","","","","",""
"","html-keyboard-response","296","1057027","0.0-161.0-1.0","null","<p></p>","null","","","","","","","","","","","","","","","","","","",""
"","do_trial","297","1062258","0.0-162.0-0.0","665","","","","51","0,1,1","2","countryside","109","probe-117","0.0729470054761817","0.3933585369908367","0.4393683733974807","1","","","","","","","",""
"","html-keyboard-response","298","1063261","0.0-162.0-1.0","null","<p></p>","null","","","","","","","","","","","","","","","","","","",""
"","do_bye","299","1064768","0.0-163.0-0.0","null","","","","null","","","","","","","","","","","","","","","","",""
"","do_travel","300","1070773","0.0-164.0-0.0","null","","","","null","","","","","","","","","","","","","","","","",""
"","do_welcome","301","1072280","0.0-164.0-1.0","null","","","","null","","","","","","","","","","","","","","","","",""
"","do_trial","302","1078130","0.0-165.0-0.0","1282","","","","49","0,1,1","3","forest","110","probe-03","0.0957944542651391","0.434844009465","1","0","","","","","","","",""
"","html-keyboard-response","303","1079132","0.0-165.0-1.0","null","<p></p>","null","","","","","","","","","","","","","","","","","","",""
"","do_trial","304","1084332","0.0-166.0-0.0","630.0000000002328","","","","50","0,0,1","3","forest","111","probe-181","0.18913743344734368","0.4483517480898014","1","0","","","","","","","",""
"","html-keyboard-response","305","1085334","0.0-166.0-1.0","null","<p></p>","null","","","","","","","","","","","","","","","","","","",""
"","do_trial","306","1090385","0.0-167.0-0.0","479","","","","51","0,0,1","3","forest","112","probe-61","0.1834759166841748","0.4045976496533922","0.6977602022843108","1","","","","","","","",""
"","html-keyboard-response","307","1091388","0.0-167.0-1.0","null","<p></p>","null","","","","","","","","","","","","","","","","","","",""
"","do_trial","308","1096430","0.0-168.0-0.0","476","","","","51","0,1,1","3","forest","113","probe-161","0.22302521590314356","0.3346944249145286","0.5801972820018395","1","","","","","","","",""
"","html-keyboard-response","309","1097433","0.0-168.0-1.0","null","<p></p>","null","","","","","","","","","","","","","","","","","","",""
"","do_trial","310","1102460","0.0-169.0-0.0","461","","","","51","1,1,0","3","forest","114","probe-124","0.08713078966624027","0.4033580195971913","0.5805350780578357","0","","","","","","","",""
"","html-keyboard-response","311","1103463","0.0-169.0-1.0","null","<p></p>","null","","","","","","","","","","","","","","","","","","",""
"","do_trial","312","1108427","0.0-170.0-0.0","392","","","","51","0,1,1","3","forest","115","probe-158","0.16798891954769143","0.43813116758521253","0.6880323462363985","1","","","","","","","",""
"","html-keyboard-response","313","1109429","0.0-170.0-1.0","null","<p></p>","null","","","","","","","","","","","","","","","","","","",""
"","do_trial","314","1114690","0.0-171.0-0.0","693","","","","51","0,0,1","3","forest","116","probe-138","0.1693668354152803","0.31823187853111407","0.669331413672775","1","","","","","","","",""
"","html-keyboard-response","315","1115693","0.0-171.0-1.0","null","<p></p>","null","","","","","","","","","","","","","","","","","","",""
"","do_trial","316","1120977","0.0-172.0-0.0","715","","","","51","1,0,1","3","forest","117","probe-167","0.21419271964322492","0.3936636272951503","0.5921164609147114","1","","","","","","","",""
"","html-keyboard-response","317","1121980","0.0-172.0-1.0","null","<p></p>","null","","","","","","","","","","","","","","","","","","",""
"","do_trial","318","1127073","0.0-173.0-0.0","526","","","","51","0,0,1","3","forest","118","probe-168","0.22059272603125812","0.3549244807951402","0.5444672476480407","1","","","","","","","",""
"","html-keyboard-response","319","1128075","0.0-173.0-1.0","null","<p></p>","null","","","","","","","","","","","","","","","","","","",""
"","do_trial","320","1133109","0.0-174.0-0.0","467","","","","51","0,0,1","3","forest","119","probe-230","0.11883588806246831","0.42211774936080554","0.5429228638603391","1","","","","","","","",""
"","html-keyboard-response","321","1134112","0.0-174.0-1.0","null","<p></p>","null","","","","","","","","","","","","","","","","","","",""
"","do_trial","322","1139387","0.0-175.0-0.0","709.0000000002328","","","","51","0,0,1","3","forest","120","probe-52","0.08298328937647159","0.5056665131976906","0.47463940501549334","1","","","","","","","",""
"","html-keyboard-response","323","1140390","0.0-175.0-1.0","null","<p></p>","null","","","","","","","","","","","","","","","","","","",""
"","do_trial","324","1145639","0.0-176.0-0.0","681","","","","51","0,1,1","3","forest","121","probe-18","0.10936378360479442","0.4662494328650931","0.45765801769613423","1","","","","","","","",""
"","html-keyboard-response","325","1146642","0.0-176.0-1.0","null","<p></p>","null","","","","","","","","","","","","","","","","","","",""
"","do_trial","326","1151862","0.0-177.0-0.0","650","","","","51","0,1,0","3","forest","122","probe-94","0.18232746614150863","0.6406850917684915","0.3728705296829803","0","","","","","","","",""
"","html-keyboard-response","327","1152865","0.0-177.0-1.0","null","<p></p>","null","","","","","","","","","","","","","","","","","","",""
"","do_trial","328","1157990","0.0-178.0-0.0","554","","","","51","0,0,1","3","forest","123","probe-08","0.2528602587820016","0.7492974061080875","0.2103125666072946","1","","","","","","","",""
"","html-keyboard-response","329","1158993","0.0-178.0-1.0","null","<p></p>","null","","","","","","","","","","","","","","","","","","",""
"","do_trial","330","1164292","0.0-179.0-0.0","726.9999999997672","","","","51","1,1,0","3","forest","124","probe-228","0.4095653014229905","0.7573358965866526","0.21487371908888406","0","","","","","","","",""
"","html-keyboard-response","331","1165295","0.0-179.0-1.0","null","<p></p>","null","","","","","","","","","","","","","","","","","","",""
"","do_trial","332","1170304","0.0-180.0-0.0","439","","","","50","0,1,0","3","forest","125","probe-214","0.4698197891144894","0.5984084759360917","0.26049905346984253","1","","","","","","","",""
"","html-keyboard-response","333","1171307","0.0-180.0-1.0","null","<p></p>","null","","","","","","","","","","","","","","","","","","",""
"","do_trial","334","1176333","0.0-181.0-0.0","458.99999999976717","","","","50","0,0,0","3","forest","126","probe-194","0.4348003233365201","0.562494868969534","0.18120299546187751","0","","","","","","","",""
"","html-keyboard-response","335","1177336","0.0-181.0-1.0","null","<p></p>","null","","","","","","","","","","","","","","","","","","",""
"","do_trial","336","1182357","0.0-182.0-0.0","451","","","","49","1,1,0","3","forest","127","probe-207","0.5235679082720048","0.6453630701930861","0.2606476369783705","1","","","","","","","",""
"","html-keyboard-response","337","1183360","0.0-182.0-1.0","null","<p></p>","null","","","","","","","","","","","","","","","","","","",""
"","do_trial","338","1188348","0.0-183.0-0.0","420","","","","49","0,1,0","3","forest","128","probe-45","0.42139909272963727","0.639052225633921","0.15439520107227822","0","","","","","","","",""
"","html-keyboard-response","339","1189351","0.0-183.0-1.0","null","<p></p>","null","","","","","","","","","","","","","","","","","","",""
"","do_trial","340","1194424","0.0-184.0-0.0","505","","","","49","1,0,0","3","forest","129","probe-135","0.47119474001456574","0.6741312673116319","0.12586114268892865","1","","","","","","","",""
"","html-keyboard-response","341","1195427","0.0-184.0-1.0","null","<p></p>","null","","","","","","","","","","","","","","","","","","",""
"","do_trial","342","1200466","0.0-185.0-0.0","470","","","","49","0,1,0","3","forest","130","probe-190","0.29757598974760596","0.5989119965828139","0.11111073369947728","0","","","","","","","",""
"","html-keyboard-response","343","1201469","0.0-185.0-1.0","null","<p></p>","null","","","","","","","","","","","","","","","","","","",""
"","do_trial","344","1206475","0.0-186.0-0.0","436","","","","51","1,1,1","3","forest","131","probe-67","0.41243836342772777","0.5642508580375182","0.19903969946196043","1","","","","","","","",""
"","html-keyboard-response","345","1207478","0.0-186.0-1.0","null","<p></p>","null","","","","","","","","","","","","","","","","","","",""
"","do_trial","346","1212522","0.0-187.0-0.0","478","","","","51","0,1,0","3","forest","132","probe-121","0.2358610076215325","0.5607928865174503","0.13974638045546628","0","","","","","","","",""
"","html-keyboard-response","347","1213525","0.0-187.0-1.0","null","<p></p>","null","","","","","","","","","","","","","","","","","","",""
"","do_trial","348","1218580","0.0-188.0-0.0","489","","","","51","1,1,0","3","forest","133","probe-199","0.3623343620284284","0.6017539543201474","0.06370772645304072","0","","","","","","","",""
"","html-keyboard-response","349","1219583","0.0-188.0-1.0","null","<p></p>","null","","","","","","","","","","","","","","","","","","",""
"","do_trial","350","1224609","0.0-189.0-0.0","459","","","","50","1,1,0","3","forest","134","probe-21","0.24338958412832576","0.5332766070555449","0.1189782240969743","1","","","","","","","",""
"","html-keyboard-response","351","1225611","0.0-189.0-1.0","null","<p></p>","null","","","","","","","","","","","","","","","","","","",""
"","do_trial","352","1230812","0.0-190.0-0.0","631","","","","50","0,0,0","3","forest","135","probe-19","0.10249571990239187","0.5436517688113787","0.11139024569767184","0","","","","","","","",""
"","html-keyboard-response","353","1231814","0.0-190.0-1.0","null","<p></p>","null","","","","","","","","","","","","","","","","","","",""
"","do_trial","354","1236990","0.0-191.0-0.0","606.9999999997672","","","","49","0,1,0","3","forest","136","probe-15","0.34408417032320043","0.5835883651179482","0.11377453811482113","0","","","","","","","",""
"","html-keyboard-response","355","1237993","0.0-191.0-1.0","null","<p></p>","null","","","","","","","","","","","","","","","","","","",""
"","do_trial","356","1242973","0.0-192.0-0.0","410","","","","49","1,0,0","3","forest","137","probe-74","0.3544458821099653","0.5662331371825724","0.15714711257434474","1","","","","","","","",""
"","html-keyboard-response","357","1243976","0.0-192.0-1.0","null","<p></p>","null","","","","","","","","","","","","","","","","","","",""
"","do_trial","358","1249017","0.0-193.0-0.0","474","","","","49","1,1,0","3","forest","138","probe-154","0.20503364062349275","0.6863975865374383","0.06712850421745353","1","","","","","","","",""
"","html-keyboard-response","359","1250020","0.0-193.0-1.0","null","<p></p>","null","","","","","","","","","","","","","","","","","","",""
"","do_trial","360","1255065","0.0-194.0-0.0","476.00000000023283","","","","49","0,1,0","3","forest","139","probe-110","0.19112261778163198","0.6171981966696793","0.1862710689527941","0","","","","","","","",""
"","html-keyboard-response","361","1256068","0.0-194.0-1.0","null","<p></p>","null","","","","","","","","","","","","","","","","","","",""
"","do_trial","362","1261675","0.0-195.0-0.0","1034","","","","49","0,1,0","3","forest","140","probe-209","0.15094667061312925","0.47130061334224366","0.09909402594303302","0","","","","","","","",""
"","html-keyboard-response","363","1262678","0.0-195.0-1.0","null","<p></p>","null","","","","","","","","","","","","","","","","","","",""
"","do_trial","364","1268362","0.0-196.0-0.0","1114.0000000002328","","","","50","1,1,0","3","forest","141","probe-72","0.2796229629252514","0.5403946735500054","0.057572139181758325","1","","","","","","","",""
"","html-keyboard-response","365","1269365","0.0-196.0-1.0","null","<p></p>","null","","","","","","","","","","","","","","","","","","",""
"","do_trial","366","1274754","0.0-197.0-0.0","823","","","","50","0,0,0","3","forest","142","probe-63","0.3250467265402777","0.49619825473933893","0.13685781317416143","0","","","","","","","",""
"","html-keyboard-response","367","1275757","0.0-197.0-1.0","null","<p></p>","null","","","","","","","","","","","","","","","","","","",""
"","do_trial","368","1281063","0.0-198.0-0.0","738","","","","50","1,1,0","3","forest","143","probe-80","0.301360646839643","0.4248543939400746","0.09625183354808073","1","","","","","","","",""
"","html-keyboard-response","369","1282066","0.0-198.0-1.0","null","<p></p>","null","","","","","","","","","","","","","","","","","","",""
"","do_trial","370","1287932","0.0-199.0-0.0","1295","","","","51","0,0,0","3","forest","144","probe-17","0.29838613738690073","0.48188488796595425","0.05880690864732964","0","","","","","","","",""
"","html-keyboard-response","371","1288935","0.0-199.0-1.0","null","<p></p>","null","","","","","","","","","","","","","","","","","","",""
"","do_trial","372","1293943","0.0-200.0-0.0","441","","","","51","1,1,0","3","forest","145","probe-13","0.3092219594679194","0.49454648816276475","0.21914618348487694","0","","","","","","","",""
"","html-keyboard-response","373","1294946","0.0-200.0-1.0","null","<p></p>","null","","","","","","","","","","","","","","","","","","",""
"","do_trial","374","1300018","0.0-201.0-0.0","500","","","","50","0,1,0","3","forest","146","probe-60","0.38114021071404763","0.537219903410527","0.13919190607346166","1","","","","","","","",""
"","html-keyboard-response","375","1301021","0.0-201.0-1.0","null","<p></p>","null","","","","","","","","","","","","","","","","","","",""
"","do_trial","376","1306073","0.0-202.0-0.0","482","","","","50","0,1,0","3","forest","147","probe-218","0.28141800140037776","0.4938168119289527","0.11853210115104837","1","","","","","","","",""
"","html-keyboard-response","377","1307076","0.0-202.0-1.0","null","<p></p>","null","","","","","","","","","","","","","","","","","","",""
"","do_trial","378","1312057","0.0-203.0-0.0","412","","","","50","1,0,0","3","forest","148","probe-165","0.2621366481379556","0.5922458150630578","0.18701100469454127","0","","","","","","","",""
"","html-keyboard-response","379","1313060","0.0-203.0-1.0","null","<p></p>","null","","","","","","","","","","","","","","","","","","",""
"","do_trial","380","1318100","0.0-204.0-0.0","474","","","","50","1,0,0","3","forest","149","probe-192","0.336205810506907","0.5064096907979162","0.07059225090576658","0","","","","","","","",""
"","html-keyboard-response","381","1319103","0.0-204.0-1.0","null","<p></p>","null","","","","","","","","","","","","","","","","","","",""
"","do_bye","382","1320611","0.0-205.0-0.0","null","","","","null","","","","","","","","","","","","","","","","",""
"","do_travel","383","1326614","0.0-206.0-0.0","null","","","","null","","","","","","","","","","","","","","","","",""
"","do_welcome","384","1328121","0.0-206.0-1.0","null","","","","null","","","","","","","","","","","","","","","","",""
"","do_trial","385","1333663","0.0-207.0-0.0","976","","","","49","0,1,0","4","highway","150","probe-171","0.2731972251785072","1","0.054948806981497754","0","","","","","","","",""
"","html-keyboard-response","386","1334665","0.0-207.0-1.0","null","<p></p>","null","","","","","","","","","","","","","","","","","","",""
"","do_trial","387","1340511","0.0-208.0-0.0","1273","","","","50","0,1,0","4","highway","151","probe-128","0.31422802238993447","1","0.08564044958850069","1","","","","","","","",""
"","html-keyboard-response","388","1341513","0.0-208.0-1.0","null","<p></p>","null","","","","","","","","","","","","","","","","","","",""
"","do_trial","389","1346512","0.0-209.0-0.0","431","","","","50","0,1,0","4","highway","152","probe-35","0.2337156371622167","0.9416150743376538","0.05107229855982093","1","","","","","","","",""
"","html-keyboard-response","390","1347515","0.0-209.0-1.0","null","<p></p>","null","","","","","","","","","","","","","","","","","","",""
"","do_trial","391","1352538","0.0-210.0-0.0","457","","","","50","0,1,0","4","highway","153","probe-57","0.14610020641198856","0.8028645960899415","0.14939259511704397","1","","","","","","","",""
"","html-keyboard-response","392","1353541","0.0-210.0-1.0","null","<p></p>","null","","","","","","","","","","","","","","","","","","",""
"","do_trial","393","1358587","0.0-211.0-0.0","475.99999999976717","","","","50","0,1,0","4","highway","154","probe-84","0.25982506536885497","0.756243093085391","0.07308831352148444","1","","","","","","","",""
"","html-keyboard-response","394","1359590","0.0-211.0-1.0","null","<p></p>","null","","","","","","","","","","","","","","","","","","",""
"","do_trial","395","1364601","0.0-212.0-0.0","443","","","","50","0,0,1","4","highway","155","probe-217","0.3147991319009539","0.5252779210173969","0.06922687326615122","0","","","","","","","",""
"","html-keyboard-response","396","1365604","0.0-212.0-1.0","null","<p></p>","null","","","","","","","","","","","","","","","","","","",""
"","do_trial","397","1370642","0.0-213.0-0.0","469","","","","51","0,1,1","4","highway","156","probe-175","0.24441126318131257","0.5522503403545611","0.11382468649956393","1","","","","","","","",""
"","html-keyboard-response","398","1371645","0.0-213.0-1.0","null","<p></p>","null","","","","","","","","","","","","","","","","","","",""
"","do_trial","399","1376709","0.0-214.0-0.0","495","","","","51","0,1,0","4","highway","157","probe-39","0.25136728798113717","0.518817497512689","0.06394617637284922","0","","","","","","","",""
"","html-keyboard-response","400","1377712","0.0-214.0-1.0","null","<p></p>","null","","","","","","","","","","","","","","","","","","",""
"","do_trial","401","1382757","0.0-215.0-0.0","476","","","","50","1,0,0","4","highway","158","probe-122","0.31695692853875895","0.6233022232916797","0.23978454463323637","0","","","","","","","",""
"","html-keyboard-response","402","1383760","0.0-215.0-1.0","null","<p></p>","null","","","","","","","","","","","","","","","","","","",""
"","do_trial","403","1390414","0.0-216.0-0.0","2087","","","","49","0,1,0","4","highway","159","probe-202","0.45690911192456257","0.6378948780451641","0.0836403114552268","0","","","","","","","",""
"","html-keyboard-response","404","1391416","0.0-216.0-1.0","null","<p></p>","null","","","","","","","","","","","","","","","","","","",""
"","do_trial","405","1397906","0.0-217.0-0.0","1923","","","","50","1,0,0","4","highway","160","probe-113","0.3734919002919541","0.6267116964044438","0.1723920247419305","0","","","","","","","",""
"","html-keyboard-response","406","1398909","0.0-217.0-1.0","null","<p></p>","null","","","","","","","","","","","","","","","","","","",""
"","do_trial","407","1404291","0.0-218.0-0.0","813","","","","51","1,1,0","4","highway","161","probe-222","0.3629410897707019","0.7077308527460744","0.186001395819587","0","","","","","","","",""
"","html-keyboard-response","408","1405294","0.0-218.0-1.0","null","<p></p>","null","","","","","","","","","","","","","","","","","","",""
"","do_trial","409","1411796","0.0-219.0-0.0","1930","","","","50","0,0,1","4","highway","162","probe-118","0.24349606466582327","0.48612806524770585","0.2742335652256766","0","","","","","","","",""
"","html-keyboard-response","410","1412799","0.0-219.0-1.0","null","<p></p>","null","","","","","","","","","","","","","","","","","","",""
"","do_trial","411","1418232","0.0-220.0-0.0","865","","","","49","0,1,0","4","highway","163","probe-193","0.14468871877245842","0.43855698393032505","0.451015831629006","0","","","","","","","",""
"","html-keyboard-response","412","1419235","0.0-220.0-1.0","null","<p></p>","null","","","","","","","","","","","","","","","","","","",""
"","do_trial","413","1424281","0.0-221.0-0.0","479.00000000023283","","","","49","0,0,0","4","highway","164","probe-226","0.2441331771684311","0.4253938165177552","0.480623779714432","0","","","","","","","",""
"","html-keyboard-response","414","1425282","0.0-221.0-1.0","null","<p></p>","null","","","","","","","","","","","","","","","","","","",""
"","do_trial","415","1430524","0.0-222.0-0.0","675.9999999997672","","","","49","0,1,1","4","highway","165","probe-212","0.12442766877958283","0.41611928162549866","0.5579896571260426","0","","","","","","","",""
"","html-keyboard-response","416","1431527","0.0-222.0-1.0","null","<p></p>","null","","","","","","","","","","","","","","","","","","",""
"","do_trial","417","1436775","0.0-223.0-0.0","677","","","","50","0,0,1","4","highway","166","probe-34","0.24640520585605047","0.29538923975353903","0.7315358288164733","0","","","","","","","",""
"","html-keyboard-response","418","1437778","0.0-223.0-1.0","null","<p></p>","null","","","","","","","","","","","","","","","","","","",""
"","do_trial","419","1442837","0.0-224.0-0.0","489","","","","51","1,1,1","4","highway","167","probe-33","0.19150991347638485","0.34548733418865923","0.6818636698781831","1","","","","","","","",""
"","html-keyboard-response","420","1443839","0.0-224.0-1.0","null","<p></p>","null","","","","","","","","","","","","","","","","","","",""
"","do_trial","421","1448876","0.0-225.0-0.0","469.99999999976717","","","","51","0,1,1","4","highway","168","probe-109","0.16721577093510825","0.4089725329023138","0.6288511049642004","1","","","","","","","",""
"","html-keyboard-response","422","1449879","0.0-225.0-1.0","null","<p></p>","null","","","","","","","","","","","","","","","","","","",""
"","do_trial","423","1454971","0.0-226.0-0.0","527.9999999997672","","","","51","0,0,1","4","highway","169","probe-55","0.059225359372357025","0.4224910315915679","0.7055559471811459","1","","","","","","","",""
"","html-keyboard-response","424","1455974","0.0-226.0-1.0","null","<p></p>","null","","","","","","","","","","","","","","","","","","",""
"","do_trial","425","1461332","0.0-227.0-0.0","791","","","","51","0,0,1","4","highway","170","probe-92","0.09316021405934499","0.2879789254962883","0.5465395184164581","1","","","","","","","",""
"","html-keyboard-response","426","1462335","0.0-227.0-1.0","null","<p></p>","null","","","","","","","","","","","","","","","","","","",""
"","do_trial","427","1469198","0.0-228.0-0.0","2293","","","","49","0,0,0","4","highway","171","probe-24","0.10067450280028363","0.19534358547275438","0.5081920881196669","0","","","","","","","",""
"","html-keyboard-response","428","1470201","0.0-228.0-1.0","null","<p></p>","null","","","","","","","","","","","","","","","","","","",""
"","do_trial","429","1476214","0.0-229.0-0.0","1438","","","","50","0,1,1","4","highway","172","probe-210","0.10121558438047926","0.2780251551660961","0.5474085578418323","1","","","","","","","",""
"","html-keyboard-response","430","1477217","0.0-229.0-1.0","null","<p></p>","null","","","","","","","","","","","","","","","","","","",""
"","do_trial","431","1484164","0.0-230.0-0.0","2380","","","","50","0,1,1","4","highway","173","probe-28","0.1948667006729506","0.2661560859600342","0.4230004516986069","1","","","","","","","",""
"","html-keyboard-response","432","1485167","0.0-230.0-1.0","null","<p></p>","null","","","","","","","","","","","","","","","","","","",""
"","do_trial","433","1490747","0.0-231.0-0.0","1008","","","","50","0,0,0","4","highway","174","probe-206","0.09120295180790282","0.2778459845506371","0.3574251333998082","0","","","","","","","",""
"","html-keyboard-response","434","1491750","0.0-231.0-1.0","null","<p></p>","null","","","","","","","","","","","","","","","","","","",""
"","do_trial","435","1496808","0.0-232.0-0.0","487","","","","51","0,1,1","4","highway","175","probe-02","0.16695767328708577","0.33311377875113735","0.45969122834439646","1","","","","","","","",""
"","html-keyboard-response","436","1497811","0.0-232.0-1.0","null","<p></p>","null","","","","","","","","","","","","","","","","","","",""
"","do_trial","437","1503878","0.0-233.0-0.0","null","","","","null","0,0,1","4","highway","176","probe-159","0.3097081336779044","0.3555935102060541","0.5962515677119492","","","","","","","","",""
"","html-keyboard-response","438","1504883","0.0-233.0-1.0","null","<p></p>","null","","","","","","","","","","","","","","","","","","",""
"","do_trial","439","1510162","0.0-234.0-0.0","713","","","","49","0,1,1","4","highway","177","probe-44","0.23711773285998344","0.34958139899974855","0.5418227997919035","0","","","","","","","",""
"","html-keyboard-response","440","1511165","0.0-234.0-1.0","null","<p></p>","null","","","","","","","","","","","","","","","","","","",""
"","do_trial","441","1516227","0.0-235.0-0.0","491","","","","50","0,1,0","4","highway","178","probe-56","0.2181019737636491","0.3117430363730588","0.5180540557194689","1","","","","","","","",""
"","html-keyboard-response","442","1517230","0.0-235.0-1.0","null","<p></p>","null","","","","","","","","","","","","","","","","","","",""
"","do_trial","443","1522345","0.0-236.0-0.0","545","","","","50","0,1,0","4","highway","179","probe-148","0.20234157964165708","0.47620294710680167","0.5407535551992532","1","","","","","","","",""
"","html-keyboard-response","444","1523348","0.0-236.0-1.0","null","<p></p>","null","","","","","","","","","","","","","","","","","","",""
"","do_trial","445","1528540","0.0-237.0-0.0","622","","","","50","1,0,1","4","highway","180","probe-157","0.1893269985095947","0.34547397357704623","0.5595164125097049","0","","","","","","","",""
"","html-keyboard-response","446","1529543","0.0-237.0-1.0","null","<p></p>","null","","","","","","","","","","","","","","","","","","",""
"","do_trial","447","1534560","0.0-238.0-0.0","451","","","","51","1,0,0","4","highway","181","probe-11","0.1714258709937603","0.3744403834414139","0.471194301910893","0","","","","","","","",""
"","html-keyboard-response","448","1535563","0.0-238.0-1.0","null","<p></p>","null","","","","","","","","","","","","","","","","","","",""
"","do_trial","449","1540612","0.0-239.0-0.0","481","","","","49","0,0,1","4","highway","182","probe-221","0.18904356747467","0.3551428891762644","0.4366203745065866","0","","","","","","","",""
"","html-keyboard-response","450","1541613","0.0-239.0-1.0","null","<p></p>","null","","","","","","","","","","","","","","","","","","",""
"","do_trial","451","1547160","0.0-240.0-0.0","980","","","","50","0,0,1","4","highway","183","probe-176","0.2561441138332821","0.2899513587739603","0.41347305722815186","0","","","","","","","",""
"","html-keyboard-response","452","1548163","0.0-240.0-1.0","null","<p></p>","null","","","","","","","","","","","","","","","","","","",""
"","do_trial","453","1553221","0.0-241.0-0.0","491","","","","51","0,0,0","4","highway","184","probe-125","0.1885433802867671","0.3098964428357394","0.5555965359586296","0","","","","","","","",""
"","html-keyboard-response","454","1554224","0.0-241.0-1.0","null","<p></p>","null","","","","","","","","","","","","","","","","","","",""
"","do_trial","455","1559394","0.0-242.0-0.0","601","","","","51","0,0,1","4","highway","185","probe-198","0.10990461216131747","0.42582312527127925","0.6498243478167675","1","","","","","","","",""
"","html-keyboard-response","456","1560397","0.0-242.0-1.0","null","<p></p>","null","","","","","","","","","","","","","","","","","","",""
"","do_trial","457","1565492","0.0-243.0-0.0","527","","","","51","0,1,0","4","highway","186","probe-178","0.06598903885075338","0.471850848391756","0.7130537688319077","0","","","","","","","",""
"","html-keyboard-response","458","1566495","0.0-243.0-1.0","null","<p></p>","null","","","","","","","","","","","","","","","","","","",""
"","do_trial","459","1571522","0.0-244.0-0.0","458","","","","49","0,1,1","4","highway","187","probe-133","0.09841322689257564","0.4719463995315586","0.5603622369589418","0","","","","","","","",""
"","html-keyboard-response","460","1572525","0.0-244.0-1.0","null","<p></p>","null","","","","","","","","","","","","","","","","","","",""
"","do_trial","461","1577345","0.0-245.0-0.0","251.99999999976717","","","","49","0,1,0","4","highway","188","probe-147","0.06993168136295562","0.35422026337256995","0.5465201684377489","0","","","","","","","",""
"","html-keyboard-response","462","1578348","0.0-245.0-1.0","null","<p></p>","null","","","","","","","","","","","","","","","","","","",""
"","do_trial","463","1583354","0.0-246.0-0.0","437.00000000023283","","","","50","0,0,1","4","highway","189","probe-123","0.08268862855385162","0.22671416867591263","0.6974115122261912","0","","","","","","","",""
"","html-keyboard-response","464","1584356","0.0-246.0-1.0","null","<p></p>","null","","","","","","","","","","","","","","","","","","",""
"","do_bye","465","1585863","0.0-247.0-0.0","null","","","","null","","","","","","","","","","","","","","","","",""
"","do_travel","466","1591869","0.0-248.0-0.0","null","","","","null","","","","","","","","","","","","","","","","",""
"","do_welcome","467","1593376","0.0-248.0-1.0","null","","","","null","","","","","","","","","","","","","","","","",""
"","do_trial","468","1598759","0.0-249.0-0.0","819","","","","51","0,0,1","5","city","190","probe-66","0.09135591712059236","0.11848949750264336","1","1","","","","","","","",""
"","html-keyboard-response","469","1599764","0.0-249.0-1.0","null","<p></p>","null","","","","","","","","","","","","","","","","","","",""
"","do_trial","470","1605025","0.0-250.0-0.0","692","","","","51","0,0,1","5","city","191","probe-65","0.05268410600518968","0.09297904586339845","1","1","","","","","","","",""
"","html-keyboard-response","471","1606028","0.0-250.0-1.0","null","<p></p>","null","","","","","","","","","","","","","","","","","","",""
"","do_trial","472","1611026","0.0-251.0-0.0","430","","","","51","0,1,1","5","city","192","probe-32","0.10273658016723924","0.15539730515095426","0.7227790834155023","1","","","","","","","",""
"","html-keyboard-response","473","1612029","0.0-251.0-1.0","null","<p></p>","null","","","","","","","","","","","","","","","","","","",""
"","do_trial","474","1616950","0.0-252.0-0.0","352","","","","51","0,0,1","5","city","193","probe-150","0.1305317931968426","0.10877974521989232","0.6654562195692821","1","","","","","","","",""
"","html-keyboard-response","475","1617952","0.0-252.0-1.0","null","<p></p>","null","","","","","","","","","","","","","","","","","","",""
"","do_trial","476","1622950","0.0-253.0-0.0","427","","","","51","0,0,0","5","city","194","probe-142","0.06266437469133489","0.09851631352808941","0.5639013131052415","0","","","","","","","",""
"","html-keyboard-response","477","1623953","0.0-253.0-1.0","null","<p></p>","null","","","","","","","","","","","","","","","","","","",""
"","do_trial","478","1628938","0.0-254.0-0.0","417","","","","50","0,0,1","5","city","195","probe-10","0.18913037666878774","0.22316892047591122","0.49948629273253226","0","","","","","","","",""
"","html-keyboard-response","479","1629941","0.0-254.0-1.0","null","<p></p>","null","","","","","","","","","","","","","","","","","","",""
"","do_trial","480","1634936","0.0-255.0-0.0","426","","","","50","0,0,0","5","city","196","probe-180","0.12510995339727637","0.23354176409043384","0.6276081807252701","0","","","","","","","",""
"","html-keyboard-response","481","1635939","0.0-255.0-1.0","null","<p></p>","null","","","","","","","","","","","","","","","","","","",""
"","do_trial","482","1640908","0.0-256.0-0.0","403","","","","49","0,0,1","5","city","197","probe-111","0.13015532689451542","0.29661072087304013","0.6029361713635097","0","","","","","","","",""
"","html-keyboard-response","483","1641911","0.0-256.0-1.0","null","<p></p>","null","","","","","","","","","","","","","","","","","","",""
"","do_trial","484","1646915","0.0-257.0-0.0","435","","","","51","1,0,1","5","city","198","probe-42","0.1297308359323341","0.3656182654283039","0.6927623407876763","1","","","","","","","",""
"","html-keyboard-response","485","1647918","0.0-257.0-1.0","null","<p></p>","null","","","","","","","","","","","","","","","","","","",""
"","do_trial","486","1652985","0.0-258.0-0.0","493","","","","51","0,0,0","5","city","199","probe-196","0.08419681019227315","0.3337701649656853","0.5455396443521159","0","","","","","","","",""
"","html-keyboard-response","487","1653988","0.0-258.0-1.0","null","<p></p>","null","","","","","","","","","","","","","","","","","","",""
"","do_trial","488","1659074","0.0-259.0-0.0","519.0000000002328","","","","51","0,0,0","5","city","200","probe-130","0.19049277249327418","0.33233472365816424","0.4797187060821789","0","","","","","","","",""
"","html-keyboard-response","489","1660077","0.0-259.0-1.0","null","<p></p>","null","","","","","","","","","","","","","","","","","","",""
"","do_trial","490","1665215","0.0-260.0-0.0","570","","","","49","1,0,1","5","city","201","probe-75","0.35013223622141504","0.3971972193450804","0.4047168846679282","1","","","","","","","",""
"","html-keyboard-response","491","1666217","0.0-260.0-1.0","null","<p></p>","null","","","","","","","","","","","","","","","","","","",""
"","do_trial","492","1671371","0.0-261.0-0.0","586.0000000002328","","","","49","0,1,1","5","city","202","probe-204","0.26190034946760776","0.37961974663383424","0.36911583490658656","0","","","","","","","",""
"","html-keyboard-response","493","1672374","0.0-261.0-1.0","null","<p></p>","null","","","","","","","","","","","","","","","","","","",""
"","do_trial","494","1677363","0.0-262.0-0.0","419","","","","49","1,1,0","5","city","203","probe-105","0.47308685255763167","0.4691325989809263","0.2794727774061516","1","","","","","","","",""
"","html-keyboard-response","495","1678366","0.0-262.0-1.0","null","<p></p>","null","","","","","","","","","","","","","","","","","","",""
"","do_trial","496","1683484","0.0-263.0-0.0","549","","","","49","1,1,0","5","city","204","probe-68","0.30474227909095947","0.6066443903981459","0.3999079280957904","1","","","","","","","",""
"","html-keyboard-response","497","1684487","0.0-263.0-1.0","null","<p></p>","null","","","","","","","","","","","","","","","","","","",""
"","do_trial","498","1689568","0.0-264.0-0.0","512","","","","49","0,1,1","5","city","205","probe-70","0.25606343600191467","0.5944393147733397","0.3697300981786526","0","","","","","","","",""
"","html-keyboard-response","499","1690571","0.0-264.0-1.0","null","<p></p>","null","","","","","","","","","","","","","","","","","","",""
"","do_trial","500","1695544","0.0-265.0-0.0","405","","","","51","0,0,0","5","city","206","probe-188","0.2286529986254778","0.632604175833615","0.3194245042688515","0","","","","","","","",""
"","html-keyboard-response","501","1696547","0.0-265.0-1.0","null","<p></p>","null","","","","","","","","","","","","","","","","","","",""
"","do_trial","502","1701645","0.0-266.0-0.0","527","","","","50","0,1,1","5","city","207","probe-101","0.1465051992766739","0.6216851273779834","0.19881917566790513","1","","","","","","","",""
"","html-keyboard-response","503","1702647","0.0-266.0-1.0","null","<p></p>","null","","","","","","","","","","","","","","","","","","",""
"","do_trial","504","1707639","0.0-267.0-0.0","426.00000000023283","","","","50","0,1,1","5","city","208","probe-54","0.15128200715251824","0.4930605099395497","0.31345028651460255","1","","","","","","","",""
"","html-keyboard-response","505","1708642","0.0-267.0-1.0","null","<p></p>","null","","","","","","","","","","","","","","","","","","",""
"","do_trial","506","1713712","0.0-268.0-0.0","496.99999999976717","","","","50","1,0,0","5","city","209","probe-97","0.14732503519948867","0.45585374712324095","0.49522765986394973","0","","","","","","","",""
"","html-keyboard-response","507","1714714","0.0-268.0-1.0","null","<p></p>","null","","","","","","","","","","","","","","","","","","",""
"","do_trial","508","1719682","0.0-269.0-0.0","402","","","","49","0,0,0","5","city","210","probe-91","0.10733318913768375","0.5646672192812375","0.5249227006602253","0","","","","","","","",""
"","html-keyboard-response","509","1720685","0.0-269.0-1.0","null","<p></p>","null","","","","","","","","","","","","","","","","","","",""
"","do_trial","510","1725764","0.0-270.0-0.0","510","","","","49","0,1,0","5","city","211","probe-152","0.07008244304627825","0.5648142104701624","0.3802554726572164","0","","","","","","","",""
"","html-keyboard-response","511","1726767","0.0-270.0-1.0","null","<p></p>","null","","","","","","","","","","","","","","","","","","",""
"","do_trial","512","1731690","0.0-271.0-0.0","354","","","","51","0,0,0","5","city","212","probe-213","0.0750022944294843","0.6612333829438635","0.2310126173915333","0","","","","","","","",""
"","html-keyboard-response","513","1732693","0.0-271.0-1.0","null","<p></p>","null","","","","","","","","","","","","","","","","","","",""
"","do_trial","514","1737687","0.0-272.0-0.0","426","","","","51","0,1,0","5","city","213","probe-144","0.14018113588297657","0.6416657183807298","0.2970813948076586","0","","","","","","","",""
"","html-keyboard-response","515","1738690","0.0-272.0-1.0","null","<p></p>","null","","","","","","","","","","","","","","","","","","",""
"","do_trial","516","1743705","0.0-273.0-0.0","448.00000000023283","","","","51","0,0,0","5","city","214","probe-69","0.05754722294334687","0.5198299309318246","0.31532808376630134","0","","","","","","","",""
"","html-keyboard-response","517","1744708","0.0-273.0-1.0","null","<p></p>","null","","","","","","","","","","","","","","","","","","",""
"","do_trial","518","1749701","0.0-274.0-0.0","420","","","","50","0,1,0","5","city","215","probe-06","0.06376795172713105","0.49966031076874023","0.28515550236435494","1","","","","","","","",""
"","html-keyboard-response","519","1750702","0.0-274.0-1.0","null","<p></p>","null","","","","","","","","","","","","","","","","","","",""
"","do_trial","520","1755692","0.0-275.0-0.0","424","","","","50","0,1,0","5","city","216","probe-120","0.1320862069685589","0.5298664186446786","0.2945199248698482","1","","","","","","","",""
"","html-keyboard-response","521","1756695","0.0-275.0-1.0","null","<p></p>","null","","","","","","","","","","","","","","","","","","",""
"","do_trial","522","1761909","0.0-276.0-0.0","645","","","","50","0,0,0","5","city","217","probe-183","0.15123090025616456","0.3739043292541861","0.20865771443778589","0","","","","","","","",""
"","html-keyboard-response","523","1762912","0.0-276.0-1.0","null","<p></p>","null","","","","","","","","","","","","","","","","","","",""
"","do_trial","524","1767956","0.0-277.0-0.0","475","","","","49","0,0,0","5","city","218","probe-205","0.12660174310402608","0.47151340890905036","0.2115398594936653","0","","","","","","","",""
"","html-keyboard-response","525","1768958","0.0-277.0-1.0","null","<p></p>","null","","","","","","","","","","","","","","","","","","",""
"","do_trial","526","1773970","0.0-278.0-0.0","445","","","","51","0,0,1","5","city","219","probe-189","0.0574302866299411","0.36677669973988286","0.290756487068777","1","","","","","","","",""
"","html-keyboard-response","527","1774973","0.0-278.0-1.0","null","<p></p>","null","","","","","","","","","","","","","","","","","","",""
"","do_trial","528","1779950","0.0-279.0-0.0","410","","","","51","0,1,0","5","city","220","probe-99","0.06506985496127156","0.39991919907282275","0.29208994552198514","0","","","","","","","",""
"","html-keyboard-response","529","1780952","0.0-279.0-1.0","null","<p></p>","null","","","","","","","","","","","","","","","","","","",""
"","do_trial","530","1786029","0.0-280.0-0.0","509","","","","51","0,0,0","5","city","221","probe-107","0.10224407232931747","0.4382708222521156","0.27957061018724494","0","","","","","","","",""
"","html-keyboard-response","531","1787031","0.0-280.0-1.0","null","<p></p>","null","","","","","","","","","","","","","","","","","","",""
"","do_trial","532","1792088","0.0-281.0-0.0","488.00000000023283","","","","49","0,1,0","5","city","222","probe-50","0.05199153313712091","0.5813457250414972","0.2965459119722475","0","","","","","","","",""
"","html-keyboard-response","533","1793091","0.0-281.0-1.0","null","<p></p>","null","","","","","","","","","","","","","","","","","","",""
"","do_trial","534","1798187","0.0-282.0-0.0","527","","","","50","0,1,0","5","city","223","probe-43","0.07241344747870049","0.6030192178158638","0.4207592665849251","1","","","","","","","",""
"","html-keyboard-response","535","1799190","0.0-282.0-1.0","null","<p></p>","null","","","","","","","","","","","","","","","","","","",""
"","do_trial","536","1804749","0.0-283.0-0.0","990","","","","50","0,1,0","5","city","224","probe-112","0.10004250554640555","0.5882918472314633","0.3734256090732177","1","","","","","","","",""
"","html-keyboard-response","537","1805752","0.0-283.0-1.0","null","<p></p>","null","","","","","","","","","","","","","","","","","","",""
"","do_trial","538","1810895","0.0-284.0-0.0","577","","","","50","1,0,1","5","city","225","probe-143","0.16490461169887197","0.5769771674947898","0.43152364856823283","0","","","","","","","",""
"","html-keyboard-response","539","1811898","0.0-284.0-1.0","null","<p></p>","null","","","","","","","","","","","","","","","","","","",""
"","do_trial","540","1817116","0.0-285.0-0.0","649","","","","50","0,0,1","5","city","226","probe-114","0.3050605981365718","0.6548038539751572","0.4010175921777106","0","","","","","","","",""
"","html-keyboard-response","541","1818119","0.0-285.0-1.0","null","<p></p>","null","","","","","","","","","","","","","","","","","","",""
"","do_trial","542","1823164","0.0-286.0-0.0","476","","","","51","0,1,1","5","city","227","probe-104","0.27443151614488404","0.6669784730218169","0.5121642358401164","1","","","","","","","",""
"","html-keyboard-response","543","1824166","0.0-286.0-1.0","null","<p></p>","null","","","","","","","","","","","","","","","","","","",""
