"success","trial_type","trial_index","time_elapsed","internal_node_id","interactions","blur_events","focus_events","fullscreenenter_events","fullscreenexit_events","rt","stimulus","key_press","subject_id","participant_id","age","gender","prompt","response","choice_outcomes","context_n","context_img_id","trial_n","probe_img_id","pR_red","pR_white","pR_black","outcome","contextArray_ind","validImageProbes","invalidImageProbes","pRew_Red","pRew_White","pRew_Black","availableForMemProbe","choice_blocks"
"true","fullscreen","0","5880","0.0-0.0","""event"",""trial"",""time""
""fullscreenenter"",""0"",""4908""
","
","
","""event"",""trial"",""time""
""fullscreenenter"",""0"",""4908""
","
","","","","","","","","","","","","","","","","","","","","","","","","","",""
"","pavlovia","1","5897","0.0-1.0","""event"",""trial"",""time""
""fullscreenenter"",""0"",""4908""
","
","
","""event"",""trial"",""time""
""fullscreenenter"",""0"",""4908""
","
","","","","","","","","","","","","","","","","","","","","","","","","","",""
"","instruc1","2","51086","0.0-2.0","""event"",""trial"",""time""
""fullscreenenter"",""0"",""4908""
","
","
","""event"",""trial"",""time""
""fullscreenenter"",""0"",""4908""
","
","null","run_exp/static/audio/clip_1_welcome.m4a","null","272","804","14","Male","<div class='center'><p>Welcome! This is the first part of the study. It will last ~30 minutes. In part 1 and part 2 of the study, you are the head captain of a pirate ship traveling around the world to different islands. You will play a few different games throughout these two parts. Here is an overview of them:</p><br><p>Part 1 (today)</p><p>1. Instructions, practice game, and quiz</p><p>2. Pick a pirate game on 6 different islands</p><br><p>Part 2 (tomorrow)</p><p>3. Pick a pirate game and memory game</p><p>4. Where did you see this ship? </p></div>","","","","","","","","","","","","","","","","","",""
"","html-keyboard-response","3","62179","0.0-3.0","""event"",""trial"",""time""
""fullscreenenter"",""0"",""4908""
","
","
","""event"",""trial"",""time""
""fullscreenenter"",""0"",""4908""
","
","11088.30000000447","<div class='center'><p>Welcome! This is the first part of the study. It will last ~30 minutes. In part 1 and part 2 of the study, you are the head captain of a pirate ship traveling around the world to different islands. You will play a few different games throughout these two parts. Here is an overview of them:</p><br><p>Part 1 (today)</p><p>1. Instructions, practice game, and quiz</p><p>2. Pick a pirate game on 6 different islands</p><br><p>Part 2 (tomorrow)</p><p>3. Pick a pirate game and memory game</p><p>4. Where did you see this ship? </p><p><b>[Press the space bar to continue]</b></p></div>","32","","","","","","","","","","","","","","","","","","","","","","",""
"","instruc2","4","67602","0.0-4.0","""event"",""trial"",""time""
""fullscreenenter"",""0"",""4908""
","
","
","""event"",""trial"",""time""
""fullscreenenter"",""0"",""4908""
","
","null","run_exp/static/audio/clip_2_different_places.m4a","null","","","","","<div class='center'><p>Today, you’ll visit these 6 islands on your journey. You'll be able to see these islands from your ship.</p><p><img src='run_exp/static/images/contexts/all_contexts.png' height='500'></p></div>","","","","","","","","","","","","","","","","","",""
"","html-keyboard-response","5","76077","0.0-5.0","""event"",""trial"",""time""
""fullscreenenter"",""0"",""4908""
","
","
","""event"",""trial"",""time""
""fullscreenenter"",""0"",""4908""
","
","8466.40000000596","<div class='center'><p>Today, you’ll visit these 6 islands on your journey. You'll be able to see these islands from your ship.</p><p><img src='run_exp/static/images/contexts/all_contexts.png' height='500'></p><p><b>[Press the space bar to continue]</b></p></div>","32","","","","","","","","","","","","","","","","","","","","","","",""
"","instruc3","6","85992","0.0-6.0","""event"",""trial"",""time""
""fullscreenenter"",""0"",""4908""
","
","
","""event"",""trial"",""time""
""fullscreenenter"",""0"",""4908""
","
","null","run_exp/static/audio/clip_3_goal_of_game_1.m4a","null","","","","","<div class='center'><p> The pirates on your ship will rob other ships as they leave the island.</p> These ships have just sold their goods to the islanders, so they will be filled with lots and lots of gold.</p><p><img src='run_exp/static/images/tutorial/ship_center.png' height='400'></p></div>","","","","","","","","","","","","","","","","","",""
"","html-keyboard-response","7","86823","0.0-7.0","""event"",""trial"",""time""
""fullscreenenter"",""0"",""4908""
""fullscreenexit"",""8"",""97825""
","
","
","""event"",""trial"",""time""
""fullscreenenter"",""0"",""4908""
","""event"",""trial"",""time""
""fullscreenexit"",""8"",""97825""
","826.1000000014901","<div class='center'><p> The pirates on your ship will rob other ships as they leave the island.</p> These ships have just sold their goods to the islanders, so they will be filled with lots and lots of gold.</p><p><img src='run_exp/static/images/tutorial/ship_center.png' height='400'></p><p><b>[Press the space bar to continue]</b></p></div>","32","","","","","","","","","","","","","","","","","","","","","","",""
"","instruc4","8","115062","0.0-8.0","""event"",""trial"",""time""
""fullscreenenter"",""0"",""4908""
""fullscreenexit"",""8"",""97825""
","
","
","""event"",""trial"",""time""
""fullscreenenter"",""0"",""4908""
","""event"",""trial"",""time""
""fullscreenexit"",""8"",""97825""
","null","run_exp/static/audio/clip_4_goal_of_game_2.m4a","null","","","","","<div class='center'><p>As the head captain, you do not have to rob any ships yourself. Another pirate will be doing the robbing for you. First, you will choose a pirate to rob the next ship.</p><p><img src='run_exp/static/images/tutorial/pirates_all_crop.png' height='200'></p><p>Then, you'll see if the pirate successfully robbed the ship of their gold. If they were successful, then you'll get a stack of gold coins like this:</p><p><img src='run_exp/static/images/tutorial/reward.png' height='150'></p><p> If they were <b>not</b> successful, then you'll get no gold coins, and you'll see a big red x like this: </p><p><img src='run_exp/static/images/tutorial/reward_no.png' height='150'></p><p> How much bonus money you make is based on how many gold coins you collect.</p><div>","","","","","","","","","","","","","","","","","",""
"","html-keyboard-response","9","117413","0.0-9.0","""event"",""trial"",""time""
""fullscreenenter"",""0"",""4908""
""fullscreenexit"",""8"",""97825""
","
","
","""event"",""trial"",""time""
""fullscreenenter"",""0"",""4908""
","""event"",""trial"",""time""
""fullscreenexit"",""8"",""97825""
","2341.2999999970198","<div class='center'><p>As the head captain, you do not have to rob any ships yourself. Another pirate will be doing the robbing for you. First, you will choose a pirate to rob the next ship.</p><p><img src='run_exp/static/images/tutorial/pirates_all_crop.png' height='200'></p><p>Then, you'll see if the pirate successfully robbed the ship of their gold. If they were successful, then you'll get a stack of gold coins like this:</p><p><img src='run_exp/static/images/tutorial/reward.png' height='150'></p><p> If they were <b>not</b> successful, then you'll get no gold coins, and you'll see a big red x like this: </p><p><img src='run_exp/static/images/tutorial/reward_no.png' height='150'></p><p> How much bonus money you make is based on how many gold coins you collect.</p<p><b>[Press the space bar to continue]</b></p></div>","32","","","","","","","","","","","","","","","","","","","","","","",""
"","instruc5","10","138086","0.0-10.0","""event"",""trial"",""time""
""fullscreenenter"",""0"",""4908""
""fullscreenexit"",""8"",""97825""
","
","
","""event"",""trial"",""time""
""fullscreenenter"",""0"",""4908""
","""event"",""trial"",""time""
""fullscreenexit"",""8"",""97825""
","20664.39999999851","run_exp/static/audio/clip_5_probabilistic.m4a","49","","","","","<div class='center'><p>Even the most skilled pirate can not rob EVERY ship.</p><p> Some ships will have very strong protections against pirate attacks.</p><p> Blue beard, here, is very, very good at robbing ships, but he won't be successful every time he tries to rob one.</p><p> You can press the <b>‘1’</b> key on the keyboard to choose him.</p><p> Try choosing him 10 times to see how often he succeeds at robbing a ship. </p><p><img src='run_exp/static/images/tutorial/blue.png' height='500'></p></div>","","","","","","","","","","","","","","","","","",""
"","html-keyboard-response","11","139593","0.0-11.0","""event"",""trial"",""time""
""fullscreenenter"",""0"",""4908""
""fullscreenexit"",""8"",""97825""
","
","
","""event"",""trial"",""time""
""fullscreenenter"",""0"",""4908""
","""event"",""trial"",""time""
""fullscreenexit"",""8"",""97825""
","null","<div class='center'><p><img src='run_exp/static/images/tutorial/blue_win.png' height='500'></p></div>","null","","","","","","","","","","","","","","","","","","","","","","",""
"","html-keyboard-response","12","141298","0.0-12.0","""event"",""trial"",""time""
""fullscreenenter"",""0"",""4908""
""fullscreenexit"",""8"",""97825""
","
","
","""event"",""trial"",""time""
""fullscreenenter"",""0"",""4908""
","""event"",""trial"",""time""
""fullscreenexit"",""8"",""97825""
","1700.5999999940395","<div class='center'><img src='run_exp/static/images/tutorial/blue.png' height='500'></p></div>","49","","","","","","","","","","","","","","","","","","","","","","",""
"","html-keyboard-response","13","142804","0.0-13.0","""event"",""trial"",""time""
""fullscreenenter"",""0"",""4908""
""fullscreenexit"",""8"",""97825""
","
","
","""event"",""trial"",""time""
""fullscreenenter"",""0"",""4908""
","""event"",""trial"",""time""
""fullscreenexit"",""8"",""97825""
","null","<div class='center'><p><img src='run_exp/static/images/tutorial/blue_win.png' height='500'></p></div>","null","","","","","","","","","","","","","","","","","","","","","","",""
"","html-keyboard-response","14","143590","0.0-14.0","""event"",""trial"",""time""
""fullscreenenter"",""0"",""4908""
""fullscreenexit"",""8"",""97825""
","
","
","""event"",""trial"",""time""
""fullscreenenter"",""0"",""4908""
","""event"",""trial"",""time""
""fullscreenexit"",""8"",""97825""
","781.2999999970198","<div class='center'><img src='run_exp/static/images/tutorial/blue.png' height='500'></p></div>","49","","","","","","","","","","","","","","","","","","","","","","",""
"","html-keyboard-response","15","145097","0.0-15.0","""event"",""trial"",""time""
""fullscreenenter"",""0"",""4908""
""fullscreenexit"",""8"",""97825""
","
","
","""event"",""trial"",""time""
""fullscreenenter"",""0"",""4908""
","""event"",""trial"",""time""
""fullscreenexit"",""8"",""97825""
","null","<div class='center'><p><img src='run_exp/static/images/tutorial/blue_win.png' height='500'></p></div>","null","","","","","","","","","","","","","","","","","","","","","","",""
"","html-keyboard-response","16","145584","0.0-16.0","""event"",""trial"",""time""
""fullscreenenter"",""0"",""4908""
""fullscreenexit"",""8"",""97825""
","
","
","""event"",""trial"",""time""
""fullscreenenter"",""0"",""4908""
","""event"",""trial"",""time""
""fullscreenexit"",""8"",""97825""
","481.80000000447035","<div class='center'><img src='run_exp/static/images/tutorial/blue.png' height='500'></p></div>","49","","","","","","","","","","","","","","","","","","","","","","",""
"","html-keyboard-response","17","147087","0.0-17.0","""event"",""trial"",""time""
""fullscreenenter"",""0"",""4908""
""fullscreenexit"",""8"",""97825""
","
","
","""event"",""trial"",""time""
""fullscreenenter"",""0"",""4908""
","""event"",""trial"",""time""
""fullscreenexit"",""8"",""97825""
","null","<div class='center'><p><img src='run_exp/static/images/tutorial/blue_no_win.png' height='500'></p></div>","null","","","","","","","","","","","","","","","","","","","","","","",""
"","html-keyboard-response","18","147407","0.0-18.0","""event"",""trial"",""time""
""fullscreenenter"",""0"",""4908""
""fullscreenexit"",""8"",""97825""
","
","
","""event"",""trial"",""time""
""fullscreenenter"",""0"",""4908""
","""event"",""trial"",""time""
""fullscreenexit"",""8"",""97825""
","313.5","<div class='center'><img src='run_exp/static/images/tutorial/blue.png' height='500'></p></div>","49","","","","","","","","","","","","","","","","","","","","","","",""
"","html-keyboard-response","19","148914","0.0-19.0","""event"",""trial"",""time""
""fullscreenenter"",""0"",""4908""
""fullscreenexit"",""8"",""97825""
","
","
","""event"",""trial"",""time""
""fullscreenenter"",""0"",""4908""
","""event"",""trial"",""time""
""fullscreenexit"",""8"",""97825""
","null","<div class='center'><p><img src='run_exp/static/images/tutorial/blue_win.png' height='500'></p></div>","null","","","","","","","","","","","","","","","","","","","","","","",""
"","html-keyboard-response","20","149253","0.0-20.0","""event"",""trial"",""time""
""fullscreenenter"",""0"",""4908""
""fullscreenexit"",""8"",""97825""
","
","
","""event"",""trial"",""time""
""fullscreenenter"",""0"",""4908""
","""event"",""trial"",""time""
""fullscreenexit"",""8"",""97825""
","333.40000000596046","<div class='center'><img src='run_exp/static/images/tutorial/blue.png' height='500'></p></div>","49","","","","","","","","","","","","","","","","","","","","","","",""
"","html-keyboard-response","21","150760","0.0-21.0","""event"",""trial"",""time""
""fullscreenenter"",""0"",""4908""
""fullscreenexit"",""8"",""97825""
","
","
","""event"",""trial"",""time""
""fullscreenenter"",""0"",""4908""
","""event"",""trial"",""time""
""fullscreenexit"",""8"",""97825""
","null","<div class='center'><p><img src='run_exp/static/images/tutorial/blue_win.png' height='500'></p></div>","null","","","","","","","","","","","","","","","","","","","","","","",""
"","html-keyboard-response","22","151069","0.0-22.0","""event"",""trial"",""time""
""fullscreenenter"",""0"",""4908""
""fullscreenexit"",""8"",""97825""
","
","
","""event"",""trial"",""time""
""fullscreenenter"",""0"",""4908""
","""event"",""trial"",""time""
""fullscreenexit"",""8"",""97825""
","302.5","<div class='center'><img src='run_exp/static/images/tutorial/blue.png' height='500'></p></div>","49","","","","","","","","","","","","","","","","","","","","","","",""
"","html-keyboard-response","23","152575","0.0-23.0","""event"",""trial"",""time""
""fullscreenenter"",""0"",""4908""
""fullscreenexit"",""8"",""97825""
","
","
","""event"",""trial"",""time""
""fullscreenenter"",""0"",""4908""
","""event"",""trial"",""time""
""fullscreenexit"",""8"",""97825""
","null","<div class='center'><p><img src='run_exp/static/images/tutorial/blue_win.png' height='500'></p></div>","null","","","","","","","","","","","","","","","","","","","","","","",""
"","html-keyboard-response","24","152909","0.0-24.0","""event"",""trial"",""time""
""fullscreenenter"",""0"",""4908""
""fullscreenexit"",""8"",""97825""
","
","
","""event"",""trial"",""time""
""fullscreenenter"",""0"",""4908""
","""event"",""trial"",""time""
""fullscreenexit"",""8"",""97825""
","325.59999999403954","<div class='center'><img src='run_exp/static/images/tutorial/blue.png' height='500'></p></div>","49","","","","","","","","","","","","","","","","","","","","","","",""
"","html-keyboard-response","25","154413","0.0-25.0","""event"",""trial"",""time""
""fullscreenenter"",""0"",""4908""
""fullscreenexit"",""8"",""97825""
","
","
","""event"",""trial"",""time""
""fullscreenenter"",""0"",""4908""
","""event"",""trial"",""time""
""fullscreenexit"",""8"",""97825""
","null","<div class='center'><p><img src='run_exp/static/images/tutorial/blue_no_win.png' height='500'></p></div>","null","","","","","","","","","","","","","","","","","","","","","","",""
"","html-keyboard-response","26","154791","0.0-26.0","""event"",""trial"",""time""
""fullscreenenter"",""0"",""4908""
""fullscreenexit"",""8"",""97825""
","
","
","""event"",""trial"",""time""
""fullscreenenter"",""0"",""4908""
","""event"",""trial"",""time""
""fullscreenexit"",""8"",""97825""
","368.5","<div class='center'><img src='run_exp/static/images/tutorial/blue.png' height='500'></p></div>","49","","","","","","","","","","","","","","","","","","","","","","",""
"","html-keyboard-response","27","156297","0.0-27.0","""event"",""trial"",""time""
""fullscreenenter"",""0"",""4908""
""fullscreenexit"",""8"",""97825""
","
","
","""event"",""trial"",""time""
""fullscreenenter"",""0"",""4908""
","""event"",""trial"",""time""
""fullscreenexit"",""8"",""97825""
","null","<div class='center'><p><img src='run_exp/static/images/tutorial/blue_win.png' height='500'></p></div>","null","","","","","","","","","","","","","","","","","","","","","","",""
"","html-keyboard-response","28","160331","0.0-28.0","""event"",""trial"",""time""
""fullscreenenter"",""0"",""4908""
""fullscreenexit"",""8"",""97825""
","
","
","""event"",""trial"",""time""
""fullscreenenter"",""0"",""4908""
","""event"",""trial"",""time""
""fullscreenexit"",""8"",""97825""
","4028.5","<div class='center'><img src='run_exp/static/images/tutorial/blue.png' height='500'></p></div>","49","","","","","","","","","","","","","","","","","","","","","","",""
"","html-keyboard-response","29","161839","0.0-29.0","""event"",""trial"",""time""
""fullscreenenter"",""0"",""4908""
""fullscreenexit"",""8"",""97825""
","
","
","""event"",""trial"",""time""
""fullscreenenter"",""0"",""4908""
","""event"",""trial"",""time""
""fullscreenexit"",""8"",""97825""
","null","<div class='center'><p><img src='run_exp/static/images/tutorial/blue_win.png' height='500'></p></div>","null","","","","","","","","","","","","","","","","","","","","","","",""
"","instruc6","30","167466","0.0-30.0","""event"",""trial"",""time""
""fullscreenenter"",""0"",""4908""
""fullscreenexit"",""8"",""97825""
","
","
","""event"",""trial"",""time""
""fullscreenenter"",""0"",""4908""
","""event"",""trial"",""time""
""fullscreenexit"",""8"",""97825""
","null","run_exp/static/audio/clip_6_blue_beard_outcome.m4a","null","","","","","<div class='center'><p> See, he succeeded in robbing the ships most of the time but not every time. </p></div>","","","","","","","","","","","","","","","","","",""
"","html-keyboard-response","31","168910","0.0-31.0","""event"",""trial"",""time""
""fullscreenenter"",""0"",""4908""
""fullscreenexit"",""8"",""97825""
","
","
","""event"",""trial"",""time""
""fullscreenenter"",""0"",""4908""
","""event"",""trial"",""time""
""fullscreenexit"",""8"",""97825""
","1439.6000000014901","<div class='center'><p> See, he succeeded in robbing the ships most of the time but not every time. </p><p><b>[Press the space bar to continue]</b></p></div>","32","","","","","","","","","","","","","","","","","","","","","","",""
"","audio-keyboard-response","32","185361","0.0-32.0","""event"",""trial"",""time""
""fullscreenenter"",""0"",""4908""
""fullscreenexit"",""8"",""97825""
","
","
","""event"",""trial"",""time""
""fullscreenenter"",""0"",""4908""
","""event"",""trial"",""time""
""fullscreenexit"",""8"",""97825""
","16435.70000000298","run_exp/static/audio/clip_7_pick_pirate.m4a","51","","","","","","","","","","","","","","","","","","","","","","",""
"","audio-keyboard-response","33","190140","0.0-33.0-0.0","""event"",""trial"",""time""
""fullscreenenter"",""0"",""4908""
""fullscreenexit"",""8"",""97825""
","
","
","""event"",""trial"",""time""
""fullscreenenter"",""0"",""4908""
","""event"",""trial"",""time""
""fullscreenexit"",""8"",""97825""
","4769.69999999553","run_exp/static/audio/clip_8_chosen_pirate_win.m4a","32","","","","","","","","","","","","","","","","","","","","","","",""
"","audio-keyboard-response","34","192305","0.0-33.0-1.0","""event"",""trial"",""time""
""fullscreenenter"",""0"",""4908""
""fullscreenexit"",""8"",""97825""
","
","
","""event"",""trial"",""time""
""fullscreenenter"",""0"",""4908""
","""event"",""trial"",""time""
""fullscreenexit"",""8"",""97825""
","2154.7000000029802","run_exp/static/audio/clip_9_pick_a_pirate_again.m4a","50","","","","","","","","","","","","","","","","","","","","","","",""
"","audio-keyboard-response","35","196494","0.0-34.0-0.0","""event"",""trial"",""time""
""fullscreenenter"",""0"",""4908""
""fullscreenexit"",""8"",""97825""
","
","
","""event"",""trial"",""time""
""fullscreenenter"",""0"",""4908""
","""event"",""trial"",""time""
""fullscreenexit"",""8"",""97825""
","4172.5","run_exp/static/audio/clip_10_chosen_pirate_loss.m4a","32","","","","","","","","","","","","","","","","","","","","","","",""
"","instruc9","36","202209","0.0-35.0-0.0","""event"",""trial"",""time""
""fullscreenenter"",""0"",""4908""
""fullscreenexit"",""8"",""97825""
","
","
","""event"",""trial"",""time""
""fullscreenenter"",""0"",""4908""
","""event"",""trial"",""time""
""fullscreenexit"",""8"",""97825""
","null","run_exp/static/audio/clip_11_time_out.m4a","null","","","","","<div class='center'><p>If you don’t make your choice fast enough, you’ll have to wait a few seconds before you can make another one. </p><p><img src='run_exp/static/images/miscellaneous/hurry_up.png' height='500'></p></div>","","","","","","","","","","","","","","","","","",""
"","html-keyboard-response","37","202846","0.0-35.0-1.0","""event"",""trial"",""time""
""fullscreenenter"",""0"",""4908""
""fullscreenexit"",""8"",""97825""
","
","
","""event"",""trial"",""time""
""fullscreenenter"",""0"",""4908""
","""event"",""trial"",""time""
""fullscreenexit"",""8"",""97825""
","634.1000000014901","<div class='center'><p>If you don’t make your choice fast enough, you’ll have to wait a few seconds before you can make another one. </p><p><img src='run_exp/static/images/miscellaneous/hurry_up.png' height='500'></p><p><b>[Press the space bar to continue]</b></p></div>","32","","","","","","","","","","","","","","","","","","","","","","",""
"","instruc10","38","242233","0.0-35.0-2.0","""event"",""trial"",""time""
""fullscreenenter"",""0"",""4908""
""fullscreenexit"",""8"",""97825""
","
","
","""event"",""trial"",""time""
""fullscreenenter"",""0"",""4908""
","""event"",""trial"",""time""
""fullscreenexit"",""8"",""97825""
","null","run_exp/static/audio/clip_12_probe.m4a","null","","","","","<div class='center'><p>Once you've chosen a pirate, you’ll be shown the ship they are robbing. You will never rob the same ship twice. Ships can be told apart from one another by the image on them. These are the goods that they sell. See, this ship has a travel mug on it. </p><p> You’ll have to remember which island you saw each ship on. You will win more gold coins and hence more bonus money if you remember correctly! To help you remember, you can imagine a story. For example, here, you could imagine a mug full of water in the desert. Or, as another example, if on the forest island, your pirate robbed a ship with an apple on it, you could imagine an apple falling from a tree in the forest. </p><p><img src='run_exp/static/images/tutorial/example_probe.png' height='500'></p></div>","","","","","","","","","","","","","","","","","",""
"","html-keyboard-response","39","243107","0.0-35.0-3.0","""event"",""trial"",""time""
""fullscreenenter"",""0"",""4908""
""fullscreenexit"",""8"",""97825""
","
","
","""event"",""trial"",""time""
""fullscreenenter"",""0"",""4908""
","""event"",""trial"",""time""
""fullscreenexit"",""8"",""97825""
","870.0999999940395","<div class='center'><p>Once you've chosen a pirate, you’ll be shown the ship they are robbing. You will never rob the same ship twice. Ships can be told apart from one another by the image on them. These are the goods that they sell. See, this ship has a travel mug on it. </p><p> You’ll have to remember which island you saw each ship on. You will win more gold coins and hence more bonus money if you remember correctly! To help you remember, you can imagine a story. For example, here, you could imagine a mug full of water in the desert. Or, as another example, if on the forest island, your pirate robbed a ship with an apple on it, you could imagine an apple falling from a tree in the forest. </p><p><img src='run_exp/static/images/tutorial/example_probe.png' height='500'></p><p><b>[Press the space bar to continue]</b></p></div>","32","","","","","","","","","","","","","","","","","","","","","","",""
"","instruc11","40","259696","0.0-35.0-4.0","""event"",""trial"",""time""
""fullscreenenter"",""0"",""4908""
""fullscreenexit"",""8"",""97825""
","
","
","""event"",""trial"",""time""
""fullscreenenter"",""0"",""4908""
","""event"",""trial"",""time""
""fullscreenexit"",""8"",""97825""
","null","run_exp/static/audio/clip_13_changepoint.m4a","null","","","","","<div class='center'><p>How successful a pirate is at robbing ships will depend on the island you’re on.</p><p> A pirate may have visited this island many times before and gained a lot of practice robbing ships there.</p><p>So, they’re more likely to be successful than a pirate who has never visited the island before.</p></div>","","","","","","","","","","","","","","","","","",""
"","html-keyboard-response","41","260482","0.0-35.0-5.0","""event"",""trial"",""time""
""fullscreenenter"",""0"",""4908""
""fullscreenexit"",""8"",""97825""
","
","
","""event"",""trial"",""time""
""fullscreenenter"",""0"",""4908""
","""event"",""trial"",""time""
""fullscreenexit"",""8"",""97825""
","780.3999999985099","<div class='center'><p>How successful a pirate is at robbing ships will depend on the island you’re on.</p><p> A pirate may have visited this island many times before and gained a lot of practice robbing ships there.</p><p>So, they’re more likely to be successful than a pirate who has never visited the island before.</p><p><b>[Press the space bar to continue]</b></p></div>","32","","","","","","","","","","","","","","","","","","","","","","",""
"","instruc12","42","301771","0.0-35.0-6.0","""event"",""trial"",""time""
""fullscreenenter"",""0"",""4908""
""fullscreenexit"",""8"",""97825""
","
","
","""event"",""trial"",""time""
""fullscreenenter"",""0"",""4908""
","""event"",""trial"",""time""
""fullscreenexit"",""8"",""97825""
","null","run_exp/static/audio/clip_14_drift.m4a","null","","","","","<div class='center'><p>How successful a pirate is at robbing ships can also change over the time spent on the island. </p><p> Ships may hear from islanders about the pirates coming and will improve their protections against the attack. This may make it harder to rob them.</p><p> Ships may also become lazy and weaken the strength of their protections. This may make it easier to rob them.</p><br><p>Things are always changing on the high seas! So, try your best to pay attention!</p><p><img src='run_exp/static/images/tutorial/contingency.png' height='500'></p></div>","","","","","","","","","","","","","","","","","",""
"","html-keyboard-response","43","303418","0.0-35.0-7.0","""event"",""trial"",""time""
""fullscreenenter"",""0"",""4908""
""fullscreenexit"",""8"",""97825""
","
","
","""event"",""trial"",""time""
""fullscreenenter"",""0"",""4908""
","""event"",""trial"",""time""
""fullscreenexit"",""8"",""97825""
","1637.7999999970198","<div class='center'><p>How successful a pirate is at robbing ships can also change over the time spent on the island. </p><p> Ships may hear from islanders about the pirates coming and will improve their protections against the attack. This may make it harder to rob them.</p><p> Ships may also become lazy and weaken the strength of their protections. This may make it easier to rob them.</p><br><p>Things are always changing on the high seas! So, try your best to pay attention!</p><p><img src='run_exp/static/images/tutorial/contingency.png' height='500'></p><p><b>[Press the space bar to continue]</b></p></div>","32","","","","","","","","","","","","","","","","","","","","","","",""
"","instruc13","44","338829","0.0-35.0-8.0","""event"",""trial"",""time""
""fullscreenenter"",""0"",""4908""
""fullscreenexit"",""8"",""97825""
","
","
","""event"",""trial"",""time""
""fullscreenenter"",""0"",""4908""
","""event"",""trial"",""time""
""fullscreenexit"",""8"",""97825""
","null","run_exp/static/audio/clip_15_summary.m4a","null","","","","","<div class='center'><p>Let's go over the instructions quickly again. You have two important things to do: </p><b><p> 1. Pick the pirate who is the best at robbing ships on the current island. </p></b><b><p> 2. Remember on which island a ship was robbed.</p> </b><p>The amount of bonus money you can win depends on both.</p><p><br><p>Let’s try a practice game. The game will start by showing you the pirates. First, pick a pirate using the <b> 1, 2, 3 </b> keys on your keyboard. When you are shown a ship, try to remember which island you’re on by making up a story.</p><p>This is just a practice game, so you’re not playing for money. </p><p> Good luck! This game will be very difficult but try your best!</p></div>","","","","","","","","","","","","","","","","","",""
"","html-keyboard-response","45","339760","0.0-35.0-9.0","""event"",""trial"",""time""
""fullscreenenter"",""0"",""4908""
""fullscreenexit"",""8"",""97825""
","
","
","""event"",""trial"",""time""
""fullscreenenter"",""0"",""4908""
","""event"",""trial"",""time""
""fullscreenexit"",""8"",""97825""
","926.5","<div class='center'><p>Let's go over the instructions quickly again. You have two important things to do: </p><b><p> 1. Pick the pirate who is the best at robbing ships on the current island. </p></b><b><p> 2. Remember on which island a ship was robbed.</p> </b><p>The amount of bonus money you can win depends on both.</p><p><br><p>Let’s try a practice game. The game will start by showing you the pirates. First, pick a pirate using the <b> 1, 2, 3 </b> keys on your keyboard. When you are shown a ship, try to remember which island you’re on by making up a story.</p><p>This is just a practice game, so you’re not playing for money. </p><p> Good luck! This game will be very difficult but try your best!</p><p><b>[Press the space bar to continue]</b></p></div>","32","","","","","","","","","","","","","","","","","","","","","","",""
"","do_welcome","46","343779","0.0-35.0-10.0","""event"",""trial"",""time""
""fullscreenenter"",""0"",""4908""
""fullscreenexit"",""8"",""97825""
","
","
","""event"",""trial"",""time""
""fullscreenenter"",""0"",""4908""
","""event"",""trial"",""time""
""fullscreenexit"",""8"",""97825""
","null","","","","","","","","null","","","","","","","","","","","","","","","","",""
"","do_trial","47","349871","0.0-35.0-11.0","""event"",""trial"",""time""
""fullscreenenter"",""0"",""4908""
""fullscreenexit"",""8"",""97825""
","
","
","""event"",""trial"",""time""
""fullscreenenter"",""0"",""4908""
","""event"",""trial"",""time""
""fullscreenexit"",""8"",""97825""
","1574.5","","","","","","","","51","1,0,0","","","","","","","","","","","","","","","",""
"","html-keyboard-response","48","350876","0.0-36.0-0.0","""event"",""trial"",""time""
""fullscreenenter"",""0"",""4908""
""fullscreenexit"",""8"",""97825""
","
","
","""event"",""trial"",""time""
""fullscreenenter"",""0"",""4908""
","""event"",""trial"",""time""
""fullscreenexit"",""8"",""97825""
","null","<p></p>","null","","","","","","","","","","","","","","","","","","","","","","",""
"","do_trial","49","357110","0.0-36.0-1.0","""event"",""trial"",""time""
""fullscreenenter"",""0"",""4908""
""fullscreenexit"",""8"",""97825""
","
","
","""event"",""trial"",""time""
""fullscreenenter"",""0"",""4908""
","""event"",""trial"",""time""
""fullscreenexit"",""8"",""97825""
","1717.1999999955297","","","","","","","","51","1,1,0","","","","","","","","","","","","","","","",""
"","html-keyboard-response","50","358114","0.0-37.0-0.0","""event"",""trial"",""time""
""fullscreenenter"",""0"",""4908""
""fullscreenexit"",""8"",""97825""
","
","
","""event"",""trial"",""time""
""fullscreenenter"",""0"",""4908""
","""event"",""trial"",""time""
""fullscreenexit"",""8"",""97825""
","null","<p></p>","null","","","","","","","","","","","","","","","","","","","","","","",""
"","do_trial","51","363202","0.0-37.0-1.0","""event"",""trial"",""time""
""fullscreenenter"",""0"",""4908""
""fullscreenexit"",""8"",""97825""
","
","
","""event"",""trial"",""time""
""fullscreenenter"",""0"",""4908""
","""event"",""trial"",""time""
""fullscreenexit"",""8"",""97825""
","565.6000000014901","","","","","","","","50","1,0,1","","","","","","","","","","","","","","","",""
"","html-keyboard-response","52","364209","0.0-38.0-0.0","""event"",""trial"",""time""
""fullscreenenter"",""0"",""4908""
""fullscreenexit"",""8"",""97825""
","
","
","""event"",""trial"",""time""
""fullscreenenter"",""0"",""4908""
","""event"",""trial"",""time""
""fullscreenexit"",""8"",""97825""
","null","<p></p>","null","","","","","","","","","","","","","","","","","","","","","","",""
"","do_trial","53","370661","0.0-38.0-1.0","""event"",""trial"",""time""
""fullscreenenter"",""0"",""4908""
""fullscreenexit"",""8"",""97825""
","
","
","""event"",""trial"",""time""
""fullscreenenter"",""0"",""4908""
","""event"",""trial"",""time""
""fullscreenexit"",""8"",""97825""
","1924.5","","","","","","","","49","0,1,0","","","","","","","","","","","","","","","",""
"","html-keyboard-response","54","371668","0.0-39.0-0.0","""event"",""trial"",""time""
""fullscreenenter"",""0"",""4908""
""fullscreenexit"",""8"",""97825""
","
","
","""event"",""trial"",""time""
""fullscreenenter"",""0"",""4908""
","""event"",""trial"",""time""
""fullscreenexit"",""8"",""97825""
","null","<p></p>","null","","","","","","","","","","","","","","","","","","","","","","",""
"","do_trial","55","376790","0.0-39.0-1.0","""event"",""trial"",""time""
""fullscreenenter"",""0"",""4908""
""fullscreenexit"",""8"",""97825""
","
","
","""event"",""trial"",""time""
""fullscreenenter"",""0"",""4908""
","""event"",""trial"",""time""
""fullscreenexit"",""8"",""97825""
","606.2000000029802","","","","","","","","51","1,0,0","","","","","","","","","","","","","","","",""
"","do_bye","56","378304","0.0-40.0-0.0","""event"",""trial"",""time""
""fullscreenenter"",""0"",""4908""
""fullscreenexit"",""8"",""97825""
","
","
","""event"",""trial"",""time""
""fullscreenenter"",""0"",""4908""
","""event"",""trial"",""time""
""fullscreenexit"",""8"",""97825""
","null","","","","","","","","null","","","","","","","","","","","","","","","","",""
"","do_travel","57","387315","0.0-40.0-1.0","""event"",""trial"",""time""
""fullscreenenter"",""0"",""4908""
""fullscreenexit"",""8"",""97825""
","
","
","""event"",""trial"",""time""
""fullscreenenter"",""0"",""4908""
","""event"",""trial"",""time""
""fullscreenexit"",""8"",""97825""
","null","","","","","","","","null","","","","","","","","","","","","","","","","",""
"","do_welcome","58","391332","0.0-40.0-2.0","""event"",""trial"",""time""
""fullscreenenter"",""0"",""4908""
""fullscreenexit"",""8"",""97825""
","
","
","""event"",""trial"",""time""
""fullscreenenter"",""0"",""4908""
","""event"",""trial"",""time""
""fullscreenexit"",""8"",""97825""
","null","","","","","","","","null","","","","","","","","","","","","","","","","",""
"","do_trial","59","396836","0.0-40.0-3.0","""event"",""trial"",""time""
""fullscreenenter"",""0"",""4908""
""fullscreenexit"",""8"",""97825""
","
","
","""event"",""trial"",""time""
""fullscreenenter"",""0"",""4908""
","""event"",""trial"",""time""
""fullscreenexit"",""8"",""97825""
","981.5","","","","","","","","51","1,0,0","","","","","","","","","","","","","","","",""
"","html-keyboard-response","60","397846","0.0-41.0-0.0","""event"",""trial"",""time""
""fullscreenenter"",""0"",""4908""
""fullscreenexit"",""8"",""97825""
","
","
","""event"",""trial"",""time""
""fullscreenenter"",""0"",""4908""
","""event"",""trial"",""time""
""fullscreenexit"",""8"",""97825""
","null","<p></p>","null","","","","","","","","","","","","","","","","","","","","","","",""
"","do_trial","61","403585","0.0-41.0-1.0","""event"",""trial"",""time""
""fullscreenenter"",""0"",""4908""
""fullscreenexit"",""8"",""97825""
","
","
","""event"",""trial"",""time""
""fullscreenenter"",""0"",""4908""
","""event"",""trial"",""time""
""fullscreenexit"",""8"",""97825""
","1219.7999999970198","","","","","","","","50","1,0,1","","","","","","","","","","","","","","","",""
"","html-keyboard-response","62","404590","0.0-42.0-0.0","""event"",""trial"",""time""
""fullscreenenter"",""0"",""4908""
""fullscreenexit"",""8"",""97825""
","
","
","""event"",""trial"",""time""
""fullscreenenter"",""0"",""4908""
","""event"",""trial"",""time""
""fullscreenexit"",""8"",""97825""
","null","<p></p>","null","","","","","","","","","","","","","","","","","","","","","","",""
"","do_trial","63","410096","0.0-42.0-1.0","""event"",""trial"",""time""
""fullscreenenter"",""0"",""4908""
""fullscreenexit"",""8"",""97825""
","
","
","""event"",""trial"",""time""
""fullscreenenter"",""0"",""4908""
","""event"",""trial"",""time""
""fullscreenexit"",""8"",""97825""
","983.2000000029802","","","","","","","","49","1,1,0","","","","","","","","","","","","","","","",""
"","html-keyboard-response","64","411101","0.0-43.0-0.0","""event"",""trial"",""time""
""fullscreenenter"",""0"",""4908""
""fullscreenexit"",""8"",""97825""
","
","
","""event"",""trial"",""time""
""fullscreenenter"",""0"",""4908""
","""event"",""trial"",""time""
""fullscreenexit"",""8"",""97825""
","null","<p></p>","null","","","","","","","","","","","","","","","","","","","","","","",""
"","do_trial","65","416313","0.0-43.0-1.0","""event"",""trial"",""time""
""fullscreenenter"",""0"",""4908""
""fullscreenexit"",""8"",""97825""
","
","
","""event"",""trial"",""time""
""fullscreenenter"",""0"",""4908""
","""event"",""trial"",""time""
""fullscreenexit"",""8"",""97825""
","697.2999999970198","","","","","","","","49","0,0,1","","","","","","","","","","","","","","","",""
"","html-keyboard-response","66","417319","0.0-44.0-0.0","""event"",""trial"",""time""
""fullscreenenter"",""0"",""4908""
""fullscreenexit"",""8"",""97825""
","
","
","""event"",""trial"",""time""
""fullscreenenter"",""0"",""4908""
","""event"",""trial"",""time""
""fullscreenexit"",""8"",""97825""
","null","<p></p>","null","","","","","","","","","","","","","","","","","","","","","","",""
"","do_trial","67","422485","0.0-44.0-1.0","""event"",""trial"",""time""
""fullscreenenter"",""0"",""4908""
""fullscreenexit"",""8"",""97825""
","
","
","""event"",""trial"",""time""
""fullscreenenter"",""0"",""4908""
","""event"",""trial"",""time""
""fullscreenexit"",""8"",""97825""
","641.2999999970198","","","","","","","","49","1,0,1","","","","","","","","","","","","","","","",""
"","html-keyboard-response","68","426068","0.0-45.0-0.0","""event"",""trial"",""time""
""fullscreenenter"",""0"",""4908""
""fullscreenexit"",""8"",""97825""
","
","
","""event"",""trial"",""time""
""fullscreenenter"",""0"",""4908""
","""event"",""trial"",""time""
""fullscreenexit"",""8"",""97825""
","3571.89999999851","<div class='center'><p><img src='run_exp/static/images/tutorial/prac_best_pirate.png'  height='500'></p></div>","49","","","","","","","","","","","","","","","","","","","","","","",""
"","html-keyboard-response","69","428112","0.0-46.0-0.0","""event"",""trial"",""time""
""fullscreenenter"",""0"",""4908""
""fullscreenexit"",""8"",""97825""
","
","
","""event"",""trial"",""time""
""fullscreenenter"",""0"",""4908""
","""event"",""trial"",""time""
""fullscreenexit"",""8"",""97825""
","2036.5","<div class='center'><p>That's correct! Red beard was the best.</p><p><b>[Press the space bar to continue]</b></p></div>","32","","","","","","","","","","","","","","","","","","","","","","",""
"","html-keyboard-response","70","436355","0.0-46.0-1.0","""event"",""trial"",""time""
""fullscreenenter"",""0"",""4908""
""fullscreenexit"",""8"",""97825""
","
","
","""event"",""trial"",""time""
""fullscreenenter"",""0"",""4908""
","""event"",""trial"",""time""
""fullscreenexit"",""8"",""97825""
","8240.5","<div class='center'><p><img src='run_exp/static/images/tutorial/prac_source.png'  height='500'></p></div>","50","","","","","","","","","","","","","","","","","","","","","","",""
"","html-keyboard-response","71","437808","0.0-47.0-0.0","""event"",""trial"",""time""
""fullscreenenter"",""0"",""4908""
""fullscreenexit"",""8"",""97825""
","
","
","""event"",""trial"",""time""
""fullscreenenter"",""0"",""4908""
","""event"",""trial"",""time""
""fullscreenexit"",""8"",""97825""
","1447.6000000014901","<div class='center'><p>That's correct! You saw this ship on the cavern island.</p><p><b>[Press the space bar to continue]</b></p></div>","32","","","","","","","","","","","","","","","","","","","","","","",""
"","quiz_beginning","72","449180","0.0-47.0-1.0","""event"",""trial"",""time""
""fullscreenenter"",""0"",""4908""
""fullscreenexit"",""8"",""97825""
","
","
","""event"",""trial"",""time""
""fullscreenenter"",""0"",""4908""
","""event"",""trial"",""time""
""fullscreenexit"",""8"",""97825""
","null","run_exp/static/audio/clip_16_quiz_intro.m4a","null","","","","","<div class='center'><p>Good job on the practice game! Now, you will be asked some true or false questions to make sure you really understand the rules of the game.</p><p> Press <b>'1'</b> on the keyboard for true and press <b>'2'</b> for false.</p></div>","","","","","","","","","","","","","","","","","",""
"","audio-keyboard-response","73","453083","0.0-47.0-2.0","""event"",""trial"",""time""
""fullscreenenter"",""0"",""4908""
""fullscreenexit"",""8"",""97825""
","
","
","""event"",""trial"",""time""
""fullscreenenter"",""0"",""4908""
","""event"",""trial"",""time""
""fullscreenexit"",""8"",""97825""
","3890.60000000149","run_exp/static/audio/clip_17_q1.m4a","49","","","","","","","","","","","","","","","","","","","","","","",""
"","correct","74","455775","0.0-48.0-0.0","""event"",""trial"",""time""
""fullscreenenter"",""0"",""4908""
""fullscreenexit"",""8"",""97825""
","
","
","""event"",""trial"",""time""
""fullscreenenter"",""0"",""4908""
","""event"",""trial"",""time""
""fullscreenexit"",""8"",""97825""
","null","run_exp/static/audio/clip_18_correct.m4a","null","","","","","<div class='center'><p>That's correct!</p></div>","","","","","","","","","","","","","","","","","",""
"","html-keyboard-response","75","456956","0.0-48.0-1.0","""event"",""trial"",""time""
""fullscreenenter"",""0"",""4908""
""fullscreenexit"",""8"",""97825""
","
","
","""event"",""trial"",""time""
""fullscreenenter"",""0"",""4908""
","""event"",""trial"",""time""
""fullscreenexit"",""8"",""97825""
","1177.3999999985099","<div class='center'><p>That's correct!</p><p><b>[Press the space bar to continue]</b></p></div>","32","","","","","","","","","","","","","","","","","","","","","","",""
"","audio-keyboard-response","76","465126","0.0-48.0-2.0","""event"",""trial"",""time""
""fullscreenenter"",""0"",""4908""
""fullscreenexit"",""8"",""97825""
","
","
","""event"",""trial"",""time""
""fullscreenenter"",""0"",""4908""
","""event"",""trial"",""time""
""fullscreenexit"",""8"",""97825""
","8163.10000000149","run_exp/static/audio/clip_20_q2.m4a","49","","","","","","","","","","","","","","","","","","","","","","",""
"","q2_err","77","470913","0.0-49.0-0.0","""event"",""trial"",""time""
""fullscreenenter"",""0"",""4908""
""fullscreenexit"",""8"",""97825""
","
","
","""event"",""trial"",""time""
""fullscreenenter"",""0"",""4908""
","""event"",""trial"",""time""
""fullscreenexit"",""8"",""97825""
","null","run_exp/static/audio/clip_21_wrong_q2.m4a","null","","","","","<div class='center'><p>That’s incorrect. Which pirate is the best may change during your time on the island.</p></div>","","","","","","","","","","","","","","","","","",""
"","html-keyboard-response","78","472564","0.0-49.0-1.0","""event"",""trial"",""time""
""fullscreenenter"",""0"",""4908""
""fullscreenexit"",""8"",""97825""
","
","
","""event"",""trial"",""time""
""fullscreenenter"",""0"",""4908""
","""event"",""trial"",""time""
""fullscreenexit"",""8"",""97825""
","1642.6000000014901","<div class='center'><p>That’s incorrect. Which pirate is the best may change during your time on the island.</p><p><b>[Press the space bar to continue]</b></p></div>","32","","","","","","","","","","","","","","","","","","","","","","",""
"","audio-keyboard-response","79","479282","0.0-49.0-2.0","""event"",""trial"",""time""
""fullscreenenter"",""0"",""4908""
""fullscreenexit"",""8"",""97825""
","
","
","""event"",""trial"",""time""
""fullscreenenter"",""0"",""4908""
","""event"",""trial"",""time""
""fullscreenexit"",""8"",""97825""
","6712.30000000447","run_exp/static/audio/clip_22_q3.m4a","50","","","","","","","","","","","","","","","","","","","","","","",""
"","correct","80","481966","0.0-50.0-0.0","""event"",""trial"",""time""
""fullscreenenter"",""0"",""4908""
""fullscreenexit"",""8"",""97825""
","
","
","""event"",""trial"",""time""
""fullscreenenter"",""0"",""4908""
","""event"",""trial"",""time""
""fullscreenexit"",""8"",""97825""
","null","run_exp/static/audio/clip_18_correct.m4a","null","","","","","<div class='center'><p>That's correct!</p></div>","","","","","","","","","","","","","","","","","",""
"","html-keyboard-response","81","483155","0.0-50.0-1.0","""event"",""trial"",""time""
""fullscreenenter"",""0"",""4908""
""fullscreenexit"",""8"",""97825""
","
","
","""event"",""trial"",""time""
""fullscreenenter"",""0"",""4908""
","""event"",""trial"",""time""
""fullscreenexit"",""8"",""97825""
","1186.9000000059605","<div class='center'><p>That's correct!</p><p><b>[Press the space bar to continue]</b></p></div>","32","","","","","","","","","","","","","","","","","","","","","","",""
"","audio-keyboard-response","82","489402","0.0-50.0-2.0","""event"",""trial"",""time""
""fullscreenenter"",""0"",""4908""
""fullscreenexit"",""8"",""97825""
","
","
","""event"",""trial"",""time""
""fullscreenenter"",""0"",""4908""
","""event"",""trial"",""time""
""fullscreenexit"",""8"",""97825""
","6241.79999999702","run_exp/static/audio/clip_24_q4.m4a","49","","","","","","","","","","","","","","","","","","","","","","",""
"","correct","83","492088","0.0-51.0-0.0","""event"",""trial"",""time""
""fullscreenenter"",""0"",""4908""
""fullscreenexit"",""8"",""97825""
","
","
","""event"",""trial"",""time""
""fullscreenenter"",""0"",""4908""
","""event"",""trial"",""time""
""fullscreenexit"",""8"",""97825""
","null","run_exp/static/audio/clip_18_correct.m4a","null","","","","","<div class='center'><p>That's correct!</p></div>","","","","","","","","","","","","","","","","","",""
"","html-keyboard-response","84","493761","0.0-51.0-1.0","""event"",""trial"",""time""
""fullscreenenter"",""0"",""4908""
""fullscreenexit"",""8"",""97825""
","
","
","""event"",""trial"",""time""
""fullscreenenter"",""0"",""4908""
","""event"",""trial"",""time""
""fullscreenexit"",""8"",""97825""
","1671.3000000044703","<div class='center'><p>That's correct!</p><p><b>[Press the space bar to continue]</b></p></div>","32","","","","","","","","","","","","","","","","","","","","","","",""
"","q_all_err","85","500174","0.0-52.0-0.0","""event"",""trial"",""time""
""fullscreenenter"",""0"",""4908""
""fullscreenexit"",""8"",""97825""
","
","
","""event"",""trial"",""time""
""fullscreenenter"",""0"",""4908""
","""event"",""trial"",""time""
""fullscreenexit"",""8"",""97825""
","null","run_exp/static/audio/clip_26_quiz_redo.m4a","null","","","","","<div class='center'><p>Oops, you missed some questions. Now that you’ve heard the correct answers. Try the quiz again! </p></div>","","","","","","","","","","","","","","","","","",""
"","html-keyboard-response","86","501313","0.0-52.0-1.0","""event"",""trial"",""time""
""fullscreenenter"",""0"",""4908""
""fullscreenexit"",""8"",""97825""
","
","
","""event"",""trial"",""time""
""fullscreenenter"",""0"",""4908""
","""event"",""trial"",""time""
""fullscreenexit"",""8"",""97825""
","1136.4000000059605","<div class='center'><p>Oops, you missed some questions. Now that you’ve heard the correct answers. Try the quiz again! </p><p><b>[Press the space bar to continue]</b></p></div>","32","","","","","","","","","","","","","","","","","","","","","","",""
"","audio-keyboard-response","87","503544","0.0-52.0-2.0","""event"",""trial"",""time""
""fullscreenenter"",""0"",""4908""
""fullscreenexit"",""8"",""97825""
","
","
","""event"",""trial"",""time""
""fullscreenenter"",""0"",""4908""
","""event"",""trial"",""time""
""fullscreenexit"",""8"",""97825""
","2225.4000000059605","run_exp/static/audio/clip_17_q1.m4a","49","","","","","","","","","","","","","","","","","","","","","","",""
"","correct","88","506215","0.0-53.0-0.0","""event"",""trial"",""time""
""fullscreenenter"",""0"",""4908""
""fullscreenexit"",""8"",""97825""
","
","
","""event"",""trial"",""time""
""fullscreenenter"",""0"",""4908""
","""event"",""trial"",""time""
""fullscreenexit"",""8"",""97825""
","null","run_exp/static/audio/clip_18_correct.m4a","null","","","","","<div class='center'><p>That's correct!</p></div>","","","","","","","","","","","","","","","","","",""
"","html-keyboard-response","89","507265","0.0-53.0-1.0","""event"",""trial"",""time""
""fullscreenenter"",""0"",""4908""
""fullscreenexit"",""8"",""97825""
","
","
","""event"",""trial"",""time""
""fullscreenenter"",""0"",""4908""
","""event"",""trial"",""time""
""fullscreenexit"",""8"",""97825""
","1047.8000000044703","<div class='center'><p>That's correct!</p><p><b>[Press the space bar to continue]</b></p></div>","32","","","","","","","","","","","","","","","","","","","","","","",""
"","audio-keyboard-response","90","514459","0.0-53.0-2.0","""event"",""trial"",""time""
""fullscreenenter"",""0"",""4908""
""fullscreenexit"",""8"",""97825""
","
","
","""event"",""trial"",""time""
""fullscreenenter"",""0"",""4908""
","""event"",""trial"",""time""
""fullscreenexit"",""8"",""97825""
","7187.10000000149","run_exp/static/audio/clip_20_q2.m4a","50","","","","","","","","","","","","","","","","","","","","","","",""
"","correct","91","517168","0.0-54.0-0.0","""event"",""trial"",""time""
""fullscreenenter"",""0"",""4908""
""fullscreenexit"",""8"",""97825""
","
","
","""event"",""trial"",""time""
""fullscreenenter"",""0"",""4908""
","""event"",""trial"",""time""
""fullscreenexit"",""8"",""97825""
","null","run_exp/static/audio/clip_18_correct.m4a","null","","","","","<div class='center'><p>That's correct!</p></div>","","","","","","","","","","","","","","","","","",""
"","html-keyboard-response","92","517937","0.0-54.0-1.0","""event"",""trial"",""time""
""fullscreenenter"",""0"",""4908""
""fullscreenexit"",""8"",""97825""
","
","
","""event"",""trial"",""time""
""fullscreenenter"",""0"",""4908""
","""event"",""trial"",""time""
""fullscreenexit"",""8"",""97825""
","763.7000000029802","<div class='center'><p>That's correct!</p><p><b>[Press the space bar to continue]</b></p></div>","32","","","","","","","","","","","","","","","","","","","","","","",""
"","audio-keyboard-response","93","520612","0.0-54.0-2.0","""event"",""trial"",""time""
""fullscreenenter"",""0"",""4908""
""fullscreenexit"",""8"",""97825""
","
","
","""event"",""trial"",""time""
""fullscreenenter"",""0"",""4908""
","""event"",""trial"",""time""
""fullscreenexit"",""8"",""97825""
","2672","run_exp/static/audio/clip_22_q3.m4a","50","","","","","","","","","","","","","","","","","","","","","","",""
"","correct","94","523301","0.0-55.0-0.0","""event"",""trial"",""time""
""fullscreenenter"",""0"",""4908""
""fullscreenexit"",""8"",""97825""
","
","
","""event"",""trial"",""time""
""fullscreenenter"",""0"",""4908""
","""event"",""trial"",""time""
""fullscreenexit"",""8"",""97825""
","null","run_exp/static/audio/clip_18_correct.m4a","null","","","","","<div class='center'><p>That's correct!</p></div>","","","","","","","","","","","","","","","","","",""
"","html-keyboard-response","95","523994","0.0-55.0-1.0","""event"",""trial"",""time""
""fullscreenenter"",""0"",""4908""
""fullscreenexit"",""8"",""97825""
","
","
","""event"",""trial"",""time""
""fullscreenenter"",""0"",""4908""
","""event"",""trial"",""time""
""fullscreenexit"",""8"",""97825""
","686.2999999970198","<div class='center'><p>That's correct!</p><p><b>[Press the space bar to continue]</b></p></div>","32","","","","","","","","","","","","","","","","","","","","","","",""
"","audio-keyboard-response","96","525903","0.0-55.0-2.0","""event"",""trial"",""time""
""fullscreenenter"",""0"",""4908""
""fullscreenexit"",""8"",""97825""
","
","
","""event"",""trial"",""time""
""fullscreenenter"",""0"",""4908""
","""event"",""trial"",""time""
""fullscreenexit"",""8"",""97825""
","1900.3000000044703","run_exp/static/audio/clip_24_q4.m4a","49","","","","","","","","","","","","","","","","","","","","","","",""
"","correct","97","528691","0.0-56.0-0.0","""event"",""trial"",""time""
""fullscreenenter"",""0"",""4908""
""fullscreenexit"",""8"",""97825""
","
","
","""event"",""trial"",""time""
""fullscreenenter"",""0"",""4908""
","""event"",""trial"",""time""
""fullscreenexit"",""8"",""97825""
","null","run_exp/static/audio/clip_18_correct.m4a","null","","","","","<div class='center'><p>That's correct!</p></div>","","","","","","","","","","","","","","","","","",""
"","html-keyboard-response","98","531563","0.0-56.0-1.0","""event"",""trial"",""time""
""fullscreenenter"",""0"",""4908""
""fullscreenexit"",""8"",""97825""
","
","
","""event"",""trial"",""time""
""fullscreenenter"",""0"",""4908""
","""event"",""trial"",""time""
""fullscreenexit"",""8"",""97825""
","2866.2999999970198","<div class='center'><p>That's correct!</p><p><b>[Press the space bar to continue]</b></p></div>","32","","","","","","","","","","","","","","","","","","","","","","",""
"","q_all_corr","99","540296","0.0-57.0-0.0","""event"",""trial"",""time""
""fullscreenenter"",""0"",""4908""
""fullscreenexit"",""8"",""97825""
","
","
","""event"",""trial"",""time""
""fullscreenenter"",""0"",""4908""
","""event"",""trial"",""time""
""fullscreenexit"",""8"",""97825""
","null","run_exp/static/audio/clip_27_quiz_all_correct.m4a","null","","","","","<div class='center'><p>Good job! You’re now ready to move on to the real game! Remember this game will be difficult but don't get discouraged and try your best!</p></div>","","","","","","","","","","","","","","","","","",""
"","html-keyboard-response","100","541863","0.0-57.0-1.0","""event"",""trial"",""time""
""fullscreenenter"",""0"",""4908""
""fullscreenexit"",""8"",""97825""
","
","
","""event"",""trial"",""time""
""fullscreenenter"",""0"",""4908""
","""event"",""trial"",""time""
""fullscreenexit"",""8"",""97825""
","1564.3999999985099","<div class='center'><p>Good job! You’re now ready to move on to the real game! Remember this game will be difficult but don't get discouraged and try your best!</p><p><b>[Press the space bar to continue]</b></p></div>","32","","","","","","","","","","","","","","","","","","","","","","",""
"","do_welcome","101","545876","0.0-58.0-0.0","""event"",""trial"",""time""
""fullscreenenter"",""0"",""4908""
""fullscreenexit"",""8"",""97825""
","
","
","""event"",""trial"",""time""
""fullscreenenter"",""0"",""4908""
","""event"",""trial"",""time""
""fullscreenexit"",""8"",""97825""
","null","","","","","","","","null","","","","","","","","","","","","","","","","",""
"","do_trial","102","552300","0.0-59.0-0.0","""event"",""trial"",""time""
""fullscreenenter"",""0"",""4908""
""fullscreenexit"",""8"",""97825""
","
","
","""event"",""trial"",""time""
""fullscreenenter"",""0"",""4908""
","""event"",""trial"",""time""
""fullscreenexit"",""8"",""97825""
","1811.5","","","","","","","","51","0,1,0","0","countryside","0","probe-190","0.6","0.3","0.1","0","","","","","","","",""
"","html-keyboard-response","103","553308","0.0-59.0-1.0","""event"",""trial"",""time""
""fullscreenenter"",""0"",""4908""
""fullscreenexit"",""8"",""97825""
","
","
","""event"",""trial"",""time""
""fullscreenenter"",""0"",""4908""
","""event"",""trial"",""time""
""fullscreenexit"",""8"",""97825""
","null","<p></p>","null","","","","","","","","","","","","","","","","","","","","","","",""
"","do_trial","104","558460","0.0-60.0-0.0","""event"",""trial"",""time""
""fullscreenenter"",""0"",""4908""
""fullscreenexit"",""8"",""97825""
","
","
","""event"",""trial"",""time""
""fullscreenenter"",""0"",""4908""
","""event"",""trial"",""time""
""fullscreenexit"",""8"",""97825""
","544.8999999985099","","","","","","","","50","1,0,0","0","countryside","1","probe-124","0.6668177328198232","0.15014490713329395","0.09196848748044122","0","","","","","","","",""
"","html-keyboard-response","105","559468","0.0-60.0-1.0","""event"",""trial"",""time""
""fullscreenenter"",""0"",""4908""
""fullscreenexit"",""8"",""97825""
","
","
","""event"",""trial"",""time""
""fullscreenenter"",""0"",""4908""
","""event"",""trial"",""time""
""fullscreenexit"",""8"",""97825""
","null","<p></p>","null","","","","","","","","","","","","","","","","","","","","","","",""
"","do_trial","106","564444","0.0-61.0-0.0","""event"",""trial"",""time""
""fullscreenenter"",""0"",""4908""
""fullscreenexit"",""8"",""97825""
","
","
","""event"",""trial"",""time""
""fullscreenenter"",""0"",""4908""
","""event"",""trial"",""time""
""fullscreenexit"",""8"",""97825""
","345.8999999985099","","","","","","","","49","1,0,0","0","countryside","2","probe-178","0.6017781322960011","0.07246008399372796","0.0909941891057372","1","","","","","","","",""
"","html-keyboard-response","107","565452","0.0-61.0-1.0","""event"",""trial"",""time""
""fullscreenenter"",""0"",""4908""
""fullscreenexit"",""8"",""97825""
","
","
","""event"",""trial"",""time""
""fullscreenenter"",""0"",""4908""
","""event"",""trial"",""time""
""fullscreenexit"",""8"",""97825""
","null","<p></p>","null","","","","","","","","","","","","","","","","","","","","","","",""
"","do_trial","108","570378","0.0-62.0-0.0","""event"",""trial"",""time""
""fullscreenenter"",""0"",""4908""
""fullscreenexit"",""8"",""97825""
","
","
","""event"",""trial"",""time""
""fullscreenenter"",""0"",""4908""
","""event"",""trial"",""time""
""fullscreenexit"",""8"",""97825""
","318.5","","","","","","","","49","0,1,0","0","countryside","3","probe-112","0.6997312690231943","0.22910540105860253","0.11738130477543597","0","","","","","","","",""
"","html-keyboard-response","109","571386","0.0-62.0-1.0","""event"",""trial"",""time""
""fullscreenenter"",""0"",""4908""
""fullscreenexit"",""8"",""97825""
","
","
","""event"",""trial"",""time""
""fullscreenenter"",""0"",""4908""
","""event"",""trial"",""time""
""fullscreenexit"",""8"",""97825""
","null","<p></p>","null","","","","","","","","","","","","","","","","","","","","","","",""
"","do_trial","110","576299","0.0-63.0-0.0","""event"",""trial"",""time""
""fullscreenenter"",""0"",""4908""
""fullscreenexit"",""8"",""97825""
","
","
","""event"",""trial"",""time""
""fullscreenenter"",""0"",""4908""
","""event"",""trial"",""time""
""fullscreenexit"",""8"",""97825""
","307.30000000447035","","","","","","","","49","1,0,0","0","countryside","4","probe-111","0.6358205499039052","0.26863360475130743","0.1099796614703968","1","","","","","","","",""
"","html-keyboard-response","111","577307","0.0-63.0-1.0","""event"",""trial"",""time""
""fullscreenenter"",""0"",""4908""
""fullscreenexit"",""8"",""97825""
","
","
","""event"",""trial"",""time""
""fullscreenenter"",""0"",""4908""
","""event"",""trial"",""time""
""fullscreenexit"",""8"",""97825""
","null","<p></p>","null","","","","","","","","","","","","","","","","","","","","","","",""
"","do_trial","112","582351","0.0-64.0-0.0","""event"",""trial"",""time""
""fullscreenenter"",""0"",""4908""
""fullscreenexit"",""8"",""97825""
","
","
","""event"",""trial"",""time""
""fullscreenenter"",""0"",""4908""
","""event"",""trial"",""time""
""fullscreenexit"",""8"",""97825""
","429.5","","","","","","","","49","0,0,0","0","countryside","5","probe-134","0.49225615876760925","0.27994781082080233","0.05967864539518038","0","","","","","","","",""
"","html-keyboard-response","113","583358","0.0-64.0-1.0","""event"",""trial"",""time""
""fullscreenenter"",""0"",""4908""
""fullscreenexit"",""8"",""97825""
","
","
","""event"",""trial"",""time""
""fullscreenenter"",""0"",""4908""
","""event"",""trial"",""time""
""fullscreenexit"",""8"",""97825""
","null","<p></p>","null","","","","","","","","","","","","","","","","","","","","","","",""
"","do_trial","114","588267","0.0-65.0-0.0","""event"",""trial"",""time""
""fullscreenenter"",""0"",""4908""
""fullscreenexit"",""8"",""97825""
","
","
","""event"",""trial"",""time""
""fullscreenenter"",""0"",""4908""
","""event"",""trial"",""time""
""fullscreenexit"",""8"",""97825""
","305.40000000596046","","","","","","","","49","1,0,0","0","countryside","6","probe-57","0.584118284117484","0.3301377258999877","0.13502920712670294","1","","","","","","","",""
"","html-keyboard-response","115","589272","0.0-65.0-1.0","""event"",""trial"",""time""
""fullscreenenter"",""0"",""4908""
""fullscreenexit"",""8"",""97825""
","
","
","""event"",""trial"",""time""
""fullscreenenter"",""0"",""4908""
","""event"",""trial"",""time""
""fullscreenexit"",""8"",""97825""
","null","<p></p>","null","","","","","","","","","","","","","","","","","","","","","","",""
"","do_trial","116","594788","0.0-66.0-0.0","""event"",""trial"",""time""
""fullscreenenter"",""0"",""4908""
""fullscreenexit"",""8"",""97825""
","
","
","""event"",""trial"",""time""
""fullscreenenter"",""0"",""4908""
","""event"",""trial"",""time""
""fullscreenexit"",""8"",""97825""
","912.2999999970198","","","","","","","","49","1,0,0","0","countryside","7","probe-169","0.6950145848640398","0.3195011017312031","0.13542199216019957","1","","","","","","","",""
"","html-keyboard-response","117","595796","0.0-66.0-1.0","""event"",""trial"",""time""
""fullscreenenter"",""0"",""4908""
""fullscreenexit"",""8"",""97825""
","
","
","""event"",""trial"",""time""
""fullscreenenter"",""0"",""4908""
","""event"",""trial"",""time""
""fullscreenexit"",""8"",""97825""
","null","<p></p>","null","","","","","","","","","","","","","","","","","","","","","","",""
"","do_trial","118","600886","0.0-67.0-0.0","""event"",""trial"",""time""
""fullscreenenter"",""0"",""4908""
""fullscreenexit"",""8"",""97825""
","
","
","""event"",""trial"",""time""
""fullscreenenter"",""0"",""4908""
","""event"",""trial"",""time""
""fullscreenexit"",""8"",""97825""
","477.79999999701977","","","","","","","","49","1,0,0","0","countryside","8","probe-78","0.7212018387428973","0.3534594966681639","0.10762862519595491","1","","","","","","","",""
"","html-keyboard-response","119","601893","0.0-67.0-1.0","""event"",""trial"",""time""
""fullscreenenter"",""0"",""4908""
""fullscreenexit"",""8"",""97825""
","
","
","""event"",""trial"",""time""
""fullscreenenter"",""0"",""4908""
","""event"",""trial"",""time""
""fullscreenexit"",""8"",""97825""
","null","<p></p>","null","","","","","","","","","","","","","","","","","","","","","","",""
"","do_trial","120","607173","0.0-68.0-0.0","""event"",""trial"",""time""
""fullscreenenter"",""0"",""4908""
""fullscreenexit"",""8"",""97825""
","
","
","""event"",""trial"",""time""
""fullscreenenter"",""0"",""4908""
","""event"",""trial"",""time""
""fullscreenexit"",""8"",""97825""
","672.3999999985099","","","","","","","","49","0,0,0","0","countryside","9","probe-220","0.6250534164617286","0.3546435961436453","0.13465232271877495","0","","","","","","","",""
"","html-keyboard-response","121","608181","0.0-68.0-1.0","""event"",""trial"",""time""
""fullscreenenter"",""0"",""4908""
""fullscreenexit"",""8"",""97825""
","
","
","""event"",""trial"",""time""
""fullscreenenter"",""0"",""4908""
","""event"",""trial"",""time""
""fullscreenexit"",""8"",""97825""
","null","<p></p>","null","","","","","","","","","","","","","","","","","","","","","","",""
"","do_trial","122","613503","0.0-69.0-0.0","""event"",""trial"",""time""
""fullscreenenter"",""0"",""4908""
""fullscreenexit"",""8"",""97825""
","
","
","""event"",""trial"",""time""
""fullscreenenter"",""0"",""4908""
","""event"",""trial"",""time""
""fullscreenexit"",""8"",""97825""
","719.5","","","","","","","","49","0,0,1","0","countryside","10","probe-230","0.6452622825493868","0.28977163995003546","0.08902670023020806","0","","","","","","","",""
"","html-keyboard-response","123","614511","0.0-69.0-1.0","""event"",""trial"",""time""
""fullscreenenter"",""0"",""4908""
""fullscreenexit"",""8"",""97825""
","
","
","""event"",""trial"",""time""
""fullscreenenter"",""0"",""4908""
","""event"",""trial"",""time""
""fullscreenexit"",""8"",""97825""
","null","<p></p>","null","","","","","","","","","","","","","","","","","","","","","","",""
"","do_trial","124","619514","0.0-70.0-0.0","""event"",""trial"",""time""
""fullscreenenter"",""0"",""4908""
""fullscreenexit"",""8"",""97825""
","
","
","""event"",""trial"",""time""
""fullscreenenter"",""0"",""4908""
","""event"",""trial"",""time""
""fullscreenexit"",""8"",""97825""
","399.6000000014901","","","","","","","","50","1,0,0","0","countryside","11","probe-45","0.6724010587491794","0.4107224016203367","0.0881448393468461","0","","","","","","","",""
"","html-keyboard-response","125","620522","0.0-70.0-1.0","""event"",""trial"",""time""
""fullscreenenter"",""0"",""4908""
""fullscreenexit"",""8"",""97825""
","
","
","""event"",""trial"",""time""
""fullscreenenter"",""0"",""4908""
","""event"",""trial"",""time""
""fullscreenexit"",""8"",""97825""
","null","<p></p>","null","","","","","","","","","","","","","","","","","","","","","","",""
"","do_trial","126","625500","0.0-71.0-0.0","""event"",""trial"",""time""
""fullscreenenter"",""0"",""4908""
""fullscreenexit"",""8"",""97825""
","
","
","""event"",""trial"",""time""
""fullscreenenter"",""0"",""4908""
","""event"",""trial"",""time""
""fullscreenexit"",""8"",""97825""
","376.30000000447035","","","","","","","","51","0,1,1","0","countryside","12","probe-198","0.5960617458425344","0.42321720645564115","0.0826235381238453","1","","","","","","","",""
"","html-keyboard-response","127","626506","0.0-71.0-1.0","""event"",""trial"",""time""
""fullscreenenter"",""0"",""4908""
""fullscreenexit"",""8"",""97825""
","
","
","""event"",""trial"",""time""
""fullscreenenter"",""0"",""4908""
","""event"",""trial"",""time""
""fullscreenexit"",""8"",""97825""
","null","<p></p>","null","","","","","","","","","","","","","","","","","","","","","","",""
"","do_trial","128","631475","0.0-72.0-0.0","""event"",""trial"",""time""
""fullscreenenter"",""0"",""4908""
""fullscreenexit"",""8"",""97825""
","
","
","""event"",""trial"",""time""
""fullscreenenter"",""0"",""4908""
","""event"",""trial"",""time""
""fullscreenexit"",""8"",""97825""
","365.8999999985099","","","","","","","","51","1,0,0","0","countryside","13","probe-46","0.6171332390253064","0.28077274858512113","0.10214523938126849","0","","","","","","","",""
"","html-keyboard-response","129","632482","0.0-72.0-1.0","""event"",""trial"",""time""
""fullscreenenter"",""0"",""4908""
""fullscreenexit"",""8"",""97825""
","
","
","""event"",""trial"",""time""
""fullscreenenter"",""0"",""4908""
","""event"",""trial"",""time""
""fullscreenexit"",""8"",""97825""
","null","<p></p>","null","","","","","","","","","","","","","","","","","","","","","","",""
"","do_trial","130","637968","0.0-73.0-0.0","""event"",""trial"",""time""
""fullscreenenter"",""0"",""4908""
""fullscreenexit"",""8"",""97825""
","
","
","""event"",""trial"",""time""
""fullscreenenter"",""0"",""4908""
","""event"",""trial"",""time""
""fullscreenexit"",""8"",""97825""
","880.2999999970198","","","","","","","","51","1,1,1","0","countryside","14","probe-165","0.5131793958885429","0.28917410810656075","0.20186063910096017","1","","","","","","","",""
"","html-keyboard-response","131","638977","0.0-73.0-1.0","""event"",""trial"",""time""
""fullscreenenter"",""0"",""4908""
""fullscreenexit"",""8"",""97825""
","
","
","""event"",""trial"",""time""
""fullscreenenter"",""0"",""4908""
","""event"",""trial"",""time""
""fullscreenexit"",""8"",""97825""
","null","<p></p>","null","","","","","","","","","","","","","","","","","","","","","","",""
"","do_trial","132","644040","0.0-74.0-0.0","""event"",""trial"",""time""
""fullscreenenter"",""0"",""4908""
""fullscreenexit"",""8"",""97825""
","
","
","""event"",""trial"",""time""
""fullscreenenter"",""0"",""4908""
","""event"",""trial"",""time""
""fullscreenexit"",""8"",""97825""
","458.20000000298023","","","","","","","","51","1,0,0","0","countryside","15","probe-13","0.6030523652136638","0.2909675658743916","0.15473641330522178","0","","","","","","","",""
"","html-keyboard-response","133","645047","0.0-74.0-1.0","""event"",""trial"",""time""
""fullscreenenter"",""0"",""4908""
""fullscreenexit"",""8"",""97825""
","
","
","""event"",""trial"",""time""
""fullscreenenter"",""0"",""4908""
","""event"",""trial"",""time""
""fullscreenexit"",""8"",""97825""
","null","<p></p>","null","","","","","","","","","","","","","","","","","","","","","","",""
"","do_trial","134","650012","0.0-75.0-0.0","""event"",""trial"",""time""
""fullscreenenter"",""0"",""4908""
""fullscreenexit"",""8"",""97825""
","
","
","""event"",""trial"",""time""
""fullscreenenter"",""0"",""4908""
","""event"",""trial"",""time""
""fullscreenexit"",""8"",""97825""
","359.20000000298023","","","","","","","","51","1,0,0","0","countryside","16","probe-125","0.6905498780225545","0.26071468956230626","0.2706125137604276","0","","","","","","","",""
"","html-keyboard-response","135","651018","0.0-75.0-1.0","""event"",""trial"",""time""
""fullscreenenter"",""0"",""4908""
""fullscreenexit"",""8"",""97825""
","
","
","""event"",""trial"",""time""
""fullscreenenter"",""0"",""4908""
","""event"",""trial"",""time""
""fullscreenexit"",""8"",""97825""
","null","<p></p>","null","","","","","","","","","","","","","","","","","","","","","","",""
"","do_trial","136","656095","0.0-76.0-0.0","""event"",""trial"",""time""
""fullscreenenter"",""0"",""4908""
""fullscreenexit"",""8"",""97825""
","
","
","""event"",""trial"",""time""
""fullscreenenter"",""0"",""4908""
","""event"",""trial"",""time""
""fullscreenexit"",""8"",""97825""
","470.3999999985099","","","","","","","","51","1,0,0","0","countryside","17","probe-133","0.5818101765349717","0.21168164346515292","0.1495760937144392","0","","","","","","","",""
"","html-keyboard-response","137","657099","0.0-76.0-1.0","""event"",""trial"",""time""
""fullscreenenter"",""0"",""4908""
""fullscreenexit"",""8"",""97825""
","
","
","""event"",""trial"",""time""
""fullscreenenter"",""0"",""4908""
","""event"",""trial"",""time""
""fullscreenexit"",""8"",""97825""
","null","<p></p>","null","","","","","","","","","","","","","","","","","","","","","","",""
"","do_trial","138","662190","0.0-77.0-0.0","""event"",""trial"",""time""
""fullscreenenter"",""0"",""4908""
""fullscreenexit"",""8"",""97825""
","
","
","""event"",""trial"",""time""
""fullscreenenter"",""0"",""4908""
","""event"",""trial"",""time""
""fullscreenexit"",""8"",""97825""
","478.8999999985099","","","","","","","","50","0,0,1","0","countryside","18","probe-119","0.636947093345149","0.32553404484362897","0.09619778403008501","0","","","","","","","",""
"","html-keyboard-response","139","663198","0.0-77.0-1.0","""event"",""trial"",""time""
""fullscreenenter"",""0"",""4908""
""fullscreenexit"",""8"",""97825""
","
","
","""event"",""trial"",""time""
""fullscreenenter"",""0"",""4908""
","""event"",""trial"",""time""
""fullscreenexit"",""8"",""97825""
","null","<p></p>","null","","","","","","","","","","","","","","","","","","","","","","",""
"","do_trial","140","669086","0.0-78.0-0.0","""event"",""trial"",""time""
""fullscreenenter"",""0"",""4908""
""fullscreenexit"",""8"",""97825""
","
","
","""event"",""trial"",""time""
""fullscreenenter"",""0"",""4908""
","""event"",""trial"",""time""
""fullscreenexit"",""8"",""97825""
","1274.5","","","","","","","","50","0,0,0","0","countryside","19","probe-213","0.6409538711435471","0.3699823460087864","0.12040270572905196","0","","","","","","","",""
"","html-keyboard-response","141","670094","0.0-78.0-1.0","""event"",""trial"",""time""
""fullscreenenter"",""0"",""4908""
""fullscreenexit"",""8"",""97825""
","
","
","""event"",""trial"",""time""
""fullscreenenter"",""0"",""4908""
","""event"",""trial"",""time""
""fullscreenexit"",""8"",""97825""
","null","<p></p>","null","","","","","","","","","","","","","","","","","","","","","","",""
"","do_trial","142","674843","0.0-79.0-0.0","""event"",""trial"",""time""
""fullscreenenter"",""0"",""4908""
""fullscreenexit"",""8"",""97825""
","
","
","""event"",""trial"",""time""
""fullscreenenter"",""0"",""4908""
","""event"",""trial"",""time""
""fullscreenexit"",""8"",""97825""
","133.79999999701977","","","","","","","","49","0,1,0","0","countryside","20","probe-166","0.6063482635686601","0.4567600077614939","0.18511174161690305","0","","","","","","","",""
"","html-keyboard-response","143","675852","0.0-79.0-1.0","""event"",""trial"",""time""
""fullscreenenter"",""0"",""4908""
""fullscreenexit"",""8"",""97825""
","
","
","""event"",""trial"",""time""
""fullscreenenter"",""0"",""4908""
","""event"",""trial"",""time""
""fullscreenexit"",""8"",""97825""
","null","<p></p>","null","","","","","","","","","","","","","","","","","","","","","","",""
"","do_trial","144","680981","0.0-80.0-0.0","""event"",""trial"",""time""
""fullscreenenter"",""0"",""4908""
""fullscreenexit"",""8"",""97825""
","
","
","""event"",""trial"",""time""
""fullscreenenter"",""0"",""4908""
","""event"",""trial"",""time""
""fullscreenexit"",""8"",""97825""
","521.3999999985099","","","","","","","","49","1,1,0","0","countryside","21","probe-56","0.597517471522628","0.4761886701831373","0.2127725591329291","1","","","","","","","",""
"","html-keyboard-response","145","681988","0.0-80.0-1.0","""event"",""trial"",""time""
""fullscreenenter"",""0"",""4908""
""fullscreenexit"",""8"",""97825""
","
","
","""event"",""trial"",""time""
""fullscreenenter"",""0"",""4908""
","""event"",""trial"",""time""
""fullscreenexit"",""8"",""97825""
","null","<p></p>","null","","","","","","","","","","","","","","","","","","","","","","",""
"","do_trial","146","687244","0.0-81.0-0.0","""event"",""trial"",""time""
""fullscreenenter"",""0"",""4908""
""fullscreenexit"",""8"",""97825""
","
","
","""event"",""trial"",""time""
""fullscreenenter"",""0"",""4908""
","""event"",""trial"",""time""
""fullscreenexit"",""8"",""97825""
","642.1000000014901","","","","","","","","49","0,0,0","0","countryside","22","probe-219","0.6571373374009285","0.3316359799894017","0.1403277288751703","0","","","","","","","",""
"","html-keyboard-response","147","688252","0.0-81.0-1.0","""event"",""trial"",""time""
""fullscreenenter"",""0"",""4908""
""fullscreenexit"",""8"",""97825""
","
","
","""event"",""trial"",""time""
""fullscreenenter"",""0"",""4908""
","""event"",""trial"",""time""
""fullscreenexit"",""8"",""97825""
","null","<p></p>","null","","","","","","","","","","","","","","","","","","","","","","",""
"","do_trial","148","693225","0.0-82.0-0.0","""event"",""trial"",""time""
""fullscreenenter"",""0"",""4908""
""fullscreenexit"",""8"",""97825""
","
","
","""event"",""trial"",""time""
""fullscreenenter"",""0"",""4908""
","""event"",""trial"",""time""
""fullscreenexit"",""8"",""97825""
","366.69999999552965","","","","","","","","49","1,0,0","0","countryside","23","probe-147","0.6719822802772323","0.4543336396556525","0.14892270131395102","1","","","","","","","",""
"","html-keyboard-response","149","694233","0.0-82.0-1.0","""event"",""trial"",""time""
""fullscreenenter"",""0"",""4908""
""fullscreenexit"",""8"",""97825""
","
","
","""event"",""trial"",""time""
""fullscreenenter"",""0"",""4908""
","""event"",""trial"",""time""
""fullscreenexit"",""8"",""97825""
","null","<p></p>","null","","","","","","","","","","","","","","","","","","","","","","",""
"","do_trial","150","699670","0.0-83.0-0.0","""event"",""trial"",""time""
""fullscreenenter"",""0"",""4908""
""fullscreenexit"",""8"",""97825""
","
","
","""event"",""trial"",""time""
""fullscreenenter"",""0"",""4908""
","""event"",""trial"",""time""
""fullscreenexit"",""8"",""97825""
","834.8999999985099","","","","","","","","49","0,1,0","0","countryside","24","probe-202","0.6247615433073154","0.4183929891434766","0.13465138793683987","0","","","","","","","",""
"","html-keyboard-response","151","700677","0.0-83.0-1.0","""event"",""trial"",""time""
""fullscreenenter"",""0"",""4908""
""fullscreenexit"",""8"",""97825""
","
","
","""event"",""trial"",""time""
""fullscreenenter"",""0"",""4908""
","""event"",""trial"",""time""
""fullscreenexit"",""8"",""97825""
","null","<p></p>","null","","","","","","","","","","","","","","","","","","","","","","",""
"","do_trial","152","705730","0.0-84.0-0.0","""event"",""trial"",""time""
""fullscreenenter"",""0"",""4908""
""fullscreenexit"",""8"",""97825""
","
","
","""event"",""trial"",""time""
""fullscreenenter"",""0"",""4908""
","""event"",""trial"",""time""
""fullscreenexit"",""8"",""97825""
","428.6000000014901","","","","","","","","49","1,0,0","0","countryside","25","probe-189","0.6280220062620936","0.42208186559153066","0.22857957523950886","1","","","","","","","",""
"","html-keyboard-response","153","706738","0.0-84.0-1.0","""event"",""trial"",""time""
""fullscreenenter"",""0"",""4908""
""fullscreenexit"",""8"",""97825""
","
","
","""event"",""trial"",""time""
""fullscreenenter"",""0"",""4908""
","""event"",""trial"",""time""
""fullscreenexit"",""8"",""97825""
","null","<p></p>","null","","","","","","","","","","","","","","","","","","","","","","",""
"","do_trial","154","712397","0.0-85.0-0.0","""event"",""trial"",""time""
""fullscreenenter"",""0"",""4908""
""fullscreenexit"",""8"",""97825""
","
","
","""event"",""trial"",""time""
""fullscreenenter"",""0"",""4908""
","""event"",""trial"",""time""
""fullscreenexit"",""8"",""97825""
","1053.8999999985099","","","","","","","","49","1,0,0","0","countryside","26","probe-141","0.46448446300879453","0.3310339582634583","0.1402447914706822","1","","","","","","","",""
"","html-keyboard-response","155","713406","0.0-85.0-1.0","""event"",""trial"",""time""
""fullscreenenter"",""0"",""4908""
""fullscreenexit"",""8"",""97825""
","
","
","""event"",""trial"",""time""
""fullscreenenter"",""0"",""4908""
","""event"",""trial"",""time""
""fullscreenexit"",""8"",""97825""
","null","<p></p>","null","","","","","","","","","","","","","","","","","","","","","","",""
"","do_trial","156","720367","0.0-86.0-0.0","""event"",""trial"",""time""
""fullscreenenter"",""0"",""4908""
""fullscreenexit"",""8"",""97825""
","
","
","""event"",""trial"",""time""
""fullscreenenter"",""0"",""4908""
","""event"",""trial"",""time""
""fullscreenexit"",""8"",""97825""
","2360.39999999851","","","","","","","","49","0,0,0","0","countryside","27","probe-86","0.5718929795036672","0.3570011647387568","0.12269048558429098","0","","","","","","","",""
"","html-keyboard-response","157","721373","0.0-86.0-1.0","""event"",""trial"",""time""
""fullscreenenter"",""0"",""4908""
""fullscreenexit"",""8"",""97825""
","
","
","""event"",""trial"",""time""
""fullscreenenter"",""0"",""4908""
","""event"",""trial"",""time""
""fullscreenexit"",""8"",""97825""
","null","<p></p>","null","","","","","","","","","","","","","","","","","","","","","","",""
"","do_trial","158","726489","0.0-87.0-0.0","""event"",""trial"",""time""
""fullscreenenter"",""0"",""4908""
""fullscreenexit"",""8"",""97825""
","
","
","""event"",""trial"",""time""
""fullscreenenter"",""0"",""4908""
","""event"",""trial"",""time""
""fullscreenexit"",""8"",""97825""
","510.80000000447035","","","","","","","","49","1,0,0","0","countryside","28","probe-39","0.5868663229580074","0.395493871412047","0.1368871220922482","1","","","","","","","",""
"","html-keyboard-response","159","727497","0.0-87.0-1.0","""event"",""trial"",""time""
""fullscreenenter"",""0"",""4908""
""fullscreenexit"",""8"",""97825""
","
","
","""event"",""trial"",""time""
""fullscreenenter"",""0"",""4908""
","""event"",""trial"",""time""
""fullscreenexit"",""8"",""97825""
","null","<p></p>","null","","","","","","","","","","","","","","","","","","","","","","",""
"","do_trial","160","732895","0.0-88.0-0.0","""event"",""trial"",""time""
""fullscreenenter"",""0"",""4908""
""fullscreenexit"",""8"",""97825""
","
","
","""event"",""trial"",""time""
""fullscreenenter"",""0"",""4908""
","""event"",""trial"",""time""
""fullscreenexit"",""8"",""97825""
","793.2999999970198","","","","","","","","49","1,1,0","0","countryside","29","probe-32","0.7095879227605731","0.5346760656730513","0.11823128927882154","1","","","","","","","",""
"","html-keyboard-response","161","733901","0.0-88.0-1.0","""event"",""trial"",""time""
""fullscreenenter"",""0"",""4908""
""fullscreenexit"",""8"",""97825""
","
","
","""event"",""trial"",""time""
""fullscreenenter"",""0"",""4908""
","""event"",""trial"",""time""
""fullscreenexit"",""8"",""97825""
","null","<p></p>","null","","","","","","","","","","","","","","","","","","","","","","",""
"","do_bye","162","735421","0.0-89.0-0.0","""event"",""trial"",""time""
""fullscreenenter"",""0"",""4908""
""fullscreenexit"",""8"",""97825""
","
","
","""event"",""trial"",""time""
""fullscreenenter"",""0"",""4908""
","""event"",""trial"",""time""
""fullscreenexit"",""8"",""97825""
","null","","","","","","","","null","","","","","","","","","","","","","","","","",""
"","break","163","740944","0.0-89.0-1.0","""event"",""trial"",""time""
""fullscreenenter"",""0"",""4908""
""fullscreenexit"",""8"",""97825""
","
","
","""event"",""trial"",""time""
""fullscreenenter"",""0"",""4908""
","""event"",""trial"",""time""
""fullscreenexit"",""8"",""97825""
","5516.70000000298","<div class='center'><p>Time to take a quick break! You have 2 minutes to rest, but you can move on sooner if you'd like.</p><p> Press the <b>space bar</b> to continue.</p></div>","32","","","","","","","","","","","","","","","","","","","","","","",""
"","do_travel","164","749956","0.0-90.0-0.0","""event"",""trial"",""time""
""fullscreenenter"",""0"",""4908""
""fullscreenexit"",""8"",""97825""
","
","
","""event"",""trial"",""time""
""fullscreenenter"",""0"",""4908""
","""event"",""trial"",""time""
""fullscreenexit"",""8"",""97825""
","null","","","","","","","","null","","","","","","","","","","","","","","","","",""
"","do_welcome","165","753972","0.0-90.0-1.0","""event"",""trial"",""time""
""fullscreenenter"",""0"",""4908""
""fullscreenexit"",""8"",""97825""
","
","
","""event"",""trial"",""time""
""fullscreenenter"",""0"",""4908""
","""event"",""trial"",""time""
""fullscreenexit"",""8"",""97825""
","null","","","","","","","","null","","","","","","","","","","","","","","","","",""
"","do_trial","166","760083","0.0-91.0-0.0","""event"",""trial"",""time""
""fullscreenenter"",""0"",""4908""
""fullscreenexit"",""8"",""97825""
","
","
","""event"",""trial"",""time""
""fullscreenenter"",""0"",""4908""
","""event"",""trial"",""time""
""fullscreenexit"",""8"",""97825""
","null","","","","","","","","null","1,0,1","1","mountain","30","probe-17","1","0.5040711260157162","0.17265559161991256","","","","","","","","",""
"","html-keyboard-response","167","761089","0.0-91.0-1.0","""event"",""trial"",""time""
""fullscreenenter"",""0"",""4908""
""fullscreenexit"",""8"",""97825""
","
","
","""event"",""trial"",""time""
""fullscreenenter"",""0"",""4908""
","""event"",""trial"",""time""
""fullscreenexit"",""8"",""97825""
","null","<p></p>","null","","","","","","","","","","","","","","","","","","","","","","",""
"","do_trial","168","766223","0.0-92.0-0.0","""event"",""trial"",""time""
""fullscreenenter"",""0"",""4908""
""fullscreenexit"",""8"",""97825""
","
","
","""event"",""trial"",""time""
""fullscreenenter"",""0"",""4908""
","""event"",""trial"",""time""
""fullscreenexit"",""8"",""97825""
","524.8999999985099","","","","","","","","51","1,0,0","1","mountain","31","probe-218","1","0.510541410735809","0.11945937027536781","0","","","","","","","",""
"","html-keyboard-response","169","767229","0.0-92.0-1.0","""event"",""trial"",""time""
""fullscreenenter"",""0"",""4908""
""fullscreenexit"",""8"",""97825""
","
","
","""event"",""trial"",""time""
""fullscreenenter"",""0"",""4908""
","""event"",""trial"",""time""
""fullscreenexit"",""8"",""97825""
","null","<p></p>","null","","","","","","","","","","","","","","","","","","","","","","",""
"","do_trial","170","772172","0.0-93.0-0.0","""event"",""trial"",""time""
""fullscreenenter"",""0"",""4908""
""fullscreenexit"",""8"",""97825""
","
","
","""event"",""trial"",""time""
""fullscreenenter"",""0"",""4908""
","""event"",""trial"",""time""
""fullscreenexit"",""8"",""97825""
","327","","","","","","","","50","1,0,0","1","mountain","32","probe-155","1","0.46504925827005367","0.1894496250041581","0","","","","","","","",""
"","html-keyboard-response","171","773178","0.0-93.0-1.0","""event"",""trial"",""time""
""fullscreenenter"",""0"",""4908""
""fullscreenexit"",""8"",""97825""
","
","
","""event"",""trial"",""time""
""fullscreenenter"",""0"",""4908""
","""event"",""trial"",""time""
""fullscreenexit"",""8"",""97825""
","null","<p></p>","null","","","","","","","","","","","","","","","","","","","","","","",""
"","do_trial","172","778153","0.0-94.0-0.0","""event"",""trial"",""time""
""fullscreenenter"",""0"",""4908""
""fullscreenexit"",""8"",""97825""
","
","
","""event"",""trial"",""time""
""fullscreenenter"",""0"",""4908""
","""event"",""trial"",""time""
""fullscreenexit"",""8"",""97825""
","366.80000000447035","","","","","","","","49","1,0,0","1","mountain","33","probe-50","0.8507898383358751","0.4817547664082443","0.1480268044025864","1","","","","","","","",""
"","html-keyboard-response","173","779159","0.0-94.0-1.0","""event"",""trial"",""time""
""fullscreenenter"",""0"",""4908""
""fullscreenexit"",""8"",""97825""
","
","
","""event"",""trial"",""time""
""fullscreenenter"",""0"",""4908""
","""event"",""trial"",""time""
""fullscreenexit"",""8"",""97825""
","null","<p></p>","null","","","","","","","","","","","","","","","","","","","","","","",""
"","do_trial","174","784024","0.0-95.0-0.0","""event"",""trial"",""time""
""fullscreenenter"",""0"",""4908""
""fullscreenexit"",""8"",""97825""
","
","
","""event"",""trial"",""time""
""fullscreenenter"",""0"",""4908""
","""event"",""trial"",""time""
""fullscreenexit"",""8"",""97825""
","259.5","","","","","","","","49","1,0,0","1","mountain","34","probe-108","0.8163176800493832","0.3264187811712857","0.14311038888461794","1","","","","","","","",""
"","html-keyboard-response","175","785031","0.0-95.0-1.0","""event"",""trial"",""time""
""fullscreenenter"",""0"",""4908""
""fullscreenexit"",""8"",""97825""
","
","
","""event"",""trial"",""time""
""fullscreenenter"",""0"",""4908""
","""event"",""trial"",""time""
""fullscreenexit"",""8"",""97825""
","null","<p></p>","null","","","","","","","","","","","","","","","","","","","","","","",""
"","do_trial","176","790002","0.0-96.0-0.0","""event"",""trial"",""time""
""fullscreenenter"",""0"",""4908""
""fullscreenexit"",""8"",""97825""
","
","
","""event"",""trial"",""time""
""fullscreenenter"",""0"",""4908""
","""event"",""trial"",""time""
""fullscreenexit"",""8"",""97825""
","362.20000000298023","","","","","","","","49","0,0,0","1","mountain","35","probe-23","0.7124737549183213","0.2162135717845807","0.1454457736592302","0","","","","","","","",""
"","html-keyboard-response","177","791011","0.0-96.0-1.0","""event"",""trial"",""time""
""fullscreenenter"",""0"",""4908""
""fullscreenexit"",""8"",""97825""
","
","
","""event"",""trial"",""time""
""fullscreenenter"",""0"",""4908""
","""event"",""trial"",""time""
""fullscreenexit"",""8"",""97825""
","null","<p></p>","null","","","","","","","","","","","","","","","","","","","","","","",""
"","do_trial","178","796007","0.0-97.0-0.0","""event"",""trial"",""time""
""fullscreenenter"",""0"",""4908""
""fullscreenexit"",""8"",""97825""
","
","
","""event"",""trial"",""time""
""fullscreenenter"",""0"",""4908""
","""event"",""trial"",""time""
""fullscreenexit"",""8"",""97825""
","388.40000000596046","","","","","","","","49","1,0,0","1","mountain","36","probe-170","0.7474393721570136","0.31721388838274533","0.24537386487900054","1","","","","","","","",""
"","html-keyboard-response","179","797015","0.0-97.0-1.0","""event"",""trial"",""time""
""fullscreenenter"",""0"",""4908""
""fullscreenexit"",""8"",""97825""
","
","
","""event"",""trial"",""time""
""fullscreenenter"",""0"",""4908""
","""event"",""trial"",""time""
""fullscreenexit"",""8"",""97825""
","null","<p></p>","null","","","","","","","","","","","","","","","","","","","","","","",""
"","do_trial","180","801903","0.0-98.0-0.0","""event"",""trial"",""time""
""fullscreenenter"",""0"",""4908""
""fullscreenexit"",""8"",""97825""
","
","
","""event"",""trial"",""time""
""fullscreenenter"",""0"",""4908""
","""event"",""trial"",""time""
""fullscreenexit"",""8"",""97825""
","284.3999999985099","","","","","","","","49","0,0,0","1","mountain","37","probe-172","0.7321828913238314","0.22982809392742717","0.3556802690517673","0","","","","","","","",""
"","html-keyboard-response","181","802909","0.0-98.0-1.0","""event"",""trial"",""time""
""fullscreenenter"",""0"",""4908""
""fullscreenexit"",""8"",""97825""
","
","
","""event"",""trial"",""time""
""fullscreenenter"",""0"",""4908""
","""event"",""trial"",""time""
""fullscreenexit"",""8"",""97825""
","null","<p></p>","null","","","","","","","","","","","","","","","","","","","","","","",""
"","do_trial","182","808130","0.0-99.0-0.0","""event"",""trial"",""time""
""fullscreenenter"",""0"",""4908""
""fullscreenexit"",""8"",""97825""
","
","
","""event"",""trial"",""time""
""fullscreenenter"",""0"",""4908""
","""event"",""trial"",""time""
""fullscreenexit"",""8"",""97825""
","618.7999999970198","","","","","","","","49","1,1,1","1","mountain","38","probe-36","0.7162001141566902","0.26684361385583427","0.20304864575434076","1","","","","","","","",""
"","html-keyboard-response","183","809135","0.0-99.0-1.0","""event"",""trial"",""time""
""fullscreenenter"",""0"",""4908""
""fullscreenexit"",""8"",""97825""
","
","
","""event"",""trial"",""time""
""fullscreenenter"",""0"",""4908""
","""event"",""trial"",""time""
""fullscreenexit"",""8"",""97825""
","null","<p></p>","null","","","","","","","","","","","","","","","","","","","","","","",""
"","do_trial","184","814161","0.0-100.0-0.0","""event"",""trial"",""time""
""fullscreenenter"",""0"",""4908""
""fullscreenexit"",""8"",""97825""
","
","
","""event"",""trial"",""time""
""fullscreenenter"",""0"",""4908""
","""event"",""trial"",""time""
""fullscreenexit"",""8"",""97825""
","426.1000000014901","","","","","","","","49","0,1,1","1","mountain","39","probe-77","0.7048007760006262","0.3355789900350015","0.19733819704210726","0","","","","","","","",""
"","html-keyboard-response","185","815169","0.0-100.0-1.0","""event"",""trial"",""time""
""fullscreenenter"",""0"",""4908""
""fullscreenexit"",""8"",""97825""
","
","
","""event"",""trial"",""time""
""fullscreenenter"",""0"",""4908""
","""event"",""trial"",""time""
""fullscreenexit"",""8"",""97825""
","null","<p></p>","null","","","","","","","","","","","","","","","","","","","","","","",""
"","do_trial","186","820079","0.0-101.0-0.0","""event"",""trial"",""time""
""fullscreenenter"",""0"",""4908""
""fullscreenexit"",""8"",""97825""
","
","
","""event"",""trial"",""time""
""fullscreenenter"",""0"",""4908""
","""event"",""trial"",""time""
""fullscreenexit"",""8"",""97825""
","292.1000000014901","","","","","","","","49","1,1,0","1","mountain","40","probe-11","0.6929977632830807","0.26597890320574846","0.16759655380392136","1","","","","","","","",""
"","html-keyboard-response","187","821086","0.0-101.0-1.0","""event"",""trial"",""time""
""fullscreenenter"",""0"",""4908""
""fullscreenexit"",""8"",""97825""
","
","
","""event"",""trial"",""time""
""fullscreenenter"",""0"",""4908""
","""event"",""trial"",""time""
""fullscreenexit"",""8"",""97825""
","null","<p></p>","null","","","","","","","","","","","","","","","","","","","","","","",""
"","do_trial","188","826247","0.0-102.0-0.0","""event"",""trial"",""time""
""fullscreenenter"",""0"",""4908""
""fullscreenexit"",""8"",""97825""
","
","
","""event"",""trial"",""time""
""fullscreenenter"",""0"",""4908""
","""event"",""trial"",""time""
""fullscreenexit"",""8"",""97825""
","557","","","","","","","","49","1,0,0","1","mountain","41","probe-26","0.6656674328598056","0.3705238073075194","0.07269553114997682","1","","","","","","","",""
"","html-keyboard-response","189","827255","0.0-102.0-1.0","""event"",""trial"",""time""
""fullscreenenter"",""0"",""4908""
""fullscreenexit"",""8"",""97825""
","
","
","""event"",""trial"",""time""
""fullscreenenter"",""0"",""4908""
","""event"",""trial"",""time""
""fullscreenexit"",""8"",""97825""
","null","<p></p>","null","","","","","","","","","","","","","","","","","","","","","","",""
"","do_trial","190","832695","0.0-103.0-0.0","""event"",""trial"",""time""
""fullscreenenter"",""0"",""4908""
""fullscreenexit"",""8"",""97825""
","
","
","""event"",""trial"",""time""
""fullscreenenter"",""0"",""4908""
","""event"",""trial"",""time""
""fullscreenexit"",""8"",""97825""
","833.6000000014901","","","","","","","","49","1,0,0","1","mountain","42","probe-37","0.3775796018594079","0.4227177184916571","0.25930050777607816","1","","","","","","","",""
"","html-keyboard-response","191","833704","0.0-103.0-1.0","""event"",""trial"",""time""
""fullscreenenter"",""0"",""4908""
""fullscreenexit"",""8"",""97825""
","
","
","""event"",""trial"",""time""
""fullscreenenter"",""0"",""4908""
","""event"",""trial"",""time""
""fullscreenexit"",""8"",""97825""
","null","<p></p>","null","","","","","","","","","","","","","","","","","","","","","","",""
"","do_trial","192","838686","0.0-104.0-0.0","""event"",""trial"",""time""
""fullscreenenter"",""0"",""4908""
""fullscreenexit"",""8"",""97825""
","
","
","""event"",""trial"",""time""
""fullscreenenter"",""0"",""4908""
","""event"",""trial"",""time""
""fullscreenexit"",""8"",""97825""
","376.8999999985099","","","","","","","","49","0,0,0","1","mountain","43","probe-187","0.28768466287116634","0.4004921834485063","0.26572992691855035","0","","","","","","","",""
"","html-keyboard-response","193","839695","0.0-104.0-1.0","""event"",""trial"",""time""
""fullscreenenter"",""0"",""4908""
""fullscreenexit"",""8"",""97825""
","
","
","""event"",""trial"",""time""
""fullscreenenter"",""0"",""4908""
","""event"",""trial"",""time""
""fullscreenexit"",""8"",""97825""
","null","<p></p>","null","","","","","","","","","","","","","","","","","","","","","","",""
"","do_trial","194","844657","0.0-105.0-0.0","""event"",""trial"",""time""
""fullscreenenter"",""0"",""4908""
""fullscreenexit"",""8"",""97825""
","
","
","""event"",""trial"",""time""
""fullscreenenter"",""0"",""4908""
","""event"",""trial"",""time""
""fullscreenexit"",""8"",""97825""
","345.1000000014901","","","","","","","","49","0,1,0","1","mountain","44","probe-42","0.15378925659424478","0.5413108885648056","0.14305199736824153","0","","","","","","","",""
"","html-keyboard-response","195","845664","0.0-105.0-1.0","""event"",""trial"",""time""
""fullscreenenter"",""0"",""4908""
""fullscreenexit"",""8"",""97825""
","
","
","""event"",""trial"",""time""
""fullscreenenter"",""0"",""4908""
","""event"",""trial"",""time""
""fullscreenexit"",""8"",""97825""
","null","<p></p>","null","","","","","","","","","","","","","","","","","","","","","","",""
"","do_trial","196","851041","0.0-106.0-0.0","""event"",""trial"",""time""
""fullscreenenter"",""0"",""4908""
""fullscreenexit"",""8"",""97825""
","
","
","""event"",""trial"",""time""
""fullscreenenter"",""0"",""4908""
","""event"",""trial"",""time""
""fullscreenexit"",""8"",""97825""
","758.3999999985099","","","","","","","","51","0,0,0","1","mountain","45","probe-08","0.22096084698301904","0.7126560686105703","0.11623846254271428","0","","","","","","","",""
"","html-keyboard-response","197","852048","0.0-106.0-1.0","""event"",""trial"",""time""
""fullscreenenter"",""0"",""4908""
""fullscreenexit"",""8"",""97825""
","
","
","""event"",""trial"",""time""
""fullscreenenter"",""0"",""4908""
","""event"",""trial"",""time""
""fullscreenexit"",""8"",""97825""
","null","<p></p>","null","","","","","","","","","","","","","","","","","","","","","","",""
"","do_trial","198","856860","0.0-107.0-0.0","""event"",""trial"",""time""
""fullscreenenter"",""0"",""4908""
""fullscreenexit"",""8"",""97825""
","
","
","""event"",""trial"",""time""
""fullscreenenter"",""0"",""4908""
","""event"",""trial"",""time""
""fullscreenexit"",""8"",""97825""
","194.80000000447035","","","","","","","","50","0,1,0","1","mountain","46","probe-53","0.07951860353782958","0.6545148406951975","0.12317874378648054","1","","","","","","","",""
"","html-keyboard-response","199","857869","0.0-107.0-1.0","""event"",""trial"",""time""
""fullscreenenter"",""0"",""4908""
""fullscreenexit"",""8"",""97825""
","
","
","""event"",""trial"",""time""
""fullscreenenter"",""0"",""4908""
","""event"",""trial"",""time""
""fullscreenexit"",""8"",""97825""
","null","<p></p>","null","","","","","","","","","","","","","","","","","","","","","","",""
"","do_trial","200","862808","0.0-108.0-0.0","""event"",""trial"",""time""
""fullscreenenter"",""0"",""4908""
""fullscreenexit"",""8"",""97825""
","
","
","""event"",""trial"",""time""
""fullscreenenter"",""0"",""4908""
","""event"",""trial"",""time""
""fullscreenexit"",""8"",""97825""
","328.29999999701977","","","","","","","","50","0,1,0","1","mountain","47","probe-216","0.07675333475506417","0.6692352167182248","0.23425802632032636","1","","","","","","","",""
"","html-keyboard-response","201","863813","0.0-108.0-1.0","""event"",""trial"",""time""
""fullscreenenter"",""0"",""4908""
""fullscreenexit"",""8"",""97825""
","
","
