"success","trial_type","trial_index","time_elapsed","internal_node_id","rt","stimulus","key_press","subject_id","response","choice_outcomes","context_n","context_img_id","trial_n","probe_img_id","pR_red","pR_white","pR_black","outcome","contextArray_ind","validImageProbes","invalidImageProbes","pRew_Red","pRew_White","pRew_Black","availableForMemProbe","choice_blocks"
"true","fullscreen","0","10382","0.0-0.0","","","","","","","","","","","","","","","","","","","","","",""
"","pavlovia","1","10389","0.0-1.0","","","","","","","","","","","","","","","","","","","","","",""
"","html-keyboard-response","2","27187","0.0-2.0","16795","<div class='center'><p>Welcome! This is the first day of the experiment which will last ~30 minutes. In this experiment, you are the head captain of a pirate ship traveling around the world to different places. You will complete several different tasks during this experiment. Here is an overview of these tasks:</p><br><p>Day 1</p><p>1. Tutorial and quiz</p><p>2. Pick a pirate game in 6 different places</p><br><p>Day 2</p><p>3. Pick a pirate game and memory game</p><p>4. Final questions and payment</p><br><p>If you complete the entire experiment, you will receive $15 and a possible bonus payment.</p><p><b>[Press the space bar to begin the tutorial]</b></p></div>","32","6111727165b3d5994d08292a","","","","","","","","","","","","","","","","","",""
"","html-keyboard-response","3","49574","0.0-3.0","22384","<div class='center'><p>You are the head captain of a pirate ship.</p><p> Your pirates rob other ships as they leave the marketplace port.</p> These ships have just sold all their goods at the marketplace, so they have lots and lots of gold on them.</p><p><img src='run_exp/static/images/ship_center.png' height='400'></p><p><b>[Press the space bar to continue]</b></p></div>","32","","","","","","","","","","","","","","","","","","",""
"","html-keyboard-response","4","66094","0.0-4.0","16519","<div class='center'><p>As the head captain, you do not have to rob any ships yourself.</p><p>You get to choose which pirate you want to rob the next ship. </p><p>If they are successful at robbing the ship, then you will get gold coins.</p><p> If they are not successful, then you will get no gold coins.</p><p> The more coins you collect, the more bonus money you will win. So, choose your pirate wisely.</p><p><img src='run_exp/static/images/goal.png' height='400'></p><p><b>[Press the space bar to continue]</b></p><div>","32","","","","","","","","","","","","","","","","","","",""
"","html-keyboard-response","5","76771","0.0-5.0","10676","<div class='center'><p>Even the most skilled pirate will not be able to rob EVERY ship.</p><p> Some ships will have very strong defenses against attacks.</p><p> For example, blue beard, here,  is very good at robbing ships.</p><p> You can press the <b>‘1’</b> button on the keyboard to choose him.</p><p> Try choosing him 10 times to see how often he is successful at robbing ships. </p><p><img src='run_exp/static/images/blue.png' height='500'></p></div>","49","","","","","","","","","","","","","","","","","","",""
"","html-keyboard-response","6","78276","0.0-6.0","null","<br><br><br><br><p><img src='run_exp/static/images/blue_win.png' height='500'></p>","null","","","","","","","","","","","","","","","","","","",""
"","html-keyboard-response","7","79529","0.0-7.0","1250.9999999999854","<br><br><br><br><p><img src='run_exp/static/images/blue.png' height='500'></p>","49","","","","","","","","","","","","","","","","","","",""
"","html-keyboard-response","8","81033","0.0-8.0","null","<br><br><br><br><p><img src='run_exp/static/images/blue_win.png' height='500'></p>","null","","","","","","","","","","","","","","","","","","",""
"","html-keyboard-response","9","81463","0.0-9.0","427.99999999998545","<br><br><br><br><p><img src='run_exp/static/images/blue.png' height='500'></p>","49","","","","","","","","","","","","","","","","","","",""
"","html-keyboard-response","10","82966","0.0-10.0","null","<br><br><br><br><p><img src='run_exp/static/images/blue_win.png' height='500'></p>","null","","","","","","","","","","","","","","","","","","",""
"","html-keyboard-response","11","83238","0.0-11.0","272","<br><br><br><br><p><img src='run_exp/static/images/blue.png' height='500'></p>","49","","","","","","","","","","","","","","","","","","",""
"","html-keyboard-response","12","84742","0.0-12.0","null","<br><br><br><br><p><img src='run_exp/static/images/blue_no_win.png' height='500'></p>","null","","","","","","","","","","","","","","","","","","",""
"","html-keyboard-response","13","84963","0.0-13.0","220","<br><br><br><br><p><img src='run_exp/static/images/blue.png' height='500'></p>","49","","","","","","","","","","","","","","","","","","",""
"","html-keyboard-response","14","86466","0.0-14.0","null","<br><br><br><br><p><img src='run_exp/static/images/blue_win.png' height='500'></p>","null","","","","","","","","","","","","","","","","","","",""
"","html-keyboard-response","15","86603","0.0-15.0","136","<br><br><br><br><p><img src='run_exp/static/images/blue.png' height='500'></p>","49","","","","","","","","","","","","","","","","","","",""
"","html-keyboard-response","16","88106","0.0-16.0","null","<br><br><br><br><p><img src='run_exp/static/images/blue_win.png' height='500'></p>","null","","","","","","","","","","","","","","","","","","",""
"","html-keyboard-response","17","88281","0.0-17.0","173.00000000001455","<br><br><br><br><p><img src='run_exp/static/images/blue.png' height='500'></p>","49","","","","","","","","","","","","","","","","","","",""
"","html-keyboard-response","18","89784","0.0-18.0","null","<br><br><br><br><p><img src='run_exp/static/images/blue_win.png' height='500'></p>","null","","","","","","","","","","","","","","","","","","",""
"","html-keyboard-response","19","90036","0.0-19.0","251","<br><br><br><br><p><img src='run_exp/static/images/blue.png' height='500'></p>","49","","","","","","","","","","","","","","","","","","",""
"","html-keyboard-response","20","91538","0.0-20.0","null","<br><br><br><br><p><img src='run_exp/static/images/blue_no_win.png' height='500'></p>","null","","","","","","","","","","","","","","","","","","",""
"","html-keyboard-response","21","91782","0.0-21.0","242.99999999998545","<br><br><br><br><p><img src='run_exp/static/images/blue.png' height='500'></p>","49","","","","","","","","","","","","","","","","","","",""
"","html-keyboard-response","22","93285","0.0-22.0","null","<br><br><br><br><p><img src='run_exp/static/images/blue_win.png' height='500'></p>","null","","","","","","","","","","","","","","","","","","",""
"","html-keyboard-response","23","93421","0.0-23.0","134.99999999998545","<br><br><br><br><p><img src='run_exp/static/images/blue.png' height='500'></p>","49","","","","","","","","","","","","","","","","","","",""
"","html-keyboard-response","24","94924","0.0-24.0","null","<br><br><br><br><p><img src='run_exp/static/images/blue_win.png' height='500'></p>","null","","","","","","","","","","","","","","","","","","",""
"","html-keyboard-response","25","96234","0.0-25.0","1308","<div class='center'><p> See, he was successful at robbing the ships most of the time but not every time. </p><p><b>[Press the space bar to continue]</b></p></div>","32","","","","","","","","","","","","","","","","","","",""
"","html-keyboard-response","26","102470","0.0-26.0","6233","<div class='center'><p>In the game, you will get to choose which of three pirates you want to rob the next ship. <p>Press the <b>‘1’</b> button on your keyboard to pick the pirate with the red beard.</p><p> Press <b>‘2’</b> to pick the pirate with the white beard.</p><p> Press <b>‘3’</b> to pick the pirate with the black beard.</p><p>Try picking a pirate now!</p><p><img src='run_exp/static/images/all_pirates.png' height='500'></p></div>","51","","","","","","","","","","","","","","","","","","",""
"","html-keyboard-response","27","103699","0.0-27.0-0.0","1226","<div class='center'><p>This pirate was successful at robbing the ship!</p><p><img src='run_exp/static/images/black_win.png' height='500'></p><p><b>[Press the space bar to continue]</b></p></div>","32","","","","","","","","","","","","","","","","","","",""
"","html-keyboard-response","28","105368","0.0-27.0-1.0","1666.9999999999854","<div class='center'><p>Now try choosing another</p><p><img src='run_exp/static/images/all_pirates.png' height='500'></p></div>","50","","","","","","","","","","","","","","","","","","",""
"","html-keyboard-response","29","106079","0.0-28.0-0.0","708.0000000000146","<div class='center'><p>This pirate was not successful at robbing the ship!</p><p><img src='run_exp/static/images/white_no_win.png' height='500'></p><p><b>[Press the space bar to continue]</b></p></div>","32","","","","","","","","","","","","","","","","","","",""
"","html-keyboard-response","30","115300","0.0-29.0-0.0","9219.000000000015","<div class='center'><p>You’ll stop at these 6 places on your journey.</p><p><img src='run_exp/static/images/all_contexts.png' height='500'></p><p><b>[Press the space bar to continue]</b></p></div>","32","","","","","","","","","","","","","","","","","","",""
"","html-keyboard-response","31","122069","0.0-29.0-1.0","6767","<div class='center'><p>How good a pirate is at robbing ships will depend on the current place.</p><p> Some pirates will have been to the place before, and will have more experience robbing ships there.</p><p>So, they will be more successful at stealing gold and bringing it back to you.</p><p><b>[Press the space bar to continue]</b></p></div>","32","","","","","","","","","","","","","","","","","","",""
"","html-keyboard-response","32","145486","0.0-29.0-2.0","23415","<div class='center'><p>How successful a pirate is at robbing ships can also change in a place.<p> Ships may hear about the pirates coming and will improve their defenses. This may make it more difficult to rob them.</p><p> Ships may also grow lazy and lower their defenses. This may make it easier to rob them.</p><br><p>Things are always changing on the high seas! So, try your best to pay attention!</p><p><img src='run_exp/static/images/contingency.png' height='500'></p><p><b>[Press the space bar to continue]</b></p></div>","32","","","","","","","","","","","","","","","","","","",""
"","html-keyboard-response","33","176203","0.0-29.0-3.0","30715","<div class='center'><p>Once you choose a pirate to rob a ship, you’ll be shown the ship they are robbing.</p><p>The ship will have a picture of the item they sold at the marketplace.</p><p> Try your best to remember the ship and where you saw the ship.</p><p> You’ll have to remember this for later, and remembering this correctly will help you win more bonus money!</p><p>You can remember the ship by remembering the item they sold at the marketplace</p><p>A helpful strategy is to try to come up with a story of the chosen pirate and ship’s item interacting with the scene.</p><p> For example, a ship might have sold travel mugs and you could imagine red beard walking through the city with a travel mug. </p><p>Or imagine an apple falling from a tree into white beard's hands in the forest.</p><p><img src='run_exp/static/images/example_probe.png' height='500'></p><p><b>[Press the space bar to continue]</b></p></div>","32","","","","","","","","","","","","","","","","","","",""
"","html-keyboard-response","34","179541","0.0-29.0-4.0","3336","<div class='center'><p>If you don’t make your choice fast enough, you’ll have to wait a few seconds before you can make another one. </p><p>You can’t win more gold. You just have to sit and wait.</p><p><img src='run_exp/static/images/hurry_up.png' height='500'></p><p><b>[Press the space bar to continue]</b></p></div>","32","","","","","","","","","","","","","","","","","","",""
"","html-keyboard-response","35","207859","0.0-29.0-5.0","28315.99999999997","<div class='center'><p>Again, you have two important things to do: </p><b><p> 1. Pick the pirate who you think will be most successful at robbing the next ship.</p></b><b><p> 2. Remember where a pirate robbed a ship.</p> </b><p>Both are important in determining how much bonus money you’ll win.</p><br><p>Let’s try a practice game. The game will start by showing you the pirates. First pick a pirate using the <b> 1, 2, 3 </b> buttons on your keyboard. When you are shown a ship, try to remember the place you’re in by making up a story.</p><p> You only have 3 seconds to pick a pirate, so please make a choice quickly! If you are too slow, you’ll have to wait a bit during the time out.</p><p> Don’t feel rushed, but please do try to make a choice every time.</p><p>How good a pirate is at robbing a ship will change depending on the place they are in and how good the defenses are of the ship.</p> <p>This is just a practice game, so you’re not playing for money. </p><p>You’ll receive a bag which may or may not contain gold coins.</p><p> In the real game, though, you’ll be able to see whether or not you received the gold coins.</p><p> Good luck, remember press <b>'1'</b> to choose red beard, <b>'2'</b> to choose white beard, and <b>'3'</b> to choose black beard</p><p><b>[Press the space bar to begin the practice game]</b></p></div>","32","","","","","","","","","","","","","","","","","","",""
"","do_trial_prac","36","214525","0.0-29.0-6.0","2153.999999999971","","","","50","","","","","","","","","","","","","","","","",""
"","do_trial_prac","37","221462","0.0-29.0-7.0","2429","","","","51","","","","","","","","","","","","","","","","",""
"","do_trial_prac","38","228059","0.0-29.0-8.0","2090","","","","49","","","","","","","","","","","","","","","","",""
"","do_trial_prac","39","234558","0.0-29.0-9.0","1993","","","","50","","","","","","","","","","","","","","","","",""
"","do_trial_prac","40","240072","0.0-29.0-10.0","1006","","","","51","","","","","","","","","","","","","","","","",""
"","html-keyboard-response","41","242597","0.0-29.0-11.0","2522.000000000029","<div class='center'><p>Great job on the practice game!</p><p> Now, you will be asked you some true or false questions to make sure you really understand the rules of the game.</p><p> Press <b>'1'</b> on the keyboard for true and press <b>'2'</b> for false.</p><p><b>[Press the space bar to begin the quiz]</b></p></div>","32","","","","","","","","","","","","","","","","","","",""
"","html-keyboard-response","42","250670","0.0-29.0-12.0","8071","<div class='center'><p>You win bonus money by making choices as fast as possible.</p><p>Press 1 for true and press  2 for false.</p></div>","50","","","","","","","","","","","","","","","","","","",""
"","html-keyboard-response","43","251896","0.0-30.0-0.0","1224","<br><br><br><br><p>That's correct!</p> <p><b>[press the space bar to continue with the quiz]</b></p>","32","","","","","","","","","","","","","","","","","","",""
"","html-keyboard-response","44","257583","0.0-30.0-1.0","5685","<div class='center'><p>You press the <b>‘3’</b> button on the keyboard to choose the red bearded pirate? </p><p>Press 1 for true and press  2 for false.</p></div>","50","","","","","","","","","","","","","","","","","","",""
"","html-keyboard-response","45","258381","0.0-31.0-0.0","796","<br><br><br><br><p>That's correct!</p> <p><b>[press the space bar to continue with the quiz]</b></p>","32","","","","","","","","","","","","","","","","","","",""
"","html-keyboard-response","46","262602","0.0-31.0-1.0","4219","<div class='center'><p>A pirate will always be equally successful at robbing ships in each place</p><p>Press 1 for true and press  2 for false.</p></div>","50","","","","","","","","","","","","","","","","","","",""
"","html-keyboard-response","47","263208","0.0-32.0-0.0","603","<br><br><br><br><p>That's correct!</p> <p><b>[press the space bar to continue with the quiz]</b></p>","32","","","","","","","","","","","","","","","","","","",""
"","html-keyboard-response","48","266667","0.0-32.0-1.0","3457","<div class='center'><p>You should remember the place where a pirate robbed a ship.</p><p>Press 1 for true and press  2 for false.</p></div>","49","","","","","","","","","","","","","","","","","","",""
"","html-keyboard-response","49","267253","0.0-33.0-0.0","575","<br><br><br><br><p>That's correct!</p> <p><b>[press the space bar to continue with the quiz]</b></p>","32","","","","","","","","","","","","","","","","","","",""
"","html-keyboard-response","50","268277","0.0-34.0-0.0","1021.0000000000582","<br><br><br><br><p>Good job! You’re now ready to move on to the real game!</p> <p><br>[press the space bar to begin!]</br></p>","32","","","","","","","","","","","","","","","","","","",""
"","do_welcome","51","269783","0.0-35.0-0.0","null","","","","null","","","","","","","","","","","","","","","","",""
"","do_trial","52","276229","0.0-36.0-0.0","1904","","","","50","1,1,0","0","mountain","0","probe-15","1","0.4","0.1","1","","","","","","","",""
"","do_trial","53","282747","0.0-37.0-0.0","1978","","","","50","1,1,0","0","mountain","1","probe-61","1","0.4623863363337914","0.15270836256822368","1","","","","","","","",""
"","do_trial","54","288239","0.0-38.0-0.0","951","","","","50","1,0,0","0","mountain","2","probe-55","1","0.4485992458146719","0.12519220878435364","0","","","","","","","",""
"","do_trial","55","294016","0.0-39.0-0.0","1237","","","","50","1,0,0","0","mountain","3","probe-05","1","0.45397868304440187","0.06576638342495442","0","","","","","","","",""
"","do_trial","56","299772","0.0-40.0-0.0","1217","","","","50","1,0,1","0","mountain","4","probe-219","0.8950290953267295","0.4164640027636052","0.1353790644467426","0","","","","","","","",""
"","do_trial","57","305220","0.0-41.0-0.0","908.9999999999418","","","","51","1,0,0","0","mountain","5","probe-167","0.929475745171605","0.4226113555625083","0.10785326266550577","0","","","","","","","",""
"","do_trial","58","310382","0.0-42.0-0.0","620","","","","49","1,0,0","0","mountain","6","probe-37","0.9323715624753502","0.4651221669929284","0.14734964205068593","1","","","","","","","",""
"","do_trial","59","316737","0.0-43.0-0.0","1811.9999999999418","","","","49","1,1,0","0","mountain","7","probe-48","0.8860803765249725","0.39782614266943633","0.0774111462717356","1","","","","","","","",""
"","do_trial","60","322609","0.0-44.0-0.0","1332","","","","49","1,0,0","0","mountain","8","probe-92","0.8603867209069915","0.2979735698308772","0.11568244325965778","1","","","","","","","",""
"","do_trial","61","328405","0.0-45.0-0.0","1257","","","","49","1,0,0","0","mountain","9","probe-20","0.8278868365566195","0.21274552946405173","0.10181836186418242","1","","","","","","","",""
"","do_trial","62","334552","0.0-46.0-0.0","1608","","","","49","1,0,1","0","mountain","10","probe-88","0.6860854669759341","0.28245968792627346","0.24938747958170943","1","","","","","","","",""
"","do_trial","63","339848","0.0-47.0-0.0","756","","","","49","0,1,0","0","mountain","11","probe-34","0.459924530587148","0.26331134259987876","0.47539710749962466","0","","","","","","","",""
"","do_trial","64","345070","0.0-48.0-0.0","679","","","","49","0,0,0","0","mountain","12","probe-51","0.26899159168478426","0.3417302713102599","0.776414699617863","0","","","","","","","",""
"","do_trial","65","350520","0.0-49.0-0.0","912.0000000000582","","","","49","0,0,1","0","mountain","13","probe-59","0.2842966196522815","0.4557907000555341","0.9155317440340192","0","","","","","","","",""
"","do_trial","66","355329","0.0-50.0-0.0","267.9999999999418","","","","50","1,0,1","0","mountain","14","probe-129","0.21781878806309535","0.45325896096024176","0.8889454376299293","0","","","","","","","",""
"","do_trial","67","360569","0.0-51.0-0.0","697","","","","49","0,1,1","0","mountain","15","probe-50","0.08412376729014395","0.45351016369771124","0.7665844469741764","0","","","","","","","",""
"","do_trial","68","365519","0.0-52.0-0.0","399","","","","49","1,1,1","0","mountain","16","probe-79","0.16360627832221028","0.5451276692011107","0.7288946617211365","1","","","","","","","",""
"","do_trial","69","370715","0.0-53.0-0.0","645","","","","49","1,0,0","0","mountain","17","probe-47","0.2372049893975057","0.4176417888140104","0.7231639872895516","1","","","","","","","",""
"","do_trial","70","375950","0.0-54.0-0.0","688","","","","49","0,0,1","0","mountain","18","probe-176","0.24698760694812602","0.3935326623648195","0.7885384254522417","0","","","","","","","",""
"","do_trial","71","381205","0.0-55.0-0.0","706","","","","49","1,0,1","0","mountain","19","probe-151","0.22849624081527561","0.4681895111409887","0.8464556064614746","1","","","","","","","",""
"","do_trial","72","387130","0.0-56.0-0.0","1347","","","","49","0,0,1","0","mountain","20","probe-69","0.28756656515170503","0.4596747659715195","0.8314741124424798","0","","","","","","","",""
"","do_trial","73","392412","0.0-57.0-0.0","722","","","","49","0,0,1","0","mountain","21","probe-178","0.17551567064939988","0.4359134846430554","0.8291842752576423","0","","","","","","","",""
"","do_trial","74","396976","0.0-58.0-0.0","0","","","","49","0,0,1","0","mountain","22","probe-174","0.2197129285519776","0.5476443865267622","0.9225568271849406","0","","","","","","","",""
"","do_trial","75","402111","0.0-59.0-0.0","551.9999999999418","","","","49","0,0,1","0","mountain","23","probe-101","0.06856093999689807","0.4444467961042907","0.9347949235898128","0","","","","","","","",""
"","do_trial","76","407105","0.0-60.0-0.0","414","","","","49","0,1,1","0","mountain","24","probe-184","0.20017365217475203","0.39484460777386254","0.870718656142973","0","","","","","","","",""
"","do_trial","77","411859","0.0-61.0-0.0","182","","","","49","0,1,1","0","mountain","25","probe-119","0.16401906534102306","0.35069269395491987","0.9436523381520355","0","","","","","","","",""
"","do_trial","78","417066","0.0-62.0-0.0","627","","","","50","0,0,0","0","mountain","26","probe-94","0.10054552493412318","0.26783048443136004","0.9445522561463497","0","","","","","","","",""
"","do_trial","79","422929","0.0-63.0-0.0","1288","","","","50","0,0,1","0","mountain","27","probe-223","0.05047237388452641","0.3339087737743756","0.9486425791010159","0","","","","","","","",""
"","do_trial","80","428608","0.0-64.0-0.0","1099","","","","50","0,0,1","0","mountain","28","probe-193","0.1693417996885276","0.34487812680447866","0.8152569872603068","0","","","","","","","",""
"","do_trial","81","434563","0.0-65.0-0.0","1387","","","","51","0,0,1","0","mountain","29","probe-109","0.1553551678764272","0.3300847321045201","0.6573554034603322","1","","","","","","","",""
"","do_trial","82","439722","0.0-66.0-0.0","598.9999999999418","","","","51","0,0,1","0","mountain","30","probe-100","0.1135209816843521","0.39127984580267294","0.9019190247589691","1","","","","","","","",""
"","do_trial","83","445120","0.0-67.0-0.0","839","","","","51","0,1,1","0","mountain","31","probe-169","0.09161585608776225","0.4196672129023568","0.8123818552315766","1","","","","","","","",""
"","do_trial","84","452117","0.0-68.0-0.0","2449.000000000058","","","","51","0,0,1","0","mountain","32","probe-13","0.1651776289000738","0.49883821287994223","0.9466261940337444","1","","","","","","","",""
"","do_trial","85","458328","0.0-69.0-0.0","1657","","","","51","1,1,1","0","mountain","33","probe-198","0.18346324163457378","0.5852302014739045","0.9212147067971158","1","","","","","","","",""
"","do_trial","86","463732","0.0-70.0-0.0","842.0000000000582","","","","51","0,0,1","0","mountain","34","probe-232","0.09824048185825224","0.48736853129226315","0.8925277062379232","1","","","","","","","",""
"","do_trial","87","469192","0.0-71.0-0.0","906","","","","51","0,0,1","0","mountain","35","probe-147","0.24613013561685512","0.563973896816856","0.7498197774924414","1","","","","","","","",""
"","do_trial","88","475241","0.0-72.0-0.0","null","","","","null","0,1,1","0","mountain","36","probe-32","0.2513237197459342","0.5148566640377393","0.7798251179568072","","","","","","","","",""
"","do_trial","89","481294","0.0-73.0-0.0","null","","","","null","1,0,1","0","mountain","37","probe-218","0.19850859237646148","0.4776192400082354","0.7688915442757942","","","","","","","","",""
"","do_trial","90","486382","0.0-74.0-0.0","538.9999999999418","","","","51","0,0,1","0","mountain","38","probe-142","0.22834035378582926","0.5549980258925648","0.8287995011617479","1","","","","","","","",""
"","do_trial","91","491364","0.0-75.0-0.0","431","","","","51","0,0,1","0","mountain","39","probe-65","0.0907363976216881","0.3838768464682288","0.8199105210023973","1","","","","","","","",""
"","do_bye","92","492869","0.0-76.0-0.0","null","","","","null","","","","","","","","","","","","","","","","",""
"","do_travel","93","498872","0.0-77.0-0.0","null","","","","null","","","","","","","","","","","","","","","","",""
"","do_welcome","94","500380","0.0-77.0-1.0","null","","","","null","","","","","","","","","","","","","","","","",""
"","do_trial","95","506429","0.0-78.0-0.0","1514","","","","50","0,0,1","1","coast","40","probe-89","0.11955793618081295","0.4031851463580048","1","0","","","","","","","",""
"","do_trial","96","511459","0.0-79.0-0.0","489.9999999998836","","","","49","0,0,1","1","coast","41","probe-126","0.08791636237005544","0.36328158360439433","1","0","","","","","","","",""
"","do_trial","97","516197","0.0-80.0-0.0","199.99999999988358","","","","49","0,0,1","1","coast","42","probe-45","0.0736814389653368","0.4549723260631375","1","0","","","","","","","",""
"","do_trial","98","520998","0.0-81.0-0.0","264","","","","49","0,0,1","1","coast","43","probe-10","0.058560356540691694","0.40908354004610786","1","0","","","","","","","",""
"","do_trial","99","525854","0.0-82.0-0.0","315","","","","51","0,1,1","1","coast","44","probe-28","0.1419269774583392","0.3044888078884587","0.9461083884140576","1","","","","","","","",""
"","do_trial","100","531067","0.0-83.0-0.0","673","","","","51","1,0,1","1","coast","45","probe-90","0.14235582862462848","0.2955211970112384","0.7181422224723133","1","","","","","","","",""
"","do_trial","101","537107","0.0-84.0-0.0","null","","","","null","0,0,1","1","coast","46","probe-216","0.051688883879280015","0.332941784782946","0.7540166820565682","","","","","","","","",""
"","do_trial","102","542184","0.0-85.0-0.0","524","","","","51","1,0,1","1","coast","47","probe-107","0.15173116783262205","0.512985864898182","0.6455309971517211","1","","","","","","","",""
"","do_trial","103","548757","0.0-86.0-0.0","2024","","","","51","0,0,1","1","coast","48","probe-84","0.17518595987279054","0.39978052788153745","0.5788639896098482","1","","","","","","","",""
"","do_trial","104","553743","0.0-87.0-0.0","447","","","","51","1,1,1","1","coast","49","probe-145","0.16283501061904626","0.4652509145091036","0.707414317582555","1","","","","","","","",""
"","do_trial","105","558926","0.0-88.0-0.0","645","","","","51","0,1,1","1","coast","50","probe-158","0.09996717688222219","0.5975452524957507","0.6726518800961359","1","","","","","","","",""
"","do_trial","106","563878","0.0-89.0-0.0","414","","","","51","0,1,1","1","coast","51","probe-60","0.09352985924521406","0.5915564270817951","0.6019520619245278","1","","","","","","","",""
"","do_trial","107","569117","0.0-90.0-0.0","700","","","","51","1,0,1","1","coast","52","probe-192","0.10794419782175219","0.7247629161756822","0.5002463162634314","1","","","","","","","",""
"","do_trial","108","574725","0.0-91.0-0.0","1066","","","","51","0,1,0","1","coast","53","probe-144","0.12998979088599946","0.7400819849476945","0.5180207136992148","0","","","","","","","",""
"","do_trial","109","580029","0.0-92.0-0.0","760","","","","51","0,1,0","1","coast","54","probe-11","0.11074851134648667","0.7549689251106817","0.45996755220303237","0","","","","","","","",""
"","do_trial","110","585212","0.0-93.0-0.0","647","","","","51","0,1,0","1","coast","55","probe-172","0.11659271307680381","0.6432153761330853","0.3776773139833006","0","","","","","","","",""
"","do_trial","111","590657","0.0-94.0-0.0","902","","","","51","0,1,0","1","coast","56","probe-221","0.146307734815123","0.777160269946458","0.3291735859103162","0","","","","","","","",""
"","do_trial","112","596218","0.0-95.0-0.0","1021","","","","49","1,1,0","1","coast","57","probe-77","0.11287440113607744","0.8547820905322747","0.33913138484135175","1","","","","","","","",""
"","do_trial","113","601258","0.0-96.0-0.0","499","","","","49","0,1,0","1","coast","58","probe-36","0.07024349356030342","0.746908322322978","0.2655017989612932","0","","","","","","","",""
"","do_trial","114","606631","0.0-97.0-0.0","837","","","","49","0,1,0","1","coast","59","probe-168","0.07797869123319445","0.7769388185263043","0.21699338484063005","0","","","","","","","",""
"","do_trial","115","612674","0.0-98.0-0.0","null","","","","null","0,1,0","1","coast","60","probe-228","0.15646777101973394","0.9372527736575057","0.2775985718718239","","","","","","","","",""
"","do_trial","116","617600","0.0-99.0-0.0","382","","","","49","0,1,1","1","coast","61","probe-171","0.11673227095114203","0.8485417721017663","0.26687437479990045","0","","","","","","","",""
"","do_trial","117","622608","0.0-100.0-0.0","467","","","","49","0,1,0","1","coast","62","probe-02","0.21064748424295532","0.8593530894376508","0.4102467740672172","0","","","","","","","",""
"","do_trial","118","627599","0.0-101.0-0.0","445","","","","50","0,1,0","1","coast","63","probe-42","0.26068644720526346","0.7678389824817115","0.3809760075444876","1","","","","","","","",""
"","do_trial","119","632510","0.0-102.0-0.0","373","","","","50","1,1,1","1","coast","64","probe-128","0.18585022286750452","0.7544921937679143","0.3454809561028306","1","","","","","","","",""
"","do_trial","120","637452","0.0-103.0-0.0","400","","","","50","0,1,0","1","coast","65","probe-07","0.13217418646677595","0.9117277497124445","0.3774022522906779","1","","","","","","","",""
"","do_trial","121","642531","0.0-104.0-0.0","540","","","","50","0,1,1","1","coast","66","probe-08","0.13562798700035272","0.9071656174903797","0.4384259270456979","1","","","","","","","",""
"","do_trial","122","647437","0.0-105.0-0.0","365.9999999998836","","","","50","0,1,0","1","coast","67","probe-85","0.11904015397540571","0.8789417188204546","0.3829830604891177","1","","","","","","","",""
"","do_trial","123","652412","0.0-106.0-0.0","429","","","","50","0,1,0","1","coast","68","probe-220","0.13297933801377224","0.7385057277848511","0.274105011045393","1","","","","","","","",""
"","do_trial","124","657354","0.0-107.0-0.0","397","","","","50","0,0,1","1","coast","69","probe-146","0.12201687430511188","0.6877070784196155","0.40377792523194334","0","","","","","","","",""
"","do_trial","125","662497","0.0-108.0-0.0","601","","","","51","0,1,1","1","coast","70","probe-33","0.25195070301811284","0.7019411270758533","0.45771071243917283","1","","","","","","","",""
"","do_trial","126","668586","0.0-109.0-0.0","1544","","","","51","0,0,0","1","coast","71","probe-210","0.14415924703168334","0.7472089572904699","0.5632599927338883","0","","","","","","","",""
"","do_trial","127","673606","0.0-110.0-0.0","476","","","","50","1,1,1","1","coast","72","probe-110","0.10058480200567367","0.7911006643304321","0.49307912390127395","1","","","","","","","",""
"","do_trial","128","678547","0.0-111.0-0.0","401","","","","50","0,1,1","1","coast","73","probe-139","0.1556327284176064","0.9254381228508908","0.6625099282310113","1","","","","","","","",""
"","do_trial","129","684095","0.0-112.0-0.0","1010","","","","50","0,1,0","1","coast","74","probe-148","0.08361327505149209","0.8898294432662118","0.643218380469615","1","","","","","","","",""
"","do_trial","130","689300","0.0-113.0-0.0","666","","","","50","0,1,1","1","coast","75","probe-26","0.1112246227758777","0.9086954998712988","0.4688459298578649","1","","","","","","","",""
"","do_trial","131","694708","0.0-114.0-0.0","871","","","","50","0,1,0","1","coast","76","probe-39","0.210774468444572","0.8511781010116417","0.3463396589130607","1","","","","","","","",""
"","do_trial","132","699778","0.0-115.0-0.0","527","","","","50","0,1,1","1","coast","77","probe-152","0.08812643764766455","0.7314165951890244","0.44686663096395024","1","","","","","","","",""
"","do_trial","133","704881","0.0-116.0-0.0","564","","","","50","1,1,0","1","coast","78","probe-57","0.07906955042147175","0.6159386129550481","0.46138223163948555","1","","","","","","","",""
"","do_trial","134","710028","0.0-117.0-0.0","607.9999999998836","","","","50","0,1,1","1","coast","79","probe-217","0.13098786729552223","0.5604301255586149","0.5714078703574034","1","","","","","","","",""
"","do_bye","135","711537","0.0-118.0-0.0","null","","","","null","","","","","","","","","","","","","","","","",""
"","do_travel","136","717541","0.0-119.0-0.0","null","","","","null","","","","","","","","","","","","","","","","",""
"","do_welcome","137","719048","0.0-119.0-1.0","null","","","","null","","","","","","","","","","","","","","","","",""
"","do_trial","138","724788","0.0-120.0-0.0","1203","","","","50","0,1,0","2","forest","80","probe-03","0.06103142173884548","1","0.4750412566698811","1","","","","","","","",""
"","do_trial","139","729794","0.0-121.0-0.0","468","","","","50","0,1,1","2","forest","81","probe-82","0.10931042750713406","1","0.5846760002774254","1","","","","","","","",""
"","do_trial","140","736246","0.0-122.0-0.0","1914","","","","50","0,1,0","2","forest","82","probe-236","0.09932688868695583","1","0.5997771298560014","1","","","","","","","",""
"","do_trial","141","741327","0.0-123.0-0.0","545","","","","50","0,1,1","2","forest","83","probe-120","0.12512520452119383","1","0.5033694864726723","1","","","","","","","",""
"","do_trial","142","746693","0.0-124.0-0.0","770.0000000001164","","","","50","0,1,1","2","forest","84","probe-162","0.142904076702059","0.8087794166413","0.27335015394406836","1","","","","","","","",""
"","do_trial","143","751653","0.0-125.0-0.0","421","","","","50","1,1,1","2","forest","85","probe-123","0.12166012392430378","0.9225068930930389","0.47170163002626636","1","","","","","","","",""
"","do_trial","144","756453","0.0-126.0-0.0","258.9999999998836","","","","50","0,1,1","2","forest","86","probe-197","0.1677865824866172","0.8277363705690168","0.426167111680122","1","","","","","","","",""
"","do_trial","145","761307","0.0-127.0-0.0","315.9999999998836","","","","50","0,1,1","2","forest","87","probe-81","0.09608285792070433","0.7882197692274929","0.4029759861429513","1","","","","","","","",""
"","do_trial","146","766173","0.0-128.0-0.0","327","","","","50","0,1,1","2","forest","88","probe-06","0.14948977142790706","0.7986035929013753","0.3737184345248693","1","","","","","","","",""
"","do_trial","147","771007","0.0-129.0-0.0","294","","","","50","0,1,0","2","forest","89","probe-122","0.1483887669475336","0.8635605317289935","0.32213794245334043","1","","","","","","","",""
"","do_trial","148","776071","0.0-130.0-0.0","526.9999999998836","","","","50","0,1,0","2","forest","90","probe-103","0.156653635358204","0.6065330867330657","0.5846617949355749","1","","","","","","","",""
"","do_trial","149","781112","0.0-131.0-0.0","501","","","","50","0,0,0","2","forest","91","probe-191","0.4147899453825913","0.44818585873742645","0.6633728121819796","0","","","","","","","",""
"","do_trial","150","786015","0.0-132.0-0.0","365","","","","50","1,1,0","2","forest","92","probe-98","0.5521469472946704","0.26174086865300206","0.6354522788930104","1","","","","","","","",""
"","do_trial","151","791236","0.0-133.0-0.0","684","","","","50","1,0,1","2","forest","93","probe-240","0.535644485705106","0.1073922080502523","0.6515133084997404","0","","","","","","","",""
"","do_trial","152","796697","0.0-134.0-0.0","921","","","","50","1,0,0","2","forest","94","probe-24","0.6119269273066562","0.06170731689480201","0.6965023272839963","0","","","","","","","",""
"","do_trial","153","802734","0.0-135.0-0.0","1498","","","","50","0,0,0","2","forest","95","probe-160","0.5482476433839207","0.1874031259029804","0.6528369412788666","0","","","","","","","",""
"","do_trial","154","807972","0.0-136.0-0.0","697.9999999998836","","","","50","0,1,1","2","forest","96","probe-114","0.5574422497018233","0.16995424988858227","0.6784298236822727","1","","","","","","","",""
"","do_trial","155","814010","0.0-137.0-0.0","null","","","","null","0,0,1","2","forest","97","probe-207","0.4778994852399762","0.12866092316057123","0.8152560998261597","","","","","","","","",""
"","do_trial","156","819659","0.0-138.0-0.0","1112","","","","50","0,1,1","2","forest","98","probe-225","0.33505561119651234","0.3370884844483899","0.6829472699377683","1","","","","","","","",""
"","do_trial","157","825266","0.0-139.0-0.0","1068","","","","50","1,0,1","2","forest","99","probe-149","0.3185542891786612","0.11952592284966075","0.7354830165692421","0","","","","","","","",""
"","do_trial","158","830384","0.0-140.0-0.0","580","","","","49","0,0,1","2","forest","100","probe-117","0.18451673214021796","0.11123849822317695","0.6451985516782414","0","","","","","","","",""
"","do_trial","159","835396","0.0-141.0-0.0","473","","","","49","1,0,1","2","forest","101","probe-156","0.21517489498227516","0.06223987022019225","0.7642325016531248","1","","","","","","","",""
"","do_trial","160","840370","0.0-142.0-0.0","432","","","","49","0,0,0","2","forest","102","probe-138","0.3652159839263205","0.1271259035770541","0.7318322248504134","0","","","","","","","",""
"","do_trial","161","846070","0.0-143.0-0.0","1163","","","","49","0,1,1","2","forest","103","probe-190","0.4194003549048308","0.2179892193535463","0.7711091245787566","0","","","","","","","",""
"","do_trial","162","851034","0.0-144.0-0.0","426","","","","51","0,0,0","2","forest","104","probe-63","0.39497542578334666","0.16790689600061134","0.7706462828146146","0","","","","","","","",""
"","do_trial","163","855593","0.0-145.0-0.0","19","","","","50","1,0,0","2","forest","105","probe-40","0.274007186929232","0.06206504607593707","0.7922252510614075","0","","","","","","","",""
"","do_trial","164","860467","0.0-146.0-0.0","335","","","","50","0,0,1","2","forest","106","probe-93","0.36218388667295726","0.0918733320890913","0.7587874654796459","0","","","","","","","",""
"","do_trial","165","865368","0.0-147.0-0.0","361","","","","50","0,0,1","2","forest","107","probe-202","0.3274909504685726","0.16711785491894726","0.7443690924321307","0","","","","","","","",""
"","do_trial","166","870175","0.0-148.0-0.0","269","","","","50","1,0,1","2","forest","108","probe-212","0.46502528455476905","0.27860754985314823","0.6645700973237213","0","","","","","","","",""
"","do_trial","167","874770","0.0-149.0-0.0","56.000000000116415","","","","49","0,0,0","2","forest","109","probe-87","0.483094533407247","0.28292262987214256","0.7085380049515446","0","","","","","","","",""
"","do_trial","168","879369","0.0-150.0-0.0","60.000000000116415","","","","49","1,0,1","2","forest","110","probe-86","0.42986553517291554","0.1264962252985216","0.7077386302229963","1","","","","","","","",""
"","do_trial","169","884253","0.0-151.0-0.0","344","","","","49","0,0,1","2","forest","111","probe-35","0.31841356782402824","0.05554103423477589","0.7518849066043788","0","","","","","","","",""
"","do_trial","170","889341","0.0-152.0-0.0","550.0000000001164","","","","49","1,0,1","2","forest","112","probe-187","0.3377340186110657","0.16365016183419465","0.8186035636028209","1","","","","","","","",""
"","do_trial","171","894819","0.0-153.0-0.0","937","","","","49","0,0,1","2","forest","113","probe-76","0.3094216425556331","0.24483471366027879","0.9249511839482152","0","","","","","","","",""
"","do_trial","172","899675","0.0-154.0-0.0","315","","","","49","1,0,1","2","forest","114","probe-127","0.26508256281612097","0.18329235546822556","0.7293564378236113","1","","","","","","","",""
"","do_trial","173","904717","0.0-155.0-0.0","498.9999999998836","","","","49","1,0,1","2","forest","115","probe-196","0.27880524827317443","0.19666608037722433","0.6952254905458134","1","","","","","","","",""
"","do_trial","174","909722","0.0-156.0-0.0","464.0000000001164","","","","49","1,0,1","2","forest","116","probe-12","0.24973028708227346","0.29038894604192067","0.6791495556812406","1","","","","","","","",""
"","do_trial","175","915042","0.0-157.0-0.0","778","","","","49","0,0,0","2","forest","117","probe-121","0.16808842274146088","0.1915462890253172","0.669389378759678","0","","","","","","","",""
"","do_trial","176","920228","0.0-158.0-0.0","646","","","","49","0,0,1","2","forest","118","probe-54","0.2215627242681823","0.12194380528512183","0.9346674627050732","0","","","","","","","",""
"","do_trial","177","925155","0.0-159.0-0.0","385","","","","49","0,0,1","2","forest","119","probe-229","0.28351334100810877","0.13077343153387483","0.8772310378274546","0","","","","","","","",""
"","do_bye","178","926662","0.0-160.0-0.0","null","","","","null","","","","","","","","","","","","","","","","",""
"","do_travel","179","932666","0.0-161.0-0.0","null","","","","null","","","","","","","","","","","","","","","","",""
"","do_welcome","180","934174","0.0-161.0-1.0","null","","","","null","","","","","","","","","","","","","","","","",""
"","do_trial","181","940216","0.0-162.0-0.0","null","","","","null","0,1,1","3","countryside","120","probe-67","0.3435483602259419","0.1485718608777767","1","","","","","","","","",""
"","do_trial","182","945423","0.0-163.0-0.0","665.9999999998836","","","","49","0,0,1","3","countryside","121","probe-183","0.3335558441575085","0.08612129395043529","1","0","","","","","","","",""
"","do_trial","183","950738","0.0-164.0-0.0","775","","","","49","0,0,1","3","countryside","122","probe-214","0.3870985828859048","0.0874730478250566","1","0","","","","","","","",""
"","do_trial","184","955659","0.0-165.0-0.0","378","","","","51","1,0,1","3","countryside","123","probe-104","0.3105026334874636","0.07665135031405097","1","1","","","","","","","",""
"","do_trial","185","960545","0.0-166.0-0.0","347.0000000001164","","","","51","1,1,1","3","countryside","124","probe-188","0.35139886951460086","0.10293211549015027","0.8607126831487805","1","","","","","","","",""
"","do_trial","186","965876","0.0-167.0-0.0","786","","","","51","1,0,1","3","countryside","125","probe-115","0.2631320760650542","0.13143172674786563","0.8069612224716535","1","","","","","","","",""
"","do_trial","187","970834","0.0-168.0-0.0","416","","","","51","1,0,1","3","countryside","126","probe-189","0.27531325186048355","0.12404489241715118","0.936339248365732","1","","","","","","","",""
"","do_trial","188","975778","0.0-169.0-0.0","395.0000000001164","","","","51","0,0,1","3","countryside","127","probe-72","0.1902402515596937","0.06575830663816237","0.9306867612356281","1","","","","","","","",""
"","do_trial","189","981263","0.0-170.0-0.0","947","","","","51","0,0,1","3","countryside","128","probe-233","0.38036814715679085","0.0560084775216903","0.7573680749582234","1","","","","","","","",""
"","do_trial","190","986628","0.0-171.0-0.0","824.9999999998836","","","","51","1,0,1","3","countryside","129","probe-106","0.44883408642045175","0.10859334860739649","0.8219224222444119","1","","","","","","","",""
"","do_trial","191","991850","0.0-172.0-0.0","685","","","","51","0,0,1","3","countryside","130","probe-175","0.5934869763769324","0.0728457673042495","0.5450841767181346","1","","","","","","","",""
"","do_trial","192","997055","0.0-173.0-0.0","665","","","","51","0,0,0","3","countryside","131","probe-163","0.6756564412178935","0.2455993078572803","0.3423250143157456","0","","","","","","","",""
"","do_trial","193","1001975","0.0-174.0-0.0","383","","","","51","1,0,0","3","countryside","132","probe-213","0.6703030126162905","0.3953386245454016","0.3413762936883818","0","","","","","","","",""
"","do_trial","194","1007196","0.0-175.0-0.0","684","","","","50","0,0,0","3","countryside","133","probe-25","0.7000700467454449","0.481919337282892","0.14096840442320305","0","","","","","","","",""
"","do_trial","195","1012070","0.0-176.0-0.0","333","","","","51","1,0,0","3","countryside","134","probe-231","0.6536034391269833","0.3582206947056464","0.08646427580756971","0","","","","","","","",""
"","do_trial","196","1016968","0.0-177.0-0.0","359","","","","49","1,1,0","3","countryside","135","probe-165","0.8515097496786165","0.5128217799030884","0.3056162651933709","1","","","","","","","",""
"","do_trial","197","1021779","0.0-178.0-0.0","274.0000000001164","","","","49","1,0,0","3","countryside","136","probe-224","0.8167550528919695","0.24068861557486693","0.2895901805384828","1","","","","","","","",""
"","do_trial","198","1027951","0.0-179.0-0.0","1633.0000000001164","","","","49","1,1,0","3","countryside","137","probe-239","0.7292982130401768","0.2614929860688318","0.08920835529305053","1","","","","","","","",""
"","do_trial","199","1033675","0.0-180.0-0.0","1185.9999999998836","","","","49","0,0,0","3","countryside","138","probe-164","0.7397503146569133","0.26462705019308685","0.09277142614740728","0","","","","","","","",""
"","do_trial","200","1039058","0.0-181.0-0.0","844","","","","49","1,0,0","3","countryside","139","probe-179","0.8231938231828637","0.3083349142975184","0.05860668841509981","1","","","","","","","",""
"","do_trial","201","1044666","0.0-182.0-0.0","1069","","","","49","1,1,0","3","countryside","140","probe-108","0.89391506821409","0.3213598303702878","0.08820986171466483","1","","","","","","","",""
"","do_trial","202","1049997","0.0-183.0-0.0","793","","","","49","1,0,0","3","countryside","141","probe-226","0.8100008702043554","0.34191597305190563","0.1839284747537118","1","","","","","","","",""
"","do_trial","203","1054886","0.0-184.0-0.0","350","","","","49","0,1,0","3","countryside","142","probe-155","0.7291621268193957","0.40311623196469376","0.1340793846024448","0","","","","","","","",""
"","do_trial","204","1060133","0.0-185.0-0.0","708","","","","51","1,0,1","3","countryside","143","probe-30","0.6026025463450683","0.40280207396493495","0.14488694236826502","1","","","","","","","",""
"","do_trial","205","1065194","0.0-186.0-0.0","524","","","","51","0,0,0","3","countryside","144","probe-141","0.5363549033182093","0.40010788264902053","0.07653442126890693","0","","","","","","","",""
"","do_trial","206","1070634","0.0-187.0-0.0","901","","","","51","1,0,0","3","countryside","145","probe-22","0.6360906847937358","0.42983983830360994","0.09583618130801674","0","","","","","","","",""
"","do_trial","207","1075965","0.0-188.0-0.0","793","","","","49","0,0,0","3","countryside","146","probe-91","0.63836721063925","0.43867119016190936","0.1886117040574564","0","","","","","","","",""
"","do_trial","208","1082057","0.0-189.0-0.0","1548","","","","49","1,0,0","3","countryside","147","probe-66","0.6872304628121222","0.4472991194301671","0.09479584885138596","1","","","","","","","",""
"","do_trial","209","1087878","0.0-190.0-0.0","1284","","","","49","1,0,0","3","countryside","148","probe-136","0.776793343475925","0.44858270392920185","0.06715902423352238","1","","","","","","","",""
"","do_trial","210","1092750","0.0-191.0-0.0","331","","","","49","1,1,0","3","countryside","149","probe-234","0.5955308300277357","0.5489713387214163","0.07644458180113077","1","","","","","","","",""
"","do_trial","211","1097792","0.0-192.0-0.0","502.99999999976717","","","","49","1,1,0","3","countryside","150","probe-04","0.6637108946363479","0.5688550577036189","0.1278367341691938","1","","","","","","","",""
"","do_trial","212","1102909","0.0-193.0-0.0","574","","","","49","0,0,0","3","countryside","151","probe-97","0.8090193720440094","0.3248593863198478","0.0975066085732299","0","","","","","","","",""
"","do_trial","213","1107811","0.0-194.0-0.0","362","","","","49","1,0,0","3","countryside","152","probe-125","0.7481972027875406","0.31057450767417377","0.19060972120047337","1","","","","","","","",""
"","do_trial","214","1113141","0.0-195.0-0.0","790","","","","49","0,0,0","3","countryside","153","probe-105","0.6858178009220747","0.36473690268018877","0.08626635768285384","0","","","","","","","",""
"","do_trial","215","1119179","0.0-196.0-0.0","null","","","","null","0,0,0","3","countryside","154","probe-161","0.6185755702565263","0.3476170943083134","0.11813731785114405","","","","","","","","",""
"","do_trial","216","1124218","0.0-197.0-0.0","501","","","","49","0,1,0","3","countryside","155","probe-58","0.754157653932557","0.3069500865655573","0.14416075215329974","0","","","","","","","",""
"","do_trial","217","1130395","0.0-198.0-0.0","1637","","","","49","1,0,0","3","countryside","156","probe-208","0.9495716835397455","0.357177798351352","0.14121628168519532","1","","","","","","","",""
"","do_trial","218","1135688","0.0-199.0-0.0","757","","","","49","1,1,0","3","countryside","157","probe-102","0.9198676563233437","0.4209631666036546","0.2524442500162052","1","","","","","","","",""
"","do_trial","219","1140559","0.0-200.0-0.0","332","","","","49","1,1,0","3","countryside","158","probe-43","0.9007869601930497","0.4890675878368008","0.12756240629325075","1","","","","","","","",""
"","do_trial","220","1146295","0.0-201.0-0.0","1195","","","","49","1,0,1","3","countryside","159","probe-222","0.7493522141402369","0.4260867082411308","0.11187438231234899","1","","","","","","","",""
"","do_bye","221","1147800","0.0-202.0-0.0","null","","","","null","","","","","","","","","","","","","","","","",""
"","do_travel","222","1153805","0.0-203.0-0.0","null","","","","null","","","","","","","","","","","","","","","","",""
"","do_welcome","223","1155313","0.0-203.0-1.0","null","","","","null","","","","","","","","","","","","","","","","",""
"","do_trial","224","1161353","0.0-204.0-0.0","null","","","","null","1,0,0","4","city","160","probe-74","1","0.5395942880292172","0.06347588535415505","","","","","","","","",""
"","do_trial","225","1167178","0.0-205.0-0.0","1288","","","","49","1,0,0","4","city","161","probe-124","1","0.7089899035020129","0.11654647278085305","1","","","","","","","",""
"","do_trial","226","1172476","0.0-206.0-0.0","760","","","","49","1,0,0","4","city","162","probe-132","1","0.7024829959165274","0.1471265675774645","1","","","","","","","",""
"","do_trial","227","1177411","0.0-207.0-0.0","395","","","","49","1,1,0","4","city","163","probe-78","1","0.6138939384625619","0.11916445927278284","1","","","","","","","",""
"","do_trial","228","1184814","0.0-208.0-0.0","2866","","","","50","1,0,0","4","city","164","probe-180","0.9050784064250771","0.5814888245150632","0.17005982240873022","0","","","","","","","",""
"","do_trial","229","1189774","0.0-209.0-0.0","422","","","","49","1,1,0","4","city","165","probe-83","0.9160452264125895","0.5353010374726396","0.13280003444379346","1","","","","","","","",""
"","do_trial","230","1195096","0.0-210.0-0.0","781","","","","49","1,1,0","4","city","166","probe-177","0.8355851379120695","0.44184989788555173","0.12176613654226345","1","","","","","","","",""
"","do_trial","231","1200244","0.0-211.0-0.0","611","","","","49","1,1,0","4","city","167","probe-19","0.8803834481601512","0.5109807926651064","0.11675871318608808","1","","","","","","","",""
"","do_trial","232","1206175","0.0-212.0-0.0","1391","","","","49","1,0,0","4","city","168","probe-204","0.7431829844007813","0.5221104551533257","0.19930939353011112","1","","","","","","","",""
"","do_trial","233","1211276","0.0-213.0-0.0","564","","","","49","1,0,0","4","city","169","probe-157","0.7027970161167888","0.5123241072522723","0.1611777827307803","1","","","","","","","",""
"","do_trial","234","1217054","0.0-214.0-0.0","1238","","","","49","0,1,0","4","city","170","probe-21","0.24478268729203265","0.6531700377302743","0.3296842663179922","0","","","","","","","",""
"","do_trial","235","1222425","0.0-215.0-0.0","829","","","","49","1,1,0","4","city","171","probe-118","0.2746267093899462","0.6694936941643863","0.3374265344897937","1","","","","","","","",""
"","do_trial","236","1227758","0.0-216.0-0.0","793.9999999997672","","","","49","1,1,0","4","city","172","probe-64","0.23810422270019194","0.7811419715741762","0.37784584704732893","1","","","","","","","",""
"","do_trial","237","1232976","0.0-217.0-0.0","681","","","","49","0,0,0","4","city","173","probe-215","0.19120135923524142","0.8183888970454416","0.3120691180802081","0","","","","","","","",""
"","do_trial","238","1239268","0.0-218.0-0.0","1753","","","","49","0,0,0","4","city","174","probe-17","0.059735017951246173","0.8449337893690574","0.3305895595438942","0","","","","","","","",""
"","do_trial","239","1245004","0.0-219.0-0.0","1200","","","","49","0,1,1","4","city","175","probe-201","0.08059226238482663","0.857393441529936","0.4055300681783038","0","","","","","","","",""
"","do_trial","240","1249750","0.0-220.0-0.0","205","","","","50","0,1,1","4","city","176","probe-135","0.08469744500018267","0.811650080762267","0.33635496676674254","1","","","","","","","",""
"","do_trial","241","1254746","0.0-221.0-0.0","458","","","","50","1,1,1","4","city","177","probe-96","0.27417222930645063","0.8516378112242228","0.37161371668034565","1","","","","","","","",""
"","do_trial","242","1259792","0.0-222.0-0.0","509.00000000023283","","","","50","0,1,0","4","city","178","probe-238","0.3470262846996918","0.8950889056146815","0.4663708135574561","1","","","","","","","",""
"","do_trial","243","1265532","0.0-223.0-0.0","1202","","","","50","0,1,0","4","city","179","probe-209","0.2980365907045712","0.9238282536597301","0.5432275584593635","1","","","","","","","",""
"","do_trial","244","1270508","0.0-224.0-0.0","439","","","","50","0,1,0","4","city","180","probe-137","0.2987496416865708","0.9450236429061265","0.5794020562784413","1","","","","","","","",""
"","do_trial","245","1277361","0.0-225.0-0.0","2315","","","","50","0,1,0","4","city","181","probe-71","0.1957524907057573","0.8473530201048266","0.5065116185254307","1","","","","","","","",""
"","do_trial","246","1282553","0.0-226.0-0.0","654.9999999997672","","","","50","0,1,0","4","city","182","probe-143","0.17154371289849493","0.8629650025927622","0.35468967668546947","1","","","","","","","",""
"","do_trial","247","1287503","0.0-227.0-0.0","411","","","","50","0,1,0","4","city","183","probe-31","0.1454705508013642","0.7845533029128196","0.3844296636038857","1","","","","","","","",""
"","do_trial","248","1292422","0.0-228.0-0.0","381","","","","50","0,1,1","4","city","184","probe-153","0.16372318543024264","0.8873229782350873","0.46890447388414663","1","","","","","","","",""
"","do_trial","249","1297744","0.0-229.0-0.0","785","","","","50","0,1,0","4","city","185","probe-182","0.07207740287372227","0.8792471446995602","0.36426463590783736","1","","","","","","","",""
"","do_trial","250","1302670","0.0-230.0-0.0","386.00000000023283","","","","50","0,1,0","4","city","186","probe-41","0.16715655127922882","0.633584803985955","0.2992848867131275","1","","","","","","","",""
"","do_trial","251","1308082","0.0-231.0-0.0","879","","","","50","0,1,0","4","city","187","probe-38","0.21962227315002614","0.6484522590075507","0.293544231298268","1","","","","","","","",""
"","do_trial","252","1313495","0.0-232.0-0.0","875","","","","50","0,1,1","4","city","188","probe-150","0.12819451078513502","0.782795037538471","0.3221417247692871","1","","","","","","","",""
"","do_trial","253","1318467","0.0-233.0-0.0","434.00000000023283","","","","50","0,1,0","4","city","189","probe-194","0.22579568252549187","0.7446119851198326","0.15074520251902865","1","","","","","","","",""
"","do_trial","254","1323389","0.0-234.0-0.0","384","","","","50","0,1,0","4","city","190","probe-95","0.0920296367628899","0.5686980415465736","0.1738860125102928","1","","","","","","","",""
"","do_trial","255","1328648","0.0-235.0-0.0","719","","","","50","0,1,0","4","city","191","probe-133","0.10710430853312738","0.6977123631581513","0.23085651901319182","1","","","","","","","",""
"","do_trial","256","1333618","0.0-236.0-0.0","434","","","","50","0,0,0","4","city","192","probe-46","0.060467920465520575","0.5953316231365898","0.36480805759415996","0","","","","","","","",""
"","do_trial","257","1339731","0.0-237.0-0.0","1562","","","","50","0,0,1","4","city","193","probe-200","0.13443943582952972","0.7153248629071954","0.4795868045521685","0","","","","","","","",""
"","do_trial","258","1344741","0.0-238.0-0.0","469","","","","50","0,1,0","4","city","194","probe-206","0.15422551209200933","0.629767840679001","0.49602117761005626","1","","","","","","","",""
"","do_trial","259","1349608","0.0-239.0-0.0","329","","","","50","0,0,1","4","city","195","probe-73","0.05352897320502294","0.620282296879515","0.5067080706408632","0","","","","","","","",""
"","do_trial","260","1355018","0.0-240.0-0.0","873","","","","50","0,1,1","4","city","196","probe-18","0.17226653813912052","0.7659194832496077","0.4664868026594143","1","","","","","","","",""
"","do_trial","261","1360266","0.0-241.0-0.0","711","","","","50","1,1,1","4","city","197","probe-75","0.17580107018701","0.7909816559412687","0.40387351960612833","1","","","","","","","",""
"","do_trial","262","1365338","0.0-242.0-0.0","531","","","","50","0,1,0","4","city","198","probe-53","0.23388653870319065","0.8173856853629563","0.33734873368169443","1","","","","","","","",""
"","do_trial","263","1370175","0.0-243.0-0.0","299","","","","50","0,1,1","4","city","199","probe-159","0.24019065162803593","0.9014798803461659","0.39631624141786637","1","","","","","","","",""
"","do_bye","264","1371683","0.0-244.0-0.0","null","","","","null","","","","","","","","","","","","","","","","",""
"","do_travel","265","1377687","0.0-245.0-0.0","null","","","","null","","","","","","","","","","","","","","","","",""
"","do_welcome","266","1379195","0.0-245.0-1.0","null","","","","null","","","","","","","","","","","","","","","","",""
"","do_trial","267","1385220","0.0-246.0-0.0","1488","","","","51","0,1,0","5","highway","200","probe-111","0.3175315457524211","1","0.3736967784393651","0","","","","","","","",""
"","do_trial","268","1390387","0.0-247.0-0.0","627.9999999997672","","","","49","0,1,0","5","highway","201","probe-80","0.2768649268411286","1","0.2962971278866429","0","","","","","","","",""
"","do_trial","269","1395305","0.0-248.0-0.0","380","","","","50","1,1,0","5","highway","202","probe-134","0.18649808308291735","1","0.36253100341380484","1","","","","","","","",""
"","do_trial","270","1400897","0.0-249.0-0.0","1053","","","","50","0,1,0","5","highway","203","probe-113","0.2813873839413884","1","0.3473914409601294","1","","","","","","","",""
"","do_trial","271","1407126","0.0-250.0-0.0","1692","","","","50","0,1,1","5","highway","204","probe-140","0.24480093409014803","0.9484075470556714","0.42966139072402376","1","","","","","","","",""
"","do_trial","272","1412087","0.0-251.0-0.0","421","","","","50","0,1,0","5","highway","205","probe-181","0.13904972108023003","0.9302647539218947","0.39117279199172833","1","","","","","","","",""
"","do_trial","273","1418259","0.0-252.0-0.0","1634.0000000002328","","","","50","0,1,0","5","highway","206","probe-56","0.1285088314873064","0.844062211859831","0.4063890347837162","1","","","","","","","",""
"","do_trial","274","1423280","0.0-253.0-0.0","484","","","","50","0,1,1","5","highway","207","probe-186","0.16292903709874254","0.84864467316779","0.5325030063730247","1","","","","","","","",""
"","do_trial","275","1429320","0.0-254.0-0.0","null","","","","null","0,1,1","5","highway","208","probe-09","0.11323821622872685","0.8522428591546427","0.5433984082491021","","","","","","","","",""
"","do_trial","276","1434301","0.0-255.0-0.0","445","","","","50","0,1,0","5","highway","209","probe-211","0.07534360396130801","0.8872020422075778","0.41338665161877497","1","","","","","","","",""
"","do_trial","277","1439271","0.0-256.0-0.0","430","","","","50","1,1,1","5","highway","210","probe-49","0.4211275783640732","0.7729157370643587","0.3643166157677507","1","","","","","","","",""
"","do_trial","278","1444390","0.0-257.0-0.0","579","","","","50","0,1,0","5","highway","211","probe-99","0.6927502011556175","0.7239289498097194","0.09492398192726022","1","","","","","","","",""
"","do_trial","279","1449363","0.0-258.0-0.0","433","","","","50","0,1,0","5","highway","212","probe-27","0.7501567027244513","0.7143765568481696","0.1397032296886842","1","","","","","","","",""
"","do_trial","280","1455255","0.0-259.0-0.0","1354","","","","50","1,1,0","5","highway","213","probe-173","0.7250446226282184","0.6648406249889981","0.16133644975462472","1","","","","","","","",""
"","do_trial","281","1460858","0.0-260.0-0.0","1064","","","","50","1,1,0","5","highway","214","probe-170","0.7488940896416247","0.45250620963367605","0.19651638771908622","1","","","","","","","",""
"","do_trial","282","1465988","0.0-261.0-0.0","593","","","","50","0,0,1","5","highway","215","probe-29","0.7650892899674945","0.36805277973171074","0.09994654610945838","0","","","","","","","",""
"","do_trial","283","1471049","0.0-262.0-0.0","521","","","","50","1,1,0","5","highway","216","probe-116","0.885767783944803","0.34374319601683684","0.16410067619819965","1","","","","","","","",""
"","do_trial","284","1476273","0.0-263.0-0.0","685.9999999997672","","","","50","0,0,0","5","highway","217","probe-195","0.6435975398167818","0.45118653549600285","0.10031774996903967","0","","","","","","","",""
"","do_trial","285","1481113","0.0-264.0-0.0","302","","","","50","1,1,0","5","highway","218","probe-112","0.6673167045507162","0.5565198834731184","0.18766533677666225","1","","","","","","","",""
"","do_trial","286","1487154","0.0-265.0-0.0","null","","","","null","1,0,0","5","highway","219","probe-130","0.6229884814615636","0.49606541574668384","0.08773826572910742","","","","","","","","",""
"","do_trial","287","1493587","0.0-266.0-0.0","1896.0000000002328","","","","50","0,0,1","5","highway","220","probe-01","0.6382233212035666","0.43109051184236935","0.1513694425556198","0","","","","","","","",""
"","do_trial","288","1498872","0.0-267.0-0.0","748","","","","50","1,0,0","5","highway","221","probe-44","0.6992953023604227","0.3972671979194356","0.05799277311810056","0","","","","","","","",""
"","do_trial","289","1504832","0.0-268.0-0.0","1422","","","","50","1,0,0","5","highway","222","probe-23","0.6123619854438964","0.3880079934464506","0.07509495409227986","0","","","","","","","",""
"","do_trial","290","1510067","0.0-269.0-0.0","696","","","","51","0,1,0","5","highway","223","probe-199","0.6898557458285745","0.42828071980260973","0.14728523833515386","0","","","","","","","",""
"","do_trial","291","1515675","0.0-270.0-0.0","1070.0000000002328","","","","50","0,1,0","5","highway","224","probe-62","0.7106550705370986","0.412198789157018","0.08025555640979752","1","","","","","","","",""
"","do_trial","292","1522857","0.0-271.0-0.0","2643.000000000233","","","","50","1,1,1","5","highway","225","probe-14","0.8918769847961673","0.33995472111943076","0.24357332512454846","1","","","","","","","",""
"","do_trial","293","1528173","0.0-272.0-0.0","776","","","","50","1,1,0","5","highway","226","probe-68","0.9393107395415475","0.5083368587652507","0.20897162110381198","1","","","","","","","",""
"","do_trial","294","1534382","0.0-273.0-0.0","1671","","","","50","1,0,0","5","highway","227","probe-205","0.8520743423817804","0.4513698065596694","0.09740681531520115","0","","","","","","","",""
"","do_trial","295","1540424","0.0-274.0-0.0","null","","","","null","1,1,0","5","highway","228","probe-230","0.9047371957258932","0.4012773376312273","0.15832301095855986","","","","","","","","",""
"","do_trial","296","1545602","0.0-275.0-0.0","635","","","","50","1,0,0","5","highway","229","probe-227","0.9199670645109994","0.5436837440838657","0.11492459842479992","0","","","","","","","",""
"","do_trial","297","1552479","0.0-276.0-0.0","2339","","","","50","1,1,0","5","highway","230","probe-203","0.8416681332823707","0.4416553377142023","0.18072365385629371","1","","","","","","","",""
"","do_trial","298","1557843","0.0-277.0-0.0","823","","","","50","1,0,0","5","highway","231","probe-154","0.7430185164967966","0.5971246915117263","0.1353266992981201","0","","","","","","","",""
"","do_trial","299","1563100","0.0-278.0-0.0","712","","","","50","1,0,0","5","highway","232","probe-237","0.7330566688510091","0.49393074992732644","0.13289665138728685","0","","","","","","","",""
"","do_trial","300","1569061","0.0-279.0-0.0","1422.0000000002328","","","","50","1,0,0","5","highway","233","probe-166","0.8634662635833132","0.2827625278500257","0.19801798209074467","0","","","","","","","",""
"","do_trial","301","1574329","0.0-280.0-0.0","729","","","","50","1,0,1","5","highway","234","probe-16","0.7688110143722371","0.3428703020889569","0.1784001241037116","0","","","","","","","",""
"","do_trial","302","1579760","0.0-281.0-0.0","890","","","","50","0,0,0","5","highway","235","probe-185","0.7951311251451929","0.34028054371625455","0.05878416371662686","0","","","","","","","",""
"","do_trial","303","1585042","0.0-282.0-0.0","742.0000000002328","","","","50","1,1,0","5","highway","236","probe-70","0.791102564727877","0.3418882269584962","0.103880000196085","1","","","","","","","",""
"","do_trial","304","1589731","0.0-283.0-0.0","148","","","","50","1,1,0","5","highway","237","probe-52","0.7477438651709684","0.3572791834445598","0.19211300160039224","1","","","","","","","",""
"","do_trial","305","1594709","0.0-284.0-0.0","439","","","","50","0,1,0","5","highway","238","probe-131","0.6849104860894433","0.451463410370344","0.16725557581913753","1","","","","","","","",""
"","do_trial","306","1600752","0.0-285.0-0.0","null","","","","null","0,0,0","5","highway","239","probe-235","0.6965512631600338","0.6082396909177631","0.1916957219999406","","","","","","","","",""
"","do_bye","307","1602259","0.0-286.0-0.0","null","","","","null","","","","","","","","","","","","","","","","",""
"","html-keyboard-response","308","1604112","0.0-286.0-1.0","1848.9999999997672","<div class='center'>You are all done with the first part of the experiment! Thank you for participating. Tomorrow, you will recieve an invite to participate in the next phase of the experiment which you must complete by the end of the day. <p><b>[Press the space bar to end the experiment]</b></p></div>","32","","","","","","","","","","","","2,0,3,1,5,4","14,60,54,4,218,166,36,47,91,19,87,33,50,58,128,49,78,46,175,150,68,177,173,100,183,118,93,222,192,108,99,168,12,197,231,146,31,217,141,64,88,125,44,9,27,89,215,106,83,144,157,59,191,143,10,171,220,76,35,167,227,170,1,41,127,6,7,84,219,145,32,209,109,138,147,25,38,151,56,216,2,81,235,119,161,122,196,80,5,121,102,190,97,239,23,159,113,206,224,148,116,155,137,189,62,39,92,201,211,86,85,34,186,75,126,195,11,120,53,228,66,182,213,103,187,114,188,71,232,105,174,162,212,24,230,164,223,238,163,178,107,225,154,29,140,21,90,65,135,233,3,96,124,104,160,57,207,101,42,221,73,123,131,77,179,82,176,18,203,156,20,117,63,214,16,200,134,95,237,208,136,70,142,30,152,181,40,37,149,193,94,132,45,199,205,72,17,74,52,158,110,79,133,112,139,180,55,185,8,210,48,98,26,172,169,28,115,194,111,129,0,43,22,198,61,13,67,204,229,226,202,153,236,165,15,184,69,51,130,234","11,10,8,1,2,16,7,4,18,6,9,14,3,13,5,15,0,12,17","1,0.9295013064580339,0.7780616751917697,0.7623858193645962,0.6394255944445972,0.5840379008300718,0.6501572270843688,0.6902077853614245,0.8630362078080717,0.8887274229966007,0.7835732269106118,0.6373358028195141,0.5042340753246757,0.41431503873810643,0.49722488374101,0.4598191941506823,0.41252286056597315,0.4670045299695634,0.38423665659195233,0.4603038278098608,0.5322763665597177,0.5593389885297707,0.4984045755296358,0.4341131587808056,0.38717713210792637,0.3646640984347279,0.45102597842547587,0.3383526404983805,0.4402666795761009,0.43039146411767626,0.32390777802594933,0.40057543900222087,0.3781945530717205,0.27180770661480824,0.37518348948635016,0.29117064419798655,0.2802953813147067,0.24070227104755818,0.30201768660602385,0.28615828130115156,0.3165436308362441,0.2986400329611805,0.496899630929239,0.7726778793179828,0.7646329339898347,0.6047582460926068,0.643282720683234,0.695787973977858,0.7485838381063397,0.8278455036648441,0.8488667659319861,0.8366981922607798,0.8773603477467535,0.9457107161323083,0.7625339957587829,0.7983580183368791,0.8769966585203683,0.9051107496016626,0.9451732324118518,0.8097036907243762,1,0.8145719726399793,0.8282766945096424,0.7398442908322866,0.8924533852720918,0.9070821358503814,0.8033787687392944,0.8100999435320916,0.8132819068373651,0.7650583124174728,0.41136134223225435,0.27402165232209275,0.17886859420614148,0.1455468280859251,0.1612928064809503,0.052880457893803766,0.15611463204072545,0.07340706854860156,0.18091040456450763,0.098696697386598,0.17489243446930178,0.21587209947161928,0.1967167817745597,0.21495337918563728,0.2100061209469756,0.2542168794718882,0.2180132557507119,0.20171589892855427,0.08356041910482663,0.1499918450825897,0.2595596219977203,0.1809190896417281,0.05917136401907269,0.1149506697573851,0.09985673662370043,0.11527928075798759,0.194248236336366,0.19352085146902262,0.1370741557690295,0.1460859739964874,0.38801559759115734,0.5210880676031578,0.5286004477901136,0.683740399185788,0.6606285880892249,0.7177945376606443,0.7390492725061735,0.7280081282289769,0.77042607581776,0.7178162263463048,0.7693502773134923,0.8937991174766018,0.7495545586062895,0.746669249045533,0.8339537781139584,0.9008975540825052,0.8132019994001705,0.8003026709828349,0.6691933414758675,0.6128890872256259,1,0.9238126752687177,0.7861695655801678,0.7473598122569096,0.7758639454497179,0.7708539421303425,0.7525497481099539,0.7471858358561064,0.7267909675007106,0.711139558675902,0.927387590394886,0.9023101003297151,0.8929842421945904,0.8955900161674084,0.8704099378613657,0.9000891937049008,0.9257187403366024,0.7052740149448665,0.7960259604904603,0.5603110285150784,0.5879999997715484,0.481296218514313,0.36902743412798794,0.3964084190129517,0.46701438839866805,0.4575620916745959,0.5344747040508842,0.4155415474755793,0.41823261204343715,0.3652264588430697,0.4000672140395315,0.47022041699607836,0.47730140942015853,0.5679829363177511,0.5339833144763406,0.4805611224639721,0.474645384952661,0.42162313614465163,0.4609114857986593,0.33650035330657546,0.37916622771562075,0.3843403146084614,0.6379519258730862,0.7601189551938957,0.7683138497324745,0.9374867359610964,0.7610575761495385,0.8468791316549285,0.7546873387600094,0.6728202111547574,0.78832519129241,0.9262192173776356,0.8562477773740125,0.8175024617744204,0.8667188849283833,0.7806514844621824,0.7552250020674744,0.6742508993271001,0.6856709569779547,0.6639768485395371","0.5070209768620161,0.5554026807695001,0.5210522457607661,0.5734940966728652,0.4543831239501935,0.3197185523324694,0.29678217897935605,0.23720656405061577,0.42328168317929143,0.39179685668623543,0.7214426447015376,0.6237799767493525,0.566546399317248,0.6742291441716297,0.8456930747088568,0.8290711340586158,0.7993854880042298,0.8380073108401506,0.8354018680003413,0.7874637032356989,0.8102183631067607,0.6015181750405383,0.6159442409505801,0.7642698180097939,0.6534430573810346,0.7173043194688793,0.8051102685220171,0.8747365607603681,0.7892770439996781,0.8224879386568711,1,0.8017060456397687,0.7563886147538752,0.6984312631373056,0.8849993784944105,0.9376918228198461,0.9296752287863197,0.9256305659310187,0.8741367402251138,0.8142713783059425,0.6908390624236248,0.6188169567132047,0.4649142290524783,0.3957263781068719,0.34222427369848385,0.3254455647644614,0.4573554938885354,0.5372159369624475,0.2818385279072061,0.3764467764987476,0.251993318357369,0.28268278272751535,0.2521971195594721,0.33258177923452337,0.3773298261559241,0.34728882841074993,0.5247141226106293,0.5716285192346969,0.5479931471088177,0.6532117542635618,0.7123114488016417,0.46706977106521463,0.4434238987896781,0.4885210615298389,0.512279165994884,0.4341383593073846,0.3356249138780838,0.2940456058785743,0.31402794150275337,0.38902843739270054,0.6138866541374219,0.5911358791140363,0.6282063095713144,0.7488102119635454,0.6877341977525108,0.7094737916697657,0.6534052968592512,0.785388765496171,0.71664200930054,0.6771325850873331,0.6446346867321667,0.5908709301945901,0.731964711566596,0.8659663122904857,0.7457763373623908,0.7017846652067887,0.8016040360543119,0.7760538680797895,0.797585640733577,0.811504719209229,1,0.8819623720654315,0.9174736189235998,0.8324681817879969,0.8330560583036658,0.7948253922735304,0.7238371370648399,0.9264876040478499,0.893044462795647,0.7873103481481243,0.6434815973813999,0.5138854652747253,0.47029251028732993,0.5018783766951127,0.6636081419580176,0.6043659939980895,0.5343392815229538,0.5921965823433398,0.516761457703182,0.5120924680170824,0.4527583556355119,0.49142028171419433,0.4159228766650474,0.4770236926296305,0.40418321179354744,0.5031671613334145,0.4119154765930647,0.323963710219077,0.385436950906063,0.4236128348691194,0.4695153802425295,0.41266602722542106,0.27894920731985756,0.39108002917090956,0.4282238762222241,0.3902532650399757,0.3985043160167944,0.37333289475192244,0.41124247606513037,0.3962649201797134,0.2867854715683011,0.3940528563259339,0.28980151247187497,0.16099732675157238,0.18831158694152098,0.24845102718959058,0.2419504972373003,0.2925885504048116,0.42713239829272454,0.3818767091924133,0.2312958548833442,0.3057423153133132,0.19830903490936447,0.060367919278315266,0.12379790223759063,0.058709077542948435,0.0517981613637902,0.08069732507664372,0.2170028634413658,0.16598217028175086,0.08569741553897865,0.11369953330891283,0.263596248051783,0.09765825608153299,0.10516911855994415,0.0672649574008483,0.17175637387946574,0.25372220737684026,0.19510069498792856,0.11924114471569013,0.08667951756225684,0.1596450128560207,0.12206792816138994,0.09142452775134778,0.05039668406627275,0.14776797946629747,0.09275215632387301,0.08598517367950426,0.05133455074923151,0.16474540704445378,0.14285378310503566,0.2357505135781954,0.24843790410144093,0.22859025081828854,0.10129908573508005,0.2500953807648362,0.06864558316942494,0.151154472547985,0.1853725718891775,0.30199165943365286","0.2913134421313805,0.27573524684424294,0.07109816490237866,0.2910606923841162,0.13756025609971465,0.07920180807476108,0.1482385908424551,0.09831167449627316,0.2813560063067801,0.07411147276439772,0.05420500965094147,0.13355675866594352,0.17988010852301023,0.24374055032314598,0.18106188260666806,0.1390988381129168,0.11230302689266357,0.11718588007296114,0.05843678060346906,0.20695053226887944,0.16417453452504013,0.11504011631479784,0.07700975360645178,0.1580657233888736,0.1727838349553455,0.18749912669897648,0.1239446249912519,0.05742155987465468,0.1054570590811593,0.15341414064538977,0.13343288438564566,0.06308276970878382,0.07353359184396142,0.09267917371511626,0.14544109309232672,0.07783848339933473,0.17572936218713217,0.2474843862772955,0.13371475753877313,0.14041711488245137,0.055431356162268255,0.07974924969084393,0.12687200485012484,0.22524003851712457,0.23100515266454877,0.21395673220638764,0.26456727883968023,0.33352161687081944,0.263743102179514,0.15810888905514858,0.27521761994237065,0.22815105763227017,0.11441168016714376,0.1748462560279773,0.1491154760306044,0.08482021879681821,0.11762692510591986,0.08580342164957236,0.07810920161616096,0.10489343526746302,0.09410227804879688,0.18901857718918036,0.1557457021388947,0.17334016280161316,0.22445507080356003,0.3293980409970416,0.1820673270907275,0.2366357759232564,0.21824527808776265,0.16611788803304922,0.33080144193793876,0.255532467639877,0.3238137285280888,0.3511674547210245,0.3501731495046606,0.4515530525721383,0.4478283618223734,0.46769193955046456,0.4662955286109455,0.4159414158926358,0.5230547971627432,0.44014053620638577,0.5118201260812668,0.5203382739538037,0.31385228416871547,0.2968063560722862,0.13898125776914028,0.10560916184544646,0.13078328151509908,0.2650933855564657,0.35979834546292966,0.33595294464971653,0.3457591322319864,0.3628361624594173,0.30585058138288845,0.2666231174313478,0.2593795443100004,0.2789285166988837,0.34081848684829125,0.2932849119290762,0.2819459445344771,0.15935807295897195,0.08357972396343652,0.110833471480185,0.09936830916598047,0.19522215399202666,0.10368078046214958,0.14376494325597805,0.06154997525553993,0.16418756407869517,0.09975518008064144,0.14535358020619915,0.11345707002161554,0.2083961812477403,0.15847237735851916,0.30079767208384656,0.3215953693587118,0.21817950135117006,0.1659016878341703,0.24496272005756062,0.08223057501128021,0.1423427461831648,0.14331460094665682,0.05391815225288632,0.09010294730229117,0.1099628561734257,0.22836550526217586,0.12563906994443452,0.27237680334865116,0.10564796636471592,0.060910271640836955,0.05145917775219998,0.13464640549373338,0.057188180324445115,0.18048835351465545,0.16667485684033526,0.06581324833924289,0.06219748044912866,0.07801089757792622,0.24863430505867037,0.4005564401276698,0.5116873561657355,0.6183273036018101,0.6964123355976398,0.8790243102847837,0.8264305839803457,0.9445184770287542,0.853361497525887,0.6773998000358605,0.6445986707016061,1,0.8681409723484248,0.9285956401266598,0.8232565597757762,0.7703894655323548,0.869740448875327,0.919493570203523,0.8758254072987788,0.7773945572328858,0.8075721521561622,0.8292022011090557,0.8013694792380777,0.532095037538374,0.4335782906937622,0.43501353560312084,0.4334118580447268,0.38766339573665015,0.3602520221947955,0.42834864598532674,0.3736150241921174,0.38008800579137053,0.33774776187200245,0.4072987173141596,0.2259765436878396,0.31177123088582004,0.5683645731982995,0.5305439356445384,0.5116299512896246,0.3337724913260736,0.21101244787330176","203,44,167,87,81,209,164,126,42,128,165,125,122,204,49,89,124,202,47,127,45,86,123,121,205,163,88,85,162,82,206,41,40,169,200,48,166,161,84,201,80,168,43,83,129,207","4,7,2,4,5,1,1,1,1,1,1,3,1,4,1,1,1,1,4,1,1,2,1,1,1,1,1,1,3,1,3,1,3,4,1,1,5,5,2,1,1,1,1,7,1,3,1,1,1,1,1,5,1,1,1,3,1,2,2,1"
