"success","trial_type","trial_index","time_elapsed","internal_node_id","rt","stimulus","key_press","subject_id","response","choice_outcomes","context_n","context_img_id","trial_n","probe_img_id","pR_red","pR_white","pR_black","outcome","contextArray_ind","validImageProbes","invalidImageProbes","pRew_Red","pRew_White","pRew_Black","availableForMemProbe","choice_blocks"
"true","fullscreen","0","9024","0.0-0.0","","","","","","","","","","","","","","","","","","","","","",""
"","pavlovia","1","9027","0.0-1.0","","","","","","","","","","","","","","","","","","","","","",""
"","html-keyboard-response","2","508317","0.0-2.0","499283","<div class='center'><p>Welcome! This is the first day of the experiment which will last ~30 minutes. In this experiment, you are the head captain of a pirate ship traveling around the world to different places. You will complete several different tasks during this experiment. Here is an overview of these tasks:</p><br><p>Day 1</p><p>1. Tutorial and quiz</p><p>2. Pick a pirate game in 6 different places</p><br><p>Day 2</p><p>3. Pick a pirate game and memory game</p><p>4. Final questions and payment</p><br><p>If you complete the entire experiment, you will receive $15 and a possible bonus payment.</p><p><b>[Press the space bar to begin the tutorial]</b></p></div>","32","59306fc35f170a00014358da","","","","","","","","","","","","","","","","","",""
"","html-keyboard-response","3","515529","0.0-3.0","7211.5","<div class='center'><p>You’ll stop at these 6 islands on your journey. You'll be able to see them in the distance from your ship.</p><p><img src='run_exp/static/images/contexts/all_contexts.png' height='500'></p><p><b>[Press the space bar to continue]</b></p></div>","32","","","","","","","","","","","","","","","","","","",""
"","html-keyboard-response","4","517587","0.0-4.0","2057.100000023842","<div class='center'><p> The pirates on your ship will rob other ships as they leave island</p> These ships have just sold their things to the people living on the island, so they will have lots and lots of gold on them.</p><p><img src='run_exp/static/images/tutorial/ship_center.png' height='400'></p><p><b>[Press the space bar to continue]</b></p></div>","32","","","","","","","","","","","","","","","","","","",""
"","html-keyboard-response","5","518523","0.0-5.0","935.2999999821186","<div class='center'><p>As the head captain, you do not have to rob any ships yourself.</p><p>Another pirate will be doing the robbing for you. </p><p><img src='run_exp/static/images/tutorial/pirates_all_crop.png' height='200'></p><p>If they could rob the ship, then you will get a stack of gold coins like this:</p><p><img src='run_exp/static/images/tutorial/reward.png' height='150'></p><p> If they couldn't rob the ship, then you will get no gold coins and you'll see a big red x like this: </p><p><img src='run_exp/static/images/tutorial/reward_no.png' height='150'></p><p> How much bonus money you make is based on how many gold coins you collect.</p><p><b>[Press the space bar to continue]</b></p><div>","32","","","","","","","","","","","","","","","","","","",""
"","html-keyboard-response","6","520467","0.0-6.0","1942.800000011921","<div class='center'><p>Even the most skilled pirate can not rob EVERY ship.</p><p> Some ships will have very strong defenses against pirate attacks.</p><p> For example, blue beard, here, is very, very good at robbing ships.</p><p> You can press the <b>‘1’</b> button on the keyboard to choose him.</p><p> Try choosing him 10 times to see how often he can rob a ship. </p><p><img src='run_exp/static/images/tutorial/blue.png' height='500'></p></div>","49","","","","","","","","","","","","","","","","","","",""
"","html-keyboard-response","7","521969","0.0-7.0","null","<div class='center'><p><img src='run_exp/static/images/tutorial/blue_win.png' height='500'></p></div>","null","","","","","","","","","","","","","","","","","","",""
"","html-keyboard-response","8","522781","0.0-8.0","811.1999999880791","<div class='center'><img src='run_exp/static/images/tutorial/blue.png' height='500'></p></div>","49","","","","","","","","","","","","","","","","","","",""
"","html-keyboard-response","9","524283","0.0-9.0","null","<div class='center'><p><img src='run_exp/static/images/tutorial/blue_win.png' height='500'></p></div>","null","","","","","","","","","","","","","","","","","","",""
"","html-keyboard-response","10","524363","0.0-10.0","79.5","<div class='center'><img src='run_exp/static/images/tutorial/blue.png' height='500'></p></div>","49","","","","","","","","","","","","","","","","","","",""
"","html-keyboard-response","11","525865","0.0-11.0","null","<div class='center'><p><img src='run_exp/static/images/tutorial/blue_win.png' height='500'></p></div>","null","","","","","","","","","","","","","","","","","","",""
"","html-keyboard-response","12","525875","0.0-12.0","8.700000017881393","<div class='center'><img src='run_exp/static/images/tutorial/blue.png' height='500'></p></div>","49","","","","","","","","","","","","","","","","","","",""
"","html-keyboard-response","13","527377","0.0-13.0","null","<div class='center'><p><img src='run_exp/static/images/tutorial/blue_no_win.png' height='500'></p></div>","null","","","","","","","","","","","","","","","","","","",""
"","html-keyboard-response","14","527755","0.0-14.0","377.90000000596046","<div class='center'><img src='run_exp/static/images/tutorial/blue.png' height='500'></p></div>","49","","","","","","","","","","","","","","","","","","",""
"","html-keyboard-response","15","529257","0.0-15.0","null","<div class='center'><p><img src='run_exp/static/images/tutorial/blue_win.png' height='500'></p></div>","null","","","","","","","","","","","","","","","","","","",""
"","html-keyboard-response","16","530663","0.0-16.0","1405.5","<div class='center'><img src='run_exp/static/images/tutorial/blue.png' height='500'></p></div>","49","","","","","","","","","","","","","","","","","","",""
"","html-keyboard-response","17","532164","0.0-17.0","null","<div class='center'><p><img src='run_exp/static/images/tutorial/blue_win.png' height='500'></p></div>","null","","","","","","","","","","","","","","","","","","",""
"","html-keyboard-response","18","532215","0.0-18.0","50.79999998211861","<div class='center'><img src='run_exp/static/images/tutorial/blue.png' height='500'></p></div>","49","","","","","","","","","","","","","","","","","","",""
"","html-keyboard-response","19","533716","0.0-19.0","null","<div class='center'><p><img src='run_exp/static/images/tutorial/blue_win.png' height='500'></p></div>","null","","","","","","","","","","","","","","","","","","",""
"","html-keyboard-response","20","533745","0.0-20.0","27.599999994039536","<div class='center'><img src='run_exp/static/images/tutorial/blue.png' height='500'></p></div>","49","","","","","","","","","","","","","","","","","","",""
"","html-keyboard-response","21","535246","0.0-21.0","null","<div class='center'><p><img src='run_exp/static/images/tutorial/blue_no_win.png' height='500'></p></div>","null","","","","","","","","","","","","","","","","","","",""
"","html-keyboard-response","22","535365","0.0-22.0","118.5","<div class='center'><img src='run_exp/static/images/tutorial/blue.png' height='500'></p></div>","49","","","","","","","","","","","","","","","","","","",""
"","html-keyboard-response","23","536867","0.0-23.0","null","<div class='center'><p><img src='run_exp/static/images/tutorial/blue_win.png' height='500'></p></div>","null","","","","","","","","","","","","","","","","","","",""
"","html-keyboard-response","24","536974","0.0-24.0","106.19999998807907","<div class='center'><img src='run_exp/static/images/tutorial/blue.png' height='500'></p></div>","49","","","","","","","","","","","","","","","","","","",""
"","html-keyboard-response","25","538479","0.0-25.0","null","<div class='center'><p><img src='run_exp/static/images/tutorial/blue_win.png' height='500'></p></div>","null","","","","","","","","","","","","","","","","","","",""
"","html-keyboard-response","26","607973","0.0-26.0","69492.5","<div class='center'><p> See, he could rob the ships most of the time but not every time. </p><p><b>[Press the space bar to continue]</b></p></div>","32","","","","","","","","","","","","","","","","","","",""
"","html-keyboard-response","27","611948","0.0-27.0","3974.300000011921","<div class='center'><p>You will get to choose which of three pirates you want to rob the next ship. <p>Press the <b>‘1’</b> button on your keyboard to pick the pirate with the red beard.</p><p> Press <b>‘2’</b> to pick the pirate with the white beard.</p><p> Press <b>‘3’</b> to pick the pirate with the black beard.</p><p>Try picking a pirate now!</p><p><img src='run_exp/static/images/tutorial/all_pirates.png' height='500'></p></div>","49","","","","","","","","","","","","","","","","","","",""
"","html-keyboard-response","28","612832","0.0-28.0-0.0","882.6999999880791","<div class='center'><p>This pirate could rob the ship!</p><p><img src='run_exp/static/images/tutorial/red_win.png' height='500'></p><p><b>[Press the space bar to continue]</b></p></div>","32","","","","","","","","","","","","","","","","","","",""
"","html-keyboard-response","29","613210","0.0-28.0-1.0","376.90000000596046","<div class='center'><p>Now try choosing another</p><p><img src='run_exp/static/images/tutorial/all_pirates.png' height='500'></p></div>","50","","","","","","","","","","","","","","","","","","",""
"","html-keyboard-response","30","613710","0.0-29.0-0.0","499.2000000178814","<div class='center'><p>This pirate could not rob the ship!</p><p><img src='run_exp/static/images/tutorial/white_no_win.png' height='500'></p><p><b>[Press the space bar to continue]</b></p></div>","32","","","","","","","","","","","","","","","","","","",""
"","html-keyboard-response","31","615260","0.0-30.0-0.0","1549.5","<div class='center'><p>If you don’t make your choice fast enough, you’ll have to wait a few seconds before you can make another one. </p><p>You can’t collect more gold coins. You just have to sit and wait.</p><p><img src='run_exp/static/images/miscellaneous/hurry_up.png' height='500'></p><p><b>[Press the space bar to continue]</b></p></div>","32","","","","","","","","","","","","","","","","","","",""
"","html-keyboard-response","32","616358","0.0-30.0-1.0","1097","<div class='center'><p>Once you choose a pirate, you’ll be shown the ship they are robbing.</p><p>You will never rob the same ship twice.</p><p>Ships can be told apart from one another by the image on them.</p><p> Every time you see a ship, you will have to remember on which island you saw it.</p><p> Remembering correctly will help you win more bonus money!</p><p>A helpful strategy is to try to come up with a story of the object on the ship interacting with the current island scene.</p><p> For example, here, you could imagine a mug full of water in the desert. </p><p>For a ship with an apple on it on the forest island, you could imagine an apple falling from a tree in the forest.</p><p><img src='run_exp/static/images/tutorial/example_probe.png' height='500'></p><p><b>[Press the space bar to continue]</b></p></div>","32","","","","","","","","","","","","","","","","","","",""
"","html-keyboard-response","33","616980","0.0-30.0-2.0","621.7000000178814","<div class='center'><p>How good a pirate is at robbing ships will depend on the current island.</p><p> A pirate may have visited the island many times before and gained a lot of practice robbing ships there.</p><p>So, they're more likely to bring back gold coins than a pirate who has never visited this island before. </p><p><b>[Press the space bar to continue]</b></p></div>","32","","","","","","","","","","","","","","","","","","",""
"","html-keyboard-response","34","617610","0.0-30.0-3.0","629.6999999880791","<div class='center'><p>How good a pirate is at robbing ships can also change over the time spent on the island<p> Ships may hear from islanders about the pirates coming and will improve their protection against the attack. This may make it harder to rob them.</p><p> Ships may also become lazy and lower their protection. This may make it easier to rob them.</p><br><p>Things are always changing on the high seas! So, try your best to pay attention!</p><p><img src='run_exp/static/images/tutorial/contingency.png' height='500'></p><p><b>[Press the space bar to continue]</b></p></div>","32","","","","","","","","","","","","","","","","","","",""
"","html-keyboard-response","35","621075","0.0-30.0-4.0","3464","<div class='center'><p>Let's go over the instructions quickly again.You have two important things to do: </p><b><p> 1. Pick the pirate who is the best at robbing ships on the current island.</p></b><b><p> 2. Remember on which island a ship was robbed.</p> </b><p>How much bonus money you make is based on both. </p><br><p>Let’s try a practice game. The game will start by showing you the pirates. First pick a pirate using the <b> 1, 2, 3 </b> buttons on your keyboard. When you are shown a ship, try to remember the island you’re on by making up a story.</p><p> You only have 3 seconds to pick a pirate, so please make a choice quickly! If you are too slow, you’ll have to wait a bit during the time out.</p><p> Don’t feel rushed, but please do try to make a choice every time.</p><p>This is just a practice game, so you’re not playing for money. </p><p> Good luck, remember press <b>'1'</b> to choose red beard, <b>'2'</b> to choose white beard, and <b>'3'</b> to choose black beard</p><p><b>[Press the space bar to begin the practice game]</b></p></div>","32","","","","","","","","","","","","","","","","","","",""
"","do_welcome","36","622578","0.0-30.0-5.0","null","","","","null","","","","","","","","","","","","","","","","",""
"","do_trial","37","627516","0.0-30.0-6.0","429.2000000178814","","","","49","1,0,0","","","","","","","","","","","","","","","",""
"","html-keyboard-response","38","628518","0.0-31.0-0.0","null","<p></p>","null","","","","","","","","","","","","","","","","","","",""
"","do_trial","39","633022","0.0-31.0-1.0","0.7000000178813934","","","","49","1,1,0","","","","","","","","","","","","","","","",""
"","html-keyboard-response","40","634024","0.0-32.0-0.0","null","<p></p>","null","","","","","","","","","","","","","","","","","","",""
"","do_trial","41","638695","0.0-32.0-1.0","166.7999999821186","","","","49","1,0,1","","","","","","","","","","","","","","","",""
"","html-keyboard-response","42","639697","0.0-33.0-0.0","null","<p></p>","null","","","","","","","","","","","","","","","","","","",""
"","do_trial","43","644513","0.0-33.0-1.0","313","","","","49","0,1,0","","","","","","","","","","","","","","","",""
"","html-keyboard-response","44","645517","0.0-34.0-0.0","null","<p></p>","null","","","","","","","","","","","","","","","","","","",""
"","do_trial","45","650044","0.0-34.0-1.0","23.700000017881393","","","","49","1,0,0","","","","","","","","","","","","","","","",""
"","do_bye","46","651548","0.0-35.0-0.0","null","","","","null","","","","","","","","","","","","","","","","",""
"","do_travel","47","657550","0.0-35.0-1.0","null","","","","null","","","","","","","","","","","","","","","","",""
"","do_welcome","48","659054","0.0-35.0-2.0","null","","","","null","","","","","","","","","","","","","","","","",""
"","do_trial","49","663667","0.0-35.0-3.0","106.90000000596046","","","","49","1,0,0","","","","","","","","","","","","","","","",""
"","html-keyboard-response","50","664669","0.0-36.0-0.0","null","<p></p>","null","","","","","","","","","","","","","","","","","","",""
"","do_trial","51","669335","0.0-36.0-1.0","162","","","","49","1,0,1","","","","","","","","","","","","","","","",""
"","html-keyboard-response","52","670337","0.0-37.0-0.0","null","<p></p>","null","","","","","","","","","","","","","","","","","","",""
"","do_trial","53","674879","0.0-37.0-1.0","38.19999998807907","","","","49","1,1,0","","","","","","","","","","","","","","","",""
"","html-keyboard-response","54","675880","0.0-38.0-0.0","null","<p></p>","null","","","","","","","","","","","","","","","","","","",""
"","do_trial","55","680437","0.0-38.0-1.0","52.80000001192093","","","","49","0,0,1","","","","","","","","","","","","","","","",""
"","html-keyboard-response","56","681439","0.0-39.0-0.0","null","<p></p>","null","","","","","","","","","","","","","","","","","","",""
"","do_trial","57","685973","0.0-39.0-1.0","30.400000005960464","","","","49","1,0,1","","","","","","","","","","","","","","","",""
"","html-keyboard-response","58","686223","0.0-40.0-0.0","248.2000000178814","<div class='center'><p><img src='run_exp/static/images/tutorial/prac_best_pirate.png'  height='500'></p></div>","49","","","","","","","","","","","","","","","","","","",""
"","html-keyboard-response","59","687619","0.0-41.0-0.0","1395.4000000059605","<div class='center'><p>That's correct! Red beard was the best.</p><p><b>[Press the space bar to continue]</b></p></div>","32","","","","","","","","","","","","","","","","","","",""
"","html-keyboard-response","60","687772","0.0-41.0-1.0","152","<div class='center'><p><img src='run_exp/static/images/tutorial/prac_source.png'  height='500'></p></div>","49","","","","","","","","","","","","","","","","","","",""
"","html-keyboard-response","61","689500","0.0-42.0-0.0","1727.699999988079","<div class='center'><p>That's incorrect! You saw this ship on the cavern island</p><p><b>[Press the space bar to continue]</b></p></div>","32","","","","","","","","","","","","","","","","","","",""
"","html-keyboard-response","62","690866","0.0-42.0-1.0","1365.7000000178814","<div class='center'><p>Good job on the practice game! Now, you will be asked you some true or false questions to make sure you really understand the rules of the game.</p><p> Press <b>'1'</b> on the keyboard for true and press <b>'2'</b> for false.</p><p><b>[Press the space bar to begin the quiz]</b></p></div>","32","","","","","","","","","","","","","","","","","","",""
"","html-keyboard-response","63","696185","0.0-42.0-2.0","5318","<div class='center'><p>You win bonus money by making choices as fast as possible.</p><p>Press 1 for true and press  2 for false.</p></div>","50","","","","","","","","","","","","","","","","","","",""
"","html-keyboard-response","64","697326","0.0-43.0-0.0","1140.4000000059605","<div class='center'><p>That's correct!</p> <p><b>[press the space bar to continue with the quiz]</b></p></div>","32","","","","","","","","","","","","","","","","","","",""
"","html-keyboard-response","65","700358","0.0-43.0-1.0","3031.300000011921","<div class='center'><p>You press the <b>‘3’</b> button on the keyboard to choose the red bearded pirate. </p><p>Press 1 for true and press  2 for false.</p></div>","50","","","","","","","","","","","","","","","","","","",""
"","html-keyboard-response","66","700840","0.0-44.0-0.0","481.40000000596046","<div class='center'><p>That's correct!</p> <p><b>[press the space bar to continue with the quiz]</b></p></div>","32","","","","","","","","","","","","","","","","","","",""
"","html-keyboard-response","67","703930","0.0-44.0-1.0","3089.7999999821186","<div class='center'><p>The pirate who is the best at robbing ships on the first island will be the best on every other island.</p><p>Press 1 for true and press  2 for false.</p></div>","50","","","","","","","","","","","","","","","","","","",""
"","html-keyboard-response","68","704319","0.0-45.0-0.0","387.89999997615814","<div class='center'><p>That's correct!</p> <p><b>[press the space bar to continue with the quiz]</b></p></div>","32","","","","","","","","","","","","","","","","","","",""
"","html-keyboard-response","69","708407","0.0-45.0-1.0","4087.4000000059605","<div class='center'><p>You should remember the island where a pirate robbed a ship.</p><p>Press 1 for true and press  2 for false.</p></div>","49","","","","","","","","","","","","","","","","","","",""
"","html-keyboard-response","70","708953","0.0-46.0-0.0","540.3000000119209","<div class='center'><p>That's correct!</p> <p><b>[press the space bar to continue with the quiz]</b></p></div>","32","","","","","","","","","","","","","","","","","","",""
"","html-keyboard-response","71","711120","0.0-47.0-0.0","2166","<div class='center'><p>Good job! You’re now ready to move on to the real game!</p> <p><br>[press the space bar to begin!]</br></p></div>","32","","","","","","","","","","","","","","","","","","",""
"","do_welcome","72","712623","0.0-48.0-0.0","null","","","","null","","","","","","","","","","","","","","","","",""
"","do_trial","73","717797","0.0-49.0-0.0","652","","","","49","1,0,0","0","coast","0","probe-110","0.6","0.3","0.1","1","","","","","","","",""
"","html-keyboard-response","74","718799","0.0-49.0-1.0","null","<p></p>","null","","","","","","","","","","","","","","","","","","",""
"","do_trial","75","723322","0.0-50.0-0.0","0.09999999403953552","","","","49","0,0,0","0","coast","1","probe-197","0.522761849442427","0.38785606942395334","0.11738378279380357","0","","","","","","","",""
"","html-keyboard-response","76","724323","0.0-50.0-1.0","null","<p></p>","null","","","","","","","","","","","","","","","","","","",""
"","do_trial","77","729187","0.0-51.0-0.0","340.90000000596046","","","","49","1,0,1","0","coast","2","probe-176","0.5486165897760678","0.3024707559451344","0.16021674349005793","1","","","","","","","",""
"","html-keyboard-response","78","730189","0.0-51.0-1.0","null","<p></p>","null","","","","","","","","","","","","","","","","","","",""
"","do_trial","79","734856","0.0-52.0-0.0","143.7999999821186","","","","49","1,0,0","0","coast","3","probe-141","0.4678741309381247","0.33363479762489495","0.11566345837577992","1","","","","","","","",""
"","html-keyboard-response","80","735857","0.0-52.0-1.0","null","<p></p>","null","","","","","","","","","","","","","","","","","","",""
"","do_trial","81","740535","0.0-53.0-0.0","155.2999999821186","","","","49","1,0,0","0","coast","4","probe-210","0.5383916462318384","0.4417219394849494","0.19987052205595446","1","","","","","","","",""
"","html-keyboard-response","82","741537","0.0-53.0-1.0","null","<p></p>","null","","","","","","","","","","","","","","","","","","",""
"","do_trial","83","746060","0.0-54.0-0.0","1.800000011920929","","","","49","1,0,0","0","coast","5","probe-24","0.674076750086644","0.43149987916598853","0.34862226247503075","1","","","","","","","",""
"","html-keyboard-response","84","747062","0.0-54.0-1.0","null","<p></p>","null","","","","","","","","","","","","","","","","","","",""
"","do_trial","85","751759","0.0-55.0-0.0","174.5","","","","49","1,0,0","0","coast","6","probe-85","0.7162811050910152","0.2791394724720426","0.2491603712383185","1","","","","","","","",""
"","html-keyboard-response","86","752760","0.0-55.0-1.0","null","<p></p>","null","","","","","","","","","","","","","","","","","","",""
"","do_trial","87","757500","0.0-56.0-0.0","217.59999999403954","","","","49","0,1,0","0","coast","7","probe-213","0.701506933226765","0.4301330123118541","0.23795449562714388","0","","","","","","","",""
"","html-keyboard-response","88","758502","0.0-56.0-1.0","null","<p></p>","null","","","","","","","","","","","","","","","","","","",""
"","do_trial","89","763077","0.0-57.0-0.0","51.80000001192093","","","","49","1,0,1","0","coast","8","probe-05","0.7598412762812042","0.40606369206668497","0.3396833459203944","1","","","","","","","",""
"","html-keyboard-response","90","764079","0.0-57.0-1.0","null","<p></p>","null","","","","","","","","","","","","","","","","","","",""
"","do_trial","91","768736","0.0-58.0-0.0","134","","","","49","1,0,1","0","coast","9","probe-178","0.8102448380202294","0.45615144762274445","0.14042610556727642","1","","","","","","","",""
"","html-keyboard-response","92","769738","0.0-58.0-1.0","null","<p></p>","null","","","","","","","","","","","","","","","","","","",""
"","do_trial","93","774397","0.0-59.0-0.0","136.7000000178814","","","","49","1,1,0","0","coast","10","probe-216","0.7292604476358878","0.3402096704133576","0.23759783946013302","1","","","","","","","",""
"","html-keyboard-response","94","775399","0.0-59.0-1.0","null","<p></p>","null","","","","","","","","","","","","","","","","","","",""
"","do_trial","95","780079","0.0-60.0-0.0","156.90000000596046","","","","49","1,1,0","0","coast","11","probe-37","0.6450153325708432","0.3174334166118759","0.22657751729869297","1","","","","","","","",""
"","html-keyboard-response","96","781081","0.0-60.0-1.0","null","<p></p>","null","","","","","","","","","","","","","","","","","","",""
"","do_trial","97","785603","0.0-61.0-0.0","0","","","","49","1,0,1","0","coast","12","probe-15","0.7632002895965311","0.23267206516480712","0.30438988291493047","1","","","","","","","",""
"","html-keyboard-response","98","786604","0.0-61.0-1.0","null","<p></p>","null","","","","","","","","","","","","","","","","","","",""
"","do_trial","99","791265","0.0-62.0-0.0","138.89999997615814","","","","49","0,0,0","0","coast","13","probe-19","0.6365790611120307","0.23284772586541225","0.2318784180819177","0","","","","","","","",""
"","html-keyboard-response","100","792267","0.0-62.0-1.0","null","<p></p>","null","","","","","","","","","","","","","","","","","","",""
"","do_trial","101","796944","0.0-63.0-0.0","153.7999999821186","","","","49","0,1,0","0","coast","14","probe-97","0.587114415491438","0.20967077069315324","0.05059529415260089","0","","","","","","","",""
"","html-keyboard-response","102","797946","0.0-63.0-1.0","null","<p></p>","null","","","","","","","","","","","","","","","","","","",""
"","do_trial","103","802583","0.0-64.0-0.0","115.7999999821186","","","","49","1,1,0","0","coast","15","probe-223","0.6929595153891335","0.4456364813848239","0.10259993599430457","1","","","","","","","",""
"","html-keyboard-response","104","803585","0.0-64.0-1.0","null","<p></p>","null","","","","","","","","","","","","","","","","","","",""
"","do_trial","105","808242","0.0-65.0-0.0","133.2999999821186","","","","49","0,1,0","0","coast","16","probe-201","0.5918456943723706","0.41553139264286293","0.12835415277628004","0","","","","","","","",""
"","html-keyboard-response","106","809244","0.0-65.0-1.0","null","<p></p>","null","","","","","","","","","","","","","","","","","","",""
"","do_trial","107","813984","0.0-66.0-0.0","217.09999999403954","","","","51","0,0,0","0","coast","17","probe-192","0.7271345939552103","0.4659701663140105","0.1534443204881773","0","","","","","","","",""
"","html-keyboard-response","108","814986","0.0-66.0-1.0","null","<p></p>","null","","","","","","","","","","","","","","","","","","",""
"","do_trial","109","819671","0.0-67.0-0.0","162.69999998807907","","","","50","0,1,1","0","coast","18","probe-26","0.6183800719686599","0.41118434452108626","0.16494487583843512","1","","","","","","","",""
"","html-keyboard-response","110","820673","0.0-67.0-1.0","null","<p></p>","null","","","","","","","","","","","","","","","","","","",""
"","do_trial","111","825235","0.0-68.0-0.0","40","","","","50","0,0,0","0","coast","19","probe-207","0.5870768056915933","0.4676784408473688","0.0877268428100629","0","","","","","","","",""
"","html-keyboard-response","112","826238","0.0-68.0-1.0","null","<p></p>","null","","","","","","","","","","","","","","","","","","",""
"","do_trial","113","830761","0.0-69.0-0.0","0.09999999403953552","","","","49","1,0,0","0","coast","20","probe-62","0.3987159040557762","0.3296056601141709","0.09914528894652676","1","","","","","","","",""
"","html-keyboard-response","114","831763","0.0-69.0-1.0","null","<p></p>","null","","","","","","","","","","","","","","","","","","",""
"","do_trial","115","836360","0.0-70.0-0.0","73.59999999403954","","","","49","1,0,0","0","coast","21","probe-180","0.5266244438133912","0.46938604002191625","0.11368622901331385","1","","","","","","","",""
"","html-keyboard-response","116","837362","0.0-70.0-1.0","null","<p></p>","null","","","","","","","","","","","","","","","","","","",""
"","do_trial","117","841934","0.0-71.0-0.0","49.30000001192093","","","","49","1,0,0","0","coast","22","probe-130","0.5669631684958459","0.15645515981332253","0.18908941000160398","1","","","","","","","",""
"","html-keyboard-response","118","842935","0.0-71.0-1.0","null","<p></p>","null","","","","","","","","","","","","","","","","","","",""
"","do_trial","119","847515","0.0-72.0-0.0","57.599999994039536","","","","49","1,0,0","0","coast","23","probe-186","0.5367995995088074","0.26933690155797685","0.0744176410337045","1","","","","","","","",""
"","html-keyboard-response","120","848517","0.0-72.0-1.0","null","<p></p>","null","","","","","","","","","","","","","","","","","","",""
"","do_trial","121","853040","0.0-73.0-0.0","1.300000011920929","","","","49","1,0,0","0","coast","24","probe-199","0.5302369163427213","0.18946991442918418","0.09446405390068652","1","","","","","","","",""
"","html-keyboard-response","122","854042","0.0-73.0-1.0","null","<p></p>","null","","","","","","","","","","","","","","","","","","",""
"","do_trial","123","858743","0.0-74.0-0.0","177.69999998807907","","","","49","1,0,1","0","coast","25","probe-111","0.4416424860080728","0.32119594219346986","0.15245775985587817","1","","","","","","","",""
"","html-keyboard-response","124","859744","0.0-74.0-1.0","null","<p></p>","null","","","","","","","","","","","","","","","","","","",""
"","do_trial","125","864288","0.0-75.0-0.0","19.700000017881393","","","","49","0,0,0","0","coast","26","probe-140","0.2862284840303133","0.23116925625376814","0.24184476793615553","0","","","","","","","",""
"","html-keyboard-response","126","865290","0.0-75.0-1.0","null","<p></p>","null","","","","","","","","","","","","","","","","","","",""
"","do_trial","127","869888","0.0-76.0-0.0","75.40000000596046","","","","49","1,1,0","0","coast","27","probe-166","0.4152082305856765","0.1796949426226999","0.059217105454531856","1","","","","","","","",""
"","html-keyboard-response","128","870890","0.0-76.0-1.0","null","<p></p>","null","","","","","","","","","","","","","","","","","","",""
"","do_trial","129","875454","0.0-77.0-0.0","42.5","","","","49","0,0,0","0","coast","28","probe-219","0.5658246193994387","0.41799011587807416","0.051128941106607276","0","","","","","","","",""
"","html-keyboard-response","130","876455","0.0-77.0-1.0","null","<p></p>","null","","","","","","","","","","","","","","","","","","",""
"","do_trial","131","881066","0.0-78.0-0.0","87.7999999821186","","","","49","1,0,0","0","coast","29","probe-64","0.5195097928407938","0.42871148423921634","0.06304975403894447","1","","","","","","","",""
"","html-keyboard-response","132","882068","0.0-78.0-1.0","null","<p></p>","null","","","","","","","","","","","","","","","","","","",""
"","do_bye","133","883572","0.0-79.0-0.0","null","","","","null","","","","","","","","","","","","","","","","",""
"","do_travel","134","889573","0.0-80.0-0.0","null","","","","null","","","","","","","","","","","","","","","","",""
"","do_welcome","135","891076","0.0-80.0-1.0","null","","","","null","","","","","","","","","","","","","","","","",""
"","do_trial","136","895798","0.0-81.0-0.0","199","","","","49","1,0,1","1","countryside","30","probe-227","1","0.35593748134582365","0.2904934795128247","1","","","","","","","",""
"","html-keyboard-response","137","896800","0.0-81.0-1.0","null","<p></p>","null","","","","","","","","","","","","","","","","","","",""
"","do_trial","138","901323","0.0-82.0-0.0","0.10000002384185791","","","","49","1,0,1","1","countryside","31","probe-20","1","0.3264149053215583","0.3762919453404506","1","","","","","","","",""
"","html-keyboard-response","139","902324","0.0-82.0-1.0","null","<p></p>","null","","","","","","","","","","","","","","","","","","",""
"","do_trial","140","906949","0.0-83.0-0.0","102.10000002384186","","","","49","1,0,0","1","countryside","32","probe-229","1","0.4462778530557482","0.2947512906283502","1","","","","","","","",""
"","html-keyboard-response","141","907950","0.0-83.0-1.0","null","<p></p>","null","","","","","","","","","","","","","","","","","","",""
"","do_trial","142","912473","0.0-84.0-0.0","0.09999999403953552","","","","49","1,1,0","1","countryside","33","probe-101","0.8824110062874516","0.48281231633245925","0.11085688268753263","1","","","","","","","",""
"","html-keyboard-response","143","913475","0.0-84.0-1.0","null","<p></p>","null","","","","","","","","","","","","","","","","","","",""
"","do_trial","144","918164","0.0-85.0-0.0","158.5","","","","49","1,0,0","1","countryside","34","probe-86","0.9133846560282365","0.372631827438372","0.05619865008500906","1","","","","","","","",""
"","html-keyboard-response","145","919167","0.0-85.0-1.0","null","<p></p>","null","","","","","","","","","","","","","","","","","","",""
"","do_trial","146","923849","0.0-86.0-0.0","160.69999998807907","","","","49","1,0,1","1","countryside","35","probe-48","0.7640442898799082","0.4259949575012735","0.09489635286440644","1","","","","","","","",""
"","html-keyboard-response","147","924851","0.0-86.0-1.0","null","<p></p>","null","","","","","","","","","","","","","","","","","","",""
"","do_trial","148","929484","0.0-87.0-0.0","109.90000000596046","","","","49","1,0,0","1","countryside","36","probe-217","0.6919632728798603","0.4064365496289761","0.13679871739517388","1","","","","","","","",""
"","html-keyboard-response","149","930485","0.0-87.0-1.0","null","<p></p>","null","","","","","","","","","","","","","","","","","","",""
"","do_trial","150","935265","0.0-88.0-0.0","256.59999999403954","","","","49","0,1,0","1","countryside","37","probe-206","0.6190979677961126","0.4487729269580358","0.0780941732412062","0","","","","","","","",""
"","html-keyboard-response","151","936265","0.0-88.0-1.0","null","<p></p>","null","","","","","","","","","","","","","","","","","","",""
"","do_trial","152","941046","0.0-89.0-0.0","257.90000000596046","","","","49","0,1,0","1","countryside","38","probe-36","0.5686214301632724","0.39102897632966155","0.08491848107132936","0","","","","","","","",""
"","html-keyboard-response","153","942048","0.0-89.0-1.0","null","<p></p>","null","","","","","","","","","","","","","","","","","","",""
"","do_trial","154","946673","0.0-90.0-0.0","102.7999999821186","","","","49","0,0,0","1","countryside","39","probe-32","0.5734174758328018","0.4150359059137369","0.05255731937433339","0","","","","","","","",""
"","html-keyboard-response","155","947675","0.0-90.0-1.0","null","<p></p>","null","","","","","","","","","","","","","","","","","","",""
"","do_trial","156","952257","0.0-91.0-0.0","59.099999994039536","","","","50","0,1,0","1","countryside","40","probe-226","0.6140390878463682","0.4486438326018473","0.08928380096978943","1","","","","","","","",""
"","html-keyboard-response","157","953259","0.0-91.0-1.0","null","<p></p>","null","","","","","","","","","","","","","","","","","","",""
"","do_trial","158","957856","0.0-92.0-0.0","73.7999999821186","","","","50","1,1,0","1","countryside","41","probe-49","0.5447345472628995","0.49544647706673905","0.16960758940211298","1","","","","","","","",""
"","html-keyboard-response","159","958857","0.0-92.0-1.0","null","<p></p>","null","","","","","","","","","","","","","","","","","","",""
"","do_trial","160","963778","0.0-93.0-0.0","397.69999998807907","","","","50","0,1,0","1","countryside","42","probe-146","0.3286079124510766","0.5075895396886818","0.24243778959111084","1","","","","","","","",""
"","html-keyboard-response","161","964780","0.0-93.0-1.0","null","<p></p>","null","","","","","","","","","","","","","","","","","","",""
"","do_trial","162","969518","0.0-94.0-0.0","215.7000000178814","","","","50","0,0,1","1","countryside","43","probe-92","0.32672087320024984","0.5489218219079903","0.4233902453645462","0","","","","","","","",""
"","html-keyboard-response","163","970520","0.0-94.0-1.0","null","<p></p>","null","","","","","","","","","","","","","","","","","","",""
"","do_trial","164","975076","0.0-95.0-0.0","32.099999994039536","","","","50","0,0,0","1","countryside","44","probe-139","0.29908951746817897","0.24777136105499534","0.6692640034087555","0","","","","","","","",""
"","html-keyboard-response","165","976078","0.0-95.0-1.0","null","<p></p>","null","","","","","","","","","","","","","","","","","","",""
"","do_trial","166","980754","0.0-96.0-0.0","153.30000001192093","","","","50","0,1,1","1","countryside","45","probe-75","0.4105808857810176","0.3045358294520176","0.7161084661414029","1","","","","","","","",""
"","html-keyboard-response","167","981755","0.0-96.0-1.0","null","<p></p>","null","","","","","","","","","","","","","","","","","","",""
"","do_trial","168","986478","0.0-97.0-0.0","200.40000000596046","","","","50","1,0,1","1","countryside","46","probe-06","0.25513943372947656","0.1926633498563443","0.8665971962844282","0","","","","","","","",""
"","html-keyboard-response","169","987480","0.0-97.0-1.0","null","<p></p>","null","","","","","","","","","","","","","","","","","","",""
"","do_trial","170","992076","0.0-98.0-0.0","74","","","","50","0,0,0","1","countryside","47","probe-46","0.23933924700845197","0.16438189886637705","0.7489977332481945","0","","","","","","","",""
"","html-keyboard-response","171","993078","0.0-98.0-1.0","null","<p></p>","null","","","","","","","","","","","","","","","","","","",""
"","do_trial","172","997844","0.0-99.0-0.0","243.5","","","","50","0,0,1","1","countryside","48","probe-80","0.2504427237217232","0.09247357296308682","0.6293683103399549","0","","","","","","","",""
"","html-keyboard-response","173","998845","0.0-99.0-1.0","null","<p></p>","null","","","","","","","","","","","","","","","","","","",""
"","do_trial","174","1003571","0.0-100.0-0.0","194.40000000596046","","","","51","0,0,0","1","countryside","49","probe-172","0.22139735789904325","0.06551396692173787","0.5494506530078279","0","","","","","","","",""
"","html-keyboard-response","175","1004573","0.0-100.0-1.0","null","<p></p>","null","","","","","","","","","","","","","","","","","","",""
"","do_trial","176","1009208","0.0-101.0-0.0","113.7999999821186","","","","49","0,0,0","1","countryside","50","probe-83","0.20950248503524158","0.0974813575425889","0.5378142835805069","0","","","","","","","",""
"","html-keyboard-response","177","1010211","0.0-101.0-1.0","null","<p></p>","null","","","","","","","","","","","","","","","","","","",""
"","do_trial","178","1014872","0.0-102.0-0.0","138.39999997615814","","","","50","1,1,1","1","countryside","51","probe-102","0.08205837298336933","0.17081705936581265","0.4082553942397852","1","","","","","","","",""
"","html-keyboard-response","179","1015875","0.0-102.0-1.0","null","<p></p>","null","","","","","","","","","","","","","","","","","","",""
"","do_trial","180","1020483","0.0-103.0-0.0","86.59999999403954","","","","50","0,0,1","1","countryside","52","probe-95","0.15666742031294767","0.23832643012311724","0.49080893911776136","0","","","","","","","",""
"","html-keyboard-response","181","1021485","0.0-103.0-1.0","null","<p></p>","null","","","","","","","","","","","","","","","","","","",""
"","do_trial","182","1026193","0.0-104.0-0.0","186","","","","50","0,1,0","1","countryside","53","probe-54","0.1362302903369373","0.31433627122702634","0.5323537912623959","1","","","","","","","",""
"","html-keyboard-response","183","1027195","0.0-104.0-1.0","null","<p></p>","null","","","","","","","","","","","","","","","","","","",""
"","do_trial","184","1031882","0.0-105.0-0.0","164.2000000178814","","","","50","0,0,0","1","countryside","54","probe-52","0.1335595351861121","0.2778290774948106","0.5882900527169918","0","","","","","","","",""
"","html-keyboard-response","185","1032884","0.0-105.0-1.0","null","<p></p>","null","","","","","","","","","","","","","","","","","","",""
"","do_trial","186","1037524","0.0-106.0-0.0","117.90000000596046","","","","50","0,1,1","1","countryside","55","probe-215","0.17025080618679078","0.2875942933250182","0.622097822531906","1","","","","","","","",""
"","html-keyboard-response","187","1038526","0.0-106.0-1.0","null","<p></p>","null","","","","","","","","","","","","","","","","","","",""
"","do_trial","188","1043049","0.0-107.0-0.0","0.19999998807907104","","","","50","0,0,1","1","countryside","56","probe-160","0.13019886203632863","0.25090596039212854","0.5732315067874522","0","","","","","","","",""
"","html-keyboard-response","189","1044050","0.0-107.0-1.0","null","<p></p>","null","","","","","","","","","","","","","","","","","","",""
"","do_trial","190","1048792","0.0-108.0-0.0","219.2999999821186","","","","50","0,1,0","1","countryside","57","probe-112","0.09831864959772099","0.2133759416699459","0.6644843737501328","1","","","","","","","",""
"","html-keyboard-response","191","1049794","0.0-108.0-1.0","null","<p></p>","null","","","","","","","","","","","","","","","","","","",""
"","do_trial","192","1054742","0.0-109.0-0.0","425.40000000596046","","","","50","0,0,1","1","countryside","58","probe-148","0.0949087362124352","0.3003984486101336","0.5211996871377064","0","","","","","","","",""
"","html-keyboard-response","193","1055744","0.0-109.0-1.0","null","<p></p>","null","","","","","","","","","","","","","","","","","","",""
"","do_trial","194","1060266","0.0-110.0-0.0","0.19999998807907104","","","","50","0,0,1","1","countryside","59","probe-174","0.12409459849439813","0.25612416951651457","0.4980437557915699","0","","","","","","","",""
"","html-keyboard-response","195","1061267","0.0-110.0-1.0","null","<p></p>","null","","","","","","","","","","","","","","","","","","",""
"","do_trial","196","1065882","0.0-111.0-0.0","91.5","","","","50","0,1,1","1","countryside","60","probe-190","0.2265115104208792","0.2901065825237924","0.5452078125868077","1","","","","","","","",""
"","html-keyboard-response","197","1066884","0.0-111.0-1.0","null","<p></p>","null","","","","","","","","","","","","","","","","","","",""
"","do_trial","198","1071409","0.0-112.0-0.0","2.300000011920929","","","","50","0,1,1","1","countryside","61","probe-18","0.2730429321031297","0.2723537421552321","0.5544443970583818","1","","","","","","","",""
"","html-keyboard-response","199","1072410","0.0-112.0-1.0","null","<p></p>","null","","","","","","","","","","","","","","","","","","",""
"","do_trial","200","1076933","0.0-113.0-0.0","0.09999999403953552","","","","50","0,1,1","1","countryside","62","probe-17","0.159504734045172","0.3942987811446447","0.5208857225160329","1","","","","","","","",""
"","html-keyboard-response","201","1077935","0.0-113.0-1.0","null","<p></p>","null","","","","","","","","","","","","","","","","","","",""
"","do_trial","202","1082656","0.0-114.0-0.0","198.09999999403954","","","","50","0,0,1","1","countryside","63","probe-116","0.1161991226141398","0.31210274149875317","0.5774541000784698","0","","","","","","","",""
"","html-keyboard-response","203","1083658","0.0-114.0-1.0","null","<p></p>","null","","","","","","","","","","","","","","","","","","",""
"","do_trial","204","1088393","0.0-115.0-0.0","213.09999999403954","","","","50","1,1,0","1","countryside","64","probe-21","0.07314075575647291","0.37895019655575973","0.5599580569812888","1","","","","","","","",""
"","html-keyboard-response","205","1089395","0.0-115.0-1.0","null","<p></p>","null","","","","","","","","","","","","","","","","","","",""
"","do_trial","206","1093974","0.0-116.0-0.0","56.5","","","","50","0,1,1","1","countryside","65","probe-184","0.10524949141104901","0.3088047947514739","0.6610858009967708","1","","","","","","","",""
"","html-keyboard-response","207","1094975","0.0-116.0-1.0","null","<p></p>","null","","","","","","","","","","","","","","","","","","",""
"","do_trial","208","1099507","0.0-117.0-0.0","0.4000000059604645","","","","50","0,0,1","1","countryside","66","probe-175","0.1233531342163569","0.3190970860098324","0.6696118957643025","0","","","","","","","",""
"","html-keyboard-response","209","1100509","0.0-117.0-1.0","null","<p></p>","null","","","","","","","","","","","","","","","","","","",""
"","do_trial","210","1105378","0.0-118.0-0.0","345.09999999403954","","","","50","0,0,1","1","countryside","67","probe-181","0.05802886194208332","0.21551247189530012","0.5978948108059747","0","","","","","","","",""
"","html-keyboard-response","211","1106381","0.0-118.0-1.0","null","<p></p>","null","","","","","","","","","","","","","","","","","","",""
"","do_trial","212","1111456","0.0-119.0-0.0","547.7000000178814","","","","50","0,1,1","1","countryside","68","probe-43","0.11457074728973267","0.350147167170944","0.5531136446669888","1","","","","","","","",""
"","html-keyboard-response","213","1112459","0.0-119.0-1.0","null","<p></p>","null","","","","","","","","","","","","","","","","","","",""
"","do_trial","214","1116982","0.0-120.0-0.0","0","","","","50","0,1,1","1","countryside","69","probe-163","0.08507690778241715","0.34287250091156446","0.6723047752645155","1","","","","","","","",""
"","html-keyboard-response","215","1117984","0.0-120.0-1.0","null","<p></p>","null","","","","","","","","","","","","","","","","","","",""
"","do_bye","216","1119488","0.0-121.0-0.0","null","","","","null","","","","","","","","","","","","","","","","",""
"","do_travel","217","1125490","0.0-122.0-0.0","null","","","","null","","","","","","","","","","","","","","","","",""
"","do_welcome","218","1126992","0.0-122.0-1.0","null","","","","null","","","","","","","","","","","","","","","","",""
"","do_trial","219","1131735","0.0-123.0-0.0","219","","","","50","0,0,1","2","mountain","70","probe-12","0.28864114684724","0.2590644836631344","1","0","","","","","","","",""
"","html-keyboard-response","220","1132737","0.0-123.0-1.0","null","<p></p>","null","","","","","","","","","","","","","","","","","","",""
"","do_trial","221","1137327","0.0-124.0-0.0","68.2000000178814","","","","50","0,1,1","2","mountain","71","probe-04","0.14052886108304327","0.32675073350957184","1","1","","","","","","","",""
"","html-keyboard-response","222","1138330","0.0-124.0-1.0","null","<p></p>","null","","","","","","","","","","","","","","","","","","",""
"","do_trial","223","1142967","0.0-125.0-0.0","114.59999999403954","","","","50","0,0,1","2","mountain","72","probe-70","0.15188012374569757","0.28443493383395363","0.8002856478492864","0","","","","","","","",""
"","html-keyboard-response","224","1143970","0.0-125.0-1.0","null","<p></p>","null","","","","","","","","","","","","","","","","","","",""
"","do_trial","225","1148689","0.0-126.0-0.0","194.2000000178814","","","","51","0,0,1","2","mountain","73","probe-98","0.22660025636437808","0.19506105735098594","0.6734376512150075","1","","","","","","","",""
"","html-keyboard-response","226","1149690","0.0-126.0-1.0","null","<p></p>","null","","","","","","","","","","","","","","","","","","",""
"","do_trial","227","1154380","0.0-127.0-0.0","165.7999999821186","","","","51","0,0,0","2","mountain","74","probe-28","0.06966414259235121","0.1593467616800387","0.670357214563051","0","","","","","","","",""
"","html-keyboard-response","228","1155381","0.0-127.0-1.0","null","<p></p>","null","","","","","","","","","","","","","","","","","","",""
"","do_trial","229","1160135","0.0-128.0-0.0","231.7999999821186","","","","51","0,0,1","2","mountain","75","probe-90","0.12318042006512676","0.05570396842586723","0.6597725974282708","1","","","","","","","",""
"","html-keyboard-response","230","1161136","0.0-128.0-1.0","null","<p></p>","null","","","","","","","","","","","","","","","","","","",""
"","do_trial","231","1165683","0.0-129.0-0.0","24.900000005960464","","","","51","0,0,1","2","mountain","76","probe-168","0.10205323305400198","0.07157308820341803","0.6634699084965527","1","","","","","","","",""
"","html-keyboard-response","232","1166685","0.0-129.0-1.0","null","<p></p>","null","","","","","","","","","","","","","","","","","","",""
"","do_trial","233","1171393","0.0-130.0-0.0","173.69999998807907","","","","51","0,0,1","2","mountain","77","probe-91","0.12227994464645635","0.10019110682004613","0.4656970551251226","1","","","","","","","",""
"","html-keyboard-response","234","1172396","0.0-130.0-1.0","null","<p></p>","null","","","","","","","","","","","","","","","","","","",""
"","do_trial","235","1176983","0.0-131.0-0.0","64.7999999821186","","","","51","0,0,0","2","mountain","78","probe-29","0.051259069731647344","0.22642770769322615","0.551766781630434","0","","","","","","","",""
"","html-keyboard-response","236","1177985","0.0-131.0-1.0","null","<p></p>","null","","","","","","","","","","","","","","","","","","",""
"","do_trial","237","1182520","0.0-132.0-0.0","0.10000002384185791","","","","51","0,0,1","2","mountain","79","probe-222","0.1670562212121162","0.23827948689150888","0.6137992928724579","1","","","","","","","",""
"","html-keyboard-response","238","1183521","0.0-132.0-1.0","null","<p></p>","null","","","","","","","","","","","","","","","","","","",""
"","do_trial","239","1188170","0.0-133.0-0.0","126.30000001192093","","","","51","1,0,1","2","mountain","80","probe-104","0.23694329020164145","0.14797618708057633","0.6448956914112233","1","","","","","","","",""
"","html-keyboard-response","240","1189172","0.0-133.0-1.0","null","<p></p>","null","","","","","","","","","","","","","","","","","","",""
"","do_trial","241","1194003","0.0-134.0-0.0","309.09999999403954","","","","51","0,0,0","2","mountain","81","probe-202","0.2507615220914453","0.10370202930161324","0.5827911813845494","0","","","","","","","",""
"","html-keyboard-response","242","1195005","0.0-134.0-1.0","null","<p></p>","null","","","","","","","","","","","","","","","","","","",""
"","do_trial","243","1199532","0.0-135.0-0.0","6.199999988079071","","","","51","0,0,1","2","mountain","82","probe-09","0.5743015327770385","0.09224221520478722","0.42287287699807485","1","","","","","","","",""
"","html-keyboard-response","244","1200534","0.0-135.0-1.0","null","<p></p>","null","","","","","","","","","","","","","","","","","","",""
"","do_trial","245","1205159","0.0-136.0-0.0","102.69999998807907","","","","51","1,1,0","2","mountain","83","probe-195","0.5958369809124293","0.21609131377397453","0.5166978809739928","0","","","","","","","",""
"","html-keyboard-response","246","1206161","0.0-136.0-1.0","null","<p></p>","null","","","","","","","","","","","","","","","","","","",""
"","do_trial","247","1211341","0.0-137.0-0.0","656.7999999821186","","","","51","1,0,0","2","mountain","84","probe-57","0.5925286754287575","0.0903771488668421","0.5221151289259509","0","","","","","","","",""
"","html-keyboard-response","248","1212342","0.0-137.0-1.0","null","<p></p>","null","","","","","","","","","","","","","","","","","","",""
"","do_trial","249","1216990","0.0-138.0-0.0","125","","","","51","0,0,0","2","mountain","85","probe-47","0.5881074465679764","0.0708711192944404","0.5105348179762712","0","","","","","","","",""
"","html-keyboard-response","250","1217991","0.0-138.0-1.0","null","<p></p>","null","","","","","","","","","","","","","","","","","","",""
"","do_trial","251","1222586","0.0-139.0-0.0","71.7999999821186","","","","49","1,0,1","2","mountain","86","probe-212","0.7291452599054238","0.13128791220684638","0.3702215934771879","1","","","","","","","",""
"","html-keyboard-response","252","1223587","0.0-139.0-1.0","null","<p></p>","null","","","","","","","","","","","","","","","","","","",""
"","do_trial","253","1228150","0.0-140.0-0.0","40.400000005960464","","","","49","1,0,1","2","mountain","87","probe-08","0.6255744318587021","0.0525992203596282","0.43327315961083296","1","","","","","","","",""
"","html-keyboard-response","254","1229152","0.0-140.0-1.0","null","<p></p>","null","","","","","","","","","","","","","","","","","","",""
"","do_trial","255","1233777","0.0-141.0-0.0","97.59999999403954","","","","49","1,0,1","2","mountain","88","probe-99","0.5369407987327292","0.06947929266513317","0.5012488651293283","1","","","","","","","",""
"","html-keyboard-response","256","1234780","0.0-141.0-1.0","null","<p></p>","null","","","","","","","","","","","","","","","","","","",""
"","do_trial","257","1239305","0.0-142.0-0.0","2.800000011920929","","","","49","1,0,0","2","mountain","89","probe-134","0.4324666357288301","0.05206135172844191","0.2950843017443626","1","","","","","","","",""
"","html-keyboard-response","258","1240306","0.0-142.0-1.0","null","<p></p>","null","","","","","","","","","","","","","","","","","","",""
"","do_trial","259","1244846","0.0-143.0-0.0","17.900000005960464","","","","49","0,0,0","2","mountain","90","probe-156","0.4850035384841869","0.09808067814164542","0.3459118291589589","0","","","","","","","",""
"","html-keyboard-response","260","1245847","0.0-143.0-1.0","null","<p></p>","null","","","","","","","","","","","","","","","","","","",""
"","do_trial","261","1250457","0.0-144.0-0.0","86.89999997615814","","","","49","1,0,1","2","mountain","91","probe-106","0.5193710654228941","0.1849745778511743","0.4351012844039074","1","","","","","","","",""
"","html-keyboard-response","262","1251461","0.0-144.0-1.0","null","<p></p>","null","","","","","","","","","","","","","","","","","","",""
"","do_trial","263","1256063","0.0-145.0-0.0","76.19999998807907","","","","49","0,0,0","2","mountain","92","probe-50","0.6236287614548373","0.14440552165388199","0.3794456335470984","0","","","","","","","",""
"","html-keyboard-response","264","1257077","0.0-145.0-1.0","null","<p></p>","null","","","","","","","","","","","","","","","","","","",""
"","do_trial","265","1261625","0.0-146.0-0.0","25.299999982118607","","","","49","1,0,0","2","mountain","93","probe-142","0.4633059524629568","0.10433282974434098","0.4000920308611516","1","","","","","","","",""
"","html-keyboard-response","266","1262626","0.0-146.0-1.0","null","<p></p>","null","","","","","","","","","","","","","","","","","","",""
"","do_trial","267","1267267","0.0-147.0-0.0","116.7000000178814","","","","49","1,0,1","2","mountain","94","probe-200","0.4943343723387338","0.07903131646006273","0.4293882201711027","1","","","","","","","",""
"","html-keyboard-response","268","1268269","0.0-147.0-1.0","null","<p></p>","null","","","","","","","","","","","","","","","","","","",""
"","do_trial","269","1272923","0.0-148.0-0.0","131.30000001192093","","","","49","0,0,0","2","mountain","95","probe-67","0.5575131748365971","0.06883983210229387","0.3847598419007258","0","","","","","","","",""
"","html-keyboard-response","270","1273925","0.0-148.0-1.0","null","<p></p>","null","","","","","","","","","","","","","","","","","","",""
"","do_trial","271","1278489","0.0-149.0-0.0","41","","","","49","1,0,0","2","mountain","96","probe-81","0.6938412909650055","0.05238744444585469","0.3807309053096388","1","","","","","","","",""
"","html-keyboard-response","272","1279491","0.0-149.0-1.0","null","<p></p>","null","","","","","","","","","","","","","","","","","","",""
"","do_trial","273","1284075","0.0-150.0-0.0","59.79999998211861","","","","49","0,0,0","2","mountain","97","probe-82","0.5538751929644272","0.08137229490763347","0.41668639898093063","0","","","","","","","",""
"","html-keyboard-response","274","1285077","0.0-150.0-1.0","null","<p></p>","null","","","","","","","","","","","","","","","","","","",""
"","do_trial","275","1289770","0.0-151.0-0.0","170.90000000596046","","","","49","1,0,1","2","mountain","98","probe-107","0.6842038610806555","0.09962741814004372","0.35363007031297267","1","","","","","","","",""
"","html-keyboard-response","276","1290772","0.0-151.0-1.0","null","<p></p>","null","","","","","","","","","","","","","","","","","","",""
"","do_trial","277","1295346","0.0-152.0-0.0","52.39999997615814","","","","49","0,0,0","2","mountain","99","probe-145","0.6346164648133817","0.23634261796884704","0.24716930690581743","0","","","","","","","",""
"","html-keyboard-response","278","1296349","0.0-152.0-1.0","null","<p></p>","null","","","","","","","","","","","","","","","","","","",""
"","do_trial","279","1300906","0.0-153.0-0.0","34.29999998211861","","","","49","0,0,1","2","mountain","100","probe-39","0.5993651148369953","0.22988399532906612","0.46351923057631267","0","","","","","","","",""
"","html-keyboard-response","280","1301909","0.0-153.0-1.0","null","<p></p>","null","","","","","","","","","","","","","","","","","","",""
"","do_trial","281","1306534","0.0-154.0-0.0","102.5","","","","49","1,0,1","2","mountain","101","probe-07","0.7210464833767651","0.16114292399342334","0.45733269861440407","1","","","","","","","",""
"","html-keyboard-response","282","1307536","0.0-154.0-1.0","null","<p></p>","null","","","","","","","","","","","","","","","","","","",""
"","do_trial","283","1312409","0.0-155.0-0.0","351.5","","","","49","1,0,1","2","mountain","102","probe-157","0.783369245682252","0.13460138944044694","0.42371435383748834","1","","","","","","","",""
"","html-keyboard-response","284","1313410","0.0-155.0-1.0","null","<p></p>","null","","","","","","","","","","","","","","","","","","",""
"","do_trial","285","1318062","0.0-156.0-0.0","128.80000001192093","","","","49","1,0,1","2","mountain","103","probe-161","0.8296162699378734","0.06784235209315549","0.3889647495362044","1","","","","","","","",""
"","html-keyboard-response","286","1319063","0.0-156.0-1.0","null","<p></p>","null","","","","","","","","","","","","","","","","","","",""
"","do_trial","287","1323663","0.0-157.0-0.0","77.09999999403954","","","","49","1,0,0","2","mountain","104","probe-114","0.6909834308304227","0.06303861002465913","0.32104027057938256","1","","","","","","","",""
"","html-keyboard-response","288","1324664","0.0-157.0-1.0","null","<p></p>","null","","","","","","","","","","","","","","","","","","",""
"","do_trial","289","1329232","0.0-158.0-0.0","45.30000001192093","","","","49","1,1,1","2","mountain","105","probe-220","0.6317818250732556","0.07406609162719915","0.499287808768246","1","","","","","","","",""
"","html-keyboard-response","290","1330234","0.0-158.0-1.0","null","<p></p>","null","","","","","","","","","","","","","","","","","","",""
"","do_trial","291","1334784","0.0-159.0-0.0","27.299999982118607","","","","49","1,0,1","2","mountain","106","probe-94","0.759142740784648","0.08062087768506902","0.5683655516359218","1","","","","","","","",""
"","html-keyboard-response","292","1335786","0.0-159.0-1.0","null","<p></p>","null","","","","","","","","","","","","","","","","","","",""
"","do_trial","293","1340393","0.0-160.0-0.0","84.69999998807907","","","","49","1,1,0","2","mountain","107","probe-136","0.8032192196867992","0.10941654054737336","0.36142305668459207","1","","","","","","","",""
"","html-keyboard-response","294","1341394","0.0-160.0-1.0","null","<p></p>","null","","","","","","","","","","","","","","","","","","",""
"","do_trial","295","1345976","0.0-161.0-0.0","57","","","","49","1,0,1","2","mountain","108","probe-120","0.8235271127602449","0.09240047940934776","0.32832594360185186","1","","","","","","","",""
"","html-keyboard-response","296","1346977","0.0-161.0-1.0","null","<p></p>","null","","","","","","","","","","","","","","","","","","",""
"","do_trial","297","1351636","0.0-162.0-0.0","135.90000000596046","","","","49","1,0,0","2","mountain","109","probe-122","0.6923941248464194","0.14544730596331232","0.13063859908084335","1","","","","","","","",""
"","html-keyboard-response","298","1352637","0.0-162.0-1.0","null","<p></p>","null","","","","","","","","","","","","","","","","","","",""
"","do_bye","299","1354141","0.0-163.0-0.0","null","","","","null","","","","","","","","","","","","","","","","",""
"","do_travel","300","1360142","0.0-164.0-0.0","null","","","","null","","","","","","","","","","","","","","","","",""
"","do_welcome","301","1361645","0.0-164.0-1.0","null","","","","null","","","","","","","","","","","","","","","","",""
"","do_trial","302","1366255","0.0-165.0-0.0","86.30000001192093","","","","49","1,0,0","3","city","110","probe-30","1","0.12166185273455211","0.08109342021819935","1","","","","","","","",""
"","html-keyboard-response","303","1367257","0.0-165.0-1.0","null","<p></p>","null","","","","","","","","","","","","","","","","","","",""
"","do_trial","304","1372182","0.0-166.0-0.0","399.7000000178814","","","","49","1,0,0","3","city","111","probe-150","1","0.16144917024549632","0.2509634096116805","1","","","","","","","",""
"","html-keyboard-response","305","1373184","0.0-166.0-1.0","null","<p></p>","null","","","","","","","","","","","","","","","","","","",""
"","do_trial","306","1377794","0.0-167.0-0.0","87.59999999403954","","","","49","1,0,1","3","city","112","probe-87","0.889944961422738","0.1320490318947591","0.10072559136555188","1","","","","","","","",""
"","html-keyboard-response","307","1378796","0.0-167.0-1.0","null","<p></p>","null","","","","","","","","","","","","","","","","","","",""
"","do_trial","308","1383452","0.0-168.0-0.0","133","","","","49","1,1,1","3","city","113","probe-135","0.7980326298024946","0.15271935250538193","0.19325730311447653","1","","","","","","","",""
"","html-keyboard-response","309","1384454","0.0-168.0-1.0","null","<p></p>","null","","","","","","","","","","","","","","","","","","",""
"","do_trial","310","1389200","0.0-169.0-0.0","223.59999999403954","","","","49","0,0,0","3","city","114","probe-185","0.7383598533289283","0.061764413397268354","0.3553278664414779","0","","","","","","","",""
"","html-keyboard-response","311","1390201","0.0-169.0-1.0","null","<p></p>","null","","","","","","","","","","","","","","","","","","",""
"","do_trial","312","1394818","0.0-170.0-0.0","94","","","","49","0,0,0","3","city","115","probe-143","0.70457961854973","0.12128446052314602","0.28998111155576983","0","","","","","","","",""
"","html-keyboard-response","313","1395821","0.0-170.0-1.0","null","<p></p>","null","","","","","","","","","","","","","","","","","","",""
"","do_trial","314","1400360","0.0-171.0-0.0","12","","","","49","1,0,1","3","city","116","probe-38","0.6744191023701881","0.11073186924070698","0.411546169004881","1","","","","","","","",""
"","html-keyboard-response","315","1401361","0.0-171.0-1.0","null","<p></p>","null","","","","","","","","","","","","","","","","","","",""
"","do_trial","316","1406115","0.0-172.0-0.0","231.90000000596046","","","","49","1,1,0","3","city","117","probe-138","0.5793474433909604","0.11570255808279441","0.4283314990564502","1","","","","","","","",""
"","html-keyboard-response","317","1407117","0.0-172.0-1.0","null","<p></p>","null","","","","","","","","","","","","","","","","","","",""
"","do_trial","318","1411675","0.0-173.0-0.0","35.900000005960464","","","","49","1,0,0","3","city","118","probe-72","0.5481386914940518","0.14538977093560937","0.4581145590599656","1","","","","","","","",""
"","html-keyboard-response","319","1412677","0.0-173.0-1.0","null","<p></p>","null","","","","","","","","","","","","","","","","","","",""
"","do_trial","320","1417366","0.0-174.0-0.0","166.09999999403954","","","","49","0,0,0","3","city","119","probe-194","0.4713533447705978","0.19548240915360096","0.4639120635852112","0","","","","","","","",""
"","html-keyboard-response","321","1418375","0.0-174.0-1.0","null","<p></p>","null","","","","","","","","","","","","","","","","","","",""
"","do_trial","322","1422978","0.0-175.0-0.0","77.40000000596046","","","","49","0,0,1","3","city","120","probe-109","0.4312240177418426","0.23024347805889314","0.4391926732419049","0","","","","","","","",""
"","html-keyboard-response","323","1423980","0.0-175.0-1.0","null","<p></p>","null","","","","","","","","","","","","","","","","","","",""
"","do_trial","324","1428514","0.0-176.0-0.0","10.900000005960464","","","","49","0,1,1","3","city","121","probe-103","0.4408089097950112","0.23991108482220871","0.6627651468644798","0","","","","","","","",""
"","html-keyboard-response","325","1429516","0.0-176.0-1.0","null","<p></p>","null","","","","","","","","","","","","","","","","","","",""
"","do_trial","326","1434236","0.0-177.0-0.0","197.59999999403954","","","","49","0,1,1","3","city","122","probe-03","0.4217314334613898","0.3748555271165328","0.565621475300476","0","","","","","","","",""
"","html-keyboard-response","327","1435238","0.0-177.0-1.0","null","<p></p>","null","","","","","","","","","","","","","","","","","","",""
"","do_trial","328","1439784","0.0-178.0-0.0","22.900000005960464","","","","49","1,0,0","3","city","123","probe-22","0.34882256681513674","0.4881955536919469","0.504311110359581","1","","","","","","","",""
"","html-keyboard-response","329","1440790","0.0-178.0-1.0","null","<p></p>","null","","","","","","","","","","","","","","","","","","",""
"","do_trial","330","1445481","0.0-179.0-0.0","168.09999999403954","","","","49","1,0,0","3","city","124","probe-170","0.36617450366129406","0.5871835054963152","0.24814932469373713","1","","","","","","","",""
"","html-keyboard-response","331","1446482","0.0-179.0-1.0","null","<p></p>","null","","","","","","","","","","","","","","","","","","",""
"","do_trial","332","1451114","0.0-180.0-0.0","109.19999998807907","","","","49","0,0,0","3","city","125","probe-16","0.38382965525511986","0.5158332297905744","0.40912506817563327","0","","","","","","","",""
"","html-keyboard-response","333","1452115","0.0-180.0-1.0","null","<p></p>","null","","","","","","","","","","","","","","","","","","",""
"","do_trial","334","1456805","0.0-181.0-0.0","167.59999999403954","","","","49","1,0,0","3","city","126","probe-63","0.2373308736765691","0.5473291437208991","0.2525084604663996","1","","","","","","","",""
"","html-keyboard-response","335","1457807","0.0-181.0-1.0","null","<p></p>","null","","","","","","","","","","","","","","","","","","",""
"","do_trial","336","1462512","0.0-182.0-0.0","182.19999998807907","","","","49","0,0,0","3","city","127","probe-55","0.11975783780689564","0.6527562910068369","0.2745545546146351","0","","","","","","","",""
"","html-keyboard-response","337","1463513","0.0-182.0-1.0","null","<p></p>","null","","","","","","","","","","","","","","","","","","",""
"","do_trial","338","1468143","0.0-183.0-0.0","108.2999999821186","","","","49","0,1,0","3","city","128","probe-124","0.12862429117180751","0.7111212445421157","0.317647393269266","0","","","","","","","",""
"","html-keyboard-response","339","1469144","0.0-183.0-1.0","null","<p></p>","null","","","","","","","","","","","","","","","","","","",""
"","do_trial","340","1473898","0.0-184.0-0.0","231.59999999403954","","","","49","0,1,0","3","city","129","probe-59","0.1231473245957039","0.6375263701518488","0.07850923259972457","0","","","","","","","",""
"","html-keyboard-response","341","1474900","0.0-184.0-1.0","null","<p></p>","null","","","","","","","","","","","","","","","","","","",""
"","do_trial","342","1479634","0.0-185.0-0.0","211.2999999821186","","","","49","1,1,0","3","city","130","probe-225","0.14542016579041891","0.6341761529530928","0.18049105225019862","1","","","","","","","",""
"","html-keyboard-response","343","1480635","0.0-185.0-1.0","null","<p></p>","null","","","","","","","","","","","","","","","","","","",""
"","do_trial","344","1485208","0.0-186.0-0.0","50.099999994039536","","","","49","0,1,0","3","city","131","probe-193","0.10044211939599458","0.7050208273377224","0.14540273427464498","0","","","","","","","",""
"","html-keyboard-response","345","1486210","0.0-186.0-1.0","null","<p></p>","null","","","","","","","","","","","","","","","","","","",""
"","do_trial","346","1490851","0.0-187.0-0.0","118.5","","","","49","0,1,0","3","city","132","probe-128","0.12363563865499963","0.7317537841252676","0.22830890247999272","0","","","","","","","",""
"","html-keyboard-response","347","1491853","0.0-187.0-1.0","null","<p></p>","null","","","","","","","","","","","","","","","","","","",""
"","do_trial","348","1496739","0.0-188.0-0.0","365.59999999403954","","","","49","0,0,0","3","city","133","probe-108","0.1162166098636136","0.6480807421114098","0.1567790633438813","0","","","","","","","",""
"","html-keyboard-response","349","1497740","0.0-188.0-1.0","null","<p></p>","null","","","","","","","","","","","","","","","","","","",""
"","do_trial","350","1502263","0.0-189.0-0.0","0","","","","49","0,1,1","3","city","134","probe-147","0.08785339856232822","0.5781989591711099","0.2211335701599425","0","","","","","","","",""
"","html-keyboard-response","351","1503264","0.0-189.0-1.0","null","<p></p>","null","","","","","","","","","","","","","","","","","","",""
"","do_trial","352","1508842","0.0-190.0-0.0","1055.2999999821186","","","","49","0,1,0","3","city","135","probe-96","0.060056729582476216","0.5660321554952177","0.22286005418861607","0","","","","","","","",""
"","html-keyboard-response","353","1509845","0.0-190.0-1.0","null","<p></p>","null","","","","","","","","","","","","","","","","","","",""
"","do_trial","354","1514536","0.0-191.0-0.0","169.40000000596046","","","","51","0,1,1","3","city","136","probe-153","0.17459991853094814","0.6220310889535837","0.27450848530514016","1","","","","","","","",""
"","html-keyboard-response","355","1515538","0.0-191.0-1.0","null","<p></p>","null","","","","","","","","","","","","","","","","","","",""
"","do_trial","356","1520064","0.0-192.0-0.0","3.199999988079071","","","","51","0,1,0","3","city","137","probe-74","0.1337208007105458","0.6565308781203189","0.1314318886665525","0","","","","","","","",""
"","html-keyboard-response","357","1521065","0.0-192.0-1.0","null","<p></p>","null","","","","","","","","","","","","","","","","","","",""
"","do_trial","358","1525620","0.0-193.0-0.0","33.19999998807907","","","","51","0,1,0","3","city","138","probe-196","0.07342247805247555","0.6069408116023375","0.14916857038117892","0","","","","","","","",""
"","html-keyboard-response","359","1526622","0.0-193.0-1.0","null","<p></p>","null","","","","","","","","","","","","","","","","","","",""
"","do_trial","360","1531328","0.0-194.0-0.0","181.5","","","","51","0,1,0","3","city","139","probe-33","0.1831223614844028","0.5548827369241768","0.1345126673665342","0","","","","","","","",""
"","html-keyboard-response","361","1532331","0.0-194.0-1.0","null","<p></p>","null","","","","","","","","","","","","","","","","","","",""
"","do_trial","362","1537004","0.0-195.0-0.0","149.90000000596046","","","","50","0,1,0","3","city","140","probe-27","0.1546428628213309","0.5321584129019119","0.11425264889990815","1","","","","","","","",""
"","html-keyboard-response","363","1538005","0.0-195.0-1.0","null","<p></p>","null","","","","","","","","","","","","","","","","","","",""
"","do_trial","364","1542588","0.0-196.0-0.0","61.10000002384186","","","","50","0,0,0","3","city","141","probe-171","0.11067787019645549","0.5004389660080335","0.2781519034618941","0","","","","","","","",""
"","html-keyboard-response","365","1543589","0.0-196.0-1.0","null","<p></p>","null","","","","","","","","","","","","","","","","","","",""
"","do_trial","366","1548303","0.0-197.0-0.0","190","","","","50","0,1,0","3","city","142","probe-10","0.12287233267281522","0.5367258401328882","0.35007900205820747","1","","","","","","","",""
"","html-keyboard-response","367","1549305","0.0-197.0-1.0","null","<p></p>","null","","","","","","","","","","","","","","","","","","",""
"","do_trial","368","1554026","0.0-198.0-0.0","199.40000000596046","","","","50","0,0,0","3","city","143","probe-165","0.08783141338077789","0.5976529257266934","0.25251362331025506","0","","","","","","","",""
"","html-keyboard-response","369","1555028","0.0-198.0-1.0","null","<p></p>","null","","","","","","","","","","","","","","","","","","",""
"","do_trial","370","1559704","0.0-199.0-0.0","153","","","","50","0,1,1","3","city","144","probe-228","0.16195909813769155","0.6055322877190283","0.27947979393424954","1","","","","","","","",""
"","html-keyboard-response","371","1560706","0.0-199.0-1.0","null","<p></p>","null","","","","","","","","","","","","","","","","","","",""
"","do_trial","372","1565564","0.0-200.0-0.0","335.30000001192093","","","","50","0,0,0","3","city","145","probe-14","0.21521393686858883","0.4980105770656914","0.2494102877445297","0","","","","","","","",""
"","html-keyboard-response","373","1566568","0.0-200.0-1.0","null","<p></p>","null","","","","","","","","","","","","","","","","","","",""
"","do_trial","374","1571349","0.0-201.0-0.0","258.69999998807907","","","","50","0,1,0","3","city","146","probe-115","0.06008750590613655","0.4831346764204526","0.3543464144813669","1","","","","","","","",""
"","html-keyboard-response","375","1572350","0.0-201.0-1.0","null","<p></p>","null","","","","","","","","","","","","","","","","","","",""
"","do_trial","376","1576953","0.0-202.0-0.0","80.40000000596046","","","","50","0,1,0","3","city","147","probe-159","0.0672070251123409","0.5726455954114293","0.3941749344869146","1","","","","","","","",""
"","html-keyboard-response","377","1577955","0.0-202.0-1.0","null","<p></p>","null","","","","","","","","","","","","","","","","","","",""
"","do_trial","378","1582768","0.0-203.0-0.0","290.80000001192093","","","","50","0,1,0","3","city","148","probe-60","0.16625389265507323","0.4651184308321304","0.24854676873293663","1","","","","","","","",""
"","html-keyboard-response","379","1583769","0.0-203.0-1.0","null","<p></p>","null","","","","","","","","","","","","","","","","","","",""
"","do_trial","380","1588578","0.0-204.0-0.0","285.89999997615814","","","","50","0,1,0","3","city","149","probe-61","0.07367377678269721","0.6348934632769762","0.3744234362675599","1","","","","","","","",""
"","html-keyboard-response","381","1589580","0.0-204.0-1.0","null","<p></p>","null","","","","","","","","","","","","","","","","","","",""
"","do_bye","382","1591085","0.0-205.0-0.0","null","","","","null","","","","","","","","","","","","","","","","",""
"","do_travel","383","1597086","0.0-206.0-0.0","null","","","","null","","","","","","","","","","","","","","","","",""
"","do_welcome","384","1598589","0.0-206.0-1.0","null","","","","null","","","","","","","","","","","","","","","","",""
"","do_trial","385","1604418","0.0-207.0-0.0","1306.5","","","","49","0,1,0","4","forest","150","probe-71","0.1406609660318012","1","0.3100052620174985","0","","","","","","","",""
"","html-keyboard-response","386","1605421","0.0-207.0-1.0","null","<p></p>","null","","","","","","","","","","","","","","","","","","",""
"","do_trial","387","1610124","0.0-208.0-0.0","179.30000001192093","","","","49","1,1,0","4","forest","151","probe-230","0.14795060673888033","1","0.3564849196068512","1","","","","","","","",""
"","html-keyboard-response","388","1611125","0.0-208.0-1.0","null","<p></p>","null","","","","","","","","","","","","","","","","","","",""
"","do_trial","389","1615834","0.0-209.0-0.0","186","","","","49","1,0,0","4","forest","152","probe-58","0.26495646161986136","0.9289541727610297","0.19473418382780408","1","","","","","","","",""
"","html-keyboard-response","390","1616836","0.0-209.0-1.0","null","<p></p>","null","","","","","","","","","","","","","","","","","","",""
"","do_trial","391","1621429","0.0-210.0-0.0","70.59999999403954","","","","49","0,1,1","4","forest","153","probe-211","0.3698749704943943","0.760277249141878","0.18629026838498913","0","","","","","","","",""
"","html-keyboard-response","392","1622431","0.0-210.0-1.0","null","<p></p>","null","","","","","","","","","","","","","","","","","","",""
"","do_trial","393","1627023","0.0-211.0-0.0","71.69999998807907","","","","49","1,1,1","4","forest","154","probe-45","0.18202041977245123","0.6117624861902575","0.2730594183162843","1","","","","","","","",""
"","html-keyboard-response","394","1628025","0.0-211.0-1.0","null","<p></p>","null","","","","","","","","","","","","","","","","","","",""
"","do_trial","395","1632627","0.0-212.0-0.0","79.5","","","","49","0,1,0","4","forest","155","probe-01","0.14902485218946937","0.7661842471887756","0.33369817322125256","0","","","","","","","",""
"","html-keyboard-response","396","1633628","0.0-212.0-1.0","null","<p></p>","null","","","","","","","","","","","","","","","","","","",""
"","do_trial","397","1638171","0.0-213.0-0.0","18.900000005960464","","","","49","0,1,1","4","forest","156","probe-56","0.1620572965592377","0.7904292846881675","0.2979534672129627","0","","","","","","","",""
"","html-keyboard-response","398","1639172","0.0-213.0-1.0","null","<p></p>","null","","","","","","","","","","","","","","","","","","",""
"","do_trial","399","1643800","0.0-214.0-0.0","93.40000000596046","","","","50","0,1,0","4","forest","157","probe-224","0.11310068160897625","0.6970226709493211","0.30427610349564316","1","","","","","","","",""
"","html-keyboard-response","400","1644802","0.0-214.0-1.0","null","<p></p>","null","","","","","","","","","","","","","","","","","","",""
"","do_trial","401","1649454","0.0-215.0-0.0","129.2000000178814","","","","50","0,1,0","4","forest","158","probe-151","0.15823177604939695","0.589404188224354","0.37162943877786797","1","","","","","","","",""
"","html-keyboard-response","402","1650455","0.0-215.0-1.0","null","<p></p>","null","","","","","","","","","","","","","","","","","","",""
"","do_trial","403","1655094","0.0-216.0-0.0","111.09999999403954","","","","50","0,1,0","4","forest","159","probe-13","0.06260820074199282","0.6226997726809496","0.3126793246516957","1","","","","","","","",""
"","html-keyboard-response","404","1656095","0.0-216.0-1.0","null","<p></p>","null","","","","","","","","","","","","","","","","","","",""
"","do_trial","405","1660761","0.0-217.0-0.0","144.19999998807907","","","","50","1,1,0","4","forest","160","probe-78","0.1733102515336057","0.6688913373269881","0.37580394501627873","1","","","","","","","",""
"","html-keyboard-response","406","1661763","0.0-217.0-1.0","null","<p></p>","null","","","","","","","","","","","","","","","","","","",""
"","do_trial","407","1666416","0.0-218.0-0.0","129.7000000178814","","","","50","0,1,1","4","forest","161","probe-162","0.16259342279065692","0.6263543586111224","0.344577149463513","1","","","","","","","",""
"","html-keyboard-response","408","1667417","0.0-218.0-1.0","null","<p></p>","null","","","","","","","","","","","","","","","","","","",""
"","do_trial","409","1672182","0.0-219.0-0.0","243","","","","50","0,1,0","4","forest","162","probe-123","0.08865970493235054","0.6748220823328361","0.41729269321154183","1","","","","","","","",""
"","html-keyboard-response","410","1673183","0.0-219.0-1.0","null","<p></p>","null","","","","","","","","","","","","","","","","","","",""
"","do_trial","411","1678079","0.0-220.0-0.0","374.19999998807907","","","","50","0,0,0","4","forest","163","probe-133","0.07410262075495044","0.4130437517999727","0.4545780161136417","0","","","","","","","",""
"","html-keyboard-response","412","1679080","0.0-220.0-1.0","null","<p></p>","null","","","","","","","","","","","","","","","","","","",""
"","do_trial","413","1683628","0.0-221.0-0.0","24.599999994039536","","","","50","1,0,1","4","forest","164","probe-191","0.1674951308925754","0.32318324131934256","0.45444891254415853","0","","","","","","","",""
"","html-keyboard-response","414","1684629","0.0-221.0-1.0","null","<p></p>","null","","","","","","","","","","","","","","","","","","",""
"","do_trial","415","1689166","0.0-222.0-0.0","14.300000011920929","","","","50","1,1,0","4","forest","165","probe-76","0.13920414675415413","0.38682727332390143","0.4437178980011758","1","","","","","","","",""
"","html-keyboard-response","416","1690168","0.0-222.0-1.0","null","<p></p>","null","","","","","","","","","","","","","","","","","","",""
"","do_trial","417","1694720","0.0-223.0-0.0","28.80000001192093","","","","50","0,1,1","4","forest","166","probe-132","0.12364268767320825","0.38047109846609944","0.5249725096325822","1","","","","","","","",""
"","html-keyboard-response","418","1695722","0.0-223.0-1.0","null","<p></p>","null","","","","","","","","","","","","","","","","","","",""
"","do_trial","419","1700333","0.0-224.0-0.0","89.90000000596046","","","","50","1,1,1","4","forest","167","probe-205","0.1263056676808162","0.3296855199757813","0.6698751230884099","1","","","","","","","",""
"","html-keyboard-response","420","1701335","0.0-224.0-1.0","null","<p></p>","null","","","","","","","","","","","","","","","","","","",""
"","do_trial","421","1705968","0.0-225.0-0.0","111","","","","50","0,0,1","4","forest","168","probe-158","0.3084378320116143","0.30844975996784674","0.7077745656129288","0","","","","","","","",""
"","html-keyboard-response","422","1706969","0.0-225.0-1.0","null","<p></p>","null","","","","","","","","","","","","","","","","","","",""
"","do_trial","423","1711686","0.0-226.0-0.0","193.59999999403954","","","","50","0,0,1","4","forest","169","probe-113","0.20864141448448992","0.3079159480219821","0.7311428694031021","0","","","","","","","",""
"","html-keyboard-response","424","1712688","0.0-226.0-1.0","null","<p></p>","null","","","","","","","","","","","","","","","","","","",""
"","do_trial","425","1717328","0.0-227.0-0.0","118","","","","50","0,0,1","4","forest","170","probe-69","0.20103092395694","0.24863367256849842","0.6672447446138478","0","","","","","","","",""
"","html-keyboard-response","426","1718330","0.0-227.0-1.0","null","<p></p>","null","","","","","","","","","","","","","","","","","","",""
"","do_trial","427","1722965","0.0-228.0-0.0","112.80000001192093","","","","51","0,0,1","4","forest","171","probe-127","0.14797252496114394","0.2543165108946869","0.8675537387649804","1","","","","","","","",""
"","html-keyboard-response","428","1723966","0.0-228.0-1.0","null","<p></p>","null","","","","","","","","","","","","","","","","","","",""
"","do_trial","429","1728615","0.0-229.0-0.0","124.69999998807907","","","","51","0,0,0","4","forest","172","probe-152","0.052094608198145646","0.11360026209963815","0.7543235520360727","0","","","","","","","",""
"","html-keyboard-response","430","1729617","0.0-229.0-1.0","null","<p></p>","null","","","","","","","","","","","","","","","","","","",""
"","do_trial","431","1734242","0.0-230.0-0.0","104.30000001192093","","","","49","0,0,0","4","forest","173","probe-137","0.2438101315524517","0.1552016598284499","0.5205433498933044","0","","","","","","","",""
"","html-keyboard-response","432","1735243","0.0-230.0-1.0","null","<p></p>","null","","","","","","","","","","","","","","","","","","",""
"","do_trial","433","1739848","0.0-231.0-0.0","82.7999999821186","","","","50","0,0,1","4","forest","174","probe-53","0.08256920594995544","0.2733318652167735","0.5108506897209905","0","","","","","","","",""
"","html-keyboard-response","434","1740850","0.0-231.0-1.0","null","<p></p>","null","","","","","","","","","","","","","","","","","","",""
"","do_trial","435","1745381","0.0-232.0-0.0","7.800000011920929","","","","50","0,0,0","4","forest","175","probe-68","0.11109793921543318","0.3849079627873634","0.5780818064047846","0","","","","","","","",""
"","html-keyboard-response","436","1746383","0.0-232.0-1.0","null","<p></p>","null","","","","","","","","","","","","","","","","","","",""
"","do_trial","437","1750992","0.0-233.0-0.0","86.19999998807907","","","","51","0,0,1","4","forest","176","probe-149","0.06956712759981956","0.31410472051190325","0.7468546841664471","1","","","","","","","",""
"","html-keyboard-response","438","1751994","0.0-233.0-1.0","null","<p></p>","null","","","","","","","","","","","","","","","","","","",""
"","do_trial","439","1756517","0.0-234.0-0.0","0.20000001788139343","","","","51","0,1,1","4","forest","177","probe-167","0.08957872878582641","0.3426083553993505","0.4846806936745297","1","","","","","","","",""
"","html-keyboard-response","440","1757519","0.0-234.0-1.0","null","<p></p>","null","","","","","","","","","","","","","","","","","","",""
"","do_trial","441","1762046","0.0-235.0-0.0","5.200000017881393","","","","51","0,1,0","4","forest","178","probe-34","0.061308702485812126","0.4762255851729286","0.5553283193904663","0","","","","","","","",""
"","html-keyboard-response","442","1763048","0.0-235.0-1.0","null","<p></p>","null","","","","","","","","","","","","","","","","","","",""
"","do_trial","443","1767678","0.0-236.0-0.0","108.5","","","","51","0,1,1","4","forest","179","probe-105","0.06363628737598781","0.42339778535672246","0.48260149510783307","1","","","","","","","",""
"","html-keyboard-response","444","1768680","0.0-236.0-1.0","null","<p></p>","null","","","","","","","","","","","","","","","","","","",""
"","do_trial","445","1773428","0.0-237.0-0.0","225.7000000178814","","","","51","0,0,1","4","forest","180","probe-179","0.08287519015665475","0.28405024768242504","0.3815362637386425","1","","","","","","","",""
"","html-keyboard-response","446","1774443","0.0-237.0-1.0","null","<p></p>","null","","","","","","","","","","","","","","","","","","",""
"","do_trial","447","1778981","0.0-238.0-0.0","14.599999994039536","","","","51","0,0,0","4","forest","181","probe-25","0.08642403799707371","0.20237640900251094","0.5086720217489544","0","","","","","","","",""
"","html-keyboard-response","448","1779982","0.0-238.0-1.0","null","<p></p>","null","","","","","","","","","","","","","","","","","","",""
"","do_trial","449","1784505","0.0-239.0-0.0","0.20000001788139343","","","","51","0,0,0","4","forest","182","probe-119","0.12082926208847002","0.19954887339044547","0.6597378372453323","0","","","","","","","",""
"","html-keyboard-response","450","1785507","0.0-239.0-1.0","null","<p></p>","null","","","","","","","","","","","","","","","","","","",""
"","do_trial","451","1790237","0.0-240.0-0.0","207","","","","50","0,0,1","4","forest","183","probe-77","0.1530771812074627","0.12667455457844715","0.7808570821566534","0","","","","","","","",""
"","html-keyboard-response","452","1791238","0.0-240.0-1.0","null","<p></p>","null","","","","","","","","","","","","","","","","","","",""
"","do_trial","453","1795938","0.0-241.0-0.0","176.7999999821186","","","","51","0,1,0","4","forest","184","probe-187","0.09451082736611945","0.20209874067067798","0.6518085131087562","0","","","","","","","",""
"","html-keyboard-response","454","1796939","0.0-241.0-1.0","null","<p></p>","null","","","","","","","","","","","","","","","","","","",""
"","do_trial","455","1801666","0.0-242.0-0.0","204.40000000596046","","","","51","0,0,1","4","forest","185","probe-125","0.0864087609053595","0.21488367549651563","0.7985761534695516","1","","","","","","","",""
"","html-keyboard-response","456","1802668","0.0-242.0-1.0","null","<p></p>","null","","","","","","","","","","","","","","","","","","",""
"","do_trial","457","1807402","0.0-243.0-0.0","211.7999999821186","","","","51","0,1,0","4","forest","186","probe-129","0.21668967487660007","0.32510603174375546","0.7605199360457892","0","","","","","","","",""
"","html-keyboard-response","458","1808404","0.0-243.0-1.0","null","<p></p>","null","","","","","","","","","","","","","","","","","","",""
"","do_trial","459","1812987","0.0-244.0-0.0","60.20000001788139","","","","51","0,0,1","4","forest","187","probe-208","0.11211448201469834","0.35084926523103854","0.7712418386467075","1","","","","","","","",""
"","html-keyboard-response","460","1813989","0.0-244.0-1.0","null","<p></p>","null","","","","","","","","","","","","","","","","","","",""
"","do_trial","461","1818705","0.0-245.0-0.0","193.40000000596046","","","","51","0,0,0","4","forest","188","probe-88","0.18219671048878058","0.3438289641223615","0.5999928046049989","0","","","","","","","",""
"","html-keyboard-response","462","1819706","0.0-245.0-1.0","null","<p></p>","null","","","","","","","","","","","","","","","","","","",""
"","do_trial","463","1824262","0.0-246.0-0.0","33.599999994039536","","","","51","0,0,1","4","forest","189","probe-40","0.2572666460219643","0.36948019698101375","0.5755242087424283","1","","","","","","","",""
"","html-keyboard-response","464","1825264","0.0-246.0-1.0","null","<p></p>","null","","","","","","","","","","","","","","","","","","",""
"","do_bye","465","1826767","0.0-247.0-0.0","null","","","","null","","","","","","","","","","","","","","","","",""
"","do_travel","466","1832769","0.0-248.0-0.0","null","","","","null","","","","","","","","","","","","","","","","",""
"","do_welcome","467","1834272","0.0-248.0-1.0","null","","","","null","","","","","","","","","","","","","","","","",""
"","do_trial","468","1839001","0.0-249.0-0.0","206.09999999403954","","","","49","1,0,1","5","highway","190","probe-121","0.23746191612433476","0.3735520805718055","1","1","","","","","","","",""
"","html-keyboard-response","469","1840002","0.0-249.0-1.0","null","<p></p>","null","","","","","","","","","","","","","","","","","","",""
"","do_trial","470","1845181","0.0-250.0-0.0","35.19999998807907","","","","49","0,1,1","5","highway","191","probe-93","0.05672577640182173","0.46644419717859875","1","0","","","","","","","",""
"","html-keyboard-response","471","1847181","0.0-250.0-1.0","null","<p></p>","null","","","","","","","","","","","","","","","","","","",""
"","do_trial","472","1853408","0.0-251.0-0.0","null","","","","null","0,1,1","5","highway","192","probe-209","0.18646409649412515","0.33864015370762274","0.7438020504459112","","","","","","","","",""
"","html-keyboard-response","473","1854411","0.0-251.0-1.0","null","<p></p>","null","","","","","","","","","","","","","","","","","","",""
"","do_trial","474","1858954","0.0-252.0-0.0","20.099999994039536","","","","49","0,0,0","5","highway","193","probe-41","0.07531747827242369","0.3820210374453231","0.7380805047685708","0","","","","","","","",""
"","html-keyboard-response","475","1859956","0.0-252.0-1.0","null","<p></p>","null","","","","","","","","","","","","","","","","","","",""
"","do_trial","476","1864477","0.0-253.0-0.0","0","","","","49","0,0,1","5","highway","194","probe-65","0.0772150128770652","0.32212840684206046","0.7663996607475504","0","","","","","","","",""
"","html-keyboard-response","477","1865478","0.0-253.0-1.0","null","<p></p>","null","","","","","","","","","","","","","","","","","","",""
"","do_trial","478","1870075","0.0-254.0-0.0","72.80000001192093","","","","50","0,0,1","5","highway","195","probe-221","0.20560010432558984","0.21664408635411897","0.5802899165822645","0","","","","","","","",""
"","html-keyboard-response","479","1871076","0.0-254.0-1.0","null","<p></p>","null","","","","","","","","","","","","","","","","","","",""
"","do_trial","480","1875708","0.0-255.0-0.0","108.59999999403954","","","","51","1,0,1","5","highway","196","probe-204","0.20328530308851556","0.25303304072985305","0.4592714045329892","1","","","","","","","",""
"","html-keyboard-response","481","1876710","0.0-255.0-1.0","null","<p></p>","null","","","","","","","","","","","","","","","","","","",""
"","do_trial","482","1881270","0.0-256.0-0.0","35.79999998211861","","","","51","0,0,1","5","highway","197","probe-23","0.16068352344933462","0.22274902433792457","0.5871801006640188","1","","","","","","","",""
"","html-keyboard-response","483","1882272","0.0-256.0-1.0","null","<p></p>","null","","","","","","","","","","","","","","","","","","",""
"","do_trial","484","1886841","0.0-257.0-0.0","47.099999994039536","","","","51","0,0,1","5","highway","198","probe-164","0.11193150529051671","0.2826757680727244","0.6105521879478722","1","","","","","","","",""
"","html-keyboard-response","485","1887844","0.0-257.0-1.0","null","<p></p>","null","","","","","","","","","","","","","","","","","","",""
"","do_trial","486","1892579","0.0-258.0-0.0","212.59999999403954","","","","51","0,0,1","5","highway","199","probe-84","0.15463377935085987","0.2820024470958791","0.5940032159001024","1","","","","","","","",""
"","html-keyboard-response","487","1893581","0.0-258.0-1.0","null","<p></p>","null","","","","","","","","","","","","","","","","","","",""
"","do_trial","488","1898103","0.0-259.0-0.0","0.19999998807907104","","","","51","0,0,0","5","highway","200","probe-189","0.1728915933935195","0.32833861915412316","0.7069018043960325","0","","","","","","","",""
"","html-keyboard-response","489","1899105","0.0-259.0-1.0","null","<p></p>","null","","","","","","","","","","","","","","","","","","",""
"","do_trial","490","1903645","0.0-260.0-0.0","17.900000005960464","","","","51","1,0,1","5","highway","201","probe-188","0.1812600168630786","0.39340600414681215","0.6515542327260273","1","","","","","","","",""
"","html-keyboard-response","491","1904647","0.0-260.0-1.0","null","<p></p>","null","","","","","","","","","","","","","","","","","","",""
"","do_trial","492","1910825","0.0-261.0-0.0","1656.5999999940395","","","","51","0,0,0","5","highway","202","probe-173","0.42785126010406316","0.4259641702024283","0.5935121489063725","0","","","","","","","",""
"","html-keyboard-response","493","1911827","0.0-261.0-1.0","null","<p></p>","null","","","","","","","","","","","","","","","","","","",""
"","do_trial","494","1916397","0.0-262.0-0.0","46.900000005960464","","","","51","0,0,1","5","highway","203","probe-177","0.3470953562779247","0.19952085161951338","0.3955285223249385","1","","","","","","","",""
"","html-keyboard-response","495","1917398","0.0-262.0-1.0","null","<p></p>","null","","","","","","","","","","","","","","","","","","",""
"","do_trial","496","1921977","0.0-263.0-0.0","56.79999998211861","","","","51","1,0,0","5","highway","204","probe-66","0.42433488477394526","0.21441417521033618","0.3380934569144167","0","","","","","","","",""
"","html-keyboard-response","497","1922979","0.0-263.0-1.0","null","<p></p>","null","","","","","","","","","","","","","","","","","","",""
"","do_trial","498","1927520","0.0-264.0-0.0","18.30000001192093","","","","51","0,1,0","5","highway","205","probe-169","0.45358625074026543","0.0510061343956105","0.14623464390347315","0","","","","","","","",""
"","html-keyboard-response","499","1928522","0.0-264.0-1.0","null","<p></p>","null","","","","","","","","","","","","","","","","","","",""
"","do_trial","500","1933111","0.0-265.0-0.0","65.5","","","","51","0,0,0","5","highway","206","probe-155","0.6088228197019256","0.0869712736039833","0.30899921378380724","0","","","","","","","",""
"","html-keyboard-response","501","1934112","0.0-265.0-1.0","null","<p></p>","null","","","","","","","","","","","","","","","","","","",""
"","do_trial","502","1938688","0.0-266.0-0.0","54.900000005960464","","","","51","0,0,0","5","highway","207","probe-214","0.6090993961839799","0.16734799469447037","0.30939350486387523","0","","","","","","","",""
"","html-keyboard-response","503","1939689","0.0-266.0-1.0","null","<p></p>","null","","","","","","","","","","","","","","","","","","",""
"","do_trial","504","1944388","0.0-267.0-0.0","171.2000000178814","","","","51","1,1,0","5","highway","208","probe-42","0.4881885127623127","0.1939029944250819","0.2380614637613935","0","","","","","","","",""
"","html-keyboard-response","505","1945391","0.0-267.0-1.0","null","<p></p>","null","","","","","","","","","","","","","","","","","","",""
"","do_trial","506","1949951","0.0-268.0-0.0","37.400000005960464","","","","51","0,0,0","5","highway","209","probe-02","0.6146462110947922","0.20457796484998142","0.3639831674247489","0","","","","","","","",""
"","html-keyboard-response","507","1950952","0.0-268.0-1.0","null","<p></p>","null","","","","","","","","","","","","","","","","","","",""
"","do_trial","508","1955593","0.0-269.0-0.0","117.69999998807907","","","","51","0,0,0","5","highway","210","probe-218","0.5939596873575484","0.12496542308580043","0.444420034720165","0","","","","","","","",""
"","html-keyboard-response","509","1956595","0.0-269.0-1.0","null","<p></p>","null","","","","","","","","","","","","","","","","","","",""
"","do_trial","510","1961168","0.0-270.0-0.0","50","","","","51","0,0,1","5","highway","211","probe-126","0.5436751790063763","0.07064830681102309","0.5205698493765942","1","","","","","","","",""
"","html-keyboard-response","511","1962169","0.0-270.0-1.0","null","<p></p>","null","","","","","","","","","","","","","","","","","","",""
"","do_trial","512","1966776","0.0-271.0-0.0","84.90000000596046","","","","51","1,0,0","5","highway","212","probe-73","0.5281561752712647","0.07140821872543897","0.4377764580741039","0","","","","","","","",""
"","html-keyboard-response","513","1967778","0.0-271.0-1.0","null","<p></p>","null","","","","","","","","","","","","","","","","","","",""
"","do_trial","514","1972707","0.0-272.0-0.0","405.5","","","","51","0,0,1","5","highway","213","probe-31","0.5938502857124951","0.13054327190747955","0.3213896668399473","1","","","","","","","",""
"","html-keyboard-response","515","1973708","0.0-272.0-1.0","null","<p></p>","null","","","","","","","","","","","","","","","","","","",""
"","do_trial","516","1978496","0.0-273.0-0.0","265.59999999403954","","","","51","0,0,1","5","highway","214","probe-131","0.5634501591970316","0.13267743181342836","0.2932527370446378","1","","","","","","","",""
"","html-keyboard-response","517","1979498","0.0-273.0-1.0","null","<p></p>","null","","","","","","","","","","","","","","","","","","",""
"","do_trial","518","1984110","0.0-274.0-0.0","88.80000001192093","","","","51","1,0,0","5","highway","215","probe-198","0.8028503616229844","0.15388454182836517","0.34903710639685687","0","","","","","","","",""
"","html-keyboard-response","519","1985112","0.0-274.0-1.0","null","<p></p>","null","","","","","","","","","","","","","","","","","","",""
"","do_trial","520","1989675","0.0-275.0-0.0","41","","","","51","1,1,0","5","highway","216","probe-182","0.7142490467386722","0.09331986711870854","0.3097797370897054","0","","","","","","","",""
"","html-keyboard-response","521","1990677","0.0-275.0-1.0","null","<p></p>","null","","","","","","","","","","","","","","","","","","",""
"","do_trial","522","1995199","0.0-276.0-0.0","0.30000001192092896","","","","51","0,1,0","5","highway","217","probe-154","0.7405075345226397","0.08560776355930363","0.40000475659068","0","","","","","","","",""
"","html-keyboard-response","523","1996200","0.0-276.0-1.0","null","<p></p>","null","","","","","","","","","","","","","","","","","","",""
"","do_trial","524","2000789","0.0-277.0-0.0","64.69999998807907","","","","51","1,0,0","5","highway","218","probe-44","0.8302539756621999","0.05814738588887278","0.37654159576044277","0","","","","","","","",""
"","html-keyboard-response","525","2001791","0.0-277.0-1.0","null","<p></p>","null","","","","","","","","","","","","","","","","","","",""
"","do_trial","526","2006342","0.0-278.0-0.0","28.799999982118607","","","","51","1,0,1","5","highway","219","probe-11","0.6518953291849744","0.18406805166862739","0.32488639814249964","1","","","","","","","",""
"","html-keyboard-response","527","2007344","0.0-278.0-1.0","null","<p></p>","null","","","","","","","","","","","","","","","","","","",""
"","do_trial","528","2011989","0.0-279.0-0.0","122.5","","","","51","1,0,0","5","highway","220","probe-183","0.574838173674988","0.1573614158703159","0.2923976537291155","0","","","","","","","",""
"","html-keyboard-response","529","2012991","0.0-279.0-1.0","null","<p></p>","null","","","","","","","","","","","","","","","","","","",""
