"success","trial_type","trial_index","time_elapsed","internal_node_id","interactions","blur_events","focus_events","fullscreenenter_events","fullscreenexit_events","rt","stimulus","key_press","subject_id","participant_id","age","gender","prompt","response","choice_outcomes","context_n","context_img_id","trial_n","probe_img_id","pR_red","pR_white","pR_black","outcome","contextArray_ind","validImageProbes","invalidImageProbes","pRew_Red","pRew_White","pRew_Black","availableForMemProbe","choice_blocks"
"true","fullscreen","0","11165","0.0-0.0","""event"",""trial"",""time""
""fullscreenenter"",""0"",""10217""
","
","
","""event"",""trial"",""time""
""fullscreenenter"",""0"",""10217""
","
","","","","","","","","","","","","","","","","","","","","","","","","","",""
"","pavlovia","1","11169","0.0-1.0","""event"",""trial"",""time""
""fullscreenenter"",""0"",""10217""
","
","
","""event"",""trial"",""time""
""fullscreenenter"",""0"",""10217""
","
","","","","","","","","","","","","","","","","","","","","","","","","","",""
"","instruc1","2","56328","0.0-2.0","""event"",""trial"",""time""
""fullscreenenter"",""0"",""10217""
","
","
","""event"",""trial"",""time""
""fullscreenenter"",""0"",""10217""
","
","null","run_exp/static/audio/clip_1_welcome.m4a","null","237","234","10","Female","<div class='center'><p>Welcome! This is the first part of the study. It will last ~30 minutes. In part 1 and part 2 of the study, you are the head captain of a pirate ship traveling around the world to different islands. You will play a few different games throughout these two parts. Here is an overview of them:</p><br><p>Part 1 (today)</p><p>1. Instructions, practice game, and quiz</p><p>2. Pick a pirate game on 6 different islands</p><br><p>Part 2 (tomorrow)</p><p>3. Pick a pirate game and memory game</p><p>4. Where did you see this ship? </p></div>","","","","","","","","","","","","","","","","","",""
"","html-keyboard-response","3","62407","0.0-3.0","""event"",""trial"",""time""
""fullscreenenter"",""0"",""10217""
","
","
","""event"",""trial"",""time""
""fullscreenenter"",""0"",""10217""
","
","6075.600000008941","<div class='center'><p>Welcome! This is the first part of the study. It will last ~30 minutes. In part 1 and part 2 of the study, you are the head captain of a pirate ship traveling around the world to different islands. You will play a few different games throughout these two parts. Here is an overview of them:</p><br><p>Part 1 (today)</p><p>1. Instructions, practice game, and quiz</p><p>2. Pick a pirate game on 6 different islands</p><br><p>Part 2 (tomorrow)</p><p>3. Pick a pirate game and memory game</p><p>4. Where did you see this ship? </p><p><b>[Press the space bar to continue]</b></p></div>","32","","","","","","","","","","","","","","","","","","","","","","",""
"","instruc2","4","67937","0.0-4.0","""event"",""trial"",""time""
""fullscreenenter"",""0"",""10217""
","
","
","""event"",""trial"",""time""
""fullscreenenter"",""0"",""10217""
","
","null","run_exp/static/audio/clip_2_different_places.m4a","null","","","","","<div class='center'><p>Today, you’ll visit these 6 islands on your journey. You'll be able to see these islands from your ship.</p><p><img src='run_exp/static/images/contexts/all_contexts.png' height='500'></p></div>","","","","","","","","","","","","","","","","","",""
"","html-keyboard-response","5","84228","0.0-5.0","""event"",""trial"",""time""
""fullscreenenter"",""0"",""10217""
","
","
","""event"",""trial"",""time""
""fullscreenenter"",""0"",""10217""
","
","16288.59999999404","<div class='center'><p>Today, you’ll visit these 6 islands on your journey. You'll be able to see these islands from your ship.</p><p><img src='run_exp/static/images/contexts/all_contexts.png' height='500'></p><p><b>[Press the space bar to continue]</b></p></div>","32","","","","","","","","","","","","","","","","","","","","","","",""
"","instruc3","6","94078","0.0-6.0","""event"",""trial"",""time""
""fullscreenenter"",""0"",""10217""
","
","
","""event"",""trial"",""time""
""fullscreenenter"",""0"",""10217""
","
","null","run_exp/static/audio/clip_3_goal_of_game_1.m4a","null","","","","","<div class='center'><p> The pirates on your ship will rob other ships as they leave the island.</p> These ships have just sold their goods to the islanders, so they will be filled with lots and lots of gold.</p><p><img src='run_exp/static/images/tutorial/ship_center.png' height='400'></p></div>","","","","","","","","","","","","","","","","","",""
"","html-keyboard-response","7","95492","0.0-7.0","""event"",""trial"",""time""
""fullscreenenter"",""0"",""10217""
","
","
","""event"",""trial"",""time""
""fullscreenenter"",""0"",""10217""
","
","1412.0999999940395","<div class='center'><p> The pirates on your ship will rob other ships as they leave the island.</p> These ships have just sold their goods to the islanders, so they will be filled with lots and lots of gold.</p><p><img src='run_exp/static/images/tutorial/ship_center.png' height='400'></p><p><b>[Press the space bar to continue]</b></p></div>","32","","","","","","","","","","","","","","","","","","","","","","",""
"","instruc4","8","123707","0.0-8.0","""event"",""trial"",""time""
""fullscreenenter"",""0"",""10217""
","
","
","""event"",""trial"",""time""
""fullscreenenter"",""0"",""10217""
","
","null","run_exp/static/audio/clip_4_goal_of_game_2.m4a","null","","","","","<div class='center'><p>As the head captain, you do not have to rob any ships yourself. Another pirate will be doing the robbing for you. First, you will choose a pirate to rob the next ship.</p><p><img src='run_exp/static/images/tutorial/pirates_all_crop.png' height='200'></p><p>Then, you'll see if the pirate successfully robbed the ship of their gold. If they were successful, then you'll get a stack of gold coins like this:</p><p><img src='run_exp/static/images/tutorial/reward.png' height='150'></p><p> If they were <b>not</b> successful, then you'll get no gold coins, and you'll see a big red x like this: </p><p><img src='run_exp/static/images/tutorial/reward_no.png' height='150'></p><p> How much bonus money you make is based on how many gold coins you collect.</p><div>","","","","","","","","","","","","","","","","","",""
"","html-keyboard-response","9","124782","0.0-9.0","""event"",""trial"",""time""
""fullscreenenter"",""0"",""10217""
","
","
","""event"",""trial"",""time""
""fullscreenenter"",""0"",""10217""
","
","1073.4000000059605","<div class='center'><p>As the head captain, you do not have to rob any ships yourself. Another pirate will be doing the robbing for you. First, you will choose a pirate to rob the next ship.</p><p><img src='run_exp/static/images/tutorial/pirates_all_crop.png' height='200'></p><p>Then, you'll see if the pirate successfully robbed the ship of their gold. If they were successful, then you'll get a stack of gold coins like this:</p><p><img src='run_exp/static/images/tutorial/reward.png' height='150'></p><p> If they were <b>not</b> successful, then you'll get no gold coins, and you'll see a big red x like this: </p><p><img src='run_exp/static/images/tutorial/reward_no.png' height='150'></p><p> How much bonus money you make is based on how many gold coins you collect.</p<p><b>[Press the space bar to continue]</b></p></div>","32","","","","","","","","","","","","","","","","","","","","","","",""
"","instruc5","10","146650","0.0-10.0","""event"",""trial"",""time""
""fullscreenenter"",""0"",""10217""
","
","
","""event"",""trial"",""time""
""fullscreenenter"",""0"",""10217""
","
","21865.80000001192","run_exp/static/audio/clip_5_probabilistic.m4a","49","","","","","<div class='center'><p>Even the most skilled pirate can not rob EVERY ship.</p><p> Some ships will have very strong protections against pirate attacks.</p><p> Blue beard, here, is very, very good at robbing ships, but he won't be successful every time he tries to rob one.</p><p> You can press the <b>‘1’</b> key on the keyboard to choose him.</p><p> Try choosing him 10 times to see how often he succeeds at robbing a ship. </p><p><img src='run_exp/static/images/tutorial/blue.png' height='500'></p></div>","","","","","","","","","","","","","","","","","",""
"","html-keyboard-response","11","148152","0.0-11.0","""event"",""trial"",""time""
""fullscreenenter"",""0"",""10217""
","
","
","""event"",""trial"",""time""
""fullscreenenter"",""0"",""10217""
","
","null","<div class='center'><p><img src='run_exp/static/images/tutorial/blue_win.png' height='500'></p></div>","null","","","","","","","","","","","","","","","","","","","","","","",""
"","html-keyboard-response","12","149421","0.0-12.0","""event"",""trial"",""time""
""fullscreenenter"",""0"",""10217""
","
","
","""event"",""trial"",""time""
""fullscreenenter"",""0"",""10217""
","
","1268.2999999970198","<div class='center'><img src='run_exp/static/images/tutorial/blue.png' height='500'></p></div>","49","","","","","","","","","","","","","","","","","","","","","","",""
"","html-keyboard-response","13","150923","0.0-13.0","""event"",""trial"",""time""
""fullscreenenter"",""0"",""10217""
","
","
","""event"",""trial"",""time""
""fullscreenenter"",""0"",""10217""
","
","null","<div class='center'><p><img src='run_exp/static/images/tutorial/blue_win.png' height='500'></p></div>","null","","","","","","","","","","","","","","","","","","","","","","",""
"","html-keyboard-response","14","151497","0.0-14.0","""event"",""trial"",""time""
""fullscreenenter"",""0"",""10217""
","
","
","""event"",""trial"",""time""
""fullscreenenter"",""0"",""10217""
","
","573","<div class='center'><img src='run_exp/static/images/tutorial/blue.png' height='500'></p></div>","49","","","","","","","","","","","","","","","","","","","","","","",""
"","html-keyboard-response","15","152999","0.0-15.0","""event"",""trial"",""time""
""fullscreenenter"",""0"",""10217""
","
","
","""event"",""trial"",""time""
""fullscreenenter"",""0"",""10217""
","
","null","<div class='center'><p><img src='run_exp/static/images/tutorial/blue_win.png' height='500'></p></div>","null","","","","","","","","","","","","","","","","","","","","","","",""
"","html-keyboard-response","16","153345","0.0-16.0","""event"",""trial"",""time""
""fullscreenenter"",""0"",""10217""
","
","
","""event"",""trial"",""time""
""fullscreenenter"",""0"",""10217""
","
","345","<div class='center'><img src='run_exp/static/images/tutorial/blue.png' height='500'></p></div>","49","","","","","","","","","","","","","","","","","","","","","","",""
"","html-keyboard-response","17","154846","0.0-17.0","""event"",""trial"",""time""
""fullscreenenter"",""0"",""10217""
","
","
","""event"",""trial"",""time""
""fullscreenenter"",""0"",""10217""
","
","null","<div class='center'><p><img src='run_exp/static/images/tutorial/blue_no_win.png' height='500'></p></div>","null","","","","","","","","","","","","","","","","","","","","","","",""
"","html-keyboard-response","18","155225","0.0-18.0","""event"",""trial"",""time""
""fullscreenenter"",""0"",""10217""
","
","
","""event"",""trial"",""time""
""fullscreenenter"",""0"",""10217""
","
","377.09999999403954","<div class='center'><img src='run_exp/static/images/tutorial/blue.png' height='500'></p></div>","49","","","","","","","","","","","","","","","","","","","","","","",""
"","html-keyboard-response","19","156727","0.0-19.0","""event"",""trial"",""time""
""fullscreenenter"",""0"",""10217""
","
","
","""event"",""trial"",""time""
""fullscreenenter"",""0"",""10217""
","
","null","<div class='center'><p><img src='run_exp/static/images/tutorial/blue_win.png' height='500'></p></div>","null","","","","","","","","","","","","","","","","","","","","","","",""
"","html-keyboard-response","20","157097","0.0-20.0","""event"",""trial"",""time""
""fullscreenenter"",""0"",""10217""
","
","
","""event"",""trial"",""time""
""fullscreenenter"",""0"",""10217""
","
","368.90000000596046","<div class='center'><img src='run_exp/static/images/tutorial/blue.png' height='500'></p></div>","49","","","","","","","","","","","","","","","","","","","","","","",""
"","html-keyboard-response","21","158599","0.0-21.0","""event"",""trial"",""time""
""fullscreenenter"",""0"",""10217""
","
","
","""event"",""trial"",""time""
""fullscreenenter"",""0"",""10217""
","
","null","<div class='center'><p><img src='run_exp/static/images/tutorial/blue_win.png' height='500'></p></div>","null","","","","","","","","","","","","","","","","","","","","","","",""
"","html-keyboard-response","22","158918","0.0-22.0","""event"",""trial"",""time""
""fullscreenenter"",""0"",""10217""
","
","
","""event"",""trial"",""time""
""fullscreenenter"",""0"",""10217""
","
","317.40000000596046","<div class='center'><img src='run_exp/static/images/tutorial/blue.png' height='500'></p></div>","49","","","","","","","","","","","","","","","","","","","","","","",""
"","html-keyboard-response","23","160419","0.0-23.0","""event"",""trial"",""time""
""fullscreenenter"",""0"",""10217""
","
","
","""event"",""trial"",""time""
""fullscreenenter"",""0"",""10217""
","
","null","<div class='center'><p><img src='run_exp/static/images/tutorial/blue_win.png' height='500'></p></div>","null","","","","","","","","","","","","","","","","","","","","","","",""
"","html-keyboard-response","24","160821","0.0-24.0","""event"",""trial"",""time""
""fullscreenenter"",""0"",""10217""
","
","
","""event"",""trial"",""time""
""fullscreenenter"",""0"",""10217""
","
","400.5","<div class='center'><img src='run_exp/static/images/tutorial/blue.png' height='500'></p></div>","49","","","","","","","","","","","","","","","","","","","","","","",""
"","html-keyboard-response","25","162323","0.0-25.0","""event"",""trial"",""time""
""fullscreenenter"",""0"",""10217""
","
","
","""event"",""trial"",""time""
""fullscreenenter"",""0"",""10217""
","
","null","<div class='center'><p><img src='run_exp/static/images/tutorial/blue_no_win.png' height='500'></p></div>","null","","","","","","","","","","","","","","","","","","","","","","",""
"","html-keyboard-response","26","162613","0.0-26.0","""event"",""trial"",""time""
""fullscreenenter"",""0"",""10217""
","
","
","""event"",""trial"",""time""
""fullscreenenter"",""0"",""10217""
","
","289.1000000089407","<div class='center'><img src='run_exp/static/images/tutorial/blue.png' height='500'></p></div>","49","","","","","","","","","","","","","","","","","","","","","","",""
"","html-keyboard-response","27","164114","0.0-27.0","""event"",""trial"",""time""
""fullscreenenter"",""0"",""10217""
","
","
","""event"",""trial"",""time""
""fullscreenenter"",""0"",""10217""
","
","null","<div class='center'><p><img src='run_exp/static/images/tutorial/blue_win.png' height='500'></p></div>","null","","","","","","","","","","","","","","","","","","","","","","",""
"","html-keyboard-response","28","164180","0.0-28.0","""event"",""trial"",""time""
""fullscreenenter"",""0"",""10217""
","
","
","""event"",""trial"",""time""
""fullscreenenter"",""0"",""10217""
","
","64.09999999403954","<div class='center'><img src='run_exp/static/images/tutorial/blue.png' height='500'></p></div>","49","","","","","","","","","","","","","","","","","","","","","","",""
"","html-keyboard-response","29","165681","0.0-29.0","""event"",""trial"",""time""
""fullscreenenter"",""0"",""10217""
","
","
","""event"",""trial"",""time""
""fullscreenenter"",""0"",""10217""
","
","null","<div class='center'><p><img src='run_exp/static/images/tutorial/blue_win.png' height='500'></p></div>","null","","","","","","","","","","","","","","","","","","","","","","",""
"","instruc6","30","171189","0.0-30.0","""event"",""trial"",""time""
""fullscreenenter"",""0"",""10217""
","
","
","""event"",""trial"",""time""
""fullscreenenter"",""0"",""10217""
","
","null","run_exp/static/audio/clip_6_blue_beard_outcome.m4a","null","","","","","<div class='center'><p> See, he succeeded in robbing the ships most of the time but not every time. </p></div>","","","","","","","","","","","","","","","","","",""
"","html-keyboard-response","31","173638","0.0-31.0","""event"",""trial"",""time""
""fullscreenenter"",""0"",""10217""
","
","
","""event"",""trial"",""time""
""fullscreenenter"",""0"",""10217""
","
","2447.300000011921","<div class='center'><p> See, he succeeded in robbing the ships most of the time but not every time. </p><p><b>[Press the space bar to continue]</b></p></div>","32","","","","","","","","","","","","","","","","","","","","","","",""
"","audio-keyboard-response","32","187765","0.0-32.0","""event"",""trial"",""time""
""fullscreenenter"",""0"",""10217""
","
","
","""event"",""trial"",""time""
""fullscreenenter"",""0"",""10217""
","
","14125.199999988079","run_exp/static/audio/clip_7_pick_pirate.m4a","51","","","","","","","","","","","","","","","","","","","","","","",""
"","audio-keyboard-response","33","194143","0.0-33.0-0.0","""event"",""trial"",""time""
""fullscreenenter"",""0"",""10217""
","
","
","""event"",""trial"",""time""
""fullscreenenter"",""0"",""10217""
","
","6374.100000008941","run_exp/static/audio/clip_8_chosen_pirate_win.m4a","32","","","","","","","","","","","","","","","","","","","","","","",""
"","audio-keyboard-response","34","195292","0.0-33.0-1.0","""event"",""trial"",""time""
""fullscreenenter"",""0"",""10217""
","
","
","""event"",""trial"",""time""
""fullscreenenter"",""0"",""10217""
","
","1145.5999999940395","run_exp/static/audio/clip_9_pick_a_pirate_again.m4a","50","","","","","","","","","","","","","","","","","","","","","","",""
"","audio-keyboard-response","35","196795","0.0-34.0-0.0","""event"",""trial"",""time""
""fullscreenenter"",""0"",""10217""
","
","
","""event"",""trial"",""time""
""fullscreenenter"",""0"",""10217""
","
","1499.5999999940395","run_exp/static/audio/clip_10_chosen_pirate_loss.m4a","32","","","","","","","","","","","","","","","","","","","","","","",""
"","instruc9","36","202490","0.0-35.0-0.0","""event"",""trial"",""time""
""fullscreenenter"",""0"",""10217""
","
","
","""event"",""trial"",""time""
""fullscreenenter"",""0"",""10217""
","
","null","run_exp/static/audio/clip_11_time_out.m4a","null","","","","","<div class='center'><p>If you don’t make your choice fast enough, you’ll have to wait a few seconds before you can make another one. </p><p><img src='run_exp/static/images/miscellaneous/hurry_up.png' height='500'></p></div>","","","","","","","","","","","","","","","","","",""
"","html-keyboard-response","37","203632","0.0-35.0-1.0","""event"",""trial"",""time""
""fullscreenenter"",""0"",""10217""
","
","
","""event"",""trial"",""time""
""fullscreenenter"",""0"",""10217""
","
","1140.2000000029802","<div class='center'><p>If you don’t make your choice fast enough, you’ll have to wait a few seconds before you can make another one. </p><p><img src='run_exp/static/images/miscellaneous/hurry_up.png' height='500'></p><p><b>[Press the space bar to continue]</b></p></div>","32","","","","","","","","","","","","","","","","","","","","","","",""
"","instruc10","38","242986","0.0-35.0-2.0","""event"",""trial"",""time""
""fullscreenenter"",""0"",""10217""
","
","
","""event"",""trial"",""time""
""fullscreenenter"",""0"",""10217""
","
","null","run_exp/static/audio/clip_12_probe.m4a","null","","","","","<div class='center'><p>Once you've chosen a pirate, you’ll be shown the ship they are robbing. You will never rob the same ship twice. Ships can be told apart from one another by the image on them. These are the goods that they sell. See, this ship has a travel mug on it. </p><p> You’ll have to remember which island you saw each ship on. You will win more gold coins and hence more bonus money if you remember correctly! To help you remember, you can imagine a story. For example, here, you could imagine a mug full of water in the desert. Or, as another example, if on the forest island, your pirate robbed a ship with an apple on it, you could imagine an apple falling from a tree in the forest. </p><p><img src='run_exp/static/images/tutorial/example_probe.png' height='500'></p></div>","","","","","","","","","","","","","","","","","",""
"","html-keyboard-response","39","243138","0.0-35.0-3.0","""event"",""trial"",""time""
""fullscreenenter"",""0"",""10217""
","
","
","""event"",""trial"",""time""
""fullscreenenter"",""0"",""10217""
","
","150.59999999403954","<div class='center'><p>Once you've chosen a pirate, you’ll be shown the ship they are robbing. You will never rob the same ship twice. Ships can be told apart from one another by the image on them. These are the goods that they sell. See, this ship has a travel mug on it. </p><p> You’ll have to remember which island you saw each ship on. You will win more gold coins and hence more bonus money if you remember correctly! To help you remember, you can imagine a story. For example, here, you could imagine a mug full of water in the desert. Or, as another example, if on the forest island, your pirate robbed a ship with an apple on it, you could imagine an apple falling from a tree in the forest. </p><p><img src='run_exp/static/images/tutorial/example_probe.png' height='500'></p><p><b>[Press the space bar to continue]</b></p></div>","32","","","","","","","","","","","","","","","","","","","","","","",""
"","instruc11","40","259704","0.0-35.0-4.0","""event"",""trial"",""time""
""fullscreenenter"",""0"",""10217""
","
","
","""event"",""trial"",""time""
""fullscreenenter"",""0"",""10217""
","
","null","run_exp/static/audio/clip_13_changepoint.m4a","null","","","","","<div class='center'><p>How successful a pirate is at robbing ships will depend on the island you’re on.</p><p> A pirate may have visited this island many times before and gained a lot of practice robbing ships there.</p><p>So, they’re more likely to be successful than a pirate who has never visited the island before.</p></div>","","","","","","","","","","","","","","","","","",""
"","html-keyboard-response","41","263025","0.0-35.0-5.0","""event"",""trial"",""time""
""fullscreenenter"",""0"",""10217""
","
","
","""event"",""trial"",""time""
""fullscreenenter"",""0"",""10217""
","
","3319.2999999970198","<div class='center'><p>How successful a pirate is at robbing ships will depend on the island you’re on.</p><p> A pirate may have visited this island many times before and gained a lot of practice robbing ships there.</p><p>So, they’re more likely to be successful than a pirate who has never visited the island before.</p><p><b>[Press the space bar to continue]</b></p></div>","32","","","","","","","","","","","","","","","","","","","","","","",""
"","instruc12","42","304286","0.0-35.0-6.0","""event"",""trial"",""time""
""fullscreenenter"",""0"",""10217""
","
","
","""event"",""trial"",""time""
""fullscreenenter"",""0"",""10217""
","
","null","run_exp/static/audio/clip_14_drift.m4a","null","","","","","<div class='center'><p>How successful a pirate is at robbing ships can also change over the time spent on the island. </p><p> Ships may hear from islanders about the pirates coming and will improve their protections against the attack. This may make it harder to rob them.</p><p> Ships may also become lazy and weaken the strength of their protections. This may make it easier to rob them.</p><br><p>Things are always changing on the high seas! So, try your best to pay attention!</p><p><img src='run_exp/static/images/tutorial/contingency.png' height='500'></p></div>","","","","","","","","","","","","","","","","","",""
"","html-keyboard-response","43","318542","0.0-35.0-7.0","""event"",""trial"",""time""
""fullscreenenter"",""0"",""10217""
","
","
","""event"",""trial"",""time""
""fullscreenenter"",""0"",""10217""
","
","14253.70000000298","<div class='center'><p>How successful a pirate is at robbing ships can also change over the time spent on the island. </p><p> Ships may hear from islanders about the pirates coming and will improve their protections against the attack. This may make it harder to rob them.</p><p> Ships may also become lazy and weaken the strength of their protections. This may make it easier to rob them.</p><br><p>Things are always changing on the high seas! So, try your best to pay attention!</p><p><img src='run_exp/static/images/tutorial/contingency.png' height='500'></p><p><b>[Press the space bar to continue]</b></p></div>","32","","","","","","","","","","","","","","","","","","","","","","",""
"","instruc13","44","353863","0.0-35.0-8.0","""event"",""trial"",""time""
""fullscreenenter"",""0"",""10217""
","
","
","""event"",""trial"",""time""
""fullscreenenter"",""0"",""10217""
","
","null","run_exp/static/audio/clip_15_summary.m4a","null","","","","","<div class='center'><p>Let's go over the instructions quickly again. You have two important things to do: </p><b><p> 1. Pick the pirate who is the best at robbing ships on the current island. </p></b><b><p> 2. Remember on which island a ship was robbed.</p> </b><p>The amount of bonus money you can win depends on both.</p><p><br><p>Let’s try a practice game. The game will start by showing you the pirates. First, pick a pirate using the <b> 1, 2, 3 </b> keys on your keyboard. When you are shown a ship, try to remember which island you’re on by making up a story.</p><p>This is just a practice game, so you’re not playing for money. </p><p> Good luck! This game will be very difficult but try your best!</p></div>","","","","","","","","","","","","","","","","","",""
"","html-keyboard-response","45","355942","0.0-35.0-9.0","""event"",""trial"",""time""
""fullscreenenter"",""0"",""10217""
","
","
","""event"",""trial"",""time""
""fullscreenenter"",""0"",""10217""
","
","2076","<div class='center'><p>Let's go over the instructions quickly again. You have two important things to do: </p><b><p> 1. Pick the pirate who is the best at robbing ships on the current island. </p></b><b><p> 2. Remember on which island a ship was robbed.</p> </b><p>The amount of bonus money you can win depends on both.</p><p><br><p>Let’s try a practice game. The game will start by showing you the pirates. First, pick a pirate using the <b> 1, 2, 3 </b> keys on your keyboard. When you are shown a ship, try to remember which island you’re on by making up a story.</p><p>This is just a practice game, so you’re not playing for money. </p><p> Good luck! This game will be very difficult but try your best!</p><p><b>[Press the space bar to continue]</b></p></div>","32","","","","","","","","","","","","","","","","","","","","","","",""
"","do_welcome","46","359975","0.0-35.0-10.0","""event"",""trial"",""time""
""fullscreenenter"",""0"",""10217""
","
","
","""event"",""trial"",""time""
""fullscreenenter"",""0"",""10217""
","
","null","","","","","","","","null","","","","","","","","","","","","","","","","",""
"","do_trial","47","367044","0.0-35.0-11.0","""event"",""trial"",""time""
""fullscreenenter"",""0"",""10217""
","
","
","""event"",""trial"",""time""
""fullscreenenter"",""0"",""10217""
","
","2555.2999999970198","","","","","","","","51","1,0,0","","","","","","","","","","","","","","","",""
"","html-keyboard-response","48","368046","0.0-36.0-0.0","""event"",""trial"",""time""
""fullscreenenter"",""0"",""10217""
","
","
","""event"",""trial"",""time""
""fullscreenenter"",""0"",""10217""
","
","null","<p></p>","null","","","","","","","","","","","","","","","","","","","","","","",""
"","do_trial","49","374052","0.0-36.0-1.0","""event"",""trial"",""time""
""fullscreenenter"",""0"",""10217""
","
","
","""event"",""trial"",""time""
""fullscreenenter"",""0"",""10217""
","
","null","","","","","","","","null","1,1,0","","","","","","","","","","","","","","","",""
"","html-keyboard-response","50","375062","0.0-37.0-0.0","""event"",""trial"",""time""
""fullscreenenter"",""0"",""10217""
","
","
","""event"",""trial"",""time""
""fullscreenenter"",""0"",""10217""
","
","null","<p></p>","null","","","","","","","","","","","","","","","","","","","","","","",""
"","do_trial","51","380621","0.0-37.0-1.0","""event"",""trial"",""time""
""fullscreenenter"",""0"",""10217""
","
","
","""event"",""trial"",""time""
""fullscreenenter"",""0"",""10217""
","
","1052.0999999940395","","","","","","","","50","1,1,0","","","","","","","","","","","","","","","",""
"","html-keyboard-response","52","381622","0.0-38.0-0.0","""event"",""trial"",""time""
""fullscreenenter"",""0"",""10217""
","
","
","""event"",""trial"",""time""
""fullscreenenter"",""0"",""10217""
","
","null","<p></p>","null","","","","","","","","","","","","","","","","","","","","","","",""
"","do_trial","53","387867","0.0-38.0-1.0","""event"",""trial"",""time""
""fullscreenenter"",""0"",""10217""
","
","
","""event"",""trial"",""time""
""fullscreenenter"",""0"",""10217""
","
","1738.7000000029802","","","","","","","","51","1,0,1","","","","","","","","","","","","","","","",""
"","html-keyboard-response","54","388869","0.0-39.0-0.0","""event"",""trial"",""time""
""fullscreenenter"",""0"",""10217""
","
","
","""event"",""trial"",""time""
""fullscreenenter"",""0"",""10217""
","
","null","<p></p>","null","","","","","","","","","","","","","","","","","","","","","","",""
"","do_trial","55","394414","0.0-39.0-1.0","""event"",""trial"",""time""
""fullscreenenter"",""0"",""10217""
","
","
","""event"",""trial"",""time""
""fullscreenenter"",""0"",""10217""
","
","1036.7000000029802","","","","","","","","49","0,1,0","","","","","","","","","","","","","","","",""
"","html-keyboard-response","56","395415","0.0-40.0-0.0","""event"",""trial"",""time""
""fullscreenenter"",""0"",""10217""
","
","
","""event"",""trial"",""time""
""fullscreenenter"",""0"",""10217""
","
","null","<p></p>","null","","","","","","","","","","","","","","","","","","","","","","",""
"","do_trial","57","401009","0.0-40.0-1.0","""event"",""trial"",""time""
""fullscreenenter"",""0"",""10217""
","
","
","""event"",""trial"",""time""
""fullscreenenter"",""0"",""10217""
","
","1088.2000000029802","","","","","","","","51","1,0,0","","","","","","","","","","","","","","","",""
"","do_bye","58","402514","0.0-41.0-0.0","""event"",""trial"",""time""
""fullscreenenter"",""0"",""10217""
","
","
","""event"",""trial"",""time""
""fullscreenenter"",""0"",""10217""
","
","null","","","","","","","","null","","","","","","","","","","","","","","","","",""
"","do_travel","59","411517","0.0-41.0-1.0","""event"",""trial"",""time""
""fullscreenenter"",""0"",""10217""
","
","
","""event"",""trial"",""time""
""fullscreenenter"",""0"",""10217""
","
","null","","","","","","","","null","","","","","","","","","","","","","","","","",""
"","do_welcome","60","415529","0.0-41.0-2.0","""event"",""trial"",""time""
""fullscreenenter"",""0"",""10217""
","
","
","""event"",""trial"",""time""
""fullscreenenter"",""0"",""10217""
","
","null","","","","","","","","null","","","","","","","","","","","","","","","","",""
"","do_trial","61","421536","0.0-41.0-3.0","""event"",""trial"",""time""
""fullscreenenter"",""0"",""10217""
","
","
","""event"",""trial"",""time""
""fullscreenenter"",""0"",""10217""
","
","null","","","","","","","","null","1,0,0","","","","","","","","","","","","","","","",""
"","do_bye","62","423041","0.0-42.0-0.0","""event"",""trial"",""time""
""fullscreenenter"",""0"",""10217""
","
","
","""event"",""trial"",""time""
""fullscreenenter"",""0"",""10217""
","
","null","","","","","","","","null","","","","","","","","","","","","","","","","",""
"","do_travel","63","432048","0.0-42.0-1.0","""event"",""trial"",""time""
""fullscreenenter"",""0"",""10217""
","
","
","""event"",""trial"",""time""
""fullscreenenter"",""0"",""10217""
","
","null","","","","","","","","null","","","","","","","","","","","","","","","","",""
"","do_welcome","64","436053","0.0-42.0-2.0","""event"",""trial"",""time""
""fullscreenenter"",""0"",""10217""
","
","
","""event"",""trial"",""time""
""fullscreenenter"",""0"",""10217""
","
","null","","","","","","","","null","","","","","","","","","","","","","","","","",""
"","do_trial","65","440983","0.0-42.0-3.0","""event"",""trial"",""time""
""fullscreenenter"",""0"",""10217""
","
","
","""event"",""trial"",""time""
""fullscreenenter"",""0"",""10217""
","
","423.09999999403954","","","","","","","","50","1,0,0","","","","","","","","","","","","","","","",""
"","html-keyboard-response","66","441985","0.0-43.0-0.0","""event"",""trial"",""time""
""fullscreenenter"",""0"",""10217""
","
","
","""event"",""trial"",""time""
""fullscreenenter"",""0"",""10217""
","
","null","<p></p>","null","","","","","","","","","","","","","","","","","","","","","","",""
"","do_trial","67","447992","0.0-43.0-1.0","""event"",""trial"",""time""
""fullscreenenter"",""0"",""10217""
","
","
","""event"",""trial"",""time""
""fullscreenenter"",""0"",""10217""
","
","null","","","","","","","","null","1,0,1","","","","","","","","","","","","","","","",""
"","html-keyboard-response","68","448994","0.0-44.0-0.0","""event"",""trial"",""time""
""fullscreenenter"",""0"",""10217""
","
","
","""event"",""trial"",""time""
""fullscreenenter"",""0"",""10217""
","
","null","<p></p>","null","","","","","","","","","","","","","","","","","","","","","","",""
"","do_trial","69","455001","0.0-44.0-1.0","""event"",""trial"",""time""
""fullscreenenter"",""0"",""10217""
","
","
","""event"",""trial"",""time""
""fullscreenenter"",""0"",""10217""
","
","null","","","","","","","","null","1,0,1","","","","","","","","","","","","","","","",""
"","html-keyboard-response","70","456003","0.0-45.0-0.0","""event"",""trial"",""time""
""fullscreenenter"",""0"",""10217""
","
","
","""event"",""trial"",""time""
""fullscreenenter"",""0"",""10217""
","
","null","<p></p>","null","","","","","","","","","","","","","","","","","","","","","","",""
"","do_trial","71","460986","0.0-45.0-1.0","""event"",""trial"",""time""
""fullscreenenter"",""0"",""10217""
","
","
","""event"",""trial"",""time""
""fullscreenenter"",""0"",""10217""
","
","477.3999999910593","","","","","","","","51","1,0,1","","","","","","","","","","","","","","","",""
"","html-keyboard-response","72","461988","0.0-46.0-0.0","""event"",""trial"",""time""
""fullscreenenter"",""0"",""10217""
","
","
","""event"",""trial"",""time""
""fullscreenenter"",""0"",""10217""
","
","null","<p></p>","null","","","","","","","","","","","","","","","","","","","","","","",""
"","do_trial","73","466980","0.0-46.0-1.0","""event"",""trial"",""time""
""fullscreenenter"",""0"",""10217""
","
","
","""event"",""trial"",""time""
""fullscreenenter"",""0"",""10217""
","
","486","","","","","","","","50","1,1,0","","","","","","","","","","","","","","","",""
"","html-keyboard-response","74","467982","0.0-47.0-0.0","""event"",""trial"",""time""
""fullscreenenter"",""0"",""10217""
","
","
","""event"",""trial"",""time""
""fullscreenenter"",""0"",""10217""
","
","null","<p></p>","null","","","","","","","","","","","","","","","","","","","","","","",""
"","do_trial","75","472584","0.0-47.0-1.0","""event"",""trial"",""time""
""fullscreenenter"",""0"",""10217""
","
","
","""event"",""trial"",""time""
""fullscreenenter"",""0"",""10217""
","
","96.09999999403954","","","","","","","","50","0,0,1","","","","","","","","","","","","","","","",""
"","html-keyboard-response","76","473586","0.0-48.0-0.0","""event"",""trial"",""time""
""fullscreenenter"",""0"",""10217""
","
","
","""event"",""trial"",""time""
""fullscreenenter"",""0"",""10217""
","
","null","<p></p>","null","","","","","","","","","","","","","","","","","","","","","","",""
"","do_trial","77","478191","0.0-48.0-1.0","""event"",""trial"",""time""
""fullscreenenter"",""0"",""10217""
","
","
","""event"",""trial"",""time""
""fullscreenenter"",""0"",""10217""
","
","98.6000000089407","","","","","","","","49","1,0,1","","","","","","","","","","","","","","","",""
"","html-keyboard-response","78","484496","0.0-49.0-0.0","""event"",""trial"",""time""
""fullscreenenter"",""0"",""10217""
","
","
","""event"",""trial"",""time""
""fullscreenenter"",""0"",""10217""
","
","6295.4000000059605","<div class='center'><p><img src='run_exp/static/images/tutorial/prac_best_pirate.png'  height='500'></p></div>","50","","","","","","","","","","","","","","","","","","","","","","",""
"","html-keyboard-response","79","486584","0.0-50.0-0.0","""event"",""trial"",""time""
""fullscreenenter"",""0"",""10217""
","
","
","""event"",""trial"",""time""
""fullscreenenter"",""0"",""10217""
","
","2086.5","<div class='center'><p>That's incorrect! Red beard was the best.</p><p><b>[Press the space bar to continue]</b></p></div>","32","","","","","","","","","","","","","","","","","","","","","","",""
"","html-keyboard-response","80","490727","0.0-50.0-1.0","""event"",""trial"",""time""
""fullscreenenter"",""0"",""10217""
","
","
","""event"",""trial"",""time""
""fullscreenenter"",""0"",""10217""
","
","4141.79999999702","<div class='center'><p><img src='run_exp/static/images/tutorial/prac_source.png'  height='500'></p></div>","49","","","","","","","","","","","","","","","","","","","","","","",""
"","html-keyboard-response","81","492125","0.0-51.0-0.0","""event"",""trial"",""time""
""fullscreenenter"",""0"",""10217""
","
","
","""event"",""trial"",""time""
""fullscreenenter"",""0"",""10217""
","
","1396.7000000029802","<div class='center'><p>That's incorrect! You saw this ship on the cavern island</p><p><b>[Press the space bar to continue]</b></p></div>","32","","","","","","","","","","","","","","","","","","","","","","",""
"","quiz_beginning","82","503574","0.0-51.0-1.0","""event"",""trial"",""time""
""fullscreenenter"",""0"",""10217""
","
","
","""event"",""trial"",""time""
""fullscreenenter"",""0"",""10217""
","
","null","run_exp/static/audio/clip_16_quiz_intro.m4a","null","","","","","<div class='center'><p>Good job on the practice game! Now, you will be asked some true or false questions to make sure you really understand the rules of the game.</p><p> Press <b>'1'</b> on the keyboard for true and press <b>'2'</b> for false.</p></div>","","","","","","","","","","","","","","","","","",""
"","audio-keyboard-response","83","509268","0.0-51.0-2.0","""event"",""trial"",""time""
""fullscreenenter"",""0"",""10217""
","
","
","""event"",""trial"",""time""
""fullscreenenter"",""0"",""10217""
","
","5692.9000000059605","run_exp/static/audio/clip_17_q1.m4a","49","","","","","","","","","","","","","","","","","","","","","","",""
"","correct","84","511933","0.0-52.0-0.0","""event"",""trial"",""time""
""fullscreenenter"",""0"",""10217""
","
","
","""event"",""trial"",""time""
""fullscreenenter"",""0"",""10217""
","
","null","run_exp/static/audio/clip_18_correct.m4a","null","","","","","<div class='center'><p>That's correct!</p></div>","","","","","","","","","","","","","","","","","",""
"","html-keyboard-response","85","525632","0.0-52.0-1.0","""event"",""trial"",""time""
""fullscreenenter"",""0"",""10217""
","
","
","""event"",""trial"",""time""
""fullscreenenter"",""0"",""10217""
","
","13698.29999999702","<div class='center'><p>That's correct!</p><p><b>[Press the space bar to continue]</b></p></div>","32","","","","","","","","","","","","","","","","","","","","","","",""
"","audio-keyboard-response","86","532670","0.0-52.0-2.0","""event"",""trial"",""time""
""fullscreenenter"",""0"",""10217""
","
","
","""event"",""trial"",""time""
""fullscreenenter"",""0"",""10217""
","
","7035.800000011921","run_exp/static/audio/clip_20_q2.m4a","50","","","","","","","","","","","","","","","","","","","","","","",""
"","correct","87","535305","0.0-53.0-0.0","""event"",""trial"",""time""
""fullscreenenter"",""0"",""10217""
","
","
","""event"",""trial"",""time""
""fullscreenenter"",""0"",""10217""
","
","null","run_exp/static/audio/clip_18_correct.m4a","null","","","","","<div class='center'><p>That's correct!</p></div>","","","","","","","","","","","","","","","","","",""
"","html-keyboard-response","88","584319","0.0-53.0-1.0","""event"",""trial"",""time""
""fullscreenenter"",""0"",""10217""
","
","
","""event"",""trial"",""time""
""fullscreenenter"",""0"",""10217""
","
","49013.5","<div class='center'><p>That's correct!</p><p><b>[Press the space bar to continue]</b></p></div>","32","","","","","","","","","","","","","","","","","","","","","","",""
"","audio-keyboard-response","89","590762","0.0-53.0-2.0","""event"",""trial"",""time""
""fullscreenenter"",""0"",""10217""
","
","
","""event"",""trial"",""time""
""fullscreenenter"",""0"",""10217""
","
","6441.29999999702","run_exp/static/audio/clip_22_q3.m4a","50","","","","","","","","","","","","","","","","","","","","","","",""
"","correct","90","593442","0.0-54.0-0.0","""event"",""trial"",""time""
""fullscreenenter"",""0"",""10217""
","
","
","""event"",""trial"",""time""
""fullscreenenter"",""0"",""10217""
","
","null","run_exp/static/audio/clip_18_correct.m4a","null","","","","","<div class='center'><p>That's correct!</p></div>","","","","","","","","","","","","","","","","","",""
"","html-keyboard-response","91","594878","0.0-54.0-1.0","""event"",""trial"",""time""
""fullscreenenter"",""0"",""10217""
","
","
","""event"",""trial"",""time""
""fullscreenenter"",""0"",""10217""
","
","1433","<div class='center'><p>That's correct!</p><p><b>[Press the space bar to continue]</b></p></div>","32","","","","","","","","","","","","","","","","","","","","","","",""
"","audio-keyboard-response","92","598673","0.0-54.0-2.0","""event"",""trial"",""time""
""fullscreenenter"",""0"",""10217""
","
","
","""event"",""trial"",""time""
""fullscreenenter"",""0"",""10217""
","
","3793.2999999970198","run_exp/static/audio/clip_24_q4.m4a","49","","","","","","","","","","","","","","","","","","","","","","",""
"","correct","93","601430","0.0-55.0-0.0","""event"",""trial"",""time""
""fullscreenenter"",""0"",""10217""
","
","
","""event"",""trial"",""time""
""fullscreenenter"",""0"",""10217""
","
","null","run_exp/static/audio/clip_18_correct.m4a","null","","","","","<div class='center'><p>That's correct!</p></div>","","","","","","","","","","","","","","","","","",""
"","html-keyboard-response","94","605561","0.0-55.0-1.0","""event"",""trial"",""time""
""fullscreenenter"",""0"",""10217""
","
","
","""event"",""trial"",""time""
""fullscreenenter"",""0"",""10217""
","
","4129.9000000059605","<div class='center'><p>That's correct!</p><p><b>[Press the space bar to continue]</b></p></div>","32","","","","","","","","","","","","","","","","","","","","","","",""
"","q_all_corr","95","614248","0.0-56.0-0.0","""event"",""trial"",""time""
""fullscreenenter"",""0"",""10217""
","
","
","""event"",""trial"",""time""
""fullscreenenter"",""0"",""10217""
","
","null","run_exp/static/audio/clip_27_quiz_all_correct.m4a","null","","","","","<div class='center'><p>Good job! You’re now ready to move on to the real game! Remember this game will be difficult but don't get discouraged and try your best!</p></div>","","","","","","","","","","","","","","","","","",""
"","html-keyboard-response","96","617044","0.0-56.0-1.0","""event"",""trial"",""time""
""fullscreenenter"",""0"",""10217""
","
","
","""event"",""trial"",""time""
""fullscreenenter"",""0"",""10217""
","
","2795.1000000089407","<div class='center'><p>Good job! You’re now ready to move on to the real game! Remember this game will be difficult but don't get discouraged and try your best!</p><p><b>[Press the space bar to continue]</b></p></div>","32","","","","","","","","","","","","","","","","","","","","","","",""
"","do_welcome","97","621051","0.0-57.0-0.0","""event"",""trial"",""time""
""fullscreenenter"",""0"",""10217""
","
","
","""event"",""trial"",""time""
""fullscreenenter"",""0"",""10217""
","
","null","","","","","","","","null","","","","","","","","","","","","","","","","",""
"","do_trial","98","627109","0.0-58.0-0.0","""event"",""trial"",""time""
""fullscreenenter"",""0"",""10217""
","
","
","""event"",""trial"",""time""
""fullscreenenter"",""0"",""10217""
","
","null","","","","","","","","null","0,0,0","0","countryside","0","probe-15","0.6","0.3","0.1","","","","","","","","",""
"","html-keyboard-response","99","628111","0.0-58.0-1.0","""event"",""trial"",""time""
""fullscreenenter"",""0"",""10217""
","
","
","""event"",""trial"",""time""
""fullscreenenter"",""0"",""10217""
","
","null","<p></p>","null","","","","","","","","","","","","","","","","","","","","","","",""
"","do_trial","100","632666","0.0-59.0-0.0","""event"",""trial"",""time""
""fullscreenenter"",""0"",""10217""
","
","
","""event"",""trial"",""time""
""fullscreenenter"",""0"",""10217""
","
","0.20000000298023224","","","","","","","","50","1,0,0","0","countryside","1","probe-149","0.5429064438774251","0.33816107216974106","0.12566139076178667","0","","","","","","","",""
"","html-keyboard-response","101","633668","0.0-59.0-1.0","""event"",""trial"",""time""
""fullscreenenter"",""0"",""10217""
","
","
","""event"",""trial"",""time""
""fullscreenenter"",""0"",""10217""
","
","null","<p></p>","null","","","","","","","","","","","","","","","","","","","","","","",""
"","do_trial","102","639724","0.0-60.0-0.0","""event"",""trial"",""time""
""fullscreenenter"",""0"",""10217""
","
","
","""event"",""trial"",""time""
""fullscreenenter"",""0"",""10217""
","
","null","","","","","","","","null","0,1,0","0","countryside","2","probe-09","0.5599200545415703","0.30767855499579144","0.11514635674475494","","","","","","","","",""
"","html-keyboard-response","103","640726","0.0-60.0-1.0","""event"",""trial"",""time""
""fullscreenenter"",""0"",""10217""
","
","
","""event"",""trial"",""time""
""fullscreenenter"",""0"",""10217""
","
","null","<p></p>","null","","","","","","","","","","","","","","","","","","","","","","",""
"","do_trial","104","646780","0.0-61.0-0.0","""event"",""trial"",""time""
""fullscreenenter"",""0"",""10217""
","
","
","""event"",""trial"",""time""
""fullscreenenter"",""0"",""10217""
","
","null","","","","","","","","null","0,0,0","0","countryside","3","probe-72","0.4606940804641173","0.24280021344827013","0.07827521092181236","","","","","","","","",""
"","html-keyboard-response","105","647782","0.0-61.0-1.0","""event"",""trial"",""time""
""fullscreenenter"",""0"",""10217""
","
","
","""event"",""trial"",""time""
""fullscreenenter"",""0"",""10217""
","
","null","<p></p>","null","","","","","","","","","","","","","","","","","","","","","","",""
"","do_trial","106","653837","0.0-62.0-0.0","""event"",""trial"",""time""
""fullscreenenter"",""0"",""10217""
","
","
","""event"",""trial"",""time""
""fullscreenenter"",""0"",""10217""
","
","null","","","","","","","","null","1,0,0","0","countryside","4","probe-227","0.40530298855345365","0.3472040644010078","0.1315460558758312","","","","","","","","",""
"","html-keyboard-response","107","654839","0.0-62.0-1.0","""event"",""trial"",""time""
""fullscreenenter"",""0"",""10217""
","
","
","""event"",""trial"",""time""
""fullscreenenter"",""0"",""10217""
","
","null","<p></p>","null","","","","","","","","","","","","","","","","","","","","","","",""
"","do_trial","108","661118","0.0-63.0-0.0","""event"",""trial"",""time""
""fullscreenenter"",""0"",""10217""
","
","
","""event"",""trial"",""time""
""fullscreenenter"",""0"",""10217""
","
","1724.4000000059605","","","","","","","","51","1,0,0","0","countryside","5","probe-153","0.5235348895385944","0.29500534167055864","0.09924430482744284","0","","","","","","","",""
"","html-keyboard-response","109","662120","0.0-63.0-1.0","""event"",""trial"",""time""
""fullscreenenter"",""0"",""10217""
","
","
","""event"",""trial"",""time""
""fullscreenenter"",""0"",""10217""
","
","null","<p></p>","null","","","","","","","","","","","","","","","","","","","","","","",""
"","do_trial","110","668177","0.0-64.0-0.0","""event"",""trial"",""time""
""fullscreenenter"",""0"",""10217""
","
","
","""event"",""trial"",""time""
""fullscreenenter"",""0"",""10217""
","
","null","","","","","","","","null","1,1,0","0","countryside","6","probe-63","0.5476342494111789","0.36366502814220014","0.10890068520666865","","","","","","","","",""
"","html-keyboard-response","111","669179","0.0-64.0-1.0","""event"",""trial"",""time""
""fullscreenenter"",""0"",""10217""
","
","
","""event"",""trial"",""time""
""fullscreenenter"",""0"",""10217""
","
","null","<p></p>","null","","","","","","","","","","","","","","","","","","","","","","",""
"","do_trial","112","673800","0.0-65.0-0.0","""event"",""trial"",""time""
""fullscreenenter"",""0"",""10217""
","
","
","""event"",""trial"",""time""
""fullscreenenter"",""0"",""10217""
","
","65.70000000298023","","","","","","","","49","0,0,0","0","countryside","7","probe-51","0.5463911314658026","0.2713552570531909","0.07153037112279449","0","","","","","","","",""
"","html-keyboard-response","113","674802","0.0-65.0-1.0","""event"",""trial"",""time""
""fullscreenenter"",""0"",""10217""
","
","
","""event"",""trial"",""time""
""fullscreenenter"",""0"",""10217""
","
","null","<p></p>","null","","","","","","","","","","","","","","","","","","","","","","",""
"","do_trial","114","680005","0.0-66.0-0.0","""event"",""trial"",""time""
""fullscreenenter"",""0"",""10217""
","
","
","""event"",""trial"",""time""
""fullscreenenter"",""0"",""10217""
","
","639.1000000089407","","","","","","","","50","1,0,0","0","countryside","8","probe-92","0.4869841808203657","0.21364089828468033","0.18949073320322898","0","","","","","","","",""
"","html-keyboard-response","115","681006","0.0-66.0-1.0","""event"",""trial"",""time""
""fullscreenenter"",""0"",""10217""
","
","
","""event"",""trial"",""time""
""fullscreenenter"",""0"",""10217""
","
","null","<p></p>","null","","","","","","","","","","","","","","","","","","","","","","",""
"","do_trial","116","687062","0.0-67.0-0.0","""event"",""trial"",""time""
""fullscreenenter"",""0"",""10217""
","
","
","""event"",""trial"",""time""
""fullscreenenter"",""0"",""10217""
","
","null","","","","","","","","null","1,0,0","0","countryside","9","probe-224","0.5148509441038226","0.18517773835254434","0.1494714870318597","","","","","","","","",""
"","html-keyboard-response","117","688064","0.0-67.0-1.0","""event"",""trial"",""time""
""fullscreenenter"",""0"",""10217""
","
","
","""event"",""trial"",""time""
""fullscreenenter"",""0"",""10217""
","
","null","<p></p>","null","","","","","","","","","","","","","","","","","","","","","","",""
"","do_trial","118","693175","0.0-68.0-0.0","""event"",""trial"",""time""
""fullscreenenter"",""0"",""10217""
","
","
","""event"",""trial"",""time""
""fullscreenenter"",""0"",""10217""
","
","556.0999999940395","","","","","","","","50","0,0,0","0","countryside","10","probe-101","0.4503463252850186","0.300541734390079","0.07707008705621428","0","","","","","","","",""
"","html-keyboard-response","119","694177","0.0-68.0-1.0","""event"",""trial"",""time""
""fullscreenenter"",""0"",""10217""
","
","
","""event"",""trial"",""time""
""fullscreenenter"",""0"",""10217""
","
","null","<p></p>","null","","","","","","","","","","","","","","","","","","","","","","",""
"","do_trial","120","700232","0.0-69.0-0.0","""event"",""trial"",""time""
""fullscreenenter"",""0"",""10217""
","
","
","""event"",""trial"",""time""
""fullscreenenter"",""0"",""10217""
","
","null","","","","","","","","null","1,1,1","0","countryside","11","probe-229","0.7263811678771731","0.37913464205368996","0.1634086265398231","","","","","","","","",""
"","html-keyboard-response","121","701234","0.0-69.0-1.0","""event"",""trial"",""time""
""fullscreenenter"",""0"",""10217""
","
","
","""event"",""trial"",""time""
""fullscreenenter"",""0"",""10217""
","
","null","<p></p>","null","","","","","","","","","","","","","","","","","","","","","","",""
"","do_trial","122","707290","0.0-70.0-0.0","""event"",""trial"",""time""
""fullscreenenter"",""0"",""10217""
","
","
","""event"",""trial"",""time""
""fullscreenenter"",""0"",""10217""
","
","null","","","","","","","","null","0,1,0","0","countryside","12","probe-98","0.5572159688372378","0.391001298559183","0.13538804914485422","","","","","","","","",""
"","html-keyboard-response","123","708292","0.0-70.0-1.0","""event"",""trial"",""time""
""fullscreenenter"",""0"",""10217""
","
","
","""event"",""trial"",""time""
""fullscreenenter"",""0"",""10217""
","
","null","<p></p>","null","","","","","","","","","","","","","","","","","","","","","","",""
"","do_trial","124","714348","0.0-71.0-0.0","""event"",""trial"",""time""
""fullscreenenter"",""0"",""10217""
","
","
","""event"",""trial"",""time""
""fullscreenenter"",""0"",""10217""
","
","null","","","","","","","","null","1,0,0","0","countryside","13","probe-219","0.5621679784081279","0.33829718992451413","0.18104259647109955","","","","","","","","",""
"","html-keyboard-response","125","715350","0.0-71.0-1.0","""event"",""trial"",""time""
""fullscreenenter"",""0"",""10217""
","
","
","""event"",""trial"",""time""
""fullscreenenter"",""0"",""10217""
","
","null","<p></p>","null","","","","","","","","","","","","","","","","","","","","","","",""
"","do_trial","126","721035","0.0-72.0-0.0","""event"",""trial"",""time""
""fullscreenenter"",""0"",""10217""
","
","
","""event"",""trial"",""time""
""fullscreenenter"",""0"",""10217""
","
","1130.0999999940395","","","","","","","","51","0,0,0","0","countryside","14","probe-27","0.6390478781728055","0.23582411790811286","0.21949083132814282","0","","","","","","","",""
"","html-keyboard-response","127","722037","0.0-72.0-1.0","""event"",""trial"",""time""
""fullscreenenter"",""0"",""10217""
","
","
","""event"",""trial"",""time""
""fullscreenenter"",""0"",""10217""
","
","null","<p></p>","null","","","","","","","","","","","","","","","","","","","","","","",""
"","do_trial","128","728094","0.0-73.0-0.0","""event"",""trial"",""time""
""fullscreenenter"",""0"",""10217""
","
","
","""event"",""trial"",""time""
""fullscreenenter"",""0"",""10217""
","
","null","","","","","","","","null","0,0,0","0","countryside","15","probe-187","0.626041962498754","0.3602687501682083","0.1752868290098537","","","","","","","","",""
"","html-keyboard-response","129","729096","0.0-73.0-1.0","""event"",""trial"",""time""
""fullscreenenter"",""0"",""10217""
","
","
","""event"",""trial"",""time""
""fullscreenenter"",""0"",""10217""
","
","null","<p></p>","null","","","","","","","","","","","","","","","","","","","","","","",""
"","do_trial","130","735153","0.0-74.0-0.0","""event"",""trial"",""time""
""fullscreenenter"",""0"",""10217""
","
","
","""event"",""trial"",""time""
""fullscreenenter"",""0"",""10217""
","
","null","","","","","","","","null","1,1,1","0","countryside","16","probe-81","0.6790121760017614","0.42019171586329934","0.2424680964436596","","","","","","","","",""
"","html-keyboard-response","131","736154","0.0-74.0-1.0","""event"",""trial"",""time""
""fullscreenenter"",""0"",""10217""
","
","
","""event"",""trial"",""time""
""fullscreenenter"",""0"",""10217""
","
","null","<p></p>","null","","","","","","","","","","","","","","","","","","","","","","",""
"","do_trial","132","740759","0.0-75.0-0.0","""event"",""trial"",""time""
""fullscreenenter"",""0"",""10217""
","
","
","""event"",""trial"",""time""
""fullscreenenter"",""0"",""10217""
","
","50.29999999701977","","","","","","","","50","0,1,0","0","countryside","17","probe-225","0.6874119994492185","0.357249940149409","0.08126317895875755","1","","","","","","","",""
"","html-keyboard-response","133","741761","0.0-75.0-1.0","""event"",""trial"",""time""
""fullscreenenter"",""0"",""10217""
","
","
","""event"",""trial"",""time""
""fullscreenenter"",""0"",""10217""
","
","null","<p></p>","null","","","","","","","","","","","","","","","","","","","","","","",""
"","do_trial","134","747816","0.0-76.0-0.0","""event"",""trial"",""time""
""fullscreenenter"",""0"",""10217""
","
","
","""event"",""trial"",""time""
""fullscreenenter"",""0"",""10217""
","
","null","","","","","","","","null","1,0,0","0","countryside","18","probe-20","0.6459608179119287","0.21207652078834124","0.05374565955092672","","","","","","","","",""
"","html-keyboard-response","135","748817","0.0-76.0-1.0","""event"",""trial"",""time""
""fullscreenenter"",""0"",""10217""
","
","
","""event"",""trial"",""time""
""fullscreenenter"",""0"",""10217""
","
","null","<p></p>","null","","","","","","","","","","","","","","","","","","","","","","",""
"","do_trial","136","753445","0.0-77.0-0.0","""event"",""trial"",""time""
""fullscreenenter"",""0"",""10217""
","
","
","""event"",""trial"",""time""
""fullscreenenter"",""0"",""10217""
","
","71.90000000596046","","","","","","","","50","1,1,0","0","countryside","19","probe-55","0.7056730480591118","0.28995702732482054","0.10123239000949967","1","","","","","","","",""
"","html-keyboard-response","137","754448","0.0-77.0-1.0","""event"",""trial"",""time""
""fullscreenenter"",""0"",""10217""
","
","
","""event"",""trial"",""time""
""fullscreenenter"",""0"",""10217""
","
","null","<p></p>","null","","","","","","","","","","","","","","","","","","","","","","",""
"","do_trial","138","759196","0.0-78.0-0.0","""event"",""trial"",""time""
""fullscreenenter"",""0"",""10217""
","
","
","""event"",""trial"",""time""
""fullscreenenter"",""0"",""10217""
","
","194.20000000298023","","","","","","","","51","1,1,0","0","countryside","20","probe-161","0.545148477007435","0.3919263884070409","0.19831265662092282","0","","","","","","","",""
"","html-keyboard-response","139","760197","0.0-78.0-1.0","""event"",""trial"",""time""
""fullscreenenter"",""0"",""10217""
","
","
","""event"",""trial"",""time""
""fullscreenenter"",""0"",""10217""
","
","null","<p></p>","null","","","","","","","","","","","","","","","","","","","","","","",""
"","do_trial","140","766258","0.0-79.0-0.0","""event"",""trial"",""time""
""fullscreenenter"",""0"",""10217""
","
","
","""event"",""trial"",""time""
""fullscreenenter"",""0"",""10217""
","
","null","","","","","","","","null","1,1,0","0","countryside","21","probe-36","0.6056212413376643","0.3956064134595942","0.07476087861486581","","","","","","","","",""
"","html-keyboard-response","141","767259","0.0-79.0-1.0","""event"",""trial"",""time""
""fullscreenenter"",""0"",""10217""
","
","
","""event"",""trial"",""time""
""fullscreenenter"",""0"",""10217""
","
","null","<p></p>","null","","","","","","","","","","","","","","","","","","","","","","",""
"","do_trial","142","774544","0.0-80.0-0.0","""event"",""trial"",""time""
""fullscreenenter"",""0"",""10217""
","
","
","""event"",""trial"",""time""
""fullscreenenter"",""0"",""10217""
","
","2729.5","","","","","","","","50","1,0,0","0","countryside","22","probe-179","0.6524063649287662","0.33856503285209505","0.06828403502738438","0","","","","","","","",""
"","html-keyboard-response","143","775546","0.0-80.0-1.0","""event"",""trial"",""time""
""fullscreenenter"",""0"",""10217""
","
","
","""event"",""trial"",""time""
""fullscreenenter"",""0"",""10217""
","
","null","<p></p>","null","","","","","","","","","","","","","","","","","","","","","","",""
"","do_trial","144","781601","0.0-81.0-0.0","""event"",""trial"",""time""
""fullscreenenter"",""0"",""10217""
","
","
","""event"",""trial"",""time""
""fullscreenenter"",""0"",""10217""
","
","null","","","","","","","","null","0,1,0","0","countryside","23","probe-14","0.6751942837778296","0.3493476502858252","0.0689486467508823","","","","","","","","",""
"","html-keyboard-response","145","782602","0.0-81.0-1.0","""event"",""trial"",""time""
""fullscreenenter"",""0"",""10217""
","
","
","""event"",""trial"",""time""
""fullscreenenter"",""0"",""10217""
","
","null","<p></p>","null","","","","","","","","","","","","","","","","","","","","","","",""
"","do_trial","146","788659","0.0-82.0-0.0","""event"",""trial"",""time""
""fullscreenenter"",""0"",""10217""
","
","
","""event"",""trial"",""time""
""fullscreenenter"",""0"",""10217""
","
","null","","","","","","","","null","1,0,0","0","countryside","24","probe-120","0.7030871703090528","0.3238665283251697","0.14810894550844506","","","","","","","","",""
"","html-keyboard-response","147","789660","0.0-82.0-1.0","""event"",""trial"",""time""
""fullscreenenter"",""0"",""10217""
","
","
","""event"",""trial"",""time""
""fullscreenenter"",""0"",""10217""
","
","null","<p></p>","null","","","","","","","","","","","","","","","","","","","","","","",""
"","do_trial","148","795715","0.0-83.0-0.0","""event"",""trial"",""time""
""fullscreenenter"",""0"",""10217""
","
","
","""event"",""trial"",""time""
""fullscreenenter"",""0"",""10217""
","
","null","","","","","","","","null","0,0,0","0","countryside","25","probe-83","0.5475657792306293","0.23242335657641128","0.0862107736902263","","","","","","","","",""
"","html-keyboard-response","149","796717","0.0-83.0-1.0","""event"",""trial"",""time""
""fullscreenenter"",""0"",""10217""
","
","
","""event"",""trial"",""time""
""fullscreenenter"",""0"",""10217""
","
","null","<p></p>","null","","","","","","","","","","","","","","","","","","","","","","",""
"","do_trial","150","802107","0.0-84.0-0.0","""event"",""trial"",""time""
""fullscreenenter"",""0"",""10217""
","
","
","""event"",""trial"",""time""
""fullscreenenter"",""0"",""10217""
","
","835.2000000029802","","","","","","","","51","0,0,0","0","countryside","26","probe-142","0.7543857126353527","0.2572200224401694","0.07732693332801631","0","","","","","","","",""
"","html-keyboard-response","151","803109","0.0-84.0-1.0","""event"",""trial"",""time""
""fullscreenenter"",""0"",""10217""
","
","
","""event"",""trial"",""time""
""fullscreenenter"",""0"",""10217""
","
","null","<p></p>","null","","","","","","","","","","","","","","","","","","","","","","",""
"","do_trial","152","807881","0.0-85.0-0.0","""event"",""trial"",""time""
""fullscreenenter"",""0"",""10217""
","
","
","""event"",""trial"",""time""
""fullscreenenter"",""0"",""10217""
","
","216.6000000089407","","","","","","","","49","0,0,0","0","countryside","27","probe-192","0.7094457212246756","0.3513721678796794","0.08117897482745781","0","","","","","","","",""
"","html-keyboard-response","153","808883","0.0-85.0-1.0","""event"",""trial"",""time""
""fullscreenenter"",""0"",""10217""
","
","
","""event"",""trial"",""time""
""fullscreenenter"",""0"",""10217""
","
","null","<p></p>","null","","","","","","","","","","","","","","","","","","","","","","",""
"","do_trial","154","813518","0.0-86.0-0.0","""event"",""trial"",""time""
""fullscreenenter"",""0"",""10217""
","
","
","""event"",""trial"",""time""
""fullscreenenter"",""0"",""10217""
","
","80.79999999701977","","","","","","","","49","1,0,0","0","countryside","28","probe-134","0.7003370470427467","0.1887908897376439","0.19029713744194765","1","","","","","","","",""
"","html-keyboard-response","155","814520","0.0-86.0-1.0","""event"",""trial"",""time""
""fullscreenenter"",""0"",""10217""
","
","
","""event"",""trial"",""time""
""fullscreenenter"",""0"",""10217""
","
","null","<p></p>","null","","","","","","","","","","","","","","","","","","","","","","",""
"","do_trial","156","820576","0.0-87.0-0.0","""event"",""trial"",""time""
""fullscreenenter"",""0"",""10217""
","
","
","""event"",""trial"",""time""
""fullscreenenter"",""0"",""10217""
","
","null","","","","","","","","null","1,1,0","0","countryside","29","probe-82","0.6792740168194509","0.24157614974613395","0.2844884006367604","","","","","","","","",""
"","html-keyboard-response","157","821578","0.0-87.0-1.0","""event"",""trial"",""time""
""fullscreenenter"",""0"",""10217""
","
","
","""event"",""trial"",""time""
""fullscreenenter"",""0"",""10217""
","
","null","<p></p>","null","","","","","","","","","","","","","","","","","","","","","","",""
"","do_bye","158","823082","0.0-88.0-0.0","""event"",""trial"",""time""
""fullscreenenter"",""0"",""10217""
","
","
","""event"",""trial"",""time""
""fullscreenenter"",""0"",""10217""
","
","null","","","","","","","","null","","","","","","","","","","","","","","","","",""
"","break","159","866409","0.0-88.0-1.0","""event"",""trial"",""time""
""fullscreenenter"",""0"",""10217""
","
","
","""event"",""trial"",""time""
""fullscreenenter"",""0"",""10217""
","
","43325.09999999404","<div class='center'><p>Time to take a quick break! You have 2 minutes to rest, but you can move on sooner if you'd like.</p><p> Press the <b>space bar</b> to continue.</p></div>","32","","","","","","","","","","","","","","","","","","","","","","",""
"","do_travel","160","875412","0.0-89.0-0.0","""event"",""trial"",""time""
""fullscreenenter"",""0"",""10217""
","
","
","""event"",""trial"",""time""
""fullscreenenter"",""0"",""10217""
","
","null","","","","","","","","null","","","","","","","","","","","","","","","","",""
"","do_welcome","161","879418","0.0-89.0-1.0","""event"",""trial"",""time""
""fullscreenenter"",""0"",""10217""
","
","
","""event"",""trial"",""time""
""fullscreenenter"",""0"",""10217""
","
","null","","","","","","","","null","","","","","","","","","","","","","","","","",""
"","do_trial","162","886475","0.0-90.0-0.0","""event"",""trial"",""time""
""fullscreenenter"",""0"",""10217""
","
","
","""event"",""trial"",""time""
""fullscreenenter"",""0"",""10217""
","
","2500.3999999910593","","","","","","","","51","1,1,0","1","forest","30","probe-156","1","0.3342739912780151","0.17370973867718262","0","","","","","","","",""
"","html-keyboard-response","163","887477","0.0-90.0-1.0","""event"",""trial"",""time""
""fullscreenenter"",""0"",""10217""
","
","
","""event"",""trial"",""time""
""fullscreenenter"",""0"",""10217""
","
","null","<p></p>","null","","","","","","","","","","","","","","","","","","","","","","",""
"","do_trial","164","893533","0.0-91.0-0.0","""event"",""trial"",""time""
""fullscreenenter"",""0"",""10217""
","
","
","""event"",""trial"",""time""
""fullscreenenter"",""0"",""10217""
","
","null","","","","","","","","null","1,1,0","1","forest","31","probe-56","1","0.3715367972746866","0.15134970962066735","","","","","","","","",""
"","html-keyboard-response","165","894535","0.0-91.0-1.0","""event"",""trial"",""time""
""fullscreenenter"",""0"",""10217""
","
","
","""event"",""trial"",""time""
""fullscreenenter"",""0"",""10217""
","
","null","<p></p>","null","","","","","","","","","","","","","","","","","","","","","","",""
"","do_trial","166","900590","0.0-92.0-0.0","""event"",""trial"",""time""
""fullscreenenter"",""0"",""10217""
","
","
","""event"",""trial"",""time""
""fullscreenenter"",""0"",""10217""
","
","null","","","","","","","","null","1,0,0","1","forest","32","probe-64","1","0.41692260766777706","0.07453260129830072","","","","","","","","",""
"","html-keyboard-response","167","901592","0.0-92.0-1.0","""event"",""trial"",""time""
""fullscreenenter"",""0"",""10217""
","
","
","""event"",""trial"",""time""
""fullscreenenter"",""0"",""10217""
","
","null","<p></p>","null","","","","","","","","","","","","","","","","","","","","","","",""
"","do_trial","168","907646","0.0-93.0-0.0","""event"",""trial"",""time""
""fullscreenenter"",""0"",""10217""
","
","
","""event"",""trial"",""time""
""fullscreenenter"",""0"",""10217""
","
","null","","","","","","","","null","1,1,0","1","forest","33","probe-104","0.8279972185231729","0.3259096230010748","0.1911784689779801","","","","","","","","",""
"","html-keyboard-response","169","908648","0.0-93.0-1.0","""event"",""trial"",""time""
""fullscreenenter"",""0"",""10217""
","
","
","""event"",""trial"",""time""
""fullscreenenter"",""0"",""10217""
","
","null","<p></p>","null","","","","","","","","","","","","","","","","","","","","","","",""
"","do_trial","170","913285","0.0-94.0-0.0","""event"",""trial"",""time""
""fullscreenenter"",""0"",""10217""
","
","
","""event"",""trial"",""time""
""fullscreenenter"",""0"",""10217""
","
","81.6000000089407","","","","","","","","50","1,1,0","1","forest","34","probe-91","0.7655467516711704","0.317407919398123","0.08998951482265166","1","","","","","","","",""
"","html-keyboard-response","171","914287","0.0-94.0-1.0","""event"",""trial"",""time""
""fullscreenenter"",""0"",""10217""
","
","
","""event"",""trial"",""time""
""fullscreenenter"",""0"",""10217""
","
","null","<p></p>","null","","","","","","","","","","","","","","","","","","","","","","",""
"","do_trial","172","919169","0.0-95.0-0.0","""event"",""trial"",""time""
""fullscreenenter"",""0"",""10217""
","
","
","""event"",""trial"",""time""
""fullscreenenter"",""0"",""10217""
","
","327.80000001192093","","","","","","","","50","1,0,0","1","forest","35","probe-108","0.585231127861836","0.3306790328038404","0.23386127558557462","0","","","","","","","",""
"","html-keyboard-response","173","920171","0.0-95.0-1.0","""event"",""trial"",""time""
""fullscreenenter"",""0"",""10217""
","
","
","""event"",""trial"",""time""
""fullscreenenter"",""0"",""10217""
","
","null","<p></p>","null","","","","","","","","","","","","","","","","","","","","","","",""
"","do_trial","174","924840","0.0-96.0-0.0","""event"",""trial"",""time""
""fullscreenenter"",""0"",""10217""
","
","
","""event"",""trial"",""time""
""fullscreenenter"",""0"",""10217""
","
","112.6000000089407","","","","","","","","49","1,0,0","1","forest","36","probe-152","0.5889645767525328","0.3965022087169715","0.2685087852975778","1","","","","","","","",""
"","html-keyboard-response","175","925842","0.0-96.0-1.0","""event"",""trial"",""time""
""fullscreenenter"",""0"",""10217""
","
","
","""event"",""trial"",""time""
""fullscreenenter"",""0"",""10217""
","
","null","<p></p>","null","","","","","","","","","","","","","","","","","","","","","","",""
"","do_trial","176","930586","0.0-97.0-0.0","""event"",""trial"",""time""
""fullscreenenter"",""0"",""10217""
","
","
","""event"",""trial"",""time""
""fullscreenenter"",""0"",""10217""
","
","190","","","","","","","","50","0,0,1","1","forest","37","probe-74","0.48965680434273906","0.34730241429479164","0.23225667535536632","0","","","","","","","",""
"","html-keyboard-response","177","931588","0.0-97.0-1.0","""event"",""trial"",""time""
""fullscreenenter"",""0"",""10217""
""fullscreenexit"",""178"",""935399""
""blur"",""178"",""936814""
","""event"",""trial"",""time""
""blur"",""178"",""936814""
","
","""event"",""trial"",""time""
""fullscreenenter"",""0"",""10217""
","""event"",""trial"",""time""
""fullscreenexit"",""178"",""935399""
","null","<p></p>","null","","","","","","","","","","","","","","","","","","","","","","",""
"","do_trial","178","937834","0.0-98.0-0.0","""event"",""trial"",""time""
""fullscreenenter"",""0"",""10217""
""fullscreenexit"",""178"",""935399""
""blur"",""178"",""936814""
","""event"",""trial"",""time""
""blur"",""178"",""936814""
","
","""event"",""trial"",""time""
""fullscreenenter"",""0"",""10217""
","""event"",""trial"",""time""
""fullscreenexit"",""178"",""935399""
","null","","","","","","","","null","0,0,0","1","forest","38","probe-184","0.39775614297676576","0.4188465590132301","0.2838572701289524","","","","","","","","",""
"","html-keyboard-response","179","939842","0.0-98.0-1.0","""event"",""trial"",""time""
""fullscreenenter"",""0"",""10217""
""fullscreenexit"",""178"",""935399""
""blur"",""178"",""936814""
","""event"",""trial"",""time""
""blur"",""178"",""936814""
","
","""event"",""trial"",""time""
""fullscreenenter"",""0"",""10217""
","""event"",""trial"",""time""
""fullscreenexit"",""178"",""935399""
","null","<p></p>","null","","","","","","","","","","","","","","","","","","","","","","",""
"","do_trial","180","947833","0.0-99.0-0.0","""event"",""trial"",""time""
""fullscreenenter"",""0"",""10217""
""fullscreenexit"",""178"",""935399""
""blur"",""178"",""936814""
","""event"",""trial"",""time""
""blur"",""178"",""936814""
","
","""event"",""trial"",""time""
""fullscreenenter"",""0"",""10217""
","""event"",""trial"",""time""
""fullscreenexit"",""178"",""935399""
","null","","","","","","","","null","0,0,1","1","forest","39","probe-06","0.5643464036407576","0.3581301023430333","0.18313495143229572","","","","","","","","",""
"","html-keyboard-response","181","949833","0.0-99.0-1.0","""event"",""trial"",""time""
""fullscreenenter"",""0"",""10217""
""fullscreenexit"",""178"",""935399""
""blur"",""178"",""936814""
","""event"",""trial"",""time""
""blur"",""178"",""936814""
","
","""event"",""trial"",""time""
""fullscreenenter"",""0"",""10217""
","""event"",""trial"",""time""
""fullscreenexit"",""178"",""935399""
","null","<p></p>","null","","","","","","","","","","","","","","","","","","","","","","",""
"","do_trial","182","957833","0.0-100.0-0.0","""event"",""trial"",""time""
""fullscreenenter"",""0"",""10217""
""fullscreenexit"",""178"",""935399""
""blur"",""178"",""936814""
","""event"",""trial"",""time""
""blur"",""178"",""936814""
","
","""event"",""trial"",""time""
""fullscreenenter"",""0"",""10217""
","""event"",""trial"",""time""
""fullscreenexit"",""178"",""935399""
","null","","","","","","","","null","1,0,0","1","forest","40","probe-148","0.6768994781700157","0.42108775495451484","0.13032905623993862","","","","","","","","",""
"","html-keyboard-response","183","959833","0.0-100.0-1.0","""event"",""trial"",""time""
""fullscreenenter"",""0"",""10217""
""fullscreenexit"",""178"",""935399""
""blur"",""178"",""936814""
","""event"",""trial"",""time""
""blur"",""178"",""936814""
","
","""event"",""trial"",""time""
""fullscreenenter"",""0"",""10217""
","""event"",""trial"",""time""
""fullscreenexit"",""178"",""935399""
","null","<p></p>","null","","","","","","","","","","","","","","","","","","","","","","",""
"","do_trial","184","967833","0.0-101.0-0.0","""event"",""trial"",""time""
""fullscreenenter"",""0"",""10217""
""fullscreenexit"",""178"",""935399""
""blur"",""178"",""936814""
","""event"",""trial"",""time""
""blur"",""178"",""936814""
","
","""event"",""trial"",""time""
""fullscreenenter"",""0"",""10217""
","""event"",""trial"",""time""
""fullscreenexit"",""178"",""935399""
","null","","","","","","","","null","0,1,0","1","forest","41","probe-69","0.5680481612686292","0.4743525582554306","0.12715730565391328","","","","","","","","",""
"","html-keyboard-response","185","969834","0.0-101.0-1.0","""event"",""trial"",""time""
""fullscreenenter"",""0"",""10217""
""fullscreenexit"",""178"",""935399""
""blur"",""178"",""936814""
","""event"",""trial"",""time""
""blur"",""178"",""936814""
","
","""event"",""trial"",""time""
""fullscreenenter"",""0"",""10217""
","""event"",""trial"",""time""
""fullscreenexit"",""178"",""935399""
","null","<p></p>","null","","","","","","","","","","","","","","","","","","","","","","",""
"","do_trial","186","977833","0.0-102.0-0.0","""event"",""trial"",""time""
""fullscreenenter"",""0"",""10217""
""fullscreenexit"",""178"",""935399""
""blur"",""178"",""936814""
","""event"",""trial"",""time""
""blur"",""178"",""936814""
","
","""event"",""trial"",""time""
""fullscreenenter"",""0"",""10217""
","""event"",""trial"",""time""
""fullscreenexit"",""178"",""935399""
","null","","","","","","","","null","0,0,1","1","forest","42","probe-199","0.5478298384759742","0.3104683775077698","0.3244921391561628","","","","","","","","",""
"","html-keyboard-response","187","979833","0.0-102.0-1.0","""event"",""trial"",""time""
""fullscreenenter"",""0"",""10217""
""fullscreenexit"",""178"",""935399""
""blur"",""178"",""936814""
","""event"",""trial"",""time""
""blur"",""178"",""936814""
","
","""event"",""trial"",""time""
""fullscreenenter"",""0"",""10217""
","""event"",""trial"",""time""
""fullscreenexit"",""178"",""935399""
","null","<p></p>","null","","","","","","","","","","","","","","","","","","","","","","",""
"","do_trial","188","987834","0.0-103.0-0.0","""event"",""trial"",""time""
""fullscreenenter"",""0"",""10217""
""fullscreenexit"",""178"",""935399""
""blur"",""178"",""936814""
","""event"",""trial"",""time""
""blur"",""178"",""936814""
","
","""event"",""trial"",""time""
""fullscreenenter"",""0"",""10217""
","""event"",""trial"",""time""
""fullscreenexit"",""178"",""935399""
","null","","","","","","","","null","0,0,1","1","forest","43","probe-68","0.4306204123635798","0.21235777674478876","0.4616694099888002","","","","","","","","",""
"","html-keyboard-response","189","989833","0.0-103.0-1.0","""event"",""trial"",""time""
""fullscreenenter"",""0"",""10217""
""fullscreenexit"",""178"",""935399""
""blur"",""178"",""936814""
","""event"",""trial"",""time""
""blur"",""178"",""936814""
","
","""event"",""trial"",""time""
""fullscreenenter"",""0"",""10217""
","""event"",""trial"",""time""
""fullscreenexit"",""178"",""935399""
","null","<p></p>","null","","","","","","","","","","","","","","","","","","","","","","",""
"","do_trial","190","997833","0.0-104.0-0.0","""event"",""trial"",""time""
""fullscreenenter"",""0"",""10217""
""fullscreenexit"",""178"",""935399""
""blur"",""178"",""936814""
","""event"",""trial"",""time""
""blur"",""178"",""936814""
","
","""event"",""trial"",""time""
""fullscreenenter"",""0"",""10217""
","""event"",""trial"",""time""
""fullscreenexit"",""178"",""935399""
","null","","","","","","","","null","1,1,0","1","forest","44","probe-228","0.3615806467726228","0.2970094915320707","0.45374136533304943","","","","","","","","",""
"","html-keyboard-response","191","999833","0.0-104.0-1.0","""event"",""trial"",""time""
""fullscreenenter"",""0"",""10217""
""fullscreenexit"",""178"",""935399""
""blur"",""178"",""936814""
","""event"",""trial"",""time""
""blur"",""178"",""936814""
","
","""event"",""trial"",""time""
""fullscreenenter"",""0"",""10217""
","""event"",""trial"",""time""
""fullscreenexit"",""178"",""935399""
","null","<p></p>","null","","","","","","","","","","","","","","","","","","","","","","",""
"","do_trial","192","1007833","0.0-105.0-0.0","""event"",""trial"",""time""
""fullscreenenter"",""0"",""10217""
""fullscreenexit"",""178"",""935399""
""blur"",""178"",""936814""
","""event"",""trial"",""time""
""blur"",""178"",""936814""
","
","""event"",""trial"",""time""
""fullscreenenter"",""0"",""10217""
","""event"",""trial"",""time""
""fullscreenexit"",""178"",""935399""
","null","","","","","","","","null","0,0,0","1","forest","45","probe-39","0.3569001278343366","0.269655632422854","0.37189861912088723","","","","","","","","",""
"","html-keyboard-response","193","1009833","0.0-105.0-1.0","""event"",""trial"",""time""
""fullscreenenter"",""0"",""10217""
""fullscreenexit"",""178"",""935399""
""blur"",""178"",""936814""
""focus"",""194"",""1010737""
","""event"",""trial"",""time""
""blur"",""178"",""936814""
","""event"",""trial"",""time""
""focus"",""194"",""1010737""
","""event"",""trial"",""time""
""fullscreenenter"",""0"",""10217""
","""event"",""trial"",""time""
""fullscreenexit"",""178"",""935399""
","null","<p></p>","null","","","","","","","","","","","","","","","","","","","","","","",""
"","do_trial","194","1015891","0.0-106.0-0.0","""event"",""trial"",""time""
""fullscreenenter"",""0"",""10217""
""fullscreenexit"",""178"",""935399""
""blur"",""178"",""936814""
""focus"",""194"",""1010737""
","""event"",""trial"",""time""
""blur"",""178"",""936814""
","""event"",""trial"",""time""
""focus"",""194"",""1010737""
","""event"",""trial"",""time""
""fullscreenenter"",""0"",""10217""
","""event"",""trial"",""time""
""fullscreenexit"",""178"",""935399""
","null","","","","","","","","null","0,0,1","1","forest","46","probe-133","0.5204545486869747","0.07778353120823706","0.49685268098350804","","","","","","","","",""
"","html-keyboard-response","195","1016892","0.0-106.0-1.0","""event"",""trial"",""time""
""fullscreenenter"",""0"",""10217""
""fullscreenexit"",""178"",""935399""
""blur"",""178"",""936814""
""focus"",""194"",""1010737""
","""event"",""trial"",""time""
""blur"",""178"",""936814""
","""event"",""trial"",""time""
""focus"",""194"",""1010737""
","""event"",""trial"",""time""
""fullscreenenter"",""0"",""10217""
","""event"",""trial"",""time""
""fullscreenexit"",""178"",""935399""
","null","<p></p>","null","","","","","","","","","","","","","","","","","","","","","","",""
"","do_trial","196","1023143","0.0-107.0-0.0","""event"",""trial"",""time""
""fullscreenenter"",""0"",""10217""
""fullscreenexit"",""178"",""935399""
""blur"",""178"",""936814""
""focus"",""194"",""1010737""
","""event"",""trial"",""time""
""blur"",""178"",""936814""
","""event"",""trial"",""time""
""focus"",""194"",""1010737""
","""event"",""trial"",""time""
""fullscreenenter"",""0"",""10217""
","""event"",""trial"",""time""
""fullscreenexit"",""178"",""935399""
","1695","","","","","","","","51","0,1,1","1","forest","47","probe-33","0.44732151321147945","0.1429364258360447","0.48540305894400626","1","","","","","","","",""
"","html-keyboard-response","197","1024145","0.0-107.0-1.0","""event"",""trial"",""time""
""fullscreenenter"",""0"",""10217""
""fullscreenexit"",""178"",""935399""
""blur"",""178"",""936814""
""focus"",""194"",""1010737""
","""event"",""trial"",""time""
""blur"",""178"",""936814""
","""event"",""trial"",""time""
""focus"",""194"",""1010737""
","""event"",""trial"",""time""
""fullscreenenter"",""0"",""10217""
","""event"",""trial"",""time""
""fullscreenexit"",""178"",""935399""
","null","<p></p>","null","","","","","","","","","","","","","","","","","","","","","","",""
"","do_trial","198","1030199","0.0-108.0-0.0","""event"",""trial"",""time""
""fullscreenenter"",""0"",""10217""
""fullscreenexit"",""178"",""935399""
""blur"",""178"",""936814""
""focus"",""194"",""1010737""
","""event"",""trial"",""time""
""blur"",""178"",""936814""
","""event"",""trial"",""time""
""focus"",""194"",""1010737""
","""event"",""trial"",""time""
""fullscreenenter"",""0"",""10217""
","""event"",""trial"",""time""
""fullscreenexit"",""178"",""935399""
","null","","","","","","","","null","0,0,0","1","forest","48","probe-209","0.31036264998423474","0.12965383961102372","0.42431600483572796","","","","","","","","",""
"","html-keyboard-response","199","1031201","0.0-108.0-1.0","""event"",""trial"",""time""
""fullscreenenter"",""0"",""10217""
""fullscreenexit"",""178"",""935399""
""blur"",""178"",""936814""
""focus"",""194"",""1010737""
","""event"",""trial"",""time""
""blur"",""178"",""936814""
","""event"",""trial"",""time""
""focus"",""194"",""1010737""
","""event"",""trial"",""time""
""fullscreenenter"",""0"",""10217""
","""event"",""trial"",""time""
""fullscreenexit"",""178"",""935399""
","null","<p></p>","null","","","","","","","","","","","","","","","","","","","","","","",""
"","do_trial","200","1035758","0.0-109.0-0.0","""event"",""trial"",""time""
""fullscreenenter"",""0"",""10217""
""fullscreenexit"",""178"",""935399""
""blur"",""178"",""936814""
""focus"",""194"",""1010737""
","""event"",""trial"",""time""
""blur"",""178"",""936814""
","""event"",""trial"",""time""
""focus"",""194"",""1010737""
","""event"",""trial"",""time""
""fullscreenenter"",""0"",""10217""
","""event"",""trial"",""time""
""fullscreenexit"",""178"",""935399""
","0.4000000059604645","","","","","","","","49","1,1,1","1","forest","49","probe-135","0.27711296772195304","0.33616103432023736","0.5732524237447121","1","","","","","","","",""
"","html-keyboard-response","201","1036760","0.0-109.0-1.0","""event"",""trial"",""time""
""fullscreenenter"",""0"",""10217""
""fullscreenexit"",""178"",""935399""
""blur"",""178"",""936814""
""focus"",""194"",""1010737""
","""event"",""trial"",""time""
""blur"",""178"",""936814""
","""event"",""trial"",""time""
""focus"",""194"",""1010737""
","""event"",""trial"",""time""
""fullscreenenter"",""0"",""10217""
","""event"",""trial"",""time""
""fullscreenexit"",""178"",""935399""
","null","<p></p>","null","","","","","","","","","","","","","","","","","","","","","","",""
"","do_trial","202","1041441","0.0-110.0-0.0","""event"",""trial"",""time""
""fullscreenenter"",""0"",""10217""
""fullscreenexit"",""178"",""935399""
""blur"",""178"",""936814""
""focus"",""194"",""1010737""
","""event"",""trial"",""time""
""blur"",""178"",""936814""
","""event"",""trial"",""time""
""focus"",""194"",""1010737""
","""event"",""trial"",""time""
""fullscreenenter"",""0"",""10217""
","""event"",""trial"",""time""
""fullscreenexit"",""178"",""935399""
","126.70000000298023","","","","","","","","49","0,0,0","1","forest","50","probe-145","0.19263760211710781","0.2273428979446326","0.6354091114440726","0","","","","","","","",""
"","html-keyboard-response","203","1042443","0.0-110.0-1.0","""event"",""trial"",""time""
""fullscreenenter"",""0"",""10217""
""fullscreenexit"",""178"",""935399""
""blur"",""178"",""936814""
""focus"",""194"",""1010737""
","""event"",""trial"",""time""
""blur"",""178"",""936814""
","""event"",""trial"",""time""
""focus"",""194"",""1010737""
","""event"",""trial"",""time""
""fullscreenenter"",""0"",""10217""
","""event"",""trial"",""time""
""fullscreenexit"",""178"",""935399""
","null","<p></p>","null","","","","","","","","","","","","","","","","","","","","","","",""
"","do_trial","204","1047070","0.0-111.0-0.0","""event"",""trial"",""time""
""fullscreenenter"",""0"",""10217""
""fullscreenexit"",""178"",""935399""
""blur"",""178"",""936814""
""focus"",""194"",""1010737""
","""event"",""trial"",""time""
""blur"",""178"",""936814""
","""event"",""trial"",""time""
""focus"",""194"",""1010737""
","""event"",""trial"",""time""
""fullscreenenter"",""0"",""10217""
","""event"",""trial"",""time""
""fullscreenexit"",""178"",""935399""
","73.1000000089407","","","","","","","","51","0,0,1","1","forest","51","probe-222","0.30080338354563013","0.24769708225516054","0.7469327077320748","1","","","","","","","",""
"","html-keyboard-response","205","1048071","0.0-111.0-1.0","""event"",""trial"",""time""
""fullscreenenter"",""0"",""10217""
""fullscreenexit"",""178"",""935399""
""blur"",""178"",""936814""
""focus"",""194"",""1010737""
","""event"",""trial"",""time""
""blur"",""178"",""936814""
","""event"",""trial"",""time""
""focus"",""194"",""1010737""
","""event"",""trial"",""time""
""fullscreenenter"",""0"",""10217""
","""event"",""trial"",""time""
""fullscreenexit"",""178"",""935399""
","null","<p></p>","null","","","","","","","","","","","","","","","","","","","","","","",""
"","do_trial","206","1054130","0.0-112.0-0.0","""event"",""trial"",""time""
""fullscreenenter"",""0"",""10217""
""fullscreenexit"",""178"",""935399""
""blur"",""178"",""936814""
""focus"",""194"",""1010737""
","""event"",""trial"",""time""
""blur"",""178"",""936814""
","""event"",""trial"",""time""
""focus"",""194"",""1010737""
","""event"",""trial"",""time""
""fullscreenenter"",""0"",""10217""
","""event"",""trial"",""time""
""fullscreenexit"",""178"",""935399""
","null","","","","","","","","null","1,0,1","1","forest","52","probe-53","0.5022763394020971","0.256303445104877","0.7110068452274199","","","","","","","","",""
"","html-keyboard-response","207","1055132","0.0-112.0-1.0","""event"",""trial"",""time""
""fullscreenenter"",""0"",""10217""
""fullscreenexit"",""178"",""935399""
""blur"",""178"",""936814""
""focus"",""194"",""1010737""
","""event"",""trial"",""time""
""blur"",""178"",""936814""
","""event"",""trial"",""time""
""focus"",""194"",""1010737""
","""event"",""trial"",""time""
""fullscreenenter"",""0"",""10217""
","""event"",""trial"",""time""
""fullscreenexit"",""178"",""935399""
","null","<p></p>","null","","","","","","","","","","","","","","","","","","","","","","",""
"","do_trial","208","1059686","0.0-113.0-0.0","""event"",""trial"",""time""
""fullscreenenter"",""0"",""10217""
""fullscreenexit"",""178"",""935399""
""blur"",""178"",""936814""
""focus"",""194"",""1010737""
","""event"",""trial"",""time""
""blur"",""178"",""936814""
","""event"",""trial"",""time""
""focus"",""194"",""1010737""
","""event"",""trial"",""time""
""fullscreenenter"",""0"",""10217""
","""event"",""trial"",""time""
""fullscreenexit"",""178"",""935399""
","0.19999998807907104","","","","","","","","50","1,0,0","1","forest","53","probe-58","0.5070512071307285","0.21478841871199464","0.6725818941801193","0","","","","","","","",""
"","html-keyboard-response","209","1060687","0.0-113.0-1.0","""event"",""trial"",""time""
""fullscreenenter"",""0"",""10217""
""fullscreenexit"",""178"",""935399""
""blur"",""178"",""936814""
""focus"",""194"",""1010737""
","""event"",""trial"",""time""
""blur"",""178"",""936814""
","""event"",""trial"",""time""
""focus"",""194"",""1010737""
","""event"",""trial"",""time""
""fullscreenenter"",""0"",""10217""
","""event"",""trial"",""time""
""fullscreenexit"",""178"",""935399""
","null","<p></p>","null","","","","","","","","","","","","","","","","","","","","","","",""
"","do_trial","210","1066742","0.0-114.0-0.0","""event"",""trial"",""time""
""fullscreenenter"",""0"",""10217""
""fullscreenexit"",""178"",""935399""
""blur"",""178"",""936814""
""focus"",""194"",""1010737""
","""event"",""trial"",""time""
""blur"",""178"",""936814""
","""event"",""trial"",""time""
""focus"",""194"",""1010737""
","""event"",""trial"",""time""
""fullscreenenter"",""0"",""10217""
","""event"",""trial"",""time""
""fullscreenexit"",""178"",""935399""
","null","","","","","","","","null","0,1,1","1","forest","54","probe-188","0.470288310298787","0.22358691871211933","0.6536372927982599","","","","","","","","",""
"","html-keyboard-response","211","1067744","0.0-114.0-1.0","""event"",""trial"",""time""
""fullscreenenter"",""0"",""10217""
""fullscreenexit"",""178"",""935399""
""blur"",""178"",""936814""
""focus"",""194"",""1010737""
","""event"",""trial"",""time""
""blur"",""178"",""936814""
","""event"",""trial"",""time""
""focus"",""194"",""1010737""
","""event"",""trial"",""time""
""fullscreenenter"",""0"",""10217""
","""event"",""trial"",""time""
""fullscreenexit"",""178"",""935399""
","null","<p></p>","null","","","","","","","","","","","","","","","","","","","","","","",""
"","do_trial","212","1073798","0.0-115.0-0.0","""event"",""trial"",""time""
""fullscreenenter"",""0"",""10217""
""fullscreenexit"",""178"",""935399""
""blur"",""178"",""936814""
""focus"",""194"",""1010737""
","""event"",""trial"",""time""
""blur"",""178"",""936814""
","""event"",""trial"",""time""
""focus"",""194"",""1010737""
","""event"",""trial"",""time""
""fullscreenenter"",""0"",""10217""
","""event"",""trial"",""time""
""fullscreenexit"",""178"",""935399""
","null","","","","","","","","null","0,0,1","1","forest","55","probe-21","0.5126088314621507","0.20867905763610914","0.5281399361344449","","","","","","","","",""
"","html-keyboard-response","213","1074800","0.0-115.0-1.0","""event"",""trial"",""time""
""fullscreenenter"",""0"",""10217""
""fullscreenexit"",""178"",""935399""
""blur"",""178"",""936814""
""focus"",""194"",""1010737""
","""event"",""trial"",""time""
""blur"",""178"",""936814""
","""event"",""trial"",""time""
""focus"",""194"",""1010737""
","""event"",""trial"",""time""
""fullscreenenter"",""0"",""10217""
","""event"",""trial"",""time""
""fullscreenexit"",""178"",""935399""
","null","<p></p>","null","","","","","","","","","","","","","","","","","","","","","","",""
"","do_trial","214","1080002","0.0-116.0-0.0","""event"",""trial"",""time""
""fullscreenenter"",""0"",""10217""
""fullscreenexit"",""178"",""935399""
""blur"",""178"",""936814""
""focus"",""194"",""1010737""
","""event"",""trial"",""time""
""blur"",""178"",""936814""
","""event"",""trial"",""time""
""focus"",""194"",""1010737""
","""event"",""trial"",""time""
""fullscreenenter"",""0"",""10217""
","""event"",""trial"",""time""
""fullscreenexit"",""178"",""935399""
","647","","","","","","","","49","1,0,1","1","forest","56","probe-170","0.46966326647270495","0.06358076743197984","0.5079392904748085","1","","","","","","","",""
"","html-keyboard-response","215","1081004","0.0-116.0-1.0","""event"",""trial"",""time""
""fullscreenenter"",""0"",""10217""
""fullscreenexit"",""178"",""935399""
""blur"",""178"",""936814""
""focus"",""194"",""1010737""
","""event"",""trial"",""time""
""blur"",""178"",""936814""
","""event"",""trial"",""time""
""focus"",""194"",""1010737""
","""event"",""trial"",""time""
""fullscreenenter"",""0"",""10217""
","""event"",""trial"",""time""
""fullscreenexit"",""178"",""935399""
","null","<p></p>","null","","","","","","","","","","","","","","","","","","","","","","",""
"","do_trial","216","1087062","0.0-117.0-0.0","""event"",""trial"",""time""
""fullscreenenter"",""0"",""10217""
""fullscreenexit"",""178"",""935399""
""blur"",""178"",""936814""
""focus"",""194"",""1010737""
","""event"",""trial"",""time""
""blur"",""178"",""936814""
","""event"",""trial"",""time""
""focus"",""194"",""1010737""
","""event"",""trial"",""time""
""fullscreenenter"",""0"",""10217""
","""event"",""trial"",""time""
""fullscreenexit"",""178"",""935399""
","null","","","","","","","","null","0,0,0","1","forest","57","probe-116","0.4446798693314948","0.13416912458919267","0.6389707504030125","","","","","","","","",""
"","html-keyboard-response","217","1088064","0.0-117.0-1.0","""event"",""trial"",""time""
""fullscreenenter"",""0"",""10217""
""fullscreenexit"",""178"",""935399""
""blur"",""178"",""936814""
""focus"",""194"",""1010737""
","""event"",""trial"",""time""
""blur"",""178"",""936814""
","""event"",""trial"",""time""
""focus"",""194"",""1010737""
","""event"",""trial"",""time""
""fullscreenenter"",""0"",""10217""
","""event"",""trial"",""time""
""fullscreenexit"",""178"",""935399""
","null","<p></p>","null","","","","","","","","","","","","","","","","","","","","","","",""
"","do_trial","218","1092715","0.0-118.0-0.0","""event"",""trial"",""time""
""fullscreenenter"",""0"",""10217""
""fullscreenexit"",""178"",""935399""
""blur"",""178"",""936814""
""focus"",""194"",""1010737""
","""event"",""trial"",""time""
""blur"",""178"",""936814""
","""event"",""trial"",""time""
""focus"",""194"",""1010737""
","""event"",""trial"",""time""
""fullscreenenter"",""0"",""10217""
","""event"",""trial"",""time""
""fullscreenexit"",""178"",""935399""
","96.5","","","","","","","","51","1,0,0","1","forest","58","probe-189","0.41306287735758485","0.10348223899647002","0.46117246875281853","0","","","","","","","",""
"","html-keyboard-response","219","1093717","0.0-118.0-1.0","""event"",""trial"",""time""
""fullscreenenter"",""0"",""10217""
""fullscreenexit"",""178"",""935399""
""blur"",""178"",""936814""
""focus"",""194"",""1010737""
","""event"",""trial"",""time""
""blur"",""178"",""936814""
","""event"",""trial"",""time""
""focus"",""194"",""1010737""
","""event"",""trial"",""time""
""fullscreenenter"",""0"",""10217""
","""event"",""trial"",""time""
""fullscreenexit"",""178"",""935399""
","null","<p></p>","null","","","","","","","","","","","","","","","","","","","","","","",""
"","do_trial","220","1098333","0.0-119.0-0.0","""event"",""trial"",""time""
""fullscreenenter"",""0"",""10217""
""fullscreenexit"",""178"",""935399""
""blur"",""178"",""936814""
""focus"",""194"",""1010737""
","""event"",""trial"",""time""
""blur"",""178"",""936814""
","""event"",""trial"",""time""
""focus"",""194"",""1010737""
","""event"",""trial"",""time""
""fullscreenenter"",""0"",""10217""
","""event"",""trial"",""time""
""fullscreenexit"",""178"",""935399""
","61.20000000298023","","","","","","","","50","0,0,0","1","forest","59","probe-211","0.3539948043197031","0.10035026420987656","0.4827552183304759","0","","","","","","","",""
"","html-keyboard-response","221","1099335","0.0-119.0-1.0","""event"",""trial"",""time""
""fullscreenenter"",""0"",""10217""
""fullscreenexit"",""178"",""935399""
""blur"",""178"",""936814""
""focus"",""194"",""1010737""
","""event"",""trial"",""time""
""blur"",""178"",""936814""
","""event"",""trial"",""time""
""focus"",""194"",""1010737""
","""event"",""trial"",""time""
""fullscreenenter"",""0"",""10217""
","""event"",""trial"",""time""
""fullscreenexit"",""178"",""935399""
","null","<p></p>","null","","","","","","","","","","","","","","","","","","","","","","",""
"","do_trial","222","1103938","0.0-120.0-0.0","""event"",""trial"",""time""
""fullscreenenter"",""0"",""10217""
""fullscreenexit"",""178"",""935399""
""blur"",""178"",""936814""
""focus"",""194"",""1010737""
","""event"",""trial"",""time""
""blur"",""178"",""936814""
","""event"",""trial"",""time""
""focus"",""194"",""1010737""
","""event"",""trial"",""time""
""fullscreenenter"",""0"",""10217""
","""event"",""trial"",""time""
""fullscreenexit"",""178"",""935399""
","47.29999999701977","","","","","","","","51","1,0,0","1","forest","60","probe-40","0.40629979351964957","0.23564348156018636","0.5289311618956968","0","","","","","","","",""
"","html-keyboard-response","223","1104940","0.0-120.0-1.0","""event"",""trial"",""time""
""fullscreenenter"",""0"",""10217""
""fullscreenexit"",""178"",""935399""
""blur"",""178"",""936814""
""focus"",""194"",""1010737""
","""event"",""trial"",""time""
""blur"",""178"",""936814""
","""event"",""trial"",""time""
""focus"",""194"",""1010737""
","""event"",""trial"",""time""
""fullscreenenter"",""0"",""10217""
","""event"",""trial"",""time""
""fullscreenexit"",""178"",""935399""
","null","<p></p>","null","","","","","","","","","","","","","","","","","","","","","","",""
"","do_trial","224","1109530","0.0-121.0-0.0","""event"",""trial"",""time""
""fullscreenenter"",""0"",""10217""
""fullscreenexit"",""178"",""935399""
""blur"",""178"",""936814""
""focus"",""194"",""1010737""
","""event"",""trial"",""time""
""blur"",""178"",""936814""
","""event"",""trial"",""time""
""focus"",""194"",""1010737""
","""event"",""trial"",""time""
""fullscreenenter"",""0"",""10217""
","""event"",""trial"",""time""
""fullscreenexit"",""178"",""935399""
","35.6000000089407","","","","","","","","50","0,1,1","1","forest","61","probe-180","0.36936867080673813","0.2826620117271273","0.5793092108585988","1","","","","","","","",""
"","html-keyboard-response","225","1110532","0.0-121.0-1.0","""event"",""trial"",""time""
""fullscreenenter"",""0"",""10217""
""fullscreenexit"",""178"",""935399""
""blur"",""178"",""936814""
""focus"",""194"",""1010737""
","""event"",""trial"",""time""
""blur"",""178"",""936814""
","""event"",""trial"",""time""
""focus"",""194"",""1010737""
","""event"",""trial"",""time""
""fullscreenenter"",""0"",""10217""
","""event"",""trial"",""time""
