success,trial_type,trial_index,time_elapsed,internal_node_id,interactions,blur_events,focus_events,fullscreenenter_events,fullscreenexit_events,rt,stimulus,key_press,subject_id,participant_id,age,gender,prompt,response,choice_outcomes,context_n,context_img_id,trial_n,probe_img_id,pR_red,pR_white,pR_black,outcome,contextArray_ind,validImageProbes,invalidImageProbes,pRew_Red,pRew_White,pRew_Black,availableForMemProbe,choice_blocks
TRUE,fullscreen,0,4879,0.0-0.0,"""event"",""trial"",""time""
""blur"",""0"",""0""
""focus"",""0"",""0""
""fullscreenenter"",""0"",""3923""
","""event"",""trial"",""time""
""blur"",""0"",""0""
","""event"",""trial"",""time""
""focus"",""0"",""0""
","""event"",""trial"",""time""
""fullscreenenter"",""0"",""3923""
","
",,,,,,,,,,,,,,,,,,,,,,,,,,
,pavlovia,1,4884,0.0-1.0,"""event"",""trial"",""time""
""blur"",""0"",""0""
""focus"",""0"",""0""
""fullscreenenter"",""0"",""3923""
","""event"",""trial"",""time""
""blur"",""0"",""0""
","""event"",""trial"",""time""
""focus"",""0"",""0""
","""event"",""trial"",""time""
""fullscreenenter"",""0"",""3923""
","
",,,,,,,,,,,,,,,,,,,,,,,,,,
,instruc1,2,50154,0.0-2.0,"""event"",""trial"",""time""
""blur"",""0"",""0""
""focus"",""0"",""0""
""fullscreenenter"",""0"",""3923""
","""event"",""trial"",""time""
""blur"",""0"",""0""
","""event"",""trial"",""time""
""focus"",""0"",""0""
","""event"",""trial"",""time""
""fullscreenenter"",""0"",""3923""
","
",null,run_exp/static/audio/clip_1_welcome.m4a,null,368,534,23,Female,"<div class='center'><p>Welcome! This is the first part of the study. It will last ~30 minutes. In part 1 and part 2 of the study, you are the head captain of a pirate ship traveling around the world to different islands. You will play a few different games throughout these two parts. Here is an overview of them:</p><br><p>Part 1 (today)</p><p>1. Instructions, practice game, and quiz</p><p>2. Pick a pirate game on 6 different islands</p><br><p>Part 2 (tomorrow)</p><p>3. Pick a pirate game and memory game</p><p>4. Where did you see this ship? </p></div>",,,,,,,,,,,,,,,,,,
,html-keyboard-response,3,50251,0.0-3.0,"""event"",""trial"",""time""
""blur"",""0"",""0""
""focus"",""0"",""0""
""fullscreenenter"",""0"",""3923""
","""event"",""trial"",""time""
""blur"",""0"",""0""
","""event"",""trial"",""time""
""focus"",""0"",""0""
","""event"",""trial"",""time""
""fullscreenenter"",""0"",""3923""
","
",94.80000001,"<div class='center'><p>Welcome! This is the first part of the study. It will last ~30 minutes. In part 1 and part 2 of the study, you are the head captain of a pirate ship traveling around the world to different islands. You will play a few different games throughout these two parts. Here is an overview of them:</p><br><p>Part 1 (today)</p><p>1. Instructions, practice game, and quiz</p><p>2. Pick a pirate game on 6 different islands</p><br><p>Part 2 (tomorrow)</p><p>3. Pick a pirate game and memory game</p><p>4. Where did you see this ship? </p><p><b>[Press the space bar to continue]</b></p></div>",32,,,,,,,,,,,,,,,,,,,,,,,
,instruc2,4,55570,0.0-4.0,"""event"",""trial"",""time""
""blur"",""0"",""0""
""focus"",""0"",""0""
""fullscreenenter"",""0"",""3923""
","""event"",""trial"",""time""
""blur"",""0"",""0""
","""event"",""trial"",""time""
""focus"",""0"",""0""
","""event"",""trial"",""time""
""fullscreenenter"",""0"",""3923""
","
",null,run_exp/static/audio/clip_2_different_places.m4a,null,,,,,"<div class='center'><p>Today, you’ll visit these 6 islands on your journey. You'll be able to see these islands from your ship.</p><p><img src='run_exp/static/images/contexts/all_contexts.png' height='500'></p></div>",,,,,,,,,,,,,,,,,,
,html-keyboard-response,5,56888,0.0-5.0,"""event"",""trial"",""time""
""blur"",""0"",""0""
""focus"",""0"",""0""
""fullscreenenter"",""0"",""3923""
","""event"",""trial"",""time""
""blur"",""0"",""0""
","""event"",""trial"",""time""
""focus"",""0"",""0""
","""event"",""trial"",""time""
""fullscreenenter"",""0"",""3923""
","
",1314.4,"<div class='center'><p>Today, you’ll visit these 6 islands on your journey. You'll be able to see these islands from your ship.</p><p><img src='run_exp/static/images/contexts/all_contexts.png' height='500'></p><p><b>[Press the space bar to continue]</b></p></div>",32,,,,,,,,,,,,,,,,,,,,,,,
,instruc3,6,66600,0.0-6.0,"""event"",""trial"",""time""
""blur"",""0"",""0""
""focus"",""0"",""0""
""fullscreenenter"",""0"",""3923""
","""event"",""trial"",""time""
""blur"",""0"",""0""
","""event"",""trial"",""time""
""focus"",""0"",""0""
","""event"",""trial"",""time""
""fullscreenenter"",""0"",""3923""
","
",null,run_exp/static/audio/clip_3_goal_of_game_1.m4a,null,,,,,"<div class='center'><p> The pirates on your ship will rob other ships as they leave the island.</p> These ships have just sold their goods to the islanders, so they will be filled with lots and lots of gold.</p><p><img src='run_exp/static/images/tutorial/ship_center.png' height='400'></p></div>",,,,,,,,,,,,,,,,,,
,html-keyboard-response,7,70095,0.0-7.0,"""event"",""trial"",""time""
""blur"",""0"",""0""
""focus"",""0"",""0""
""fullscreenenter"",""0"",""3923""
","""event"",""trial"",""time""
""blur"",""0"",""0""
","""event"",""trial"",""time""
""focus"",""0"",""0""
","""event"",""trial"",""time""
""fullscreenenter"",""0"",""3923""
","
",3492.6,"<div class='center'><p> The pirates on your ship will rob other ships as they leave the island.</p> These ships have just sold their goods to the islanders, so they will be filled with lots and lots of gold.</p><p><img src='run_exp/static/images/tutorial/ship_center.png' height='400'></p><p><b>[Press the space bar to continue]</b></p></div>",32,,,,,,,,,,,,,,,,,,,,,,,
,instruc4,8,98109,0.0-8.0,"""event"",""trial"",""time""
""blur"",""0"",""0""
""focus"",""0"",""0""
""fullscreenenter"",""0"",""3923""
","""event"",""trial"",""time""
""blur"",""0"",""0""
","""event"",""trial"",""time""
""focus"",""0"",""0""
","""event"",""trial"",""time""
""fullscreenenter"",""0"",""3923""
","
",null,run_exp/static/audio/clip_4_goal_of_game_2.m4a,null,,,,,"<div class='center'><p>As the head captain, you do not have to rob any ships yourself. Another pirate will be doing the robbing for you. First, you will choose a pirate to rob the next ship.</p><p><img src='run_exp/static/images/tutorial/pirates_all_crop.png' height='200'></p><p>Then, you'll see if the pirate successfully robbed the ship of their gold. If they were successful, then you'll get a stack of gold coins like this:</p><p><img src='run_exp/static/images/tutorial/reward.png' height='150'></p><p> If they were <b>not</b> successful, then you'll get no gold coins, and you'll see a big red x like this: </p><p><img src='run_exp/static/images/tutorial/reward_no.png' height='150'></p><p> How much bonus money you make is based on how many gold coins you collect.</p><div>",,,,,,,,,,,,,,,,,,
,html-keyboard-response,9,99226,0.0-9.0,"""event"",""trial"",""time""
""blur"",""0"",""0""
""focus"",""0"",""0""
""fullscreenenter"",""0"",""3923""
","""event"",""trial"",""time""
""blur"",""0"",""0""
","""event"",""trial"",""time""
""focus"",""0"",""0""
","""event"",""trial"",""time""
""fullscreenenter"",""0"",""3923""
","
",1114.1,"<div class='center'><p>As the head captain, you do not have to rob any ships yourself. Another pirate will be doing the robbing for you. First, you will choose a pirate to rob the next ship.</p><p><img src='run_exp/static/images/tutorial/pirates_all_crop.png' height='200'></p><p>Then, you'll see if the pirate successfully robbed the ship of their gold. If they were successful, then you'll get a stack of gold coins like this:</p><p><img src='run_exp/static/images/tutorial/reward.png' height='150'></p><p> If they were <b>not</b> successful, then you'll get no gold coins, and you'll see a big red x like this: </p><p><img src='run_exp/static/images/tutorial/reward_no.png' height='150'></p><p> How much bonus money you make is based on how many gold coins you collect.</p<p><b>[Press the space bar to continue]</b></p></div>",32,,,,,,,,,,,,,,,,,,,,,,,
,instruc5,10,118507,0.0-10.0,"""event"",""trial"",""time""
""blur"",""0"",""0""
""focus"",""0"",""0""
""fullscreenenter"",""0"",""3923""
","""event"",""trial"",""time""
""blur"",""0"",""0""
","""event"",""trial"",""time""
""focus"",""0"",""0""
","""event"",""trial"",""time""
""fullscreenenter"",""0"",""3923""
","
",19279.7,run_exp/static/audio/clip_5_probabilistic.m4a,49,,,,,"<div class='center'><p>Even the most skilled pirate can not rob EVERY ship.</p><p> Some ships will have very strong protections against pirate attacks.</p><p> Blue beard, here, is very, very good at robbing ships, but he won't be successful every time he tries to rob one.</p><p> You can press the <b>‘1’</b> key on the keyboard to choose him.</p><p> Try choosing him 10 times to see how often he succeeds at robbing a ship. </p><p><img src='run_exp/static/images/tutorial/blue.png' height='500'></p></div>",,,,,,,,,,,,,,,,,,
,html-keyboard-response,11,120010,0.0-11.0,"""event"",""trial"",""time""
""blur"",""0"",""0""
""focus"",""0"",""0""
""fullscreenenter"",""0"",""3923""
","""event"",""trial"",""time""
""blur"",""0"",""0""
","""event"",""trial"",""time""
""focus"",""0"",""0""
","""event"",""trial"",""time""
""fullscreenenter"",""0"",""3923""
","
",null,<div class='center'><p><img src='run_exp/static/images/tutorial/blue_win.png' height='500'></p></div>,null,,,,,,,,,,,,,,,,,,,,,,,
,html-keyboard-response,12,120815,0.0-12.0,"""event"",""trial"",""time""
""blur"",""0"",""0""
""focus"",""0"",""0""
""fullscreenenter"",""0"",""3923""
","""event"",""trial"",""time""
""blur"",""0"",""0""
","""event"",""trial"",""time""
""focus"",""0"",""0""
","""event"",""trial"",""time""
""fullscreenenter"",""0"",""3923""
","
",802.4,<div class='center'><img src='run_exp/static/images/tutorial/blue.png' height='500'></p></div>,49,,,,,,,,,,,,,,,,,,,,,,,
,html-keyboard-response,13,122319,0.0-13.0,"""event"",""trial"",""time""
""blur"",""0"",""0""
""focus"",""0"",""0""
""fullscreenenter"",""0"",""3923""
","""event"",""trial"",""time""
""blur"",""0"",""0""
","""event"",""trial"",""time""
""focus"",""0"",""0""
","""event"",""trial"",""time""
""fullscreenenter"",""0"",""3923""
","
",null,<div class='center'><p><img src='run_exp/static/images/tutorial/blue_win.png' height='500'></p></div>,null,,,,,,,,,,,,,,,,,,,,,,,
,html-keyboard-response,14,122592,0.0-14.0,"""event"",""trial"",""time""
""blur"",""0"",""0""
""focus"",""0"",""0""
""fullscreenenter"",""0"",""3923""
","""event"",""trial"",""time""
""blur"",""0"",""0""
","""event"",""trial"",""time""
""focus"",""0"",""0""
","""event"",""trial"",""time""
""fullscreenenter"",""0"",""3923""
","
",271.2,<div class='center'><img src='run_exp/static/images/tutorial/blue.png' height='500'></p></div>,49,,,,,,,,,,,,,,,,,,,,,,,
,html-keyboard-response,15,124095,0.0-15.0,"""event"",""trial"",""time""
""blur"",""0"",""0""
""focus"",""0"",""0""
""fullscreenenter"",""0"",""3923""
","""event"",""trial"",""time""
""blur"",""0"",""0""
","""event"",""trial"",""time""
""focus"",""0"",""0""
","""event"",""trial"",""time""
""fullscreenenter"",""0"",""3923""
","
",null,<div class='center'><p><img src='run_exp/static/images/tutorial/blue_win.png' height='500'></p></div>,null,,,,,,,,,,,,,,,,,,,,,,,
,html-keyboard-response,16,124369,0.0-16.0,"""event"",""trial"",""time""
""blur"",""0"",""0""
""focus"",""0"",""0""
""fullscreenenter"",""0"",""3923""
","""event"",""trial"",""time""
""blur"",""0"",""0""
","""event"",""trial"",""time""
""focus"",""0"",""0""
","""event"",""trial"",""time""
""fullscreenenter"",""0"",""3923""
","
",272.2,<div class='center'><img src='run_exp/static/images/tutorial/blue.png' height='500'></p></div>,49,,,,,,,,,,,,,,,,,,,,,,,
,html-keyboard-response,17,125876,0.0-17.0,"""event"",""trial"",""time""
""blur"",""0"",""0""
""focus"",""0"",""0""
""fullscreenenter"",""0"",""3923""
","""event"",""trial"",""time""
""blur"",""0"",""0""
","""event"",""trial"",""time""
""focus"",""0"",""0""
","""event"",""trial"",""time""
""fullscreenenter"",""0"",""3923""
","
",null,<div class='center'><p><img src='run_exp/static/images/tutorial/blue_no_win.png' height='500'></p></div>,null,,,,,,,,,,,,,,,,,,,,,,,
,html-keyboard-response,18,126210,0.0-18.0,"""event"",""trial"",""time""
""blur"",""0"",""0""
""focus"",""0"",""0""
""fullscreenenter"",""0"",""3923""
","""event"",""trial"",""time""
""blur"",""0"",""0""
","""event"",""trial"",""time""
""focus"",""0"",""0""
","""event"",""trial"",""time""
""fullscreenenter"",""0"",""3923""
","
",331.9,<div class='center'><img src='run_exp/static/images/tutorial/blue.png' height='500'></p></div>,49,,,,,,,,,,,,,,,,,,,,,,,
,html-keyboard-response,19,127716,0.0-19.0,"""event"",""trial"",""time""
""blur"",""0"",""0""
""focus"",""0"",""0""
""fullscreenenter"",""0"",""3923""
","""event"",""trial"",""time""
""blur"",""0"",""0""
","""event"",""trial"",""time""
""focus"",""0"",""0""
","""event"",""trial"",""time""
""fullscreenenter"",""0"",""3923""
","
",null,<div class='center'><p><img src='run_exp/static/images/tutorial/blue_win.png' height='500'></p></div>,null,,,,,,,,,,,,,,,,,,,,,,,
,html-keyboard-response,20,127990,0.0-20.0,"""event"",""trial"",""time""
""blur"",""0"",""0""
""focus"",""0"",""0""
""fullscreenenter"",""0"",""3923""
","""event"",""trial"",""time""
""blur"",""0"",""0""
","""event"",""trial"",""time""
""focus"",""0"",""0""
","""event"",""trial"",""time""
""fullscreenenter"",""0"",""3923""
","
",271.8,<div class='center'><img src='run_exp/static/images/tutorial/blue.png' height='500'></p></div>,49,,,,,,,,,,,,,,,,,,,,,,,
,html-keyboard-response,21,129492,0.0-21.0,"""event"",""trial"",""time""
""blur"",""0"",""0""
""focus"",""0"",""0""
""fullscreenenter"",""0"",""3923""
","""event"",""trial"",""time""
""blur"",""0"",""0""
","""event"",""trial"",""time""
""focus"",""0"",""0""
","""event"",""trial"",""time""
""fullscreenenter"",""0"",""3923""
","
",null,<div class='center'><p><img src='run_exp/static/images/tutorial/blue_win.png' height='500'></p></div>,null,,,,,,,,,,,,,,,,,,,,,,,
,html-keyboard-response,22,129823,0.0-22.0,"""event"",""trial"",""time""
""blur"",""0"",""0""
""focus"",""0"",""0""
""fullscreenenter"",""0"",""3923""
","""event"",""trial"",""time""
""blur"",""0"",""0""
","""event"",""trial"",""time""
""focus"",""0"",""0""
","""event"",""trial"",""time""
""fullscreenenter"",""0"",""3923""
","
",329,<div class='center'><img src='run_exp/static/images/tutorial/blue.png' height='500'></p></div>,49,,,,,,,,,,,,,,,,,,,,,,,
,html-keyboard-response,23,131326,0.0-23.0,"""event"",""trial"",""time""
""blur"",""0"",""0""
""focus"",""0"",""0""
""fullscreenenter"",""0"",""3923""
","""event"",""trial"",""time""
""blur"",""0"",""0""
","""event"",""trial"",""time""
""focus"",""0"",""0""
","""event"",""trial"",""time""
""fullscreenenter"",""0"",""3923""
","
",null,<div class='center'><p><img src='run_exp/static/images/tutorial/blue_win.png' height='500'></p></div>,null,,,,,,,,,,,,,,,,,,,,,,,
,html-keyboard-response,24,131377,0.0-24.0,"""event"",""trial"",""time""
""blur"",""0"",""0""
""focus"",""0"",""0""
""fullscreenenter"",""0"",""3923""
","""event"",""trial"",""time""
""blur"",""0"",""0""
","""event"",""trial"",""time""
""focus"",""0"",""0""
","""event"",""trial"",""time""
""fullscreenenter"",""0"",""3923""
","
",48.80000001,<div class='center'><img src='run_exp/static/images/tutorial/blue.png' height='500'></p></div>,49,,,,,,,,,,,,,,,,,,,,,,,
,html-keyboard-response,25,132884,0.0-25.0,"""event"",""trial"",""time""
""blur"",""0"",""0""
""focus"",""0"",""0""
""fullscreenenter"",""0"",""3923""
","""event"",""trial"",""time""
""blur"",""0"",""0""
","""event"",""trial"",""time""
""focus"",""0"",""0""
","""event"",""trial"",""time""
""fullscreenenter"",""0"",""3923""
","
",null,<div class='center'><p><img src='run_exp/static/images/tutorial/blue_no_win.png' height='500'></p></div>,null,,,,,,,,,,,,,,,,,,,,,,,
,html-keyboard-response,26,135424,0.0-26.0,"""event"",""trial"",""time""
""blur"",""0"",""0""
""focus"",""0"",""0""
""fullscreenenter"",""0"",""3923""
","""event"",""trial"",""time""
""blur"",""0"",""0""
","""event"",""trial"",""time""
""focus"",""0"",""0""
","""event"",""trial"",""time""
""fullscreenenter"",""0"",""3923""
","
",2538.1,<div class='center'><img src='run_exp/static/images/tutorial/blue.png' height='500'></p></div>,49,,,,,,,,,,,,,,,,,,,,,,,
,html-keyboard-response,27,136926,0.0-27.0,"""event"",""trial"",""time""
""blur"",""0"",""0""
""focus"",""0"",""0""
""fullscreenenter"",""0"",""3923""
","""event"",""trial"",""time""
""blur"",""0"",""0""
","""event"",""trial"",""time""
""focus"",""0"",""0""
","""event"",""trial"",""time""
""fullscreenenter"",""0"",""3923""
","
",null,<div class='center'><p><img src='run_exp/static/images/tutorial/blue_win.png' height='500'></p></div>,null,,,,,,,,,,,,,,,,,,,,,,,
,html-keyboard-response,28,137080,0.0-28.0,"""event"",""trial"",""time""
""blur"",""0"",""0""
""focus"",""0"",""0""
""fullscreenenter"",""0"",""3923""
","""event"",""trial"",""time""
""blur"",""0"",""0""
","""event"",""trial"",""time""
""focus"",""0"",""0""
","""event"",""trial"",""time""
""fullscreenenter"",""0"",""3923""
","
",152.3,<div class='center'><img src='run_exp/static/images/tutorial/blue.png' height='500'></p></div>,49,,,,,,,,,,,,,,,,,,,,,,,
,html-keyboard-response,29,138584,0.0-29.0,"""event"",""trial"",""time""
""blur"",""0"",""0""
""focus"",""0"",""0""
""fullscreenenter"",""0"",""3923""
","""event"",""trial"",""time""
""blur"",""0"",""0""
","""event"",""trial"",""time""
""focus"",""0"",""0""
","""event"",""trial"",""time""
""fullscreenenter"",""0"",""3923""
","
",null,<div class='center'><p><img src='run_exp/static/images/tutorial/blue_win.png' height='500'></p></div>,null,,,,,,,,,,,,,,,,,,,,,,,
,instruc6,30,144009,0.0-30.0,"""event"",""trial"",""time""
""blur"",""0"",""0""
""focus"",""0"",""0""
""fullscreenenter"",""0"",""3923""
","""event"",""trial"",""time""
""blur"",""0"",""0""
","""event"",""trial"",""time""
""focus"",""0"",""0""
","""event"",""trial"",""time""
""fullscreenenter"",""0"",""3923""
","
",null,run_exp/static/audio/clip_6_blue_beard_outcome.m4a,null,,,,,"<div class='center'><p> See, he succeeded in robbing the ships most of the time but not every time. </p></div>",,,,,,,,,,,,,,,,,,
,html-keyboard-response,31,146813,0.0-31.0,"""event"",""trial"",""time""
""blur"",""0"",""0""
""focus"",""0"",""0""
""fullscreenenter"",""0"",""3923""
","""event"",""trial"",""time""
""blur"",""0"",""0""
","""event"",""trial"",""time""
""focus"",""0"",""0""
","""event"",""trial"",""time""
""fullscreenenter"",""0"",""3923""
","
",2802.5,"<div class='center'><p> See, he succeeded in robbing the ships most of the time but not every time. </p><p><b>[Press the space bar to continue]</b></p></div>",32,,,,,,,,,,,,,,,,,,,,,,,
,audio-keyboard-response,32,161771,0.0-32.0,"""event"",""trial"",""time""
""blur"",""0"",""0""
""focus"",""0"",""0""
""fullscreenenter"",""0"",""3923""
","""event"",""trial"",""time""
""blur"",""0"",""0""
","""event"",""trial"",""time""
""focus"",""0"",""0""
","""event"",""trial"",""time""
""fullscreenenter"",""0"",""3923""
","
",14954.4,run_exp/static/audio/clip_7_pick_pirate.m4a,50,,,,,,,,,,,,,,,,,,,,,,,
,audio-keyboard-response,33,164634,0.0-33.0-0.0,"""event"",""trial"",""time""
""blur"",""0"",""0""
""focus"",""0"",""0""
""fullscreenenter"",""0"",""3923""
","""event"",""trial"",""time""
""blur"",""0"",""0""
","""event"",""trial"",""time""
""focus"",""0"",""0""
","""event"",""trial"",""time""
""fullscreenenter"",""0"",""3923""
","
",2859.6,run_exp/static/audio/clip_8_chosen_pirate_win.m4a,32,,,,,,,,,,,,,,,,,,,,,,,
,audio-keyboard-response,34,165804,0.0-33.0-1.0,"""event"",""trial"",""time""
""blur"",""0"",""0""
""focus"",""0"",""0""
""fullscreenenter"",""0"",""3923""
","""event"",""trial"",""time""
""blur"",""0"",""0""
","""event"",""trial"",""time""
""focus"",""0"",""0""
","""event"",""trial"",""time""
""fullscreenenter"",""0"",""3923""
","
",1168,run_exp/static/audio/clip_9_pick_a_pirate_again.m4a,51,,,,,,,,,,,,,,,,,,,,,,,
,audio-keyboard-response,35,169476,0.0-34.0-0.0,"""event"",""trial"",""time""
""blur"",""0"",""0""
""focus"",""0"",""0""
""fullscreenenter"",""0"",""3923""
","""event"",""trial"",""time""
""blur"",""0"",""0""
","""event"",""trial"",""time""
""focus"",""0"",""0""
","""event"",""trial"",""time""
""fullscreenenter"",""0"",""3923""
","
",3669.6,run_exp/static/audio/clip_10_chosen_pirate_loss.m4a,32,,,,,,,,,,,,,,,,,,,,,,,
,instruc9,36,174985,0.0-35.0-0.0,"""event"",""trial"",""time""
""blur"",""0"",""0""
""focus"",""0"",""0""
""fullscreenenter"",""0"",""3923""
","""event"",""trial"",""time""
""blur"",""0"",""0""
","""event"",""trial"",""time""
""focus"",""0"",""0""
","""event"",""trial"",""time""
""fullscreenenter"",""0"",""3923""
","
",null,run_exp/static/audio/clip_11_time_out.m4a,null,,,,,"<div class='center'><p>If you don’t make your choice fast enough, you’ll have to wait a few seconds before you can make another one. </p><p><img src='run_exp/static/images/miscellaneous/hurry_up.png' height='500'></p></div>",,,,,,,,,,,,,,,,,,
,html-keyboard-response,37,178577,0.0-35.0-1.0,"""event"",""trial"",""time""
""blur"",""0"",""0""
""focus"",""0"",""0""
""fullscreenenter"",""0"",""3923""
","""event"",""trial"",""time""
""blur"",""0"",""0""
","""event"",""trial"",""time""
""focus"",""0"",""0""
","""event"",""trial"",""time""
""fullscreenenter"",""0"",""3923""
","
",3589.8,"<div class='center'><p>If you don’t make your choice fast enough, you’ll have to wait a few seconds before you can make another one. </p><p><img src='run_exp/static/images/miscellaneous/hurry_up.png' height='500'></p><p><b>[Press the space bar to continue]</b></p></div>",32,,,,,,,,,,,,,,,,,,,,,,,
,instruc10,38,217694,0.0-35.0-2.0,"""event"",""trial"",""time""
""blur"",""0"",""0""
""focus"",""0"",""0""
""fullscreenenter"",""0"",""3923""
","""event"",""trial"",""time""
""blur"",""0"",""0""
","""event"",""trial"",""time""
""focus"",""0"",""0""
","""event"",""trial"",""time""
""fullscreenenter"",""0"",""3923""
","
",null,run_exp/static/audio/clip_12_probe.m4a,null,,,,,"<div class='center'><p>Once you've chosen a pirate, you’ll be shown the ship they are robbing. You will never rob the same ship twice. Ships can be told apart from one another by the image on them. These are the goods that they sell. See, this ship has a travel mug on it. </p><p> You’ll have to remember which island you saw each ship on. You will win more gold coins and hence more bonus money if you remember correctly! To help you remember, you can imagine a story. For example, here, you could imagine a mug full of water in the desert. Or, as another example, if on the forest island, your pirate robbed a ship with an apple on it, you could imagine an apple falling from a tree in the forest. </p><p><img src='run_exp/static/images/tutorial/example_probe.png' height='500'></p></div>",,,,,,,,,,,,,,,,,,
,html-keyboard-response,39,239542,0.0-35.0-3.0,"""event"",""trial"",""time""
""blur"",""0"",""0""
""focus"",""0"",""0""
""fullscreenenter"",""0"",""3923""
","""event"",""trial"",""time""
""blur"",""0"",""0""
","""event"",""trial"",""time""
""focus"",""0"",""0""
","""event"",""trial"",""time""
""fullscreenenter"",""0"",""3923""
","
",21846.6,"<div class='center'><p>Once you've chosen a pirate, you’ll be shown the ship they are robbing. You will never rob the same ship twice. Ships can be told apart from one another by the image on them. These are the goods that they sell. See, this ship has a travel mug on it. </p><p> You’ll have to remember which island you saw each ship on. You will win more gold coins and hence more bonus money if you remember correctly! To help you remember, you can imagine a story. For example, here, you could imagine a mug full of water in the desert. Or, as another example, if on the forest island, your pirate robbed a ship with an apple on it, you could imagine an apple falling from a tree in the forest. </p><p><img src='run_exp/static/images/tutorial/example_probe.png' height='500'></p><p><b>[Press the space bar to continue]</b></p></div>",32,,,,,,,,,,,,,,,,,,,,,,,
,instruc11,40,255973,0.0-35.0-4.0,"""event"",""trial"",""time""
""blur"",""0"",""0""
""focus"",""0"",""0""
""fullscreenenter"",""0"",""3923""
","""event"",""trial"",""time""
""blur"",""0"",""0""
","""event"",""trial"",""time""
""focus"",""0"",""0""
","""event"",""trial"",""time""
""fullscreenenter"",""0"",""3923""
","
",null,run_exp/static/audio/clip_13_changepoint.m4a,null,,,,,"<div class='center'><p>How successful a pirate is at robbing ships will depend on the island you’re on.</p><p> A pirate may have visited this island many times before and gained a lot of practice robbing ships there.</p><p>So, they’re more likely to be successful than a pirate who has never visited the island before.</p></div>",,,,,,,,,,,,,,,,,,
,html-keyboard-response,41,259244,0.0-35.0-5.0,"""event"",""trial"",""time""
""blur"",""0"",""0""
""focus"",""0"",""0""
""fullscreenenter"",""0"",""3923""
","""event"",""trial"",""time""
""blur"",""0"",""0""
","""event"",""trial"",""time""
""focus"",""0"",""0""
","""event"",""trial"",""time""
""fullscreenenter"",""0"",""3923""
","
",3269.3,"<div class='center'><p>How successful a pirate is at robbing ships will depend on the island you’re on.</p><p> A pirate may have visited this island many times before and gained a lot of practice robbing ships there.</p><p>So, they’re more likely to be successful than a pirate who has never visited the island before.</p><p><b>[Press the space bar to continue]</b></p></div>",32,,,,,,,,,,,,,,,,,,,,,,,
,instruc12,42,300325,0.0-35.0-6.0,"""event"",""trial"",""time""
""blur"",""0"",""0""
""focus"",""0"",""0""
""fullscreenenter"",""0"",""3923""
","""event"",""trial"",""time""
""blur"",""0"",""0""
","""event"",""trial"",""time""
""focus"",""0"",""0""
","""event"",""trial"",""time""
""fullscreenenter"",""0"",""3923""
","
",null,run_exp/static/audio/clip_14_drift.m4a,null,,,,,"<div class='center'><p>How successful a pirate is at robbing ships can also change over the time spent on the island. </p><p> Ships may hear from islanders about the pirates coming and will improve their protections against the attack. This may make it harder to rob them.</p><p> Ships may also become lazy and weaken the strength of their protections. This may make it easier to rob them.</p><br><p>Things are always changing on the high seas! So, try your best to pay attention!</p><p><img src='run_exp/static/images/tutorial/contingency.png' height='500'></p></div>",,,,,,,,,,,,,,,,,,
,html-keyboard-response,43,301958,0.0-35.0-7.0,"""event"",""trial"",""time""
""blur"",""0"",""0""
""focus"",""0"",""0""
""fullscreenenter"",""0"",""3923""
","""event"",""trial"",""time""
""blur"",""0"",""0""
","""event"",""trial"",""time""
""focus"",""0"",""0""
","""event"",""trial"",""time""
""fullscreenenter"",""0"",""3923""
","
",1630.4,"<div class='center'><p>How successful a pirate is at robbing ships can also change over the time spent on the island. </p><p> Ships may hear from islanders about the pirates coming and will improve their protections against the attack. This may make it harder to rob them.</p><p> Ships may also become lazy and weaken the strength of their protections. This may make it easier to rob them.</p><br><p>Things are always changing on the high seas! So, try your best to pay attention!</p><p><img src='run_exp/static/images/tutorial/contingency.png' height='500'></p><p><b>[Press the space bar to continue]</b></p></div>",32,,,,,,,,,,,,,,,,,,,,,,,
,instruc13,44,337147,0.0-35.0-8.0,"""event"",""trial"",""time""
""blur"",""0"",""0""
""focus"",""0"",""0""
""fullscreenenter"",""0"",""3923""
","""event"",""trial"",""time""
""blur"",""0"",""0""
","""event"",""trial"",""time""
""focus"",""0"",""0""
","""event"",""trial"",""time""
""fullscreenenter"",""0"",""3923""
","
",null,run_exp/static/audio/clip_15_summary.m4a,null,,,,,"<div class='center'><p>Let's go over the instructions quickly again. You have two important things to do: </p><b><p> 1. Pick the pirate who is the best at robbing ships on the current island. </p></b><b><p> 2. Remember on which island a ship was robbed.</p> </b><p>The amount of bonus money you can win depends on both.</p><p><br><p>Let’s try a practice game. The game will start by showing you the pirates. First, pick a pirate using the <b> 1, 2, 3 </b> keys on your keyboard. When you are shown a ship, try to remember which island you’re on by making up a story.</p><p>This is just a practice game, so you’re not playing for money. </p><p> Good luck! This game will be very difficult but try your best!</p></div>",,,,,,,,,,,,,,,,,,
,html-keyboard-response,45,337202,0.0-35.0-9.0,"""event"",""trial"",""time""
""blur"",""0"",""0""
""focus"",""0"",""0""
""fullscreenenter"",""0"",""3923""
","""event"",""trial"",""time""
""blur"",""0"",""0""
","""event"",""trial"",""time""
""focus"",""0"",""0""
","""event"",""trial"",""time""
""fullscreenenter"",""0"",""3923""
","
",53.39999998,"<div class='center'><p>Let's go over the instructions quickly again. You have two important things to do: </p><b><p> 1. Pick the pirate who is the best at robbing ships on the current island. </p></b><b><p> 2. Remember on which island a ship was robbed.</p> </b><p>The amount of bonus money you can win depends on both.</p><p><br><p>Let’s try a practice game. The game will start by showing you the pirates. First, pick a pirate using the <b> 1, 2, 3 </b> keys on your keyboard. When you are shown a ship, try to remember which island you’re on by making up a story.</p><p>This is just a practice game, so you’re not playing for money. </p><p> Good luck! This game will be very difficult but try your best!</p><p><b>[Press the space bar to continue]</b></p></div>",32,,,,,,,,,,,,,,,,,,,,,,,
,do_welcome,46,341215,0.0-35.0-10.0,"""event"",""trial"",""time""
""blur"",""0"",""0""
""focus"",""0"",""0""
""fullscreenenter"",""0"",""3923""
","""event"",""trial"",""time""
""blur"",""0"",""0""
","""event"",""trial"",""time""
""focus"",""0"",""0""
","""event"",""trial"",""time""
""fullscreenenter"",""0"",""3923""
","
",null,,,,,,,,null,,,,,,,,,,,,,,,,,
,do_trial,47,347050,0.0-35.0-11.0,"""event"",""trial"",""time""
""blur"",""0"",""0""
""focus"",""0"",""0""
""fullscreenenter"",""0"",""3923""
","""event"",""trial"",""time""
""blur"",""0"",""0""
","""event"",""trial"",""time""
""focus"",""0"",""0""
","""event"",""trial"",""time""
""fullscreenenter"",""0"",""3923""
","
",1321.6,,,,,,,,49,"1,0,0",,,,,,,,,,,,,,,,
,html-keyboard-response,48,348057,0.0-36.0-0.0,"""event"",""trial"",""time""
""blur"",""0"",""0""
""focus"",""0"",""0""
""fullscreenenter"",""0"",""3923""
","""event"",""trial"",""time""
""blur"",""0"",""0""
","""event"",""trial"",""time""
""focus"",""0"",""0""
","""event"",""trial"",""time""
""fullscreenenter"",""0"",""3923""
","
",null,<p></p>,null,,,,,,,,,,,,,,,,,,,,,,,
,do_trial,49,352932,0.0-36.0-1.0,"""event"",""trial"",""time""
""blur"",""0"",""0""
""focus"",""0"",""0""
""fullscreenenter"",""0"",""3923""
","""event"",""trial"",""time""
""blur"",""0"",""0""
","""event"",""trial"",""time""
""focus"",""0"",""0""
","""event"",""trial"",""time""
""fullscreenenter"",""0"",""3923""
","
",363.6,,,,,,,,50,"1,1,0",,,,,,,,,,,,,,,,
,html-keyboard-response,50,353934,0.0-37.0-0.0,"""event"",""trial"",""time""
""blur"",""0"",""0""
""focus"",""0"",""0""
""fullscreenenter"",""0"",""3923""
""blur"",""51"",""355506""
""focus"",""51"",""357440""
","""event"",""trial"",""time""
""blur"",""0"",""0""
""blur"",""51"",""355506""
","""event"",""trial"",""time""
""focus"",""0"",""0""
""focus"",""51"",""357440""
","""event"",""trial"",""time""
""fullscreenenter"",""0"",""3923""
","
",null,<p></p>,null,,,,,,,,,,,,,,,,,,,,,,,
,do_trial,51,360069,0.0-37.0-1.0,"""event"",""trial"",""time""
""blur"",""0"",""0""
""focus"",""0"",""0""
""fullscreenenter"",""0"",""3923""
""blur"",""51"",""355506""
""focus"",""51"",""357440""
","""event"",""trial"",""time""
""blur"",""0"",""0""
""blur"",""51"",""355506""
","""event"",""trial"",""time""
""focus"",""0"",""0""
""focus"",""51"",""357440""
","""event"",""trial"",""time""
""fullscreenenter"",""0"",""3923""
","
",null,,,,,,,,null,"1,0,1",,,,,,,,,,,,,,,,
,html-keyboard-response,52,361078,0.0-38.0-0.0,"""event"",""trial"",""time""
""blur"",""0"",""0""
""focus"",""0"",""0""
""fullscreenenter"",""0"",""3923""
""blur"",""51"",""355506""
""focus"",""51"",""357440""
","""event"",""trial"",""time""
""blur"",""0"",""0""
""blur"",""51"",""355506""
","""event"",""trial"",""time""
""focus"",""0"",""0""
""focus"",""51"",""357440""
","""event"",""trial"",""time""
""fullscreenenter"",""0"",""3923""
","
",null,<p></p>,null,,,,,,,,,,,,,,,,,,,,,,,
,do_trial,53,366616,0.0-38.0-1.0,"""event"",""trial"",""time""
""blur"",""0"",""0""
""focus"",""0"",""0""
""fullscreenenter"",""0"",""3923""
""blur"",""51"",""355506""
""focus"",""51"",""357440""
","""event"",""trial"",""time""
""blur"",""0"",""0""
""blur"",""51"",""355506""
","""event"",""trial"",""time""
""focus"",""0"",""0""
""focus"",""51"",""357440""
","""event"",""trial"",""time""
""fullscreenenter"",""0"",""3923""
","
",1025.7,,,,,,,,49,"1,0,1",,,,,,,,,,,,,,,,
,html-keyboard-response,54,367624,0.0-39.0-0.0,"""event"",""trial"",""time""
""blur"",""0"",""0""
""focus"",""0"",""0""
""fullscreenenter"",""0"",""3923""
""blur"",""51"",""355506""
""focus"",""51"",""357440""
","""event"",""trial"",""time""
""blur"",""0"",""0""
""blur"",""51"",""355506""
","""event"",""trial"",""time""
""focus"",""0"",""0""
""focus"",""51"",""357440""
","""event"",""trial"",""time""
""fullscreenenter"",""0"",""3923""
","
",null,<p></p>,null,,,,,,,,,,,,,,,,,,,,,,,
,do_trial,55,372568,0.0-39.0-1.0,"""event"",""trial"",""time""
""blur"",""0"",""0""
""focus"",""0"",""0""
""fullscreenenter"",""0"",""3923""
""blur"",""51"",""355506""
""focus"",""51"",""357440""
","""event"",""trial"",""time""
""blur"",""0"",""0""
""blur"",""51"",""355506""
","""event"",""trial"",""time""
""focus"",""0"",""0""
""focus"",""51"",""357440""
","""event"",""trial"",""time""
""fullscreenenter"",""0"",""3923""
","
",428.8,,,,,,,,51,"0,1,0",,,,,,,,,,,,,,,,
,html-keyboard-response,56,373578,0.0-40.0-0.0,"""event"",""trial"",""time""
""blur"",""0"",""0""
""focus"",""0"",""0""
""fullscreenenter"",""0"",""3923""
""blur"",""51"",""355506""
""focus"",""51"",""357440""
","""event"",""trial"",""time""
""blur"",""0"",""0""
""blur"",""51"",""355506""
","""event"",""trial"",""time""
""focus"",""0"",""0""
""focus"",""51"",""357440""
","""event"",""trial"",""time""
""fullscreenenter"",""0"",""3923""
","
",null,<p></p>,null,,,,,,,,,,,,,,,,,,,,,,,
,do_trial,57,378455,0.0-40.0-1.0,"""event"",""trial"",""time""
""blur"",""0"",""0""
""focus"",""0"",""0""
""fullscreenenter"",""0"",""3923""
""blur"",""51"",""355506""
""focus"",""51"",""357440""
","""event"",""trial"",""time""
""blur"",""0"",""0""
""blur"",""51"",""355506""
","""event"",""trial"",""time""
""focus"",""0"",""0""
""focus"",""51"",""357440""
","""event"",""trial"",""time""
""fullscreenenter"",""0"",""3923""
","
",368.1,,,,,,,,50,"1,0,0",,,,,,,,,,,,,,,,
,do_bye,58,379965,0.0-41.0-0.0,"""event"",""trial"",""time""
""blur"",""0"",""0""
""focus"",""0"",""0""
""fullscreenenter"",""0"",""3923""
""blur"",""51"",""355506""
""focus"",""51"",""357440""
","""event"",""trial"",""time""
""blur"",""0"",""0""
""blur"",""51"",""355506""
","""event"",""trial"",""time""
""focus"",""0"",""0""
""focus"",""51"",""357440""
","""event"",""trial"",""time""
""fullscreenenter"",""0"",""3923""
","
",null,,,,,,,,null,,,,,,,,,,,,,,,,,
,do_travel,59,388978,0.0-41.0-1.0,"""event"",""trial"",""time""
""blur"",""0"",""0""
""focus"",""0"",""0""
""fullscreenenter"",""0"",""3923""
""blur"",""51"",""355506""
""focus"",""51"",""357440""
","""event"",""trial"",""time""
""blur"",""0"",""0""
""blur"",""51"",""355506""
","""event"",""trial"",""time""
""focus"",""0"",""0""
""focus"",""51"",""357440""
","""event"",""trial"",""time""
""fullscreenenter"",""0"",""3923""
","
",null,,,,,,,,null,,,,,,,,,,,,,,,,,
,do_welcome,60,392988,0.0-41.0-2.0,"""event"",""trial"",""time""
""blur"",""0"",""0""
""focus"",""0"",""0""
""fullscreenenter"",""0"",""3923""
""blur"",""51"",""355506""
""focus"",""51"",""357440""
","""event"",""trial"",""time""
""blur"",""0"",""0""
""blur"",""51"",""355506""
","""event"",""trial"",""time""
""focus"",""0"",""0""
""focus"",""51"",""357440""
","""event"",""trial"",""time""
""fullscreenenter"",""0"",""3923""
","
",null,,,,,,,,null,,,,,,,,,,,,,,,,,
,do_trial,61,399297,0.0-41.0-3.0,"""event"",""trial"",""time""
""blur"",""0"",""0""
""focus"",""0"",""0""
""fullscreenenter"",""0"",""3923""
""blur"",""51"",""355506""
""focus"",""51"",""357440""
","""event"",""trial"",""time""
""blur"",""0"",""0""
""blur"",""51"",""355506""
","""event"",""trial"",""time""
""focus"",""0"",""0""
""focus"",""51"",""357440""
","""event"",""trial"",""time""
""fullscreenenter"",""0"",""3923""
","
",1802.3,,,,,,,,50,"1,0,0",,,,,,,,,,,,,,,,
,html-keyboard-response,62,400300,0.0-42.0-0.0,"""event"",""trial"",""time""
""blur"",""0"",""0""
""focus"",""0"",""0""
""fullscreenenter"",""0"",""3923""
""blur"",""51"",""355506""
""focus"",""51"",""357440""
","""event"",""trial"",""time""
""blur"",""0"",""0""
""blur"",""51"",""355506""
","""event"",""trial"",""time""
""focus"",""0"",""0""
""focus"",""51"",""357440""
","""event"",""trial"",""time""
""fullscreenenter"",""0"",""3923""
","
",null,<p></p>,null,,,,,,,,,,,,,,,,,,,,,,,
,do_trial,63,405111,0.0-42.0-1.0,"""event"",""trial"",""time""
""blur"",""0"",""0""
""focus"",""0"",""0""
""fullscreenenter"",""0"",""3923""
""blur"",""51"",""355506""
""focus"",""51"",""357440""
","""event"",""trial"",""time""
""blur"",""0"",""0""
""blur"",""51"",""355506""
","""event"",""trial"",""time""
""focus"",""0"",""0""
""focus"",""51"",""357440""
","""event"",""trial"",""time""
""fullscreenenter"",""0"",""3923""
","
",295.1,,,,,,,,51,"1,0,1",,,,,,,,,,,,,,,,
,html-keyboard-response,64,406118,0.0-43.0-0.0,"""event"",""trial"",""time""
""blur"",""0"",""0""
""focus"",""0"",""0""
""fullscreenenter"",""0"",""3923""
""blur"",""51"",""355506""
""focus"",""51"",""357440""
","""event"",""trial"",""time""
""blur"",""0"",""0""
""blur"",""51"",""355506""
","""event"",""trial"",""time""
""focus"",""0"",""0""
""focus"",""51"",""357440""
","""event"",""trial"",""time""
""fullscreenenter"",""0"",""3923""
","
",null,<p></p>,null,,,,,,,,,,,,,,,,,,,,,,,
,do_trial,65,411942,0.0-43.0-1.0,"""event"",""trial"",""time""
""blur"",""0"",""0""
""focus"",""0"",""0""
""fullscreenenter"",""0"",""3923""
""blur"",""51"",""355506""
""focus"",""51"",""357440""
","""event"",""trial"",""time""
""blur"",""0"",""0""
""blur"",""51"",""355506""
","""event"",""trial"",""time""
""focus"",""0"",""0""
""focus"",""51"",""357440""
","""event"",""trial"",""time""
""fullscreenenter"",""0"",""3923""
","
",1310.7,,,,,,,,49,"1,1,0",,,,,,,,,,,,,,,,
,html-keyboard-response,66,412950,0.0-44.0-0.0,"""event"",""trial"",""time""
""blur"",""0"",""0""
""focus"",""0"",""0""
""fullscreenenter"",""0"",""3923""
""blur"",""51"",""355506""
""focus"",""51"",""357440""
","""event"",""trial"",""time""
""blur"",""0"",""0""
""blur"",""51"",""355506""
","""event"",""trial"",""time""
""focus"",""0"",""0""
""focus"",""51"",""357440""
","""event"",""trial"",""time""
""fullscreenenter"",""0"",""3923""
","
",null,<p></p>,null,,,,,,,,,,,,,,,,,,,,,,,
,do_trial,67,418966,0.0-44.0-1.0,"""event"",""trial"",""time""
""blur"",""0"",""0""
""focus"",""0"",""0""
""fullscreenenter"",""0"",""3923""
""blur"",""51"",""355506""
""focus"",""51"",""357440""
","""event"",""trial"",""time""
""blur"",""0"",""0""
""blur"",""51"",""355506""
","""event"",""trial"",""time""
""focus"",""0"",""0""
""focus"",""51"",""357440""
","""event"",""trial"",""time""
""fullscreenenter"",""0"",""3923""
","
",null,,,,,,,,null,"0,0,1",,,,,,,,,,,,,,,,
,html-keyboard-response,68,419968,0.0-45.0-0.0,"""event"",""trial"",""time""
""blur"",""0"",""0""
""focus"",""0"",""0""
""fullscreenenter"",""0"",""3923""
""blur"",""51"",""355506""
""focus"",""51"",""357440""
","""event"",""trial"",""time""
""blur"",""0"",""0""
""blur"",""51"",""355506""
","""event"",""trial"",""time""
""focus"",""0"",""0""
""focus"",""51"",""357440""
","""event"",""trial"",""time""
""fullscreenenter"",""0"",""3923""
","
",null,<p></p>,null,,,,,,,,,,,,,,,,,,,,,,,
,do_trial,69,425184,0.0-45.0-1.0,"""event"",""trial"",""time""
""blur"",""0"",""0""
""focus"",""0"",""0""
""fullscreenenter"",""0"",""3923""
""blur"",""51"",""355506""
""focus"",""51"",""357440""
","""event"",""trial"",""time""
""blur"",""0"",""0""
""blur"",""51"",""355506""
","""event"",""trial"",""time""
""focus"",""0"",""0""
""focus"",""51"",""357440""
","""event"",""trial"",""time""
""fullscreenenter"",""0"",""3923""
","
",705.9,,,,,,,,49,"0,0,1",,,,,,,,,,,,,,,,
,html-keyboard-response,70,426192,0.0-46.0-0.0,"""event"",""trial"",""time""
""blur"",""0"",""0""
""focus"",""0"",""0""
""fullscreenenter"",""0"",""3923""
""blur"",""51"",""355506""
""focus"",""51"",""357440""
","""event"",""trial"",""time""
""blur"",""0"",""0""
""blur"",""51"",""355506""
","""event"",""trial"",""time""
""focus"",""0"",""0""
""focus"",""51"",""357440""
","""event"",""trial"",""time""
""fullscreenenter"",""0"",""3923""
","
",null,<p></p>,null,,,,,,,,,,,,,,,,,,,,,,,
,do_trial,71,431053,0.0-46.0-1.0,"""event"",""trial"",""time""
""blur"",""0"",""0""
""focus"",""0"",""0""
""fullscreenenter"",""0"",""3923""
""blur"",""51"",""355506""
""focus"",""51"",""357440""
","""event"",""trial"",""time""
""blur"",""0"",""0""
""blur"",""51"",""355506""
","""event"",""trial"",""time""
""focus"",""0"",""0""
""focus"",""51"",""357440""
","""event"",""trial"",""time""
""fullscreenenter"",""0"",""3923""
","
",347.1,,,,,,,,51,"1,0,1",,,,,,,,,,,,,,,,
,html-keyboard-response,72,434103,0.0-47.0-0.0,"""event"",""trial"",""time""
""blur"",""0"",""0""
""focus"",""0"",""0""
""fullscreenenter"",""0"",""3923""
""blur"",""51"",""355506""
""focus"",""51"",""357440""
","""event"",""trial"",""time""
""blur"",""0"",""0""
""blur"",""51"",""355506""
","""event"",""trial"",""time""
""focus"",""0"",""0""
""focus"",""51"",""357440""
","""event"",""trial"",""time""
""fullscreenenter"",""0"",""3923""
","
",3046.7,<div class='center'><p><img src='run_exp/static/images/tutorial/prac_best_pirate.png'  height='500'></p></div>,51,,,,,,,,,,,,,,,,,,,,,,,
,html-keyboard-response,73,437118,0.0-48.0-0.0,"""event"",""trial"",""time""
""blur"",""0"",""0""
""focus"",""0"",""0""
""fullscreenenter"",""0"",""3923""
""blur"",""51"",""355506""
""focus"",""51"",""357440""
","""event"",""trial"",""time""
""blur"",""0"",""0""
""blur"",""51"",""355506""
","""event"",""trial"",""time""
""focus"",""0"",""0""
""focus"",""51"",""357440""
","""event"",""trial"",""time""
""fullscreenenter"",""0"",""3923""
","
",3012.2,<div class='center'><p>That's incorrect! Red beard was the best.</p><p><b>[Press the space bar to continue]</b></p></div>,32,,,,,,,,,,,,,,,,,,,,,,,
,html-keyboard-response,74,440693,0.0-48.0-1.0,"""event"",""trial"",""time""
""blur"",""0"",""0""
""focus"",""0"",""0""
""fullscreenenter"",""0"",""3923""
""blur"",""51"",""355506""
""focus"",""51"",""357440""
","""event"",""trial"",""time""
""blur"",""0"",""0""
""blur"",""51"",""355506""
","""event"",""trial"",""time""
""focus"",""0"",""0""
""focus"",""51"",""357440""
","""event"",""trial"",""time""
""fullscreenenter"",""0"",""3923""
","
",3573.6,<div class='center'><p><img src='run_exp/static/images/tutorial/prac_source.png'  height='500'></p></div>,50,,,,,,,,,,,,,,,,,,,,,,,
,html-keyboard-response,75,443394,0.0-49.0-0.0,"""event"",""trial"",""time""
""blur"",""0"",""0""
""focus"",""0"",""0""
""fullscreenenter"",""0"",""3923""
""blur"",""51"",""355506""
""focus"",""51"",""357440""
","""event"",""trial"",""time""
""blur"",""0"",""0""
""blur"",""51"",""355506""
","""event"",""trial"",""time""
""focus"",""0"",""0""
""focus"",""51"",""357440""
","""event"",""trial"",""time""
""fullscreenenter"",""0"",""3923""
","
",2697.2,<div class='center'><p>That's correct! You saw this ship on the cavern island.</p><p><b>[Press the space bar to continue]</b></p></div>,32,,,,,,,,,,,,,,,,,,,,,,,
,quiz_beginning,76,454638,0.0-49.0-1.0,"""event"",""trial"",""time""
""blur"",""0"",""0""
""focus"",""0"",""0""
""fullscreenenter"",""0"",""3923""
""blur"",""51"",""355506""
""focus"",""51"",""357440""
","""event"",""trial"",""time""
""blur"",""0"",""0""
""blur"",""51"",""355506""
","""event"",""trial"",""time""
""focus"",""0"",""0""
""focus"",""51"",""357440""
","""event"",""trial"",""time""
""fullscreenenter"",""0"",""3923""
","
",null,run_exp/static/audio/clip_16_quiz_intro.m4a,null,,,,,"<div class='center'><p>Good job on the practice game! Now, you will be asked some true or false questions to make sure you really understand the rules of the game.</p><p> Press <b>'1'</b> on the keyboard for true and press <b>'2'</b> for false.</p></div>",,,,,,,,,,,,,,,,,,
,audio-keyboard-response,77,458404,0.0-49.0-2.0,"""event"",""trial"",""time""
""blur"",""0"",""0""
""focus"",""0"",""0""
""fullscreenenter"",""0"",""3923""
""blur"",""51"",""355506""
""focus"",""51"",""357440""
","""event"",""trial"",""time""
""blur"",""0"",""0""
""blur"",""51"",""355506""
","""event"",""trial"",""time""
""focus"",""0"",""0""
""focus"",""51"",""357440""
","""event"",""trial"",""time""
""fullscreenenter"",""0"",""3923""
","
",3763.7,run_exp/static/audio/clip_17_q1.m4a,49,,,,,,,,,,,,,,,,,,,,,,,
,correct,78,460803,0.0-50.0-0.0,"""event"",""trial"",""time""
""blur"",""0"",""0""
""focus"",""0"",""0""
""fullscreenenter"",""0"",""3923""
""blur"",""51"",""355506""
""focus"",""51"",""357440""
","""event"",""trial"",""time""
""blur"",""0"",""0""
""blur"",""51"",""355506""
","""event"",""trial"",""time""
""focus"",""0"",""0""
""focus"",""51"",""357440""
","""event"",""trial"",""time""
""fullscreenenter"",""0"",""3923""
","
",null,run_exp/static/audio/clip_18_correct.m4a,null,,,,,<div class='center'><p>That's correct!</p></div>,,,,,,,,,,,,,,,,,,
,html-keyboard-response,79,462287,0.0-50.0-1.0,"""event"",""trial"",""time""
""blur"",""0"",""0""
""focus"",""0"",""0""
""fullscreenenter"",""0"",""3923""
""blur"",""51"",""355506""
""focus"",""51"",""357440""
","""event"",""trial"",""time""
""blur"",""0"",""0""
""blur"",""51"",""355506""
","""event"",""trial"",""time""
""focus"",""0"",""0""
""focus"",""51"",""357440""
","""event"",""trial"",""time""
""fullscreenenter"",""0"",""3923""
","
",1481.5,<div class='center'><p>That's correct!</p><p><b>[Press the space bar to continue]</b></p></div>,32,,,,,,,,,,,,,,,,,,,,,,,
,audio-keyboard-response,80,470738,0.0-50.0-2.0,"""event"",""trial"",""time""
""blur"",""0"",""0""
""focus"",""0"",""0""
""fullscreenenter"",""0"",""3923""
""blur"",""51"",""355506""
""focus"",""51"",""357440""
","""event"",""trial"",""time""
""blur"",""0"",""0""
""blur"",""51"",""355506""
","""event"",""trial"",""time""
""focus"",""0"",""0""
""focus"",""51"",""357440""
","""event"",""trial"",""time""
""fullscreenenter"",""0"",""3923""
","
",8450.5,run_exp/static/audio/clip_20_q2.m4a,50,,,,,,,,,,,,,,,,,,,,,,,
,correct,81,473134,0.0-51.0-0.0,"""event"",""trial"",""time""
""blur"",""0"",""0""
""focus"",""0"",""0""
""fullscreenenter"",""0"",""3923""
""blur"",""51"",""355506""
""focus"",""51"",""357440""
","""event"",""trial"",""time""
""blur"",""0"",""0""
""blur"",""51"",""355506""
","""event"",""trial"",""time""
""focus"",""0"",""0""
""focus"",""51"",""357440""
","""event"",""trial"",""time""
""fullscreenenter"",""0"",""3923""
","
",null,run_exp/static/audio/clip_18_correct.m4a,null,,,,,<div class='center'><p>That's correct!</p></div>,,,,,,,,,,,,,,,,,,
,html-keyboard-response,82,475585,0.0-51.0-1.0,"""event"",""trial"",""time""
""blur"",""0"",""0""
""focus"",""0"",""0""
""fullscreenenter"",""0"",""3923""
""blur"",""51"",""355506""
""focus"",""51"",""357440""
","""event"",""trial"",""time""
""blur"",""0"",""0""
""blur"",""51"",""355506""
","""event"",""trial"",""time""
""focus"",""0"",""0""
""focus"",""51"",""357440""
","""event"",""trial"",""time""
""fullscreenenter"",""0"",""3923""
","
",2449.6,<div class='center'><p>That's correct!</p><p><b>[Press the space bar to continue]</b></p></div>,32,,,,,,,,,,,,,,,,,,,,,,,
,audio-keyboard-response,83,480561,0.0-51.0-2.0,"""event"",""trial"",""time""
""blur"",""0"",""0""
""focus"",""0"",""0""
""fullscreenenter"",""0"",""3923""
""blur"",""51"",""355506""
""focus"",""51"",""357440""
","""event"",""trial"",""time""
""blur"",""0"",""0""
""blur"",""51"",""355506""
","""event"",""trial"",""time""
""focus"",""0"",""0""
""focus"",""51"",""357440""
","""event"",""trial"",""time""
""fullscreenenter"",""0"",""3923""
","
",4974.8,run_exp/static/audio/clip_22_q3.m4a,50,,,,,,,,,,,,,,,,,,,,,,,
,correct,84,482968,0.0-52.0-0.0,"""event"",""trial"",""time""
""blur"",""0"",""0""
""focus"",""0"",""0""
""fullscreenenter"",""0"",""3923""
""blur"",""51"",""355506""
""focus"",""51"",""357440""
","""event"",""trial"",""time""
""blur"",""0"",""0""
""blur"",""51"",""355506""
","""event"",""trial"",""time""
""focus"",""0"",""0""
""focus"",""51"",""357440""
","""event"",""trial"",""time""
""fullscreenenter"",""0"",""3923""
","
",null,run_exp/static/audio/clip_18_correct.m4a,null,,,,,<div class='center'><p>That's correct!</p></div>,,,,,,,,,,,,,,,,,,
,html-keyboard-response,85,486751,0.0-52.0-1.0,"""event"",""trial"",""time""
""blur"",""0"",""0""
""focus"",""0"",""0""
""fullscreenenter"",""0"",""3923""
""blur"",""51"",""355506""
""focus"",""51"",""357440""
","""event"",""trial"",""time""
""blur"",""0"",""0""
""blur"",""51"",""355506""
","""event"",""trial"",""time""
""focus"",""0"",""0""
""focus"",""51"",""357440""
","""event"",""trial"",""time""
""fullscreenenter"",""0"",""3923""
","
",3780.7,<div class='center'><p>That's correct!</p><p><b>[Press the space bar to continue]</b></p></div>,32,,,,,,,,,,,,,,,,,,,,,,,
,audio-keyboard-response,86,492176,0.0-52.0-2.0,"""event"",""trial"",""time""
""blur"",""0"",""0""
""focus"",""0"",""0""
""fullscreenenter"",""0"",""3923""
""blur"",""51"",""355506""
""focus"",""51"",""357440""
","""event"",""trial"",""time""
""blur"",""0"",""0""
""blur"",""51"",""355506""
","""event"",""trial"",""time""
""focus"",""0"",""0""
""focus"",""51"",""357440""
","""event"",""trial"",""time""
""fullscreenenter"",""0"",""3923""
","
",5423.6,run_exp/static/audio/clip_24_q4.m4a,49,,,,,,,,,,,,,,,,,,,,,,,
,correct,87,494617,0.0-53.0-0.0,"""event"",""trial"",""time""
""blur"",""0"",""0""
""focus"",""0"",""0""
""fullscreenenter"",""0"",""3923""
""blur"",""51"",""355506""
""focus"",""51"",""357440""
","""event"",""trial"",""time""
""blur"",""0"",""0""
""blur"",""51"",""355506""
","""event"",""trial"",""time""
""focus"",""0"",""0""
""focus"",""51"",""357440""
","""event"",""trial"",""time""
""fullscreenenter"",""0"",""3923""
","
",null,run_exp/static/audio/clip_18_correct.m4a,null,,,,,<div class='center'><p>That's correct!</p></div>,,,,,,,,,,,,,,,,,,
,html-keyboard-response,88,495903,0.0-53.0-1.0,"""event"",""trial"",""time""
""blur"",""0"",""0""
""focus"",""0"",""0""
""fullscreenenter"",""0"",""3923""
""blur"",""51"",""355506""
""focus"",""51"",""357440""
","""event"",""trial"",""time""
""blur"",""0"",""0""
""blur"",""51"",""355506""
","""event"",""trial"",""time""
""focus"",""0"",""0""
""focus"",""51"",""357440""
","""event"",""trial"",""time""
""fullscreenenter"",""0"",""3923""
","
",1282.8,<div class='center'><p>That's correct!</p><p><b>[Press the space bar to continue]</b></p></div>,32,,,,,,,,,,,,,,,,,,,,,,,
,q_all_corr,89,504388,0.0-54.0-0.0,"""event"",""trial"",""time""
""blur"",""0"",""0""
""focus"",""0"",""0""
""fullscreenenter"",""0"",""3923""
""blur"",""51"",""355506""
""focus"",""51"",""357440""
","""event"",""trial"",""time""
""blur"",""0"",""0""
""blur"",""51"",""355506""
","""event"",""trial"",""time""
""focus"",""0"",""0""
""focus"",""51"",""357440""
","""event"",""trial"",""time""
""fullscreenenter"",""0"",""3923""
","
",null,run_exp/static/audio/clip_27_quiz_all_correct.m4a,null,,,,,<div class='center'><p>Good job! You’re now ready to move on to the real game! Remember this game will be difficult but don't get discouraged and try your best!</p></div>,,,,,,,,,,,,,,,,,,
,html-keyboard-response,90,505705,0.0-54.0-1.0,"""event"",""trial"",""time""
""blur"",""0"",""0""
""focus"",""0"",""0""
""fullscreenenter"",""0"",""3923""
""blur"",""51"",""355506""
""focus"",""51"",""357440""
","""event"",""trial"",""time""
""blur"",""0"",""0""
""blur"",""51"",""355506""
","""event"",""trial"",""time""
""focus"",""0"",""0""
""focus"",""51"",""357440""
","""event"",""trial"",""time""
""fullscreenenter"",""0"",""3923""
","
",1314.4,<div class='center'><p>Good job! You’re now ready to move on to the real game! Remember this game will be difficult but don't get discouraged and try your best!</p><p><b>[Press the space bar to continue]</b></p></div>,32,,,,,,,,,,,,,,,,,,,,,,,
,do_welcome,91,509714,0.0-55.0-0.0,"""event"",""trial"",""time""
""blur"",""0"",""0""
""focus"",""0"",""0""
""fullscreenenter"",""0"",""3923""
""blur"",""51"",""355506""
""focus"",""51"",""357440""
","""event"",""trial"",""time""
""blur"",""0"",""0""
""blur"",""51"",""355506""
","""event"",""trial"",""time""
""focus"",""0"",""0""
""focus"",""51"",""357440""
","""event"",""trial"",""time""
""fullscreenenter"",""0"",""3923""
","
",null,,,,,,,,null,,,,,,,,,,,,,,,,,
,do_trial,92,515624,0.0-56.0-0.0,"""event"",""trial"",""time""
""blur"",""0"",""0""
""focus"",""0"",""0""
""fullscreenenter"",""0"",""3923""
""blur"",""51"",""355506""
""focus"",""51"",""357440""
","""event"",""trial"",""time""
""blur"",""0"",""0""
""blur"",""51"",""355506""
","""event"",""trial"",""time""
""focus"",""0"",""0""
""focus"",""51"",""357440""
","""event"",""trial"",""time""
""fullscreenenter"",""0"",""3923""
","
",1354.8,,,,,,,,49,"1,0,0",0,city,0,probe-21,0.6,0.3,0.1,1,,,,,,,,
,html-keyboard-response,93,516631,0.0-56.0-1.0,"""event"",""trial"",""time""
""blur"",""0"",""0""
""focus"",""0"",""0""
""fullscreenenter"",""0"",""3923""
""blur"",""51"",""355506""
""focus"",""51"",""357440""
","""event"",""trial"",""time""
""blur"",""0"",""0""
""blur"",""51"",""355506""
","""event"",""trial"",""time""
""focus"",""0"",""0""
""focus"",""51"",""357440""
","""event"",""trial"",""time""
""fullscreenenter"",""0"",""3923""
","
",null,<p></p>,null,,,,,,,,,,,,,,,,,,,,,,,
,do_trial,94,523191,0.0-57.0-0.0,"""event"",""trial"",""time""
""blur"",""0"",""0""
""focus"",""0"",""0""
""fullscreenenter"",""0"",""3923""
""blur"",""51"",""355506""
""focus"",""51"",""357440""
","""event"",""trial"",""time""
""blur"",""0"",""0""
""blur"",""51"",""355506""
","""event"",""trial"",""time""
""focus"",""0"",""0""
""focus"",""51"",""357440""
","""event"",""trial"",""time""
""fullscreenenter"",""0"",""3923""
","
",2006.3,,,,,,,,49,"1,1,0",0,city,1,probe-142,0.60010839,0.308693849,0.122683946,1,,,,,,,,
,html-keyboard-response,95,524199,0.0-57.0-1.0,"""event"",""trial"",""time""
""blur"",""0"",""0""
""focus"",""0"",""0""
""fullscreenenter"",""0"",""3923""
""blur"",""51"",""355506""
""focus"",""51"",""357440""
","""event"",""trial"",""time""
""blur"",""0"",""0""
""blur"",""51"",""355506""
","""event"",""trial"",""time""
""focus"",""0"",""0""
""focus"",""51"",""357440""
","""event"",""trial"",""time""
""fullscreenenter"",""0"",""3923""
","
",null,<p></p>,null,,,,,,,,,,,,,,,,,,,,,,,
,do_trial,96,529408,0.0-58.0-0.0,"""event"",""trial"",""time""
""blur"",""0"",""0""
""focus"",""0"",""0""
""fullscreenenter"",""0"",""3923""
""blur"",""51"",""355506""
""focus"",""51"",""357440""
","""event"",""trial"",""time""
""blur"",""0"",""0""
""blur"",""51"",""355506""
","""event"",""trial"",""time""
""focus"",""0"",""0""
""focus"",""51"",""357440""
","""event"",""trial"",""time""
""fullscreenenter"",""0"",""3923""
","
",649.2,,,,,,,,49,"1,1,0",0,city,2,probe-160,0.436060082,0.27746005,0.21544929,1,,,,,,,,
,html-keyboard-response,97,530416,0.0-58.0-1.0,"""event"",""trial"",""time""
""blur"",""0"",""0""
""focus"",""0"",""0""
""fullscreenenter"",""0"",""3923""
""blur"",""51"",""355506""
""focus"",""51"",""357440""
","""event"",""trial"",""time""
""blur"",""0"",""0""
""blur"",""51"",""355506""
","""event"",""trial"",""time""
""focus"",""0"",""0""
""focus"",""51"",""357440""
","""event"",""trial"",""time""
""fullscreenenter"",""0"",""3923""
","
",null,<p></p>,null,,,,,,,,,,,,,,,,,,,,,,,
,do_trial,98,535809,0.0-59.0-0.0,"""event"",""trial"",""time""
""blur"",""0"",""0""
""focus"",""0"",""0""
""fullscreenenter"",""0"",""3923""
""blur"",""51"",""355506""
""focus"",""51"",""357440""
","""event"",""trial"",""time""
""blur"",""0"",""0""
""blur"",""51"",""355506""
","""event"",""trial"",""time""
""focus"",""0"",""0""
""focus"",""51"",""357440""
","""event"",""trial"",""time""
""fullscreenenter"",""0"",""3923""
","
",837.1,,,,,,,,49,"0,0,0",0,city,3,probe-09,0.455862518,0.22717115,0.160151472,0,,,,,,,,
,html-keyboard-response,99,536817,0.0-59.0-1.0,"""event"",""trial"",""time""
""blur"",""0"",""0""
""focus"",""0"",""0""
""fullscreenenter"",""0"",""3923""
""blur"",""51"",""355506""
""focus"",""51"",""357440""
","""event"",""trial"",""time""
""blur"",""0"",""0""
""blur"",""51"",""355506""
","""event"",""trial"",""time""
""focus"",""0"",""0""
""focus"",""51"",""357440""
","""event"",""trial"",""time""
""fullscreenenter"",""0"",""3923""
","
",null,<p></p>,null,,,,,,,,,,,,,,,,,,,,,,,
,do_trial,100,541761,0.0-60.0-0.0,"""event"",""trial"",""time""
""blur"",""0"",""0""
""focus"",""0"",""0""
""fullscreenenter"",""0"",""3923""
""blur"",""51"",""355506""
""focus"",""51"",""357440""
","""event"",""trial"",""time""
""blur"",""0"",""0""
""blur"",""51"",""355506""
","""event"",""trial"",""time""
""focus"",""0"",""0""
""focus"",""51"",""357440""
","""event"",""trial"",""time""
""fullscreenenter"",""0"",""3923""
","
",387.3,,,,,,,,49,"0,0,0",0,city,4,probe-131,0.506655668,0.160179374,0.105739545,0,,,,,,,,
,html-keyboard-response,101,542768,0.0-60.0-1.0,"""event"",""trial"",""time""
""blur"",""0"",""0""
""focus"",""0"",""0""
""fullscreenenter"",""0"",""3923""
""blur"",""51"",""355506""
""focus"",""51"",""357440""
","""event"",""trial"",""time""
""blur"",""0"",""0""
""blur"",""51"",""355506""
","""event"",""trial"",""time""
""focus"",""0"",""0""
""focus"",""51"",""357440""
","""event"",""trial"",""time""
""fullscreenenter"",""0"",""3923""
","
",null,<p></p>,null,,,,,,,,,,,,,,,,,,,,,,,
,do_trial,102,547985,0.0-61.0-0.0,"""event"",""trial"",""time""
""blur"",""0"",""0""
""focus"",""0"",""0""
""fullscreenenter"",""0"",""3923""
""blur"",""51"",""355506""
""focus"",""51"",""357440""
","""event"",""trial"",""time""
""blur"",""0"",""0""
""blur"",""51"",""355506""
","""event"",""trial"",""time""
""focus"",""0"",""0""
""focus"",""51"",""357440""
","""event"",""trial"",""time""
""fullscreenenter"",""0"",""3923""
","
",665,,,,,,,,50,"0,0,0",0,city,5,probe-79,0.515843827,0.237488366,0.189746009,0,,,,,,,,
,html-keyboard-response,103,548992,0.0-61.0-1.0,"""event"",""trial"",""time""
""blur"",""0"",""0""
""focus"",""0"",""0""
""fullscreenenter"",""0"",""3923""
""blur"",""51"",""355506""
""focus"",""51"",""357440""
","""event"",""trial"",""time""
""blur"",""0"",""0""
""blur"",""51"",""355506""
","""event"",""trial"",""time""
""focus"",""0"",""0""
""focus"",""51"",""357440""
","""event"",""trial"",""time""
""fullscreenenter"",""0"",""3923""
","
",null,<p></p>,null,,,,,,,,,,,,,,,,,,,,,,,
,do_trial,104,554165,0.0-62.0-0.0,"""event"",""trial"",""time""
""blur"",""0"",""0""
""focus"",""0"",""0""
""fullscreenenter"",""0"",""3923""
""blur"",""51"",""355506""
""focus"",""51"",""357440""
","""event"",""trial"",""time""
""blur"",""0"",""0""
""blur"",""51"",""355506""
","""event"",""trial"",""time""
""focus"",""0"",""0""
""focus"",""51"",""357440""
","""event"",""trial"",""time""
""fullscreenenter"",""0"",""3923""
","
",617.9,,,,,,,,51,"0,0,0",0,city,6,probe-17,0.566906248,0.515769841,0.067805549,0,,,,,,,,
,html-keyboard-response,105,555170,0.0-62.0-1.0,"""event"",""trial"",""time""
""blur"",""0"",""0""
""focus"",""0"",""0""
""fullscreenenter"",""0"",""3923""
""blur"",""51"",""355506""
""focus"",""51"",""357440""
","""event"",""trial"",""time""
""blur"",""0"",""0""
""blur"",""51"",""355506""
","""event"",""trial"",""time""
""focus"",""0"",""0""
""focus"",""51"",""357440""
","""event"",""trial"",""time""
""fullscreenenter"",""0"",""3923""
","
",null,<p></p>,null,,,,,,,,,,,,,,,,,,,,,,,
,do_trial,106,562478,0.0-63.0-0.0,"""event"",""trial"",""time""
""blur"",""0"",""0""
""focus"",""0"",""0""
""fullscreenenter"",""0"",""3923""
""blur"",""51"",""355506""
""focus"",""51"",""357440""
","""event"",""trial"",""time""
""blur"",""0"",""0""
""blur"",""51"",""355506""
","""event"",""trial"",""time""
""focus"",""0"",""0""
""focus"",""51"",""357440""
","""event"",""trial"",""time""
""fullscreenenter"",""0"",""3923""
","
",2754.3,,,,,,,,49,"1,0,0",0,city,7,probe-101,0.535428044,0.557624541,0.099500187,1,,,,,,,,
,html-keyboard-response,107,563482,0.0-63.0-1.0,"""event"",""trial"",""time""
""blur"",""0"",""0""
""focus"",""0"",""0""
""fullscreenenter"",""0"",""3923""
""blur"",""51"",""355506""
""focus"",""51"",""357440""
","""event"",""trial"",""time""
""blur"",""0"",""0""
""blur"",""51"",""355506""
","""event"",""trial"",""time""
""focus"",""0"",""0""
""focus"",""51"",""357440""
","""event"",""trial"",""time""
""fullscreenenter"",""0"",""3923""
","
",null,<p></p>,null,,,,,,,,,,,,,,,,,,,,,,,
,do_trial,108,569541,0.0-64.0-0.0,"""event"",""trial"",""time""
""blur"",""0"",""0""
""focus"",""0"",""0""
""fullscreenenter"",""0"",""3923""
""blur"",""51"",""355506""
""focus"",""51"",""357440""
","""event"",""trial"",""time""
""blur"",""0"",""0""
""blur"",""51"",""355506""
","""event"",""trial"",""time""
""focus"",""0"",""0""
""focus"",""51"",""357440""
","""event"",""trial"",""time""
""fullscreenenter"",""0"",""3923""
","
",null,,,,,,,,null,"0,0,0",0,city,8,probe-206,0.411106232,0.535132181,0.143143422,,,,,,,,,
,html-keyboard-response,109,570549,0.0-64.0-1.0,"""event"",""trial"",""time""
""blur"",""0"",""0""
""focus"",""0"",""0""
""fullscreenenter"",""0"",""3923""
""blur"",""51"",""355506""
""focus"",""51"",""357440""
","""event"",""trial"",""time""
""blur"",""0"",""0""
""blur"",""51"",""355506""
","""event"",""trial"",""time""
""focus"",""0"",""0""
""focus"",""51"",""357440""
","""event"",""trial"",""time""
""fullscreenenter"",""0"",""3923""
","
",null,<p></p>,null,,,,,,,,,,,,,,,,,,,,,,,
,do_trial,110,575493,0.0-65.0-0.0,"""event"",""trial"",""time""
""blur"",""0"",""0""
""focus"",""0"",""0""
""fullscreenenter"",""0"",""3923""
""blur"",""51"",""355506""
""focus"",""51"",""357440""
","""event"",""trial"",""time""
""blur"",""0"",""0""
""blur"",""51"",""355506""
","""event"",""trial"",""time""
""focus"",""0"",""0""
""focus"",""51"",""357440""
","""event"",""trial"",""time""
""fullscreenenter"",""0"",""3923""
","
",392.9,,,,,,,,49,"0,0,0",0,city,9,probe-154,0.357798347,0.451694145,0.127543378,0,,,,,,,,
,html-keyboard-response,111,576501,0.0-65.0-1.0,"""event"",""trial"",""time""
""blur"",""0"",""0""
""focus"",""0"",""0""
""fullscreenenter"",""0"",""3923""
""blur"",""51"",""355506""
""focus"",""51"",""357440""
","""event"",""trial"",""time""
""blur"",""0"",""0""
""blur"",""51"",""355506""
","""event"",""trial"",""time""
""focus"",""0"",""0""
""focus"",""51"",""357440""
","""event"",""trial"",""time""
""fullscreenenter"",""0"",""3923""
","
",null,<p></p>,null,,,,,,,,,,,,,,,,,,,,,,,
,do_trial,112,581434,0.0-66.0-0.0,"""event"",""trial"",""time""
""blur"",""0"",""0""
""focus"",""0"",""0""
""fullscreenenter"",""0"",""3923""
""blur"",""51"",""355506""
""focus"",""51"",""357440""
","""event"",""trial"",""time""
""blur"",""0"",""0""
""blur"",""51"",""355506""
","""event"",""trial"",""time""
""focus"",""0"",""0""
""focus"",""51"",""357440""
","""event"",""trial"",""time""
""fullscreenenter"",""0"",""3923""
","
",374.6,,,,,,,,49,"0,0,1",0,city,10,probe-42,0.455082985,0.422523564,0.212251577,0,,,,,,,,
,html-keyboard-response,113,582442,0.0-66.0-1.0,"""event"",""trial"",""time""
""blur"",""0"",""0""
""focus"",""0"",""0""
""fullscreenenter"",""0"",""3923""
""blur"",""51"",""355506""
""focus"",""51"",""357440""
","""event"",""trial"",""time""
""blur"",""0"",""0""
""blur"",""51"",""355506""
","""event"",""trial"",""time""
""focus"",""0"",""0""
""focus"",""51"",""357440""
","""event"",""trial"",""time""
""fullscreenenter"",""0"",""3923""
","
",null,<p></p>,null,,,,,,,,,,,,,,,,,,,,,,,
,do_trial,114,587460,0.0-67.0-0.0,"""event"",""trial"",""time""
""blur"",""0"",""0""
""focus"",""0"",""0""
""fullscreenenter"",""0"",""3923""
""blur"",""51"",""355506""
""focus"",""51"",""357440""
","""event"",""trial"",""time""
""blur"",""0"",""0""
""blur"",""51"",""355506""
","""event"",""trial"",""time""
""focus"",""0"",""0""
""focus"",""51"",""357440""
","""event"",""trial"",""time""
""fullscreenenter"",""0"",""3923""
","
",465.3,,,,,,,,49,"0,0,0",0,city,11,probe-41,0.469078476,0.425684476,0.09352609,0,,,,,,,,
,html-keyboard-response,115,588468,0.0-67.0-1.0,"""event"",""trial"",""time""
""blur"",""0"",""0""
""focus"",""0"",""0""
""fullscreenenter"",""0"",""3923""
""blur"",""51"",""355506""
""focus"",""51"",""357440""
","""event"",""trial"",""time""
""blur"",""0"",""0""
""blur"",""51"",""355506""
","""event"",""trial"",""time""
""focus"",""0"",""0""
""focus"",""51"",""357440""
","""event"",""trial"",""time""
""fullscreenenter"",""0"",""3923""
","
",null,<p></p>,null,,,,,,,,,,,,,,,,,,,,,,,
,do_trial,116,593428,0.0-68.0-0.0,"""event"",""trial"",""time""
""blur"",""0"",""0""
""focus"",""0"",""0""
""fullscreenenter"",""0"",""3923""
""blur"",""51"",""355506""
""focus"",""51"",""357440""
","""event"",""trial"",""time""
""blur"",""0"",""0""
""blur"",""51"",""355506""
","""event"",""trial"",""time""
""focus"",""0"",""0""
""focus"",""51"",""357440""
","""event"",""trial"",""time""
""fullscreenenter"",""0"",""3923""
","
",404.7,,,,,,,,50,"1,1,0",0,city,12,probe-56,0.536285615,0.301659039,0.10845684,1,,,,,,,,
,html-keyboard-response,117,594436,0.0-68.0-1.0,"""event"",""trial"",""time""
""blur"",""0"",""0""
""focus"",""0"",""0""
""fullscreenenter"",""0"",""3923""
""blur"",""51"",""355506""
""focus"",""51"",""357440""
","""event"",""trial"",""time""
""blur"",""0"",""0""
""blur"",""51"",""355506""
","""event"",""trial"",""time""
""focus"",""0"",""0""
""focus"",""51"",""357440""
","""event"",""trial"",""time""
""fullscreenenter"",""0"",""3923""
","
",null,<p></p>,null,,,,,,,,,,,,,,,,,,,,,,,
,do_trial,118,599529,0.0-69.0-0.0,"""event"",""trial"",""time""
""blur"",""0"",""0""
""focus"",""0"",""0""
""fullscreenenter"",""0"",""3923""
""blur"",""51"",""355506""
""focus"",""51"",""357440""
","""event"",""trial"",""time""
""blur"",""0"",""0""
""blur"",""51"",""355506""
","""event"",""trial"",""time""
""focus"",""0"",""0""
""focus"",""51"",""357440""
","""event"",""trial"",""time""
""fullscreenenter"",""0"",""3923""
","
",537.5,,,,,,,,50,"0,1,0",0,city,13,probe-78,0.580068317,0.288672415,0.134563638,1,,,,,,,,
,html-keyboard-response,119,600537,0.0-69.0-1.0,"""event"",""trial"",""time""
""blur"",""0"",""0""
""focus"",""0"",""0""
""fullscreenenter"",""0"",""3923""
""blur"",""51"",""355506""
""focus"",""51"",""357440""
","""event"",""trial"",""time""
""blur"",""0"",""0""
""blur"",""51"",""355506""
","""event"",""trial"",""time""
""focus"",""0"",""0""
""focus"",""51"",""357440""
","""event"",""trial"",""time""
""fullscreenenter"",""0"",""3923""
","
",null,<p></p>,null,,,,,,,,,,,,,,,,,,,,,,,
,do_trial,120,606595,0.0-70.0-0.0,"""event"",""trial"",""time""
""blur"",""0"",""0""
""focus"",""0"",""0""
""fullscreenenter"",""0"",""3923""
""blur"",""51"",""355506""
""focus"",""51"",""357440""
","""event"",""trial"",""time""
""blur"",""0"",""0""
""blur"",""51"",""355506""
","""event"",""trial"",""time""
""focus"",""0"",""0""
""focus"",""51"",""357440""
","""event"",""trial"",""time""
""fullscreenenter"",""0"",""3923""
","
",null,,,,,,,,null,"1,0,0",0,city,14,probe-14,0.611423883,0.261480314,0.180319861,,,,,,,,,
,html-keyboard-response,121,607603,0.0-70.0-1.0,"""event"",""trial"",""time""
""blur"",""0"",""0""
""focus"",""0"",""0""
""fullscreenenter"",""0"",""3923""
""blur"",""51"",""355506""
""focus"",""51"",""357440""
","""event"",""trial"",""time""
""blur"",""0"",""0""
""blur"",""51"",""355506""
","""event"",""trial"",""time""
""focus"",""0"",""0""
""focus"",""51"",""357440""
","""event"",""trial"",""time""
""fullscreenenter"",""0"",""3923""
","
",null,<p></p>,null,,,,,,,,,,,,,,,,,,,,,,,
,do_trial,122,612968,0.0-71.0-0.0,"""event"",""trial"",""time""
""blur"",""0"",""0""
""focus"",""0"",""0""
""fullscreenenter"",""0"",""3923""
""blur"",""51"",""355506""
""focus"",""51"",""357440""
","""event"",""trial"",""time""
""blur"",""0"",""0""
""blur"",""51"",""355506""
","""event"",""trial"",""time""
""focus"",""0"",""0""
""focus"",""51"",""357440""
","""event"",""trial"",""time""
""fullscreenenter"",""0"",""3923""
","
",807.1,,,,,,,,51,"1,0,1",0,city,15,probe-130,0.673790548,0.299956558,0.227819438,1,,,,,,,,
,html-keyboard-response,123,613976,0.0-71.0-1.0,"""event"",""trial"",""time""
""blur"",""0"",""0""
""focus"",""0"",""0""
""fullscreenenter"",""0"",""3923""
""blur"",""51"",""355506""
""focus"",""51"",""357440""
","""event"",""trial"",""time""
""blur"",""0"",""0""
""blur"",""51"",""355506""
","""event"",""trial"",""time""
""focus"",""0"",""0""
""focus"",""51"",""357440""
","""event"",""trial"",""time""
""fullscreenenter"",""0"",""3923""
","
",null,<p></p>,null,,,,,,,,,,,,,,,,,,,,,,,
,do_trial,124,618947,0.0-72.0-0.0,"""event"",""trial"",""time""
""blur"",""0"",""0""
""focus"",""0"",""0""
""fullscreenenter"",""0"",""3923""
""blur"",""51"",""355506""
""focus"",""51"",""357440""
","""event"",""trial"",""time""
""blur"",""0"",""0""
""blur"",""51"",""355506""
","""event"",""trial"",""time""
""focus"",""0"",""0""
""focus"",""51"",""357440""
","""event"",""trial"",""time""
""fullscreenenter"",""0"",""3923""
","
",411.9,,,,,,,,49,"1,0,1",0,city,16,probe-124,0.626040486,0.307953571,0.317268794,1,,,,,,,,
,html-keyboard-response,125,619954,0.0-72.0-1.0,"""event"",""trial"",""time""
""blur"",""0"",""0""
""focus"",""0"",""0""
""fullscreenenter"",""0"",""3923""
""blur"",""51"",""355506""
""focus"",""51"",""357440""
","""event"",""trial"",""time""
""blur"",""0"",""0""
""blur"",""51"",""355506""
","""event"",""trial"",""time""
""focus"",""0"",""0""
""focus"",""51"",""357440""
","""event"",""trial"",""time""
""fullscreenenter"",""0"",""3923""
","
",null,<p></p>,null,,,,,,,,,,,,,,,,,,,,,,,
,do_trial,126,624936,0.0-73.0-0.0,"""event"",""trial"",""time""
""blur"",""0"",""0""
""focus"",""0"",""0""
""fullscreenenter"",""0"",""3923""
""blur"",""51"",""355506""
""focus"",""51"",""357440""
","""event"",""trial"",""time""
""blur"",""0"",""0""
""blur"",""51"",""355506""
","""event"",""trial"",""time""
""focus"",""0"",""0""
""focus"",""51"",""357440""
","""event"",""trial"",""time""
""fullscreenenter"",""0"",""3923""
","
",423.2,,,,,,,,49,"1,1,1",0,city,17,probe-55,0.702600741,0.401563866,0.323587318,1,,,,,,,,
,html-keyboard-response,127,625944,0.0-73.0-1.0,"""event"",""trial"",""time""
""blur"",""0"",""0""
""focus"",""0"",""0""
""fullscreenenter"",""0"",""3923""
""blur"",""51"",""355506""
""focus"",""51"",""357440""
","""event"",""trial"",""time""
""blur"",""0"",""0""
""blur"",""51"",""355506""
","""event"",""trial"",""time""
""focus"",""0"",""0""
""focus"",""51"",""357440""
","""event"",""trial"",""time""
""fullscreenenter"",""0"",""3923""
","
",null,<p></p>,null,,,,,,,,,,,,,,,,,,,,,,,
,do_trial,128,631362,0.0-74.0-0.0,"""event"",""trial"",""time""
""blur"",""0"",""0""
""focus"",""0"",""0""
""fullscreenenter"",""0"",""3923""
""blur"",""51"",""355506""
""focus"",""51"",""357440""
","""event"",""trial"",""time""
""blur"",""0"",""0""
""blur"",""51"",""355506""
","""event"",""trial"",""time""
""focus"",""0"",""0""
""focus"",""51"",""357440""
","""event"",""trial"",""time""
""fullscreenenter"",""0"",""3923""
","
",860,,,,,,,,49,"1,0,0",0,city,18,probe-176,0.698813342,0.375933549,0.143308746,1,,,,,,,,
,html-keyboard-response,129,632370,0.0-74.0-1.0,"""event"",""trial"",""time""
""blur"",""0"",""0""
""focus"",""0"",""0""
""fullscreenenter"",""0"",""3923""
""blur"",""51"",""355506""
""focus"",""51"",""357440""
","""event"",""trial"",""time""
""blur"",""0"",""0""
""blur"",""51"",""355506""
","""event"",""trial"",""time""
""focus"",""0"",""0""
""focus"",""51"",""357440""
","""event"",""trial"",""time""
""fullscreenenter"",""0"",""3923""
","
",null,<p></p>,null,,,,,,,,,,,,,,,,,,,,,,,
,do_trial,130,638434,0.0-75.0-0.0,"""event"",""trial"",""time""
""blur"",""0"",""0""
""focus"",""0"",""0""
""fullscreenenter"",""0"",""3923""
""blur"",""51"",""355506""
""focus"",""51"",""357440""
","""event"",""trial"",""time""
""blur"",""0"",""0""
""blur"",""51"",""355506""
","""event"",""trial"",""time""
""focus"",""0"",""0""
""focus"",""51"",""357440""
","""event"",""trial"",""time""
""fullscreenenter"",""0"",""3923""
","
",null,,,,,,,,null,"1,0,0",0,city,19,probe-133,0.521398472,0.395065551,0.180148432,,,,,,,,,
,html-keyboard-response,131,639441,0.0-75.0-1.0,"""event"",""trial"",""time""
""blur"",""0"",""0""
""focus"",""0"",""0""
""fullscreenenter"",""0"",""3923""
""blur"",""51"",""355506""
""focus"",""51"",""357440""
","""event"",""trial"",""time""
""blur"",""0"",""0""
""blur"",""51"",""355506""
","""event"",""trial"",""time""
""focus"",""0"",""0""
""focus"",""51"",""357440""
","""event"",""trial"",""time""
""fullscreenenter"",""0"",""3923""
","
",null,<p></p>,null,,,,,,,,,,,,,,,,,,,,,,,
,do_trial,132,644316,0.0-76.0-0.0,"""event"",""trial"",""time""
""blur"",""0"",""0""
""focus"",""0"",""0""
""fullscreenenter"",""0"",""3923""
""blur"",""51"",""355506""
""focus"",""51"",""357440""
","""event"",""trial"",""time""
""blur"",""0"",""0""
""blur"",""51"",""355506""
","""event"",""trial"",""time""
""focus"",""0"",""0""
""focus"",""51"",""357440""
","""event"",""trial"",""time""
""fullscreenenter"",""0"",""3923""
","
",321,,,,,,,,49,"1,1,0",0,city,20,probe-170,0.518888121,0.288994888,0.207322588,1,,,,,,,,
,html-keyboard-response,133,645324,0.0-76.0-1.0,"""event"",""trial"",""time""
""blur"",""0"",""0""
""focus"",""0"",""0""
""fullscreenenter"",""0"",""3923""
""blur"",""51"",""355506""
""focus"",""51"",""357440""
","""event"",""trial"",""time""
""blur"",""0"",""0""
""blur"",""51"",""355506""
","""event"",""trial"",""time""
""focus"",""0"",""0""
""focus"",""51"",""357440""
","""event"",""trial"",""time""
""fullscreenenter"",""0"",""3923""
","
",null,<p></p>,null,,,,,,,,,,,,,,,,,,,,,,,
,do_trial,134,650625,0.0-77.0-0.0,"""event"",""trial"",""time""
""blur"",""0"",""0""
""focus"",""0"",""0""
""fullscreenenter"",""0"",""3923""
""blur"",""51"",""355506""
""focus"",""51"",""357440""
","""event"",""trial"",""time""
""blur"",""0"",""0""
""blur"",""51"",""355506""
","""event"",""trial"",""time""
""focus"",""0"",""0""
""focus"",""51"",""357440""
","""event"",""trial"",""time""
""fullscreenenter"",""0"",""3923""
","
",745.6,,,,,,,,49,"1,0,0",0,city,21,probe-180,0.56102307,0.336887487,0.100188613,1,,,,,,,,
,html-keyboard-response,135,651633,0.0-77.0-1.0,"""event"",""trial"",""time""
""blur"",""0"",""0""
""focus"",""0"",""0""
""fullscreenenter"",""0"",""3923""
""blur"",""51"",""355506""
""focus"",""51"",""357440""
","""event"",""trial"",""time""
""blur"",""0"",""0""
""blur"",""51"",""355506""
","""event"",""trial"",""time""
""focus"",""0"",""0""
""focus"",""51"",""357440""
","""event"",""trial"",""time""
""fullscreenenter"",""0"",""3923""
","
",null,<p></p>,null,,,,,,,,,,,,,,,,,,,,,,,
,do_trial,136,656747,0.0-78.0-0.0,"""event"",""trial"",""time""
""blur"",""0"",""0""
""focus"",""0"",""0""
""fullscreenenter"",""0"",""3923""
""blur"",""51"",""355506""
""focus"",""51"",""357440""
","""event"",""trial"",""time""
""blur"",""0"",""0""
""blur"",""51"",""355506""
","""event"",""trial"",""time""
""focus"",""0"",""0""
""focus"",""51"",""357440""
","""event"",""trial"",""time""
""fullscreenenter"",""0"",""3923""
","
",555.2,,,,,,,,49,"1,0,1",0,city,22,probe-200,0.523812744,0.335808941,0.137875441,1,,,,,,,,
,html-keyboard-response,137,657755,0.0-78.0-1.0,"""event"",""trial"",""time""
""blur"",""0"",""0""
""focus"",""0"",""0""
""fullscreenenter"",""0"",""3923""
""blur"",""51"",""355506""
""focus"",""51"",""357440""
","""event"",""trial"",""time""
""blur"",""0"",""0""
""blur"",""51"",""355506""
","""event"",""trial"",""time""
""focus"",""0"",""0""
""focus"",""51"",""357440""
","""event"",""trial"",""time""
""fullscreenenter"",""0"",""3923""
","
",null,<p></p>,null,,,,,,,,,,,,,,,,,,,,,,,
,do_trial,138,663099,0.0-79.0-0.0,"""event"",""trial"",""time""
""blur"",""0"",""0""
""focus"",""0"",""0""
""fullscreenenter"",""0"",""3923""
""blur"",""51"",""355506""
""focus"",""51"",""357440""
","""event"",""trial"",""time""
""blur"",""0"",""0""
""blur"",""51"",""355506""
","""event"",""trial"",""time""
""focus"",""0"",""0""
""focus"",""51"",""357440""
","""event"",""trial"",""time""
""fullscreenenter"",""0"",""3923""
","
",788,,,,,,,,49,"1,0,0",0,city,23,probe-152,0.611888094,0.162866602,0.071693059,1,,,,,,,,
,html-keyboard-response,139,664107,0.0-79.0-1.0,"""event"",""trial"",""time""
""blur"",""0"",""0""
""focus"",""0"",""0""
""fullscreenenter"",""0"",""3923""
""blur"",""51"",""355506""
""focus"",""51"",""357440""
","""event"",""trial"",""time""
""blur"",""0"",""0""
""blur"",""51"",""355506""
","""event"",""trial"",""time""
""focus"",""0"",""0""
""focus"",""51"",""357440""
","""event"",""trial"",""time""
""fullscreenenter"",""0"",""3923""
","
",null,<p></p>,null,,,,,,,,,,,,,,,,,,,,,,,
,do_trial,140,669387,0.0-80.0-0.0,"""event"",""trial"",""time""
""blur"",""0"",""0""
""focus"",""0"",""0""
""fullscreenenter"",""0"",""3923""
""blur"",""51"",""355506""
""focus"",""51"",""357440""
","""event"",""trial"",""time""
""blur"",""0"",""0""
""blur"",""51"",""355506""
","""event"",""trial"",""time""
""focus"",""0"",""0""
""focus"",""51"",""357440""
","""event"",""trial"",""time""
""fullscreenenter"",""0"",""3923""
","
",721.8,,,,,,,,49,"0,0,0",0,city,24,probe-22,0.616444839,0.206742443,0.106996765,0,,,,,,,,
,html-keyboard-response,141,670395,0.0-80.0-1.0,"""event"",""trial"",""time""
""blur"",""0"",""0""
""focus"",""0"",""0""
""fullscreenenter"",""0"",""3923""
""blur"",""51"",""355506""
""focus"",""51"",""357440""
","""event"",""trial"",""time""
""blur"",""0"",""0""
""blur"",""51"",""355506""
","""event"",""trial"",""time""
""focus"",""0"",""0""
""focus"",""51"",""357440""
","""event"",""trial"",""time""
""fullscreenenter"",""0"",""3923""
","
",null,<p></p>,null,,,,,,,,,,,,,,,,,,,,,,,
,do_trial,142,675504,0.0-81.0-0.0,"""event"",""trial"",""time""
""blur"",""0"",""0""
""focus"",""0"",""0""
""fullscreenenter"",""0"",""3923""
""blur"",""51"",""355506""
""focus"",""51"",""357440""
","""event"",""trial"",""time""
""blur"",""0"",""0""
""blur"",""51"",""355506""
","""event"",""trial"",""time""
""focus"",""0"",""0""
""focus"",""51"",""357440""
","""event"",""trial"",""time""
""fullscreenenter"",""0"",""3923""
","
",554.3,,,,,,,,50,"1,0,0",0,city,25,probe-114,0.752739785,0.287247158,0.083769887,0,,,,,,,,
,html-keyboard-response,143,676511,0.0-81.0-1.0,"""event"",""trial"",""time""
""blur"",""0"",""0""
""focus"",""0"",""0""
""fullscreenenter"",""0"",""3923""
""blur"",""51"",""355506""
""focus"",""51"",""357440""
","""event"",""trial"",""time""
""blur"",""0"",""0""
""blur"",""51"",""355506""
","""event"",""trial"",""time""
""focus"",""0"",""0""
""focus"",""51"",""357440""
","""event"",""trial"",""time""
""fullscreenenter"",""0"",""3923""
","
",null,<p></p>,null,,,,,,,,,,,,,,,,,,,,,,,
,do_trial,144,681541,0.0-82.0-0.0,"""event"",""trial"",""time""
""blur"",""0"",""0""
""focus"",""0"",""0""
""fullscreenenter"",""0"",""3923""
""blur"",""51"",""355506""
""focus"",""51"",""357440""
","""event"",""trial"",""time""
""blur"",""0"",""0""
""blur"",""51"",""355506""
","""event"",""trial"",""time""
""focus"",""0"",""0""
""focus"",""51"",""357440""
","""event"",""trial"",""time""
""fullscreenenter"",""0"",""3923""
","
",479.9,,,,,,,,49,"0,0,1",0,city,26,probe-227,0.618818476,0.274175439,0.188548833,0,,,,,,,,
,html-keyboard-response,145,682549,0.0-82.0-1.0,"""event"",""trial"",""time""
""blur"",""0"",""0""
""focus"",""0"",""0""
""fullscreenenter"",""0"",""3923""
""blur"",""51"",""355506""
""focus"",""51"",""357440""
","""event"",""trial"",""time""
""blur"",""0"",""0""
""blur"",""51"",""355506""
","""event"",""trial"",""time""
""focus"",""0"",""0""
""focus"",""51"",""357440""
","""event"",""trial"",""time""
""fullscreenenter"",""0"",""3923""
","
",null,<p></p>,null,,,,,,,,,,,,,,,,,,,,,,,
,do_trial,146,687658,0.0-83.0-0.0,"""event"",""trial"",""time""
""blur"",""0"",""0""
""focus"",""0"",""0""
""fullscreenenter"",""0"",""3923""
""blur"",""51"",""355506""
""focus"",""51"",""357440""
","""event"",""trial"",""time""
""blur"",""0"",""0""
""blur"",""51"",""355506""
","""event"",""trial"",""time""
""focus"",""0"",""0""
""focus"",""51"",""357440""
","""event"",""trial"",""time""
""fullscreenenter"",""0"",""3923""
","
",553.9,,,,,,,,49,"1,0,0",0,city,27,probe-115,0.615460729,0.172951117,0.214017072,1,,,,,,,,
,html-keyboard-response,147,688666,0.0-83.0-1.0,"""event"",""trial"",""time""
""blur"",""0"",""0""
""focus"",""0"",""0""
""fullscreenenter"",""0"",""3923""
""blur"",""51"",""355506""
""focus"",""51"",""357440""
","""event"",""trial"",""time""
""blur"",""0"",""0""
""blur"",""51"",""355506""
","""event"",""trial"",""time""
""focus"",""0"",""0""
""focus"",""51"",""357440""
","""event"",""trial"",""time""
""fullscreenenter"",""0"",""3923""
","
",null,<p></p>,null,,,,,,,,,,,,,,,,,,,,,,,
,do_trial,148,693846,0.0-84.0-0.0,"""event"",""trial"",""time""
""blur"",""0"",""0""
""focus"",""0"",""0""
""fullscreenenter"",""0"",""3923""
""blur"",""51"",""355506""
""focus"",""51"",""357440""
","""event"",""trial"",""time""
""blur"",""0"",""0""
""blur"",""51"",""355506""
","""event"",""trial"",""time""
""focus"",""0"",""0""
""focus"",""51"",""357440""
","""event"",""trial"",""time""
""fullscreenenter"",""0"",""3923""
","
",622,,,,,,,,49,"1,1,0",0,city,28,probe-45,0.591323824,0.24813187,0.16260724,1,,,,,,,,
,html-keyboard-response,149,694852,0.0-84.0-1.0,"""event"",""trial"",""time""
""blur"",""0"",""0""
""focus"",""0"",""0""
""fullscreenenter"",""0"",""3923""
""blur"",""51"",""355506""
""focus"",""51"",""357440""
","""event"",""trial"",""time""
""blur"",""0"",""0""
""blur"",""51"",""355506""
","""event"",""trial"",""time""
""focus"",""0"",""0""
""focus"",""51"",""357440""
","""event"",""trial"",""time""
""fullscreenenter"",""0"",""3923""
","
",null,<p></p>,null,,,,,,,,,,,,,,,,,,,,,,,
,do_trial,150,700180,0.0-85.0-0.0,"""event"",""trial"",""time""
""blur"",""0"",""0""
""focus"",""0"",""0""
""fullscreenenter"",""0"",""3923""
""blur"",""51"",""355506""
""focus"",""51"",""357440""
","""event"",""trial"",""time""
""blur"",""0"",""0""
""blur"",""51"",""355506""
","""event"",""trial"",""time""
""focus"",""0"",""0""
""focus"",""51"",""357440""
","""event"",""trial"",""time""
""fullscreenenter"",""0"",""3923""
","
",766.9,,,,,,,,49,"0,0,0",0,city,29,probe-106,0.554962068,0.258370548,0.084102863,0,,,,,,,,
,html-keyboard-response,151,701188,0.0-85.0-1.0,"""event"",""trial"",""time""
""blur"",""0"",""0""
""focus"",""0"",""0""
""fullscreenenter"",""0"",""3923""
""blur"",""51"",""355506""
""focus"",""51"",""357440""
","""event"",""trial"",""time""
""blur"",""0"",""0""
""blur"",""51"",""355506""
","""event"",""trial"",""time""
""focus"",""0"",""0""
""focus"",""51"",""357440""
","""event"",""trial"",""time""
""fullscreenenter"",""0"",""3923""
","
",null,<p></p>,null,,,,,,,,,,,,,,,,,,,,,,,
,do_bye,152,702697,0.0-86.0-0.0,"""event"",""trial"",""time""
""blur"",""0"",""0""
""focus"",""0"",""0""
""fullscreenenter"",""0"",""3923""
""blur"",""51"",""355506""
""focus"",""51"",""357440""
","""event"",""trial"",""time""
""blur"",""0"",""0""
""blur"",""51"",""355506""
","""event"",""trial"",""time""
""focus"",""0"",""0""
""focus"",""51"",""357440""
","""event"",""trial"",""time""
""fullscreenenter"",""0"",""3923""
","
",null,,,,,,,,null,,,,,,,,,,,,,,,,,
,break,153,822697,0.0-86.0-1.0,"""event"",""trial"",""time""
""blur"",""0"",""0""
""focus"",""0"",""0""
""fullscreenenter"",""0"",""3923""
""blur"",""51"",""355506""
""focus"",""51"",""357440""
","""event"",""trial"",""time""
""blur"",""0"",""0""
""blur"",""51"",""355506""
","""event"",""trial"",""time""
""focus"",""0"",""0""
""focus"",""51"",""357440""
","""event"",""trial"",""time""
""fullscreenenter"",""0"",""3923""
","
",null,"<div class='center'><p>Time to take a quick break! You have 2 minutes to rest, but you can move on sooner if you'd like.</p><p> Press the <b>space bar</b> to continue.</p></div>",null,,,,,,,,,,,,,,,,,,,,,,,
,do_travel,154,831707,0.0-87.0-0.0,"""event"",""trial"",""time""
""blur"",""0"",""0""
""focus"",""0"",""0""
""fullscreenenter"",""0"",""3923""
""blur"",""51"",""355506""
""focus"",""51"",""357440""
","""event"",""trial"",""time""
""blur"",""0"",""0""
""blur"",""51"",""355506""
","""event"",""trial"",""time""
""focus"",""0"",""0""
""focus"",""51"",""357440""
","""event"",""trial"",""time""
""fullscreenenter"",""0"",""3923""
","
",null,,,,,,,,null,,,,,,,,,,,,,,,,,
,do_welcome,155,835720,0.0-87.0-1.0,"""event"",""trial"",""time""
""blur"",""0"",""0""
""focus"",""0"",""0""
""fullscreenenter"",""0"",""3923""
""blur"",""51"",""355506""
""focus"",""51"",""357440""
","""event"",""trial"",""time""
""blur"",""0"",""0""
""blur"",""51"",""355506""
","""event"",""trial"",""time""
""focus"",""0"",""0""
""focus"",""51"",""357440""
","""event"",""trial"",""time""
""fullscreenenter"",""0"",""3923""
","
",null,,,,,,,,null,,,,,,,,,,,,,,,,,
,do_trial,156,841929,0.0-88.0-0.0,"""event"",""trial"",""time""
""blur"",""0"",""0""
""focus"",""0"",""0""
""fullscreenenter"",""0"",""3923""
""blur"",""51"",""355506""
""focus"",""51"",""357440""
","""event"",""trial"",""time""
""blur"",""0"",""0""
""blur"",""51"",""355506""
","""event"",""trial"",""time""
""focus"",""0"",""0""
""focus"",""51"",""357440""
","""event"",""trial"",""time""
""fullscreenenter"",""0"",""3923""
","
",1650.8,,,,,,,,49,"1,1,0",1,highway,30,probe-16,1,0.199942906,0.068530245,1,,,,,,,,
,html-keyboard-response,157,842936,0.0-88.0-1.0,"""event"",""trial"",""time""
""blur"",""0"",""0""
""focus"",""0"",""0""
""fullscreenenter"",""0"",""3923""
""blur"",""51"",""355506""
""focus"",""51"",""357440""
","""event"",""trial"",""time""
""blur"",""0"",""0""
""blur"",""51"",""355506""
","""event"",""trial"",""time""
""focus"",""0"",""0""
""focus"",""51"",""357440""
","""event"",""trial"",""time""
""fullscreenenter"",""0"",""3923""
","
",null,<p></p>,null,,,,,,,,,,,,,,,,,,,,,,,
,do_trial,158,847978,0.0-89.0-0.0,"""event"",""trial"",""time""
""blur"",""0"",""0""
""focus"",""0"",""0""
""fullscreenenter"",""0"",""3923""
""blur"",""51"",""355506""
""focus"",""51"",""357440""
","""event"",""trial"",""time""
""blur"",""0"",""0""
""blur"",""51"",""355506""
","""event"",""trial"",""time""
""focus"",""0"",""0""
""focus"",""51"",""357440""
","""event"",""trial"",""time""
""fullscreenenter"",""0"",""3923""
","
",488.1,,,,,,,,49,"1,1,0",1,highway,31,probe-86,1,0.106461895,0.082025532,1,,,,,,,,
,html-keyboard-response,159,848983,0.0-89.0-1.0,"""event"",""trial"",""time""
""blur"",""0"",""0""
""focus"",""0"",""0""
""fullscreenenter"",""0"",""3923""
""blur"",""51"",""355506""
""focus"",""51"",""357440""
","""event"",""trial"",""time""
""blur"",""0"",""0""
""blur"",""51"",""355506""
","""event"",""trial"",""time""
""focus"",""0"",""0""
""focus"",""51"",""357440""
","""event"",""trial"",""time""
""fullscreenenter"",""0"",""3923""
","
",null,<p></p>,null,,,,,,,,,,,,,,,,,,,,,,,
,do_trial,160,854679,0.0-90.0-0.0,"""event"",""trial"",""time""
""blur"",""0"",""0""
""focus"",""0"",""0""
""fullscreenenter"",""0"",""3923""
""blur"",""51"",""355506""
""focus"",""51"",""357440""
","""event"",""trial"",""time""
""blur"",""0"",""0""
""blur"",""51"",""355506""
","""event"",""trial"",""time""
""focus"",""0"",""0""
""focus"",""51"",""357440""
","""event"",""trial"",""time""
""fullscreenenter"",""0"",""3923""
","
",1141.7,,,,,,,,49,"1,1,0",1,highway,32,probe-11,1,0.373590929,0.058834251,1,,,,,,,,
,html-keyboard-response,161,855687,0.0-90.0-1.0,"""event"",""trial"",""time""
""blur"",""0"",""0""
""focus"",""0"",""0""
""fullscreenenter"",""0"",""3923""
""blur"",""51"",""355506""
""focus"",""51"",""357440""
","""event"",""trial"",""time""
""blur"",""0"",""0""
""blur"",""51"",""355506""
","""event"",""trial"",""time""
""focus"",""0"",""0""
""focus"",""51"",""357440""
","""event"",""trial"",""time""
""fullscreenenter"",""0"",""3923""
","
",null,<p></p>,null,,,,,,,,,,,,,,,,,,,,,,,
,do_trial,162,860716,0.0-91.0-0.0,"""event"",""trial"",""time""
""blur"",""0"",""0""
""focus"",""0"",""0""
""fullscreenenter"",""0"",""3923""
""blur"",""51"",""355506""
""focus"",""51"",""357440""
","""event"",""trial"",""time""
""blur"",""0"",""0""
""blur"",""51"",""355506""
","""event"",""trial"",""time""
""focus"",""0"",""0""
""focus"",""51"",""357440""
","""event"",""trial"",""time""
""fullscreenenter"",""0"",""3923""
","
",470.5,,,,,,,,49,"1,0,0",1,highway,33,probe-88,0.767647135,0.338657223,0.091307988,1,,,,,,,,
,html-keyboard-response,163,861724,0.0-91.0-1.0,"""event"",""trial"",""time""
""blur"",""0"",""0""
""focus"",""0"",""0""
""fullscreenenter"",""0"",""3923""
""blur"",""51"",""355506""
""focus"",""51"",""357440""
","""event"",""trial"",""time""
""blur"",""0"",""0""
""blur"",""51"",""355506""
","""event"",""trial"",""time""
""focus"",""0"",""0""
""focus"",""51"",""357440""
","""event"",""trial"",""time""
""fullscreenenter"",""0"",""3923""
","
",null,<p></p>,null,,,,,,,,,,,,,,,,,,,,,,,
,do_trial,164,866699,0.0-92.0-0.0,"""event"",""trial"",""time""
""blur"",""0"",""0""
""focus"",""0"",""0""
""fullscreenenter"",""0"",""3923""
""blur"",""51"",""355506""
""focus"",""51"",""357440""
","""event"",""trial"",""time""
""blur"",""0"",""0""
""blur"",""51"",""355506""
","""event"",""trial"",""time""
""focus"",""0"",""0""
""focus"",""51"",""357440""
","""event"",""trial"",""time""
""fullscreenenter"",""0"",""3923""
","
",416.5,,,,,,,,49,"1,0,0",1,highway,34,probe-15,0.581237609,0.233600978,0.183823908,1,,,,,,,,
,html-keyboard-response,165,867707,0.0-92.0-1.0,"""event"",""trial"",""time""
""blur"",""0"",""0""
""focus"",""0"",""0""
""fullscreenenter"",""0"",""3923""
""blur"",""51"",""355506""
""focus"",""51"",""357440""
","""event"",""trial"",""time""
""blur"",""0"",""0""
""blur"",""51"",""355506""
","""event"",""trial"",""time""
""focus"",""0"",""0""
""focus"",""51"",""357440""
","""event"",""trial"",""time""
""fullscreenenter"",""0"",""3923""
","
",null,<p></p>,null,,,,,,,,,,,,,,,,,,,,,,,
,do_trial,166,873414,0.0-93.0-0.0,"""event"",""trial"",""time""
""blur"",""0"",""0""
""focus"",""0"",""0""
""fullscreenenter"",""0"",""3923""
""blur"",""51"",""355506""
""focus"",""51"",""357440""
","""event"",""trial"",""time""
""blur"",""0"",""0""
""blur"",""51"",""355506""
","""event"",""trial"",""time""
""focus"",""0"",""0""
""focus"",""51"",""357440""
","""event"",""trial"",""time""
""fullscreenenter"",""0"",""3923""
","
",1153.7,,,,,,,,49,"0,0,0",1,highway,35,probe-178,0.523683548,0.112919717,0.17379923,0,,,,,,,,
,html-keyboard-response,167,874422,0.0-93.0-1.0,"""event"",""trial"",""time""
""blur"",""0"",""0""
""focus"",""0"",""0""
""fullscreenenter"",""0"",""3923""
""blur"",""51"",""355506""
""focus"",""51"",""357440""
","""event"",""trial"",""time""
""blur"",""0"",""0""
""blur"",""51"",""355506""
","""event"",""trial"",""time""
""focus"",""0"",""0""
""focus"",""51"",""357440""
","""event"",""trial"",""time""
""fullscreenenter"",""0"",""3923""
","
",null,<p></p>,null,,,,,,,,,,,,,,,,,,,,,,,
,do_trial,168,880219,0.0-94.0-0.0,"""event"",""trial"",""time""
""blur"",""0"",""0""
""focus"",""0"",""0""
""fullscreenenter"",""0"",""3923""
""blur"",""51"",""355506""
""focus"",""51"",""357440""
","""event"",""trial"",""time""
""blur"",""0"",""0""
""blur"",""51"",""355506""
","""event"",""trial"",""time""
""focus"",""0"",""0""
""focus"",""51"",""357440""
","""event"",""trial"",""time""
""fullscreenenter"",""0"",""3923""
","
",1237.5,,,,,,,,51,"1,0,0",1,highway,36,probe-132,0.640195968,0.121493881,0.054176896,0,,,,,,,,
,html-keyboard-response,169,881227,0.0-94.0-1.0,"""event"",""trial"",""time""
""blur"",""0"",""0""
""focus"",""0"",""0""
""fullscreenenter"",""0"",""3923""
""blur"",""51"",""355506""
""focus"",""51"",""357440""
","""event"",""trial"",""time""
""blur"",""0"",""0""
""blur"",""51"",""355506""
","""event"",""trial"",""time""
""focus"",""0"",""0""
""focus"",""51"",""357440""
","""event"",""trial"",""time""
""fullscreenenter"",""0"",""3923""
","
",null,<p></p>,null,,,,,,,,,,,,,,,,,,,,,,,
,do_trial,170,886283,0.0-95.0-0.0,"""event"",""trial"",""time""
""blur"",""0"",""0""
""focus"",""0"",""0""
""fullscreenenter"",""0"",""3923""
""blur"",""51"",""355506""
""focus"",""51"",""357440""
","""event"",""trial"",""time""
""blur"",""0"",""0""
""blur"",""51"",""355506""
","""event"",""trial"",""time""
""focus"",""0"",""0""
""focus"",""51"",""357440""
","""event"",""trial"",""time""
""fullscreenenter"",""0"",""3923""
","
",499.8,,,,,,,,49,"0,1,0",1,highway,37,probe-163,0.600336756,0.304496132,0.148417757,0,,,,,,,,
,html-keyboard-response,171,887291,0.0-95.0-1.0,"""event"",""trial"",""time""
""blur"",""0"",""0""
""focus"",""0"",""0""
""fullscreenenter"",""0"",""3923""
""blur"",""51"",""355506""
""focus"",""51"",""357440""
","""event"",""trial"",""time""
""blur"",""0"",""0""
""blur"",""51"",""355506""
","""event"",""trial"",""time""
""focus"",""0"",""0""
""focus"",""51"",""357440""
","""event"",""trial"",""time""
""fullscreenenter"",""0"",""3923""
","
",null,<p></p>,null,,,,,,,,,,,,,,,,,,,,,,,
,do_trial,172,892291,0.0-96.0-0.0,"""event"",""trial"",""time""
""blur"",""0"",""0""
""focus"",""0"",""0""
""fullscreenenter"",""0"",""3923""
""blur"",""51"",""355506""
""focus"",""51"",""357440""
","""event"",""trial"",""time""
""blur"",""0"",""0""
""blur"",""51"",""355506""
","""event"",""trial"",""time""
""focus"",""0"",""0""
""focus"",""51"",""357440""
","""event"",""trial"",""time""
""fullscreenenter"",""0"",""3923""
","
",439.7,,,,,,,,50,"0,0,0",1,highway,38,probe-35,0.525492261,0.137620303,0.062103316,0,,,,,,,,
,html-keyboard-response,173,893300,0.0-96.0-1.0,"""event"",""trial"",""time""
""blur"",""0"",""0""
""focus"",""0"",""0""
""fullscreenenter"",""0"",""3923""
""blur"",""51"",""355506""
""focus"",""51"",""357440""
","""event"",""trial"",""time""
""blur"",""0"",""0""
""blur"",""51"",""355506""
","""event"",""trial"",""time""
""focus"",""0"",""0""
""focus"",""51"",""357440""
","""event"",""trial"",""time""
""fullscreenenter"",""0"",""3923""
","
",null,<p></p>,null,,,,,,,,,,,,,,,,,,,,,,,
,do_trial,174,899431,0.0-97.0-0.0,"""event"",""trial"",""time""
""blur"",""0"",""0""
""focus"",""0"",""0""
""fullscreenenter"",""0"",""3923""
""blur"",""51"",""355506""
""focus"",""51"",""357440""
","""event"",""trial"",""time""
""blur"",""0"",""0""
""blur"",""51"",""355506""
","""event"",""trial"",""time""
""focus"",""0"",""0""
""focus"",""51"",""357440""
","""event"",""trial"",""time""
""fullscreenenter"",""0"",""3923""
","
",1571.7,,,,,,,,49,"1,0,1",1,highway,39,probe-161,0.733980773,0.086736899,0.067254768,1,,,,,,,,
,html-keyboard-response,175,900437,0.0-97.0-1.0,"""event"",""trial"",""time""
""blur"",""0"",""0""
""focus"",""0"",""0""
""fullscreenenter"",""0"",""3923""
""blur"",""51"",""355506""
""focus"",""51"",""357440""
","""event"",""trial"",""time""
""blur"",""0"",""0""
""blur"",""51"",""355506""
","""event"",""trial"",""time""
""focus"",""0"",""0""
""focus"",""51"",""357440""
","""event"",""trial"",""time""
""fullscreenenter"",""0"",""3923""
","
",null,<p></p>,null,,,,,,,,,,,,,,,,,,,,,,,
,do_trial,176,905954,0.0-98.0-0.0,"""event"",""trial"",""time""
""blur"",""0"",""0""
""focus"",""0"",""0""
""fullscreenenter"",""0"",""3923""
""blur"",""51"",""355506""
""focus"",""51"",""357440""
","""event"",""trial"",""time""
""blur"",""0"",""0""
""blur"",""51"",""355506""
","""event"",""trial"",""time""
""focus"",""0"",""0""
""focus"",""51"",""357440""
","""event"",""trial"",""time""
""fullscreenenter"",""0"",""3923""
","
",964.2,,,,,,,,49,"1,0,0",1,highway,40,probe-181,0.764585037,0.088884521,0.159180185,1,,,,,,,,
,html-keyboard-response,177,906959,0.0-98.0-1.0,"""event"",""trial"",""time""
""blur"",""0"",""0""
""focus"",""0"",""0""
""fullscreenenter"",""0"",""3923""
""blur"",""51"",""355506""
""focus"",""51"",""357440""
","""event"",""trial"",""time""
""blur"",""0"",""0""
""blur"",""51"",""355506""
","""event"",""trial"",""time""
""focus"",""0"",""0""
""focus"",""51"",""357440""
","""event"",""trial"",""time""
""fullscreenenter"",""0"",""3923""
","
",null,<p></p>,null,,,,,,,,,,,,,,,,,,,,,,,
,do_trial,178,912266,0.0-99.0-0.0,"""event"",""trial"",""time""
""blur"",""0"",""0""
""focus"",""0"",""0""
""fullscreenenter"",""0"",""3923""
""blur"",""51"",""355506""
""focus"",""51"",""357440""
","""event"",""trial"",""time""
""blur"",""0"",""0""
""blur"",""51"",""355506""
","""event"",""trial"",""time""
""focus"",""0"",""0""
""focus"",""51"",""357440""
","""event"",""trial"",""time""
""fullscreenenter"",""0"",""3923""
","
",749.4,,,,,,,,49,"1,1,0",1,highway,41,probe-87,0.786558801,0.053838923,0.215232314,1,,,,,,,,
,html-keyboard-response,179,913274,0.0-99.0-1.0,"""event"",""trial"",""time""
""blur"",""0"",""0""
""focus"",""0"",""0""
""fullscreenenter"",""0"",""3923""
