"success","trial_type","trial_index","time_elapsed","internal_node_id","interactions","blur_events","focus_events","fullscreenenter_events","fullscreenexit_events","rt","stimulus","key_press","subject_id","participant_id","age","gender","prompt","response","choice_outcomes","context_n","context_img_id","trial_n","probe_img_id","pR_red","pR_white","pR_black","outcome","contextArray_ind","validImageProbes","invalidImageProbes","pRew_Red","pRew_White","pRew_Black","availableForMemProbe","choice_blocks"
"true","fullscreen","0","4657","0.0-0.0","""event"",""trial"",""time""
""fullscreenenter"",""0"",""3673""
","
","
","""event"",""trial"",""time""
""fullscreenenter"",""0"",""3673""
","
","","","","","","","","","","","","","","","","","","","","","","","","","",""
"","pavlovia","1","4664","0.0-1.0","""event"",""trial"",""time""
""fullscreenenter"",""0"",""3673""
","
","
","""event"",""trial"",""time""
""fullscreenenter"",""0"",""3673""
","
","","","","","","","","","","","","","","","","","","","","","","","","","",""
"","instruc1","2","49834","0.0-2.0","""event"",""trial"",""time""
""fullscreenenter"",""0"",""3673""
","
","
","""event"",""trial"",""time""
""fullscreenenter"",""0"",""3673""
","
","null","run_exp/static/audio/clip_1_welcome.m4a","null","260","758","13","Male","<div class='center'><p>Welcome! This is the first part of the study. It will last ~30 minutes. In part 1 and part 2 of the study, you are the head captain of a pirate ship traveling around the world to different islands. You will play a few different games throughout these two parts. Here is an overview of them:</p><br><p>Part 1 (today)</p><p>1. Instructions, practice game, and quiz</p><p>2. Pick a pirate game on 6 different islands</p><br><p>Part 2 (tomorrow)</p><p>3. Pick a pirate game and memory game</p><p>4. Where did you see this ship? </p></div>","","","","","","","","","","","","","","","","","",""
"","html-keyboard-response","3","51036","0.0-3.0","""event"",""trial"",""time""
""fullscreenenter"",""0"",""3673""
","
","
","""event"",""trial"",""time""
""fullscreenenter"",""0"",""3673""
","
","1198.2000000001863","<div class='center'><p>Welcome! This is the first part of the study. It will last ~30 minutes. In part 1 and part 2 of the study, you are the head captain of a pirate ship traveling around the world to different islands. You will play a few different games throughout these two parts. Here is an overview of them:</p><br><p>Part 1 (today)</p><p>1. Instructions, practice game, and quiz</p><p>2. Pick a pirate game on 6 different islands</p><br><p>Part 2 (tomorrow)</p><p>3. Pick a pirate game and memory game</p><p>4. Where did you see this ship? </p><p><b>[Press the space bar to continue]</b></p></div>","32","","","","","","","","","","","","","","","","","","","","","","",""
"","instruc2","4","56520","0.0-4.0","""event"",""trial"",""time""
""fullscreenenter"",""0"",""3673""
","
","
","""event"",""trial"",""time""
""fullscreenenter"",""0"",""3673""
","
","null","run_exp/static/audio/clip_2_different_places.m4a","null","","","","","<div class='center'><p>Today, you’ll visit these 6 islands on your journey. You'll be able to see these islands from your ship.</p><p><img src='run_exp/static/images/contexts/all_contexts.png' height='500'></p></div>","","","","","","","","","","","","","","","","","",""
"","html-keyboard-response","5","57514","0.0-5.0","""event"",""trial"",""time""
""fullscreenenter"",""0"",""3673""
","
","
","""event"",""trial"",""time""
""fullscreenenter"",""0"",""3673""
","
","988.1000000000931","<div class='center'><p>Today, you’ll visit these 6 islands on your journey. You'll be able to see these islands from your ship.</p><p><img src='run_exp/static/images/contexts/all_contexts.png' height='500'></p><p><b>[Press the space bar to continue]</b></p></div>","32","","","","","","","","","","","","","","","","","","","","","","",""
"","instruc3","6","67295","0.0-6.0","""event"",""trial"",""time""
""fullscreenenter"",""0"",""3673""
","
","
","""event"",""trial"",""time""
""fullscreenenter"",""0"",""3673""
","
","null","run_exp/static/audio/clip_3_goal_of_game_1.m4a","null","","","","","<div class='center'><p> The pirates on your ship will rob other ships as they leave the island.</p> These ships have just sold their goods to the islanders, so they will be filled with lots and lots of gold.</p><p><img src='run_exp/static/images/tutorial/ship_center.png' height='400'></p></div>","","","","","","","","","","","","","","","","","",""
"","html-keyboard-response","7","67763","0.0-7.0","""event"",""trial"",""time""
""fullscreenenter"",""0"",""3673""
","
","
","""event"",""trial"",""time""
""fullscreenenter"",""0"",""3673""
","
","464.5","<div class='center'><p> The pirates on your ship will rob other ships as they leave the island.</p> These ships have just sold their goods to the islanders, so they will be filled with lots and lots of gold.</p><p><img src='run_exp/static/images/tutorial/ship_center.png' height='400'></p><p><b>[Press the space bar to continue]</b></p></div>","32","","","","","","","","","","","","","","","","","","","","","","",""
"","instruc4","8","95902","0.0-8.0","""event"",""trial"",""time""
""fullscreenenter"",""0"",""3673""
","
","
","""event"",""trial"",""time""
""fullscreenenter"",""0"",""3673""
","
","null","run_exp/static/audio/clip_4_goal_of_game_2.m4a","null","","","","","<div class='center'><p>As the head captain, you do not have to rob any ships yourself. Another pirate will be doing the robbing for you. First, you will choose a pirate to rob the next ship.</p><p><img src='run_exp/static/images/tutorial/pirates_all_crop.png' height='200'></p><p>Then, you'll see if the pirate successfully robbed the ship of their gold. If they were successful, then you'll get a stack of gold coins like this:</p><p><img src='run_exp/static/images/tutorial/reward.png' height='150'></p><p> If they were <b>not</b> successful, then you'll get no gold coins, and you'll see a big red x like this: </p><p><img src='run_exp/static/images/tutorial/reward_no.png' height='150'></p><p> How much bonus money you make is based on how many gold coins you collect.</p><div>","","","","","","","","","","","","","","","","","",""
"","html-keyboard-response","9","96611","0.0-9.0","""event"",""trial"",""time""
""fullscreenenter"",""0"",""3673""
","
","
","""event"",""trial"",""time""
""fullscreenenter"",""0"",""3673""
","
","704","<div class='center'><p>As the head captain, you do not have to rob any ships yourself. Another pirate will be doing the robbing for you. First, you will choose a pirate to rob the next ship.</p><p><img src='run_exp/static/images/tutorial/pirates_all_crop.png' height='200'></p><p>Then, you'll see if the pirate successfully robbed the ship of their gold. If they were successful, then you'll get a stack of gold coins like this:</p><p><img src='run_exp/static/images/tutorial/reward.png' height='150'></p><p> If they were <b>not</b> successful, then you'll get no gold coins, and you'll see a big red x like this: </p><p><img src='run_exp/static/images/tutorial/reward_no.png' height='150'></p><p> How much bonus money you make is based on how many gold coins you collect.</p<p><b>[Press the space bar to continue]</b></p></div>","32","","","","","","","","","","","","","","","","","","","","","","",""
"","instruc5","10","118359","0.0-10.0","""event"",""trial"",""time""
""fullscreenenter"",""0"",""3673""
","
","
","""event"",""trial"",""time""
""fullscreenenter"",""0"",""3673""
","
","21743.299999999814","run_exp/static/audio/clip_5_probabilistic.m4a","49","","","","","<div class='center'><p>Even the most skilled pirate can not rob EVERY ship.</p><p> Some ships will have very strong protections against pirate attacks.</p><p> Blue beard, here, is very, very good at robbing ships, but he won't be successful every time he tries to rob one.</p><p> You can press the <b>‘1’</b> key on the keyboard to choose him.</p><p> Try choosing him 10 times to see how often he succeeds at robbing a ship. </p><p><img src='run_exp/static/images/tutorial/blue.png' height='500'></p></div>","","","","","","","","","","","","","","","","","",""
"","html-keyboard-response","11","119862","0.0-11.0","""event"",""trial"",""time""
""fullscreenenter"",""0"",""3673""
","
","
","""event"",""trial"",""time""
""fullscreenenter"",""0"",""3673""
","
","null","<div class='center'><p><img src='run_exp/static/images/tutorial/blue_win.png' height='500'></p></div>","null","","","","","","","","","","","","","","","","","","","","","","",""
"","html-keyboard-response","12","120608","0.0-12.0","""event"",""trial"",""time""
""fullscreenenter"",""0"",""3673""
","
","
","""event"",""trial"",""time""
""fullscreenenter"",""0"",""3673""
","
","743.3999999999069","<div class='center'><img src='run_exp/static/images/tutorial/blue.png' height='500'></p></div>","49","","","","","","","","","","","","","","","","","","","","","","",""
"","html-keyboard-response","13","122110","0.0-13.0","""event"",""trial"",""time""
""fullscreenenter"",""0"",""3673""
","
","
","""event"",""trial"",""time""
""fullscreenenter"",""0"",""3673""
","
","null","<div class='center'><p><img src='run_exp/static/images/tutorial/blue_win.png' height='500'></p></div>","null","","","","","","","","","","","","","","","","","","","","","","",""
"","html-keyboard-response","14","122545","0.0-14.0","""event"",""trial"",""time""
""fullscreenenter"",""0"",""3673""
","
","
","""event"",""trial"",""time""
""fullscreenenter"",""0"",""3673""
","
","431.5","<div class='center'><img src='run_exp/static/images/tutorial/blue.png' height='500'></p></div>","49","","","","","","","","","","","","","","","","","","","","","","",""
"","html-keyboard-response","15","124047","0.0-15.0","""event"",""trial"",""time""
""fullscreenenter"",""0"",""3673""
","
","
","""event"",""trial"",""time""
""fullscreenenter"",""0"",""3673""
","
","null","<div class='center'><p><img src='run_exp/static/images/tutorial/blue_win.png' height='500'></p></div>","null","","","","","","","","","","","","","","","","","","","","","","",""
"","html-keyboard-response","16","124337","0.0-16.0","""event"",""trial"",""time""
""fullscreenenter"",""0"",""3673""
","
","
","""event"",""trial"",""time""
""fullscreenenter"",""0"",""3673""
","
","288.10000000009313","<div class='center'><img src='run_exp/static/images/tutorial/blue.png' height='500'></p></div>","49","","","","","","","","","","","","","","","","","","","","","","",""
"","html-keyboard-response","17","125840","0.0-17.0","""event"",""trial"",""time""
""fullscreenenter"",""0"",""3673""
","
","
","""event"",""trial"",""time""
""fullscreenenter"",""0"",""3673""
","
","null","<div class='center'><p><img src='run_exp/static/images/tutorial/blue_no_win.png' height='500'></p></div>","null","","","","","","","","","","","","","","","","","","","","","","",""
"","html-keyboard-response","18","126190","0.0-18.0","""event"",""trial"",""time""
""fullscreenenter"",""0"",""3673""
","
","
","""event"",""trial"",""time""
""fullscreenenter"",""0"",""3673""
","
","347.59999999962747","<div class='center'><img src='run_exp/static/images/tutorial/blue.png' height='500'></p></div>","49","","","","","","","","","","","","","","","","","","","","","","",""
"","html-keyboard-response","19","127692","0.0-19.0","""event"",""trial"",""time""
""fullscreenenter"",""0"",""3673""
","
","
","""event"",""trial"",""time""
""fullscreenenter"",""0"",""3673""
","
","null","<div class='center'><p><img src='run_exp/static/images/tutorial/blue_win.png' height='500'></p></div>","null","","","","","","","","","","","","","","","","","","","","","","",""
"","html-keyboard-response","20","128016","0.0-20.0","""event"",""trial"",""time""
""fullscreenenter"",""0"",""3673""
","
","
","""event"",""trial"",""time""
""fullscreenenter"",""0"",""3673""
","
","321.60000000009313","<div class='center'><img src='run_exp/static/images/tutorial/blue.png' height='500'></p></div>","49","","","","","","","","","","","","","","","","","","","","","","",""
"","html-keyboard-response","21","129518","0.0-21.0","""event"",""trial"",""time""
""fullscreenenter"",""0"",""3673""
","
","
","""event"",""trial"",""time""
""fullscreenenter"",""0"",""3673""
","
","null","<div class='center'><p><img src='run_exp/static/images/tutorial/blue_win.png' height='500'></p></div>","null","","","","","","","","","","","","","","","","","","","","","","",""
"","html-keyboard-response","22","129803","0.0-22.0","""event"",""trial"",""time""
""fullscreenenter"",""0"",""3673""
","
","
","""event"",""trial"",""time""
""fullscreenenter"",""0"",""3673""
","
","281.89999999990687","<div class='center'><img src='run_exp/static/images/tutorial/blue.png' height='500'></p></div>","49","","","","","","","","","","","","","","","","","","","","","","",""
"","html-keyboard-response","23","131305","0.0-23.0","""event"",""trial"",""time""
""fullscreenenter"",""0"",""3673""
","
","
","""event"",""trial"",""time""
""fullscreenenter"",""0"",""3673""
","
","null","<div class='center'><p><img src='run_exp/static/images/tutorial/blue_win.png' height='500'></p></div>","null","","","","","","","","","","","","","","","","","","","","","","",""
"","html-keyboard-response","24","131634","0.0-24.0","""event"",""trial"",""time""
""fullscreenenter"",""0"",""3673""
","
","
","""event"",""trial"",""time""
""fullscreenenter"",""0"",""3673""
","
","326.20000000018626","<div class='center'><img src='run_exp/static/images/tutorial/blue.png' height='500'></p></div>","49","","","","","","","","","","","","","","","","","","","","","","",""
"","html-keyboard-response","25","133136","0.0-25.0","""event"",""trial"",""time""
""fullscreenenter"",""0"",""3673""
","
","
","""event"",""trial"",""time""
""fullscreenenter"",""0"",""3673""
","
","null","<div class='center'><p><img src='run_exp/static/images/tutorial/blue_no_win.png' height='500'></p></div>","null","","","","","","","","","","","","","","","","","","","","","","",""
"","html-keyboard-response","26","133587","0.0-26.0","""event"",""trial"",""time""
""fullscreenenter"",""0"",""3673""
","
","
","""event"",""trial"",""time""
""fullscreenenter"",""0"",""3673""
","
","448.39999999990687","<div class='center'><img src='run_exp/static/images/tutorial/blue.png' height='500'></p></div>","49","","","","","","","","","","","","","","","","","","","","","","",""
"","html-keyboard-response","27","135090","0.0-27.0","""event"",""trial"",""time""
""fullscreenenter"",""0"",""3673""
","
","
","""event"",""trial"",""time""
""fullscreenenter"",""0"",""3673""
","
","null","<div class='center'><p><img src='run_exp/static/images/tutorial/blue_win.png' height='500'></p></div>","null","","","","","","","","","","","","","","","","","","","","","","",""
"","html-keyboard-response","28","135445","0.0-28.0","""event"",""trial"",""time""
""fullscreenenter"",""0"",""3673""
","
","
","""event"",""trial"",""time""
""fullscreenenter"",""0"",""3673""
","
","353.60000000009313","<div class='center'><img src='run_exp/static/images/tutorial/blue.png' height='500'></p></div>","49","","","","","","","","","","","","","","","","","","","","","","",""
"","html-keyboard-response","29","136948","0.0-29.0","""event"",""trial"",""time""
""fullscreenenter"",""0"",""3673""
","
","
","""event"",""trial"",""time""
""fullscreenenter"",""0"",""3673""
","
","null","<div class='center'><p><img src='run_exp/static/images/tutorial/blue_win.png' height='500'></p></div>","null","","","","","","","","","","","","","","","","","","","","","","",""
"","instruc6","30","142358","0.0-30.0","""event"",""trial"",""time""
""fullscreenenter"",""0"",""3673""
","
","
","""event"",""trial"",""time""
""fullscreenenter"",""0"",""3673""
","
","null","run_exp/static/audio/clip_6_blue_beard_outcome.m4a","null","","","","","<div class='center'><p> See, he succeeded in robbing the ships most of the time but not every time. </p></div>","","","","","","","","","","","","","","","","","",""
"","html-keyboard-response","31","142739","0.0-31.0","""event"",""trial"",""time""
""fullscreenenter"",""0"",""3673""
","
","
","""event"",""trial"",""time""
""fullscreenenter"",""0"",""3673""
","
","378.39999999990687","<div class='center'><p> See, he succeeded in robbing the ships most of the time but not every time. </p><p><b>[Press the space bar to continue]</b></p></div>","32","","","","","","","","","","","","","","","","","","","","","","",""
"","audio-keyboard-response","32","160161","0.0-32.0","""event"",""trial"",""time""
""fullscreenenter"",""0"",""3673""
","
","
","""event"",""trial"",""time""
""fullscreenenter"",""0"",""3673""
","
","17404","run_exp/static/audio/clip_7_pick_pirate.m4a","51","","","","","","","","","","","","","","","","","","","","","","",""
"","audio-keyboard-response","33","163869","0.0-33.0-0.0","""event"",""trial"",""time""
""fullscreenenter"",""0"",""3673""
","
","
","""event"",""trial"",""time""
""fullscreenenter"",""0"",""3673""
","
","3701.7999999998137","run_exp/static/audio/clip_8_chosen_pirate_win.m4a","32","","","","","","","","","","","","","","","","","","","","","","",""
"","audio-keyboard-response","34","166283","0.0-33.0-1.0","""event"",""trial"",""time""
""fullscreenenter"",""0"",""3673""
","
","
","""event"",""trial"",""time""
""fullscreenenter"",""0"",""3673""
","
","2410.899999999907","run_exp/static/audio/clip_9_pick_a_pirate_again.m4a","50","","","","","","","","","","","","","","","","","","","","","","",""
"","audio-keyboard-response","35","170505","0.0-34.0-0.0","""event"",""trial"",""time""
""fullscreenenter"",""0"",""3673""
","
","
","""event"",""trial"",""time""
""fullscreenenter"",""0"",""3673""
","
","4217","run_exp/static/audio/clip_10_chosen_pirate_loss.m4a","32","","","","","","","","","","","","","","","","","","","","","","",""
"","instruc9","36","176166","0.0-35.0-0.0","""event"",""trial"",""time""
""fullscreenenter"",""0"",""3673""
","
","
","""event"",""trial"",""time""
""fullscreenenter"",""0"",""3673""
","
","null","run_exp/static/audio/clip_11_time_out.m4a","null","","","","","<div class='center'><p>If you don’t make your choice fast enough, you’ll have to wait a few seconds before you can make another one. </p><p><img src='run_exp/static/images/miscellaneous/hurry_up.png' height='500'></p></div>","","","","","","","","","","","","","","","","","",""
"","html-keyboard-response","37","176937","0.0-35.0-1.0","""event"",""trial"",""time""
""fullscreenenter"",""0"",""3673""
","
","
","""event"",""trial"",""time""
""fullscreenenter"",""0"",""3673""
","
","766.6999999997206","<div class='center'><p>If you don’t make your choice fast enough, you’ll have to wait a few seconds before you can make another one. </p><p><img src='run_exp/static/images/miscellaneous/hurry_up.png' height='500'></p><p><b>[Press the space bar to continue]</b></p></div>","32","","","","","","","","","","","","","","","","","","","","","","",""
"","instruc10","38","216198","0.0-35.0-2.0","""event"",""trial"",""time""
""fullscreenenter"",""0"",""3673""
","
","
","""event"",""trial"",""time""
""fullscreenenter"",""0"",""3673""
","
","null","run_exp/static/audio/clip_12_probe.m4a","null","","","","","<div class='center'><p>Once you've chosen a pirate, you’ll be shown the ship they are robbing. You will never rob the same ship twice. Ships can be told apart from one another by the image on them. These are the goods that they sell. See, this ship has a travel mug on it. </p><p> You’ll have to remember which island you saw each ship on. You will win more gold coins and hence more bonus money if you remember correctly! To help you remember, you can imagine a story. For example, here, you could imagine a mug full of water in the desert. Or, as another example, if on the forest island, your pirate robbed a ship with an apple on it, you could imagine an apple falling from a tree in the forest. </p><p><img src='run_exp/static/images/tutorial/example_probe.png' height='500'></p></div>","","","","","","","","","","","","","","","","","",""
"","html-keyboard-response","39","216340","0.0-35.0-3.0","""event"",""trial"",""time""
""fullscreenenter"",""0"",""3673""
","
","
","""event"",""trial"",""time""
""fullscreenenter"",""0"",""3673""
","
","136.10000000009313","<div class='center'><p>Once you've chosen a pirate, you’ll be shown the ship they are robbing. You will never rob the same ship twice. Ships can be told apart from one another by the image on them. These are the goods that they sell. See, this ship has a travel mug on it. </p><p> You’ll have to remember which island you saw each ship on. You will win more gold coins and hence more bonus money if you remember correctly! To help you remember, you can imagine a story. For example, here, you could imagine a mug full of water in the desert. Or, as another example, if on the forest island, your pirate robbed a ship with an apple on it, you could imagine an apple falling from a tree in the forest. </p><p><img src='run_exp/static/images/tutorial/example_probe.png' height='500'></p><p><b>[Press the space bar to continue]</b></p></div>","32","","","","","","","","","","","","","","","","","","","","","","",""
"","instruc11","40","232916","0.0-35.0-4.0","""event"",""trial"",""time""
""fullscreenenter"",""0"",""3673""
","
","
","""event"",""trial"",""time""
""fullscreenenter"",""0"",""3673""
","
","null","run_exp/static/audio/clip_13_changepoint.m4a","null","","","","","<div class='center'><p>How successful a pirate is at robbing ships will depend on the island you’re on.</p><p> A pirate may have visited this island many times before and gained a lot of practice robbing ships there.</p><p>So, they’re more likely to be successful than a pirate who has never visited the island before.</p></div>","","","","","","","","","","","","","","","","","",""
"","html-keyboard-response","41","232989","0.0-35.0-5.0","""event"",""trial"",""time""
""fullscreenenter"",""0"",""3673""
","
","
","""event"",""trial"",""time""
""fullscreenenter"",""0"",""3673""
","
","70.10000000009313","<div class='center'><p>How successful a pirate is at robbing ships will depend on the island you’re on.</p><p> A pirate may have visited this island many times before and gained a lot of practice robbing ships there.</p><p>So, they’re more likely to be successful than a pirate who has never visited the island before.</p><p><b>[Press the space bar to continue]</b></p></div>","32","","","","","","","","","","","","","","","","","","","","","","",""
"","instruc12","42","274156","0.0-35.0-6.0","""event"",""trial"",""time""
""fullscreenenter"",""0"",""3673""
","
","
","""event"",""trial"",""time""
""fullscreenenter"",""0"",""3673""
","
","null","run_exp/static/audio/clip_14_drift.m4a","null","","","","","<div class='center'><p>How successful a pirate is at robbing ships can also change over the time spent on the island. </p><p> Ships may hear from islanders about the pirates coming and will improve their protections against the attack. This may make it harder to rob them.</p><p> Ships may also become lazy and weaken the strength of their protections. This may make it easier to rob them.</p><br><p>Things are always changing on the high seas! So, try your best to pay attention!</p><p><img src='run_exp/static/images/tutorial/contingency.png' height='500'></p></div>","","","","","","","","","","","","","","","","","",""
"","html-keyboard-response","43","274585","0.0-35.0-7.0","""event"",""trial"",""time""
""fullscreenenter"",""0"",""3673""
","
","
","""event"",""trial"",""time""
""fullscreenenter"",""0"",""3673""
","
","426.5","<div class='center'><p>How successful a pirate is at robbing ships can also change over the time spent on the island. </p><p> Ships may hear from islanders about the pirates coming and will improve their protections against the attack. This may make it harder to rob them.</p><p> Ships may also become lazy and weaken the strength of their protections. This may make it easier to rob them.</p><br><p>Things are always changing on the high seas! So, try your best to pay attention!</p><p><img src='run_exp/static/images/tutorial/contingency.png' height='500'></p><p><b>[Press the space bar to continue]</b></p></div>","32","","","","","","","","","","","","","","","","","","","","","","",""
"","instruc13","44","309914","0.0-35.0-8.0","""event"",""trial"",""time""
""fullscreenenter"",""0"",""3673""
","
","
","""event"",""trial"",""time""
""fullscreenenter"",""0"",""3673""
","
","null","run_exp/static/audio/clip_15_summary.m4a","null","","","","","<div class='center'><p>Let's go over the instructions quickly again. You have two important things to do: </p><b><p> 1. Pick the pirate who is the best at robbing ships on the current island. </p></b><b><p> 2. Remember on which island a ship was robbed.</p> </b><p>The amount of bonus money you can win depends on both.</p><p><br><p>Let’s try a practice game. The game will start by showing you the pirates. First, pick a pirate using the <b> 1, 2, 3 </b> keys on your keyboard. When you are shown a ship, try to remember which island you’re on by making up a story.</p><p>This is just a practice game, so you’re not playing for money. </p><p> Good luck! This game will be very difficult but try your best!</p></div>","","","","","","","","","","","","","","","","","",""
"","html-keyboard-response","45","316253","0.0-35.0-9.0","""event"",""trial"",""time""
""fullscreenenter"",""0"",""3673""
","
","
","""event"",""trial"",""time""
""fullscreenenter"",""0"",""3673""
","
","6335.5999999996275","<div class='center'><p>Let's go over the instructions quickly again. You have two important things to do: </p><b><p> 1. Pick the pirate who is the best at robbing ships on the current island. </p></b><b><p> 2. Remember on which island a ship was robbed.</p> </b><p>The amount of bonus money you can win depends on both.</p><p><br><p>Let’s try a practice game. The game will start by showing you the pirates. First, pick a pirate using the <b> 1, 2, 3 </b> keys on your keyboard. When you are shown a ship, try to remember which island you’re on by making up a story.</p><p>This is just a practice game, so you’re not playing for money. </p><p> Good luck! This game will be very difficult but try your best!</p><p><b>[Press the space bar to continue]</b></p></div>","32","","","","","","","","","","","","","","","","","","","","","","",""
"","do_welcome","46","320264","0.0-35.0-10.0","""event"",""trial"",""time""
""fullscreenenter"",""0"",""3673""
","
","
","""event"",""trial"",""time""
""fullscreenenter"",""0"",""3673""
","
","null","","","","","","","","null","","","","","","","","","","","","","","","","",""
"","do_trial","47","326407","0.0-35.0-11.0","""event"",""trial"",""time""
""fullscreenenter"",""0"",""3673""
","
","
","""event"",""trial"",""time""
""fullscreenenter"",""0"",""3673""
","
","1630.6999999997206","","","","","","","","51","1,0,0","","","","","","","","","","","","","","","",""
"","html-keyboard-response","48","327410","0.0-36.0-0.0","""event"",""trial"",""time""
""fullscreenenter"",""0"",""3673""
","
","
","""event"",""trial"",""time""
""fullscreenenter"",""0"",""3673""
","
","null","<p></p>","null","","","","","","","","","","","","","","","","","","","","","","",""
"","do_trial","49","333819","0.0-36.0-1.0","""event"",""trial"",""time""
""fullscreenenter"",""0"",""3673""
","
","
","""event"",""trial"",""time""
""fullscreenenter"",""0"",""3673""
","
","1900.3999999999069","","","","","","","","50","1,1,0","","","","","","","","","","","","","","","",""
"","html-keyboard-response","50","334822","0.0-37.0-0.0","""event"",""trial"",""time""
""fullscreenenter"",""0"",""3673""
","
","
","""event"",""trial"",""time""
""fullscreenenter"",""0"",""3673""
","
","null","<p></p>","null","","","","","","","","","","","","","","","","","","","","","","",""
"","do_trial","51","339955","0.0-37.0-1.0","""event"",""trial"",""time""
""fullscreenenter"",""0"",""3673""
","
","
","""event"",""trial"",""time""
""fullscreenenter"",""0"",""3673""
","
","622.3000000002794","","","","","","","","49","1,0,1","","","","","","","","","","","","","","","",""
"","html-keyboard-response","52","340957","0.0-38.0-0.0","""event"",""trial"",""time""
""fullscreenenter"",""0"",""3673""
","
","
","""event"",""trial"",""time""
""fullscreenenter"",""0"",""3673""
","
","null","<p></p>","null","","","","","","","","","","","","","","","","","","","","","","",""
"","do_trial","53","347001","0.0-38.0-1.0","""event"",""trial"",""time""
""fullscreenenter"",""0"",""3673""
","
","
","""event"",""trial"",""time""
""fullscreenenter"",""0"",""3673""
","
","1533.6000000000931","","","","","","","","49","0,1,0","","","","","","","","","","","","","","","",""
"","html-keyboard-response","54","348003","0.0-39.0-0.0","""event"",""trial"",""time""
""fullscreenenter"",""0"",""3673""
","
","
","""event"",""trial"",""time""
""fullscreenenter"",""0"",""3673""
","
","null","<p></p>","null","","","","","","","","","","","","","","","","","","","","","","",""
"","do_trial","55","352861","0.0-39.0-1.0","""event"",""trial"",""time""
""fullscreenenter"",""0"",""3673""
","
","
","""event"",""trial"",""time""
""fullscreenenter"",""0"",""3673""
","
","348","","","","","","","","50","1,0,0","","","","","","","","","","","","","","","",""
"","do_bye","56","354369","0.0-40.0-0.0","""event"",""trial"",""time""
""fullscreenenter"",""0"",""3673""
","
","
","""event"",""trial"",""time""
""fullscreenenter"",""0"",""3673""
","
","null","","","","","","","","null","","","","","","","","","","","","","","","","",""
"","do_travel","57","363375","0.0-40.0-1.0","""event"",""trial"",""time""
""fullscreenenter"",""0"",""3673""
","
","
","""event"",""trial"",""time""
""fullscreenenter"",""0"",""3673""
","
","null","","","","","","","","null","","","","","","","","","","","","","","","","",""
"","do_welcome","58","367384","0.0-40.0-2.0","""event"",""trial"",""time""
""fullscreenenter"",""0"",""3673""
","
","
","""event"",""trial"",""time""
""fullscreenenter"",""0"",""3673""
","
","null","","","","","","","","null","","","","","","","","","","","","","","","","",""
"","do_trial","59","373191","0.0-40.0-3.0","""event"",""trial"",""time""
""fullscreenenter"",""0"",""3673""
","
","
","""event"",""trial"",""time""
""fullscreenenter"",""0"",""3673""
","
","1296.3999999999069","","","","","","","","51","1,0,0","","","","","","","","","","","","","","","",""
"","html-keyboard-response","60","374193","0.0-41.0-0.0","""event"",""trial"",""time""
""fullscreenenter"",""0"",""3673""
","
","
","""event"",""trial"",""time""
""fullscreenenter"",""0"",""3673""
","
","null","<p></p>","null","","","","","","","","","","","","","","","","","","","","","","",""
"","do_trial","61","378968","0.0-41.0-1.0","""event"",""trial"",""time""
""fullscreenenter"",""0"",""3673""
","
","
","""event"",""trial"",""time""
""fullscreenenter"",""0"",""3673""
","
","263.39999999990687","","","","","","","","50","1,0,1","","","","","","","","","","","","","","","",""
"","html-keyboard-response","62","379971","0.0-42.0-0.0","""event"",""trial"",""time""
""fullscreenenter"",""0"",""3673""
","
","
","""event"",""trial"",""time""
""fullscreenenter"",""0"",""3673""
","
","null","<p></p>","null","","","","","","","","","","","","","","","","","","","","","","",""
"","do_trial","63","384955","0.0-42.0-1.0","""event"",""trial"",""time""
""fullscreenenter"",""0"",""3673""
","
","
","""event"",""trial"",""time""
""fullscreenenter"",""0"",""3673""
","
","472.60000000009313","","","","","","","","49","1,1,0","","","","","","","","","","","","","","","",""
"","html-keyboard-response","64","385958","0.0-43.0-0.0","""event"",""trial"",""time""
""fullscreenenter"",""0"",""3673""
","
","
","""event"",""trial"",""time""
""fullscreenenter"",""0"",""3673""
","
","null","<p></p>","null","","","","","","","","","","","","","","","","","","","","","","",""
"","do_trial","65","391519","0.0-43.0-1.0","""event"",""trial"",""time""
""fullscreenenter"",""0"",""3673""
","
","
","""event"",""trial"",""time""
""fullscreenenter"",""0"",""3673""
","
","1050.6999999997206","","","","","","","","49","0,0,1","","","","","","","","","","","","","","","",""
"","html-keyboard-response","66","392521","0.0-44.0-0.0","""event"",""trial"",""time""
""fullscreenenter"",""0"",""3673""
","
","
","""event"",""trial"",""time""
""fullscreenenter"",""0"",""3673""
","
","null","<p></p>","null","","","","","","","","","","","","","","","","","","","","","","",""
"","do_trial","67","397942","0.0-44.0-1.0","""event"",""trial"",""time""
""fullscreenenter"",""0"",""3673""
","
","
","""event"",""trial"",""time""
""fullscreenenter"",""0"",""3673""
","
","909.6000000000931","","","","","","","","51","1,0,1","","","","","","","","","","","","","","","",""
"","html-keyboard-response","68","401910","0.0-45.0-0.0","""event"",""trial"",""time""
""fullscreenenter"",""0"",""3673""
","
","
","""event"",""trial"",""time""
""fullscreenenter"",""0"",""3673""
","
","3964.399999999907","<div class='center'><p><img src='run_exp/static/images/tutorial/prac_best_pirate.png'  height='500'></p></div>","49","","","","","","","","","","","","","","","","","","","","","","",""
"","html-keyboard-response","69","403127","0.0-46.0-0.0","""event"",""trial"",""time""
""fullscreenenter"",""0"",""3673""
","
","
","""event"",""trial"",""time""
""fullscreenenter"",""0"",""3673""
","
","1213.6000000000931","<div class='center'><p>That's correct! Red beard was the best.</p><p><b>[Press the space bar to continue]</b></p></div>","32","","","","","","","","","","","","","","","","","","","","","","",""
"","html-keyboard-response","70","406032","0.0-46.0-1.0","""event"",""trial"",""time""
""fullscreenenter"",""0"",""3673""
","
","
","""event"",""trial"",""time""
""fullscreenenter"",""0"",""3673""
","
","2902.7000000001863","<div class='center'><p><img src='run_exp/static/images/tutorial/prac_source.png'  height='500'></p></div>","50","","","","","","","","","","","","","","","","","","","","","","",""
"","html-keyboard-response","71","407107","0.0-47.0-0.0","""event"",""trial"",""time""
""fullscreenenter"",""0"",""3673""
","
","
","""event"",""trial"",""time""
""fullscreenenter"",""0"",""3673""
","
","1073.1000000000931","<div class='center'><p>That's correct! You saw this ship on the cavern island.</p><p><b>[Press the space bar to continue]</b></p></div>","32","","","","","","","","","","","","","","","","","","","","","","",""
"","quiz_beginning","72","418361","0.0-47.0-1.0","""event"",""trial"",""time""
""fullscreenenter"",""0"",""3673""
","
","
","""event"",""trial"",""time""
""fullscreenenter"",""0"",""3673""
","
","null","run_exp/static/audio/clip_16_quiz_intro.m4a","null","","","","","<div class='center'><p>Good job on the practice game! Now, you will be asked some true or false questions to make sure you really understand the rules of the game.</p><p> Press <b>'1'</b> on the keyboard for true and press <b>'2'</b> for false.</p></div>","","","","","","","","","","","","","","","","","",""
"","audio-keyboard-response","73","421567","0.0-47.0-2.0","""event"",""trial"",""time""
""fullscreenenter"",""0"",""3673""
","
","
","""event"",""trial"",""time""
""fullscreenenter"",""0"",""3673""
","
","3200","run_exp/static/audio/clip_17_q1.m4a","49","","","","","","","","","","","","","","","","","","","","","","",""
"","correct","74","424119","0.0-48.0-0.0","""event"",""trial"",""time""
""fullscreenenter"",""0"",""3673""
","
","
","""event"",""trial"",""time""
""fullscreenenter"",""0"",""3673""
","
","null","run_exp/static/audio/clip_18_correct.m4a","null","","","","","<div class='center'><p>That's correct!</p></div>","","","","","","","","","","","","","","","","","",""
"","html-keyboard-response","75","424752","0.0-48.0-1.0","""event"",""trial"",""time""
""fullscreenenter"",""0"",""3673""
","
","
","""event"",""trial"",""time""
""fullscreenenter"",""0"",""3673""
","
","631","<div class='center'><p>That's correct!</p><p><b>[Press the space bar to continue]</b></p></div>","32","","","","","","","","","","","","","","","","","","","","","","",""
"","audio-keyboard-response","76","428916","0.0-48.0-2.0","""event"",""trial"",""time""
""fullscreenenter"",""0"",""3673""
","
","
","""event"",""trial"",""time""
""fullscreenenter"",""0"",""3673""
","
","4161.200000000186","run_exp/static/audio/clip_20_q2.m4a","50","","","","","","","","","","","","","","","","","","","","","","",""
"","correct","77","431456","0.0-49.0-0.0","""event"",""trial"",""time""
""fullscreenenter"",""0"",""3673""
","
","
","""event"",""trial"",""time""
""fullscreenenter"",""0"",""3673""
","
","null","run_exp/static/audio/clip_18_correct.m4a","null","","","","","<div class='center'><p>That's correct!</p></div>","","","","","","","","","","","","","","","","","",""
"","html-keyboard-response","78","431736","0.0-49.0-1.0","""event"",""trial"",""time""
""fullscreenenter"",""0"",""3673""
","
","
","""event"",""trial"",""time""
""fullscreenenter"",""0"",""3673""
","
","278","<div class='center'><p>That's correct!</p><p><b>[Press the space bar to continue]</b></p></div>","32","","","","","","","","","","","","","","","","","","","","","","",""
"","audio-keyboard-response","79","433887","0.0-49.0-2.0","""event"",""trial"",""time""
""fullscreenenter"",""0"",""3673""
","
","
","""event"",""trial"",""time""
""fullscreenenter"",""0"",""3673""
","
","2147.5999999996275","run_exp/static/audio/clip_22_q3.m4a","50","","","","","","","","","","","","","","","","","","","","","","",""
"","correct","80","436471","0.0-50.0-0.0","""event"",""trial"",""time""
""fullscreenenter"",""0"",""3673""
","
","
","""event"",""trial"",""time""
""fullscreenenter"",""0"",""3673""
","
","null","run_exp/static/audio/clip_18_correct.m4a","null","","","","","<div class='center'><p>That's correct!</p></div>","","","","","","","","","","","","","","","","","",""
"","html-keyboard-response","81","436746","0.0-50.0-1.0","""event"",""trial"",""time""
""fullscreenenter"",""0"",""3673""
","
","
","""event"",""trial"",""time""
""fullscreenenter"",""0"",""3673""
","
","272.79999999981374","<div class='center'><p>That's correct!</p><p><b>[Press the space bar to continue]</b></p></div>","32","","","","","","","","","","","","","","","","","","","","","","",""
"","audio-keyboard-response","82","438291","0.0-50.0-2.0","""event"",""trial"",""time""
""fullscreenenter"",""0"",""3673""
","
","
","""event"",""trial"",""time""
""fullscreenenter"",""0"",""3673""
","
","1542.5","run_exp/static/audio/clip_24_q4.m4a","49","","","","","","","","","","","","","","","","","","","","","","",""
"","correct","83","440931","0.0-51.0-0.0","""event"",""trial"",""time""
""fullscreenenter"",""0"",""3673""
","
","
","""event"",""trial"",""time""
""fullscreenenter"",""0"",""3673""
","
","null","run_exp/static/audio/clip_18_correct.m4a","null","","","","","<div class='center'><p>That's correct!</p></div>","","","","","","","","","","","","","","","","","",""
"","html-keyboard-response","84","441180","0.0-51.0-1.0","""event"",""trial"",""time""
""fullscreenenter"",""0"",""3673""
","
","
","""event"",""trial"",""time""
""fullscreenenter"",""0"",""3673""
","
","246.79999999981374","<div class='center'><p>That's correct!</p><p><b>[Press the space bar to continue]</b></p></div>","32","","","","","","","","","","","","","","","","","","","","","","",""
"","q_all_corr","85","449754","0.0-52.0-0.0","""event"",""trial"",""time""
""fullscreenenter"",""0"",""3673""
","
","
","""event"",""trial"",""time""
""fullscreenenter"",""0"",""3673""
","
","null","run_exp/static/audio/clip_27_quiz_all_correct.m4a","null","","","","","<div class='center'><p>Good job! You’re now ready to move on to the real game! Remember this game will be difficult but don't get discouraged and try your best!</p></div>","","","","","","","","","","","","","","","","","",""
"","html-keyboard-response","86","450195","0.0-52.0-1.0","""event"",""trial"",""time""
""fullscreenenter"",""0"",""3673""
","
","
","""event"",""trial"",""time""
""fullscreenenter"",""0"",""3673""
","
","437.39999999990687","<div class='center'><p>Good job! You’re now ready to move on to the real game! Remember this game will be difficult but don't get discouraged and try your best!</p><p><b>[Press the space bar to continue]</b></p></div>","32","","","","","","","","","","","","","","","","","","","","","","",""
"","do_welcome","87","454203","0.0-53.0-0.0","""event"",""trial"",""time""
""fullscreenenter"",""0"",""3673""
","
","
","""event"",""trial"",""time""
""fullscreenenter"",""0"",""3673""
","
","null","","","","","","","","null","","","","","","","","","","","","","","","","",""
"","do_trial","88","459825","0.0-54.0-0.0","""event"",""trial"",""time""
""fullscreenenter"",""0"",""3673""
","
","
","""event"",""trial"",""time""
""fullscreenenter"",""0"",""3673""
","
","1047.5","","","","","","","","51","1,0,0","0","highway","0","probe-186","0.6","0.3","0.1","0","","","","","","","",""
"","html-keyboard-response","89","460828","0.0-54.0-1.0","""event"",""trial"",""time""
""fullscreenenter"",""0"",""3673""
","
","
","""event"",""trial"",""time""
""fullscreenenter"",""0"",""3673""
","
","null","<p></p>","null","","","","","","","","","","","","","","","","","","","","","","",""
"","do_trial","90","465693","0.0-55.0-0.0","""event"",""trial"",""time""
""fullscreenenter"",""0"",""3673""
","
","
","""event"",""trial"",""time""
""fullscreenenter"",""0"",""3673""
","
","301","","","","","","","","50","1,0,0","0","highway","1","probe-135","0.7912276834529196","0.31738017966573273","0.08549157189731219","0","","","","","","","",""
"","html-keyboard-response","91","466695","0.0-55.0-1.0","""event"",""trial"",""time""
""fullscreenenter"",""0"",""3673""
","
","
","""event"",""trial"",""time""
""fullscreenenter"",""0"",""3673""
","
","null","<p></p>","null","","","","","","","","","","","","","","","","","","","","","","",""
"","do_trial","92","471648","0.0-56.0-0.0","""event"",""trial"",""time""
""fullscreenenter"",""0"",""3673""
","
","
","""event"",""trial"",""time""
""fullscreenenter"",""0"",""3673""
","
","387.60000000009313","","","","","","","","49","1,0,0","0","highway","2","probe-164","0.6886995228982912","0.22917772669424843","0.16615987806294172","1","","","","","","","",""
"","html-keyboard-response","93","472651","0.0-56.0-1.0","""event"",""trial"",""time""
""fullscreenenter"",""0"",""3673""
","
","
","""event"",""trial"",""time""
""fullscreenenter"",""0"",""3673""
","
","null","<p></p>","null","","","","","","","","","","","","","","","","","","","","","","",""
"","do_trial","94","477794","0.0-57.0-0.0","""event"",""trial"",""time""
""fullscreenenter"",""0"",""3673""
","
","
","""event"",""trial"",""time""
""fullscreenenter"",""0"",""3673""
","
","578.1999999997206","","","","","","","","49","0,1,0","0","highway","3","probe-162","0.5954613398242399","0.2581251894688199","0.22286498606188188","0","","","","","","","",""
"","html-keyboard-response","95","478797","0.0-57.0-1.0","""event"",""trial"",""time""
""fullscreenenter"",""0"",""3673""
","
","
","""event"",""trial"",""time""
""fullscreenenter"",""0"",""3673""
","
","null","<p></p>","null","","","","","","","","","","","","","","","","","","","","","","",""
"","do_trial","96","484004","0.0-58.0-0.0","""event"",""trial"",""time""
""fullscreenenter"",""0"",""3673""
","
","
","""event"",""trial"",""time""
""fullscreenenter"",""0"",""3673""
","
","642.6999999997206","","","","","","","","51","0,0,1","0","highway","4","probe-172","0.630341429380072","0.36928921460066233","0.18227635765997435","1","","","","","","","",""
"","html-keyboard-response","97","485006","0.0-58.0-1.0","""event"",""trial"",""time""
""fullscreenenter"",""0"",""3673""
","
","
","""event"",""trial"",""time""
""fullscreenenter"",""0"",""3673""
","
","null","<p></p>","null","","","","","","","","","","","","","","","","","","","","","","",""
"","do_trial","98","490544","0.0-59.0-0.0","""event"",""trial"",""time""
""fullscreenenter"",""0"",""3673""
","
","
","""event"",""trial"",""time""
""fullscreenenter"",""0"",""3673""
","
","973.1999999997206","","","","","","","","51","1,0,0","0","highway","5","probe-33","0.6711045528574863","0.33847331533588787","0.1383918927189511","0","","","","","","","",""
"","html-keyboard-response","99","491546","0.0-59.0-1.0","""event"",""trial"",""time""
""fullscreenenter"",""0"",""3673""
","
","
","""event"",""trial"",""time""
""fullscreenenter"",""0"",""3673""
","
","null","<p></p>","null","","","","","","","","","","","","","","","","","","","","","","",""
"","do_trial","100","496407","0.0-60.0-0.0","""event"",""trial"",""time""
""fullscreenenter"",""0"",""3673""
","
","
","""event"",""trial"",""time""
""fullscreenenter"",""0"",""3673""
","
","297.60000000009313","","","","","","","","50","1,0,0","0","highway","6","probe-66","0.5032871683248059","0.24756664079767127","0.1841254520557595","0","","","","","","","",""
"","html-keyboard-response","101","497411","0.0-60.0-1.0","""event"",""trial"",""time""
""fullscreenenter"",""0"",""3673""
","
","
","""event"",""trial"",""time""
""fullscreenenter"",""0"",""3673""
","
","null","<p></p>","null","","","","","","","","","","","","","","","","","","","","","","",""
"","do_trial","102","502352","0.0-61.0-0.0","""event"",""trial"",""time""
""fullscreenenter"",""0"",""3673""
","
","
","""event"",""trial"",""time""
""fullscreenenter"",""0"",""3673""
","
","376.59999999962747","","","","","","","","49","1,0,1","0","highway","7","probe-202","0.615794815010026","0.19979151251378072","0.17830912947773123","1","","","","","","","",""
"","html-keyboard-response","103","503355","0.0-61.0-1.0","""event"",""trial"",""time""
""fullscreenenter"",""0"",""3673""
","
","
","""event"",""trial"",""time""
""fullscreenenter"",""0"",""3673""
","
","null","<p></p>","null","","","","","","","","","","","","","","","","","","","","","","",""
"","do_trial","104","508240","0.0-62.0-0.0","""event"",""trial"",""time""
""fullscreenenter"",""0"",""3673""
","
","
","""event"",""trial"",""time""
""fullscreenenter"",""0"",""3673""
","
","322.60000000009313","","","","","","","","49","0,0,0","0","highway","8","probe-123","0.5959686365010712","0.2637737650797087","0.09020526594536958","0","","","","","","","",""
"","html-keyboard-response","105","509243","0.0-62.0-1.0","""event"",""trial"",""time""
""fullscreenenter"",""0"",""3673""
","
","
","""event"",""trial"",""time""
""fullscreenenter"",""0"",""3673""
","
","null","<p></p>","null","","","","","","","","","","","","","","","","","","","","","","",""
"","do_trial","106","514035","0.0-63.0-0.0","""event"",""trial"",""time""
""fullscreenenter"",""0"",""3673""
","
","
","""event"",""trial"",""time""
""fullscreenenter"",""0"",""3673""
","
","227.60000000009313","","","","","","","","49","1,0,0","0","highway","9","probe-143","0.6531960436947969","0.26243669882126536","0.09339817619883439","1","","","","","","","",""
"","html-keyboard-response","107","515037","0.0-63.0-1.0","""event"",""trial"",""time""
""fullscreenenter"",""0"",""3673""
","
","
","""event"",""trial"",""time""
""fullscreenenter"",""0"",""3673""
","
","null","<p></p>","null","","","","","","","","","","","","","","","","","","","","","","",""
"","do_trial","108","520165","0.0-64.0-0.0","""event"",""trial"",""time""
""fullscreenenter"",""0"",""3673""
","
","
","""event"",""trial"",""time""
""fullscreenenter"",""0"",""3673""
","
","562.1000000000931","","","","","","","","49","1,0,0","0","highway","10","probe-112","0.7221282358565669","0.2607587657748841","0.11361498833416311","1","","","","","","","",""
"","html-keyboard-response","109","521168","0.0-64.0-1.0","""event"",""trial"",""time""
""fullscreenenter"",""0"",""3673""
","
","
","""event"",""trial"",""time""
""fullscreenenter"",""0"",""3673""
","
","null","<p></p>","null","","","","","","","","","","","","","","","","","","","","","","",""
"","do_trial","110","526516","0.0-65.0-0.0","""event"",""trial"",""time""
""fullscreenenter"",""0"",""3673""
","
","
","""event"",""trial"",""time""
""fullscreenenter"",""0"",""3673""
","
","784.6000000000931","","","","","","","","49","1,0,1","0","highway","11","probe-156","0.6448498058329062","0.37287901760260267","0.14345169259666354","1","","","","","","","",""
"","html-keyboard-response","111","527519","0.0-65.0-1.0","""event"",""trial"",""time""
""fullscreenenter"",""0"",""3673""
","
","
","""event"",""trial"",""time""
""fullscreenenter"",""0"",""3673""
","
","null","<p></p>","null","","","","","","","","","","","","","","","","","","","","","","",""
"","do_trial","112","532463","0.0-66.0-0.0","""event"",""trial"",""time""
""fullscreenenter"",""0"",""3673""
","
","
","""event"",""trial"",""time""
""fullscreenenter"",""0"",""3673""
","
","379.10000000009313","","","","","","","","49","1,1,0","0","highway","12","probe-182","0.5882768470643208","0.27890079177010985","0.15261979131219108","1","","","","","","","",""
"","html-keyboard-response","113","533466","0.0-66.0-1.0","""event"",""trial"",""time""
""fullscreenenter"",""0"",""3673""
","
","
","""event"",""trial"",""time""
""fullscreenenter"",""0"",""3673""
","
","null","<p></p>","null","","","","","","","","","","","","","","","","","","","","","","",""
"","do_trial","114","538326","0.0-67.0-0.0","""event"",""trial"",""time""
""fullscreenenter"",""0"",""3673""
","
","
","""event"",""trial"",""time""
""fullscreenenter"",""0"",""3673""
","
","295.40000000037253","","","","","","","","49","1,0,0","0","highway","13","probe-136","0.6579415950608495","0.3813858690691877","0.095903292373738","1","","","","","","","",""
"","html-keyboard-response","115","539328","0.0-67.0-1.0","""event"",""trial"",""time""
""fullscreenenter"",""0"",""3673""
","
","
","""event"",""trial"",""time""
""fullscreenenter"",""0"",""3673""
","
","null","<p></p>","null","","","","","","","","","","","","","","","","","","","","","","",""
"","do_trial","116","544135","0.0-68.0-0.0","""event"",""trial"",""time""
""fullscreenenter"",""0"",""3673""
","
","
","""event"",""trial"",""time""
""fullscreenenter"",""0"",""3673""
","
","242.39999999990687","","","","","","","","49","0,0,1","0","highway","14","probe-190","0.6889818558800592","0.23281579404947572","0.07833800470955808","0","","","","","","","",""
"","html-keyboard-response","117","545137","0.0-68.0-1.0","""event"",""trial"",""time""
""fullscreenenter"",""0"",""3673""
","
","
","""event"",""trial"",""time""
""fullscreenenter"",""0"",""3673""
","
","null","<p></p>","null","","","","","","","","","","","","","","","","","","","","","","",""
"","do_trial","118","550062","0.0-69.0-0.0","""event"",""trial"",""time""
""fullscreenenter"",""0"",""3673""
","
","
","""event"",""trial"",""time""
""fullscreenenter"",""0"",""3673""
","
","359.6999999997206","","","","","","","","49","0,1,0","0","highway","15","probe-65","0.6079002037938751","0.33164934464790413","0.08370104070123667","0","","","","","","","",""
"","html-keyboard-response","119","551065","0.0-69.0-1.0","""event"",""trial"",""time""
""fullscreenenter"",""0"",""3673""
","
","
","""event"",""trial"",""time""
""fullscreenenter"",""0"",""3673""
","
","null","<p></p>","null","","","","","","","","","","","","","","","","","","","","","","",""
"","do_trial","120","555887","0.0-70.0-0.0","""event"",""trial"",""time""
""fullscreenenter"",""0"",""3673""
","
","
","""event"",""trial"",""time""
""fullscreenenter"",""0"",""3673""
","
","257.39999999990687","","","","","","","","49","1,0,0","0","highway","16","probe-222","0.552501121244133","0.30894130680214044","0.3341578837292482","1","","","","","","","",""
"","html-keyboard-response","121","556889","0.0-70.0-1.0","""event"",""trial"",""time""
""fullscreenenter"",""0"",""3673""
","
","
","""event"",""trial"",""time""
""fullscreenenter"",""0"",""3673""
","
","null","<p></p>","null","","","","","","","","","","","","","","","","","","","","","","",""
"","do_trial","122","561978","0.0-71.0-0.0","""event"",""trial"",""time""
""fullscreenenter"",""0"",""3673""
","
","
","""event"",""trial"",""time""
""fullscreenenter"",""0"",""3673""
","
","523.1999999997206","","","","","","","","49","1,0,0","0","highway","17","probe-89","0.586947003754276","0.343080574194317","0.08828096500689628","1","","","","","","","",""
"","html-keyboard-response","123","562980","0.0-71.0-1.0","""event"",""trial"",""time""
""fullscreenenter"",""0"",""3673""
","
","
","""event"",""trial"",""time""
""fullscreenenter"",""0"",""3673""
","
","null","<p></p>","null","","","","","","","","","","","","","","","","","","","","","","",""
"","do_trial","124","568082","0.0-72.0-0.0","""event"",""trial"",""time""
""fullscreenenter"",""0"",""3673""
","
","
","""event"",""trial"",""time""
""fullscreenenter"",""0"",""3673""
","
","538.1000000000931","","","","","","","","49","1,1,0","0","highway","18","probe-209","0.5478486688107883","0.4334104867030913","0.13891741354022152","1","","","","","","","",""
"","html-keyboard-response","125","569084","0.0-72.0-1.0","""event"",""trial"",""time""
""fullscreenenter"",""0"",""3673""
","
","
","""event"",""trial"",""time""
""fullscreenenter"",""0"",""3673""
","
","null","<p></p>","null","","","","","","","","","","","","","","","","","","","","","","",""
"","do_trial","126","574316","0.0-73.0-0.0","""event"",""trial"",""time""
""fullscreenenter"",""0"",""3673""
","
","
","""event"",""trial"",""time""
""fullscreenenter"",""0"",""3673""
","
","665.3999999999069","","","","","","","","49","1,1,0","0","highway","19","probe-42","0.6241533990357131","0.3068710598484347","0.14583706141056543","1","","","","","","","",""
"","html-keyboard-response","127","575318","0.0-73.0-1.0","""event"",""trial"",""time""
""fullscreenenter"",""0"",""3673""
","
","
","""event"",""trial"",""time""
""fullscreenenter"",""0"",""3673""
","
","null","<p></p>","null","","","","","","","","","","","","","","","","","","","","","","",""
"","do_trial","128","580341","0.0-74.0-0.0","""event"",""trial"",""time""
""fullscreenenter"",""0"",""3673""
","
","
","""event"",""trial"",""time""
""fullscreenenter"",""0"",""3673""
","
","459.29999999981374","","","","","","","","49","0,0,0","0","highway","20","probe-69","0.5110740049047615","0.3078358972542285","0.1786942954967916","0","","","","","","","",""
"","html-keyboard-response","129","581343","0.0-74.0-1.0","""event"",""trial"",""time""
""fullscreenenter"",""0"",""3673""
","
","
","""event"",""trial"",""time""
""fullscreenenter"",""0"",""3673""
","
","null","<p></p>","null","","","","","","","","","","","","","","","","","","","","","","",""
"","do_trial","130","586191","0.0-75.0-0.0","""event"",""trial"",""time""
""fullscreenenter"",""0"",""3673""
","
","
","""event"",""trial"",""time""
""fullscreenenter"",""0"",""3673""
","
","282.8000000002794","","","","","","","","49","0,0,1","0","highway","21","probe-154","0.5504278007552504","0.3957836413473477","0.20287124738236387","0","","","","","","","",""
"","html-keyboard-response","131","587194","0.0-75.0-1.0","""event"",""trial"",""time""
""fullscreenenter"",""0"",""3673""
","
","
","""event"",""trial"",""time""
""fullscreenenter"",""0"",""3673""
","
","null","<p></p>","null","","","","","","","","","","","","","","","","","","","","","","",""
"","do_trial","132","592103","0.0-76.0-0.0","""event"",""trial"",""time""
""fullscreenenter"",""0"",""3673""
","
","
","""event"",""trial"",""time""
""fullscreenenter"",""0"",""3673""
","
","339.10000000009313","","","","","","","","49","1,1,0","0","highway","22","probe-226","0.5257955905952741","0.1962357253622311","0.2399388108127046","1","","","","","","","",""
"","html-keyboard-response","133","593106","0.0-76.0-1.0","""event"",""trial"",""time""
""fullscreenenter"",""0"",""3673""
","
","
","""event"",""trial"",""time""
""fullscreenenter"",""0"",""3673""
","
","null","<p></p>","null","","","","","","","","","","","","","","","","","","","","","","",""
"","do_trial","134","597951","0.0-77.0-0.0","""event"",""trial"",""time""
""fullscreenenter"",""0"",""3673""
","
","
","""event"",""trial"",""time""
""fullscreenenter"",""0"",""3673""
","
","281.5","","","","","","","","49","0,1,0","0","highway","23","probe-60","0.4608309957872878","0.3260667354376176","0.154091257009135","0","","","","","","","",""
"","html-keyboard-response","135","598953","0.0-77.0-1.0","""event"",""trial"",""time""
""fullscreenenter"",""0"",""3673""
","
","
","""event"",""trial"",""time""
""fullscreenenter"",""0"",""3673""
","
","null","<p></p>","null","","","","","","","","","","","","","","","","","","","","","","",""
"","do_trial","136","604098","0.0-78.0-0.0","""event"",""trial"",""time""
""fullscreenenter"",""0"",""3673""
","
","
","""event"",""trial"",""time""
""fullscreenenter"",""0"",""3673""
","
","582.1000000000931","","","","","","","","49","1,0,0","0","highway","24","probe-29","0.6725617827264495","0.3830442116403976","0.11311372230114942","1","","","","","","","",""
"","html-keyboard-response","137","605101","0.0-78.0-1.0","""event"",""trial"",""time""
""fullscreenenter"",""0"",""3673""
","
","
","""event"",""trial"",""time""
""fullscreenenter"",""0"",""3673""
","
","null","<p></p>","null","","","","","","","","","","","","","","","","","","","","","","",""
"","do_trial","138","609976","0.0-79.0-0.0","""event"",""trial"",""time""
""fullscreenenter"",""0"",""3673""
","
","
","""event"",""trial"",""time""
""fullscreenenter"",""0"",""3673""
","
","309.8000000002794","","","","","","","","51","0,0,0","0","highway","25","probe-12","0.5218377027478003","0.3935321686073982","0.13894553894026243","0","","","","","","","",""
"","html-keyboard-response","139","610978","0.0-79.0-1.0","""event"",""trial"",""time""
""fullscreenenter"",""0"",""3673""
","
","
","""event"",""trial"",""time""
""fullscreenenter"",""0"",""3673""
","
","null","<p></p>","null","","","","","","","","","","","","","","","","","","","","","","",""
"","do_trial","140","616039","0.0-80.0-0.0","""event"",""trial"",""time""
""fullscreenenter"",""0"",""3673""
","
","
","""event"",""trial"",""time""
""fullscreenenter"",""0"",""3673""
","
","496.5","","","","","","","","49","0,1,0","0","highway","26","probe-40","0.7183915869253659","0.3162110638244585","0.17938427175497196","0","","","","","","","",""
"","html-keyboard-response","141","617042","0.0-80.0-1.0","""event"",""trial"",""time""
""fullscreenenter"",""0"",""3673""
","
","
","""event"",""trial"",""time""
""fullscreenenter"",""0"",""3673""
","
","null","<p></p>","null","","","","","","","","","","","","","","","","","","","","","","",""
"","do_trial","142","621898","0.0-81.0-0.0","""event"",""trial"",""time""
""fullscreenenter"",""0"",""3673""
","
","
","""event"",""trial"",""time""
""fullscreenenter"",""0"",""3673""
","
","291.79999999981374","","","","","","","","49","1,0,0","0","highway","27","probe-148","0.6127550207568119","0.3781739212112871","0.14388430106489117","1","","","","","","","",""
"","html-keyboard-response","143","622901","0.0-81.0-1.0","""event"",""trial"",""time""
""fullscreenenter"",""0"",""3673""
","
","
","""event"",""trial"",""time""
""fullscreenenter"",""0"",""3673""
","
","null","<p></p>","null","","","","","","","","","","","","","","","","","","","","","","",""
"","do_trial","144","627783","0.0-82.0-0.0","""event"",""trial"",""time""
""fullscreenenter"",""0"",""3673""
","
","
","""event"",""trial"",""time""
""fullscreenenter"",""0"",""3673""
","
","317.39999999990687","","","","","","","","49","1,0,0","0","highway","28","probe-47","0.6160797425115907","0.35843724966035057","0.14287057807288384","1","","","","","","","",""
"","html-keyboard-response","145","628786","0.0-82.0-1.0","""event"",""trial"",""time""
""fullscreenenter"",""0"",""3673""
","
","
","""event"",""trial"",""time""
""fullscreenenter"",""0"",""3673""
","
","null","<p></p>","null","","","","","","","","","","","","","","","","","","","","","","",""
"","do_trial","146","633613","0.0-83.0-0.0","""event"",""trial"",""time""
""fullscreenenter"",""0"",""3673""
","
","
","""event"",""trial"",""time""
""fullscreenenter"",""0"",""3673""
","
","263.1999999997206","","","","","","","","49","1,0,1","0","highway","29","probe-24","0.6711846210795507","0.3993434297582435","0.07032590558997125","1","","","","","","","",""
"","html-keyboard-response","147","634616","0.0-83.0-1.0","""event"",""trial"",""time""
""fullscreenenter"",""0"",""3673""
","
","
","""event"",""trial"",""time""
""fullscreenenter"",""0"",""3673""
","
","null","<p></p>","null","","","","","","","","","","","","","","","","","","","","","","",""
"","do_bye","148","636125","0.0-84.0-0.0","""event"",""trial"",""time""
""fullscreenenter"",""0"",""3673""
","
","
","""event"",""trial"",""time""
""fullscreenenter"",""0"",""3673""
","
","null","","","","","","","","null","","","","","","","","","","","","","","","","",""
"","break","149","637828","0.0-84.0-1.0","""event"",""trial"",""time""
""fullscreenenter"",""0"",""3673""
","
","
","""event"",""trial"",""time""
""fullscreenenter"",""0"",""3673""
","
","1701","<div class='center'><p>Time to take a quick break! You have 2 minutes to rest, but you can move on sooner if you'd like.</p><p> Press the <b>space bar</b> to continue.</p></div>","32","","","","","","","","","","","","","","","","","","","","","","",""
"","do_travel","150","646833","0.0-85.0-0.0","""event"",""trial"",""time""
""fullscreenenter"",""0"",""3673""
","
","
","""event"",""trial"",""time""
""fullscreenenter"",""0"",""3673""
","
","null","","","","","","","","null","","","","","","","","","","","","","","","","",""
"","do_welcome","151","650843","0.0-85.0-1.0","""event"",""trial"",""time""
""fullscreenenter"",""0"",""3673""
","
","
","""event"",""trial"",""time""
""fullscreenenter"",""0"",""3673""
","
","null","","","","","","","","null","","","","","","","","","","","","","","","","",""
"","do_trial","152","656710","0.0-86.0-0.0","""event"",""trial"",""time""
""fullscreenenter"",""0"",""3673""
","
","
","""event"",""trial"",""time""
""fullscreenenter"",""0"",""3673""
","
","1301.7999999998137","","","","","","","","50","1,0,0","1","countryside","30","probe-68","1","0.5214592424752315","0.26357997962282836","0","","","","","","","",""
"","html-keyboard-response","153","657712","0.0-86.0-1.0","""event"",""trial"",""time""
""fullscreenenter"",""0"",""3673""
","
","
","""event"",""trial"",""time""
""fullscreenenter"",""0"",""3673""
","
","null","<p></p>","null","","","","","","","","","","","","","","","","","","","","","","",""
"","do_trial","154","662596","0.0-87.0-0.0","""event"",""trial"",""time""
""fullscreenenter"",""0"",""3673""
","
","
","""event"",""trial"",""time""
""fullscreenenter"",""0"",""3673""
","
","317.6999999997206","","","","","","","","51","1,1,0","1","countryside","31","probe-213","1","0.41912920858806063","0.13286703518291565","0","","","","","","","",""
"","html-keyboard-response","155","663599","0.0-87.0-1.0","""event"",""trial"",""time""
""fullscreenenter"",""0"",""3673""
","
","
","""event"",""trial"",""time""
""fullscreenenter"",""0"",""3673""
","
","null","<p></p>","null","","","","","","","","","","","","","","","","","","","","","","",""
"","do_trial","156","668415","0.0-88.0-0.0","""event"",""trial"",""time""
""fullscreenenter"",""0"",""3673""
","
","
","""event"",""trial"",""time""
""fullscreenenter"",""0"",""3673""
","
","252.5","","","","","","","","49","1,1,0","1","countryside","32","probe-56","1","0.37198067157967096","0.15293161540414205","1","","","","","","","",""
"","html-keyboard-response","157","669418","0.0-88.0-1.0","""event"",""trial"",""time""
""fullscreenenter"",""0"",""3673""
","
","
","""event"",""trial"",""time""
""fullscreenenter"",""0"",""3673""
","
","null","<p></p>","null","","","","","","","","","","","","","","","","","","","","","","",""
"","do_trial","158","674392","0.0-89.0-0.0","""event"",""trial"",""time""
""fullscreenenter"",""0"",""3673""
","
","
","""event"",""trial"",""time""
""fullscreenenter"",""0"",""3673""
","
","410.09999999962747","","","","","","","","49","1,0,0","1","countryside","33","probe-98","0.8418801034285897","0.24236006731846807","0.05913194799398992","1","","","","","","","",""
"","html-keyboard-response","159","675395","0.0-89.0-1.0","""event"",""trial"",""time""
""fullscreenenter"",""0"",""3673""
","
","
","""event"",""trial"",""time""
""fullscreenenter"",""0"",""3673""
","
","null","<p></p>","null","","","","","","","","","","","","","","","","","","","","","","",""
"","do_trial","160","680319","0.0-90.0-0.0","""event"",""trial"",""time""
""fullscreenenter"",""0"",""3673""
","
","
","""event"",""trial"",""time""
""fullscreenenter"",""0"",""3673""
","
","356.79999999981374","","","","","","","","49","1,0,0","1","countryside","34","probe-166","0.7471433044684244","0.19455177313586414","0.12016914153399359","1","","","","","","","",""
"","html-keyboard-response","161","681323","0.0-90.0-1.0","""event"",""trial"",""time""
""fullscreenenter"",""0"",""3673""
","
","
","""event"",""trial"",""time""
""fullscreenenter"",""0"",""3673""
","
","null","<p></p>","null","","","","","","","","","","","","","","","","","","","","","","",""
"","do_trial","162","686128","0.0-91.0-0.0","""event"",""trial"",""time""
""fullscreenenter"",""0"",""3673""
","
","
","""event"",""trial"",""time""
""fullscreenenter"",""0"",""3673""
","
","242.39999999990687","","","","","","","","49","1,0,1","1","countryside","35","probe-27","0.783703805255441","0.2739221894929863","0.11437957968174589","1","","","","","","","",""
"","html-keyboard-response","163","687132","0.0-91.0-1.0","""event"",""trial"",""time""
""fullscreenenter"",""0"",""3673""
","
","
","""event"",""trial"",""time""
""fullscreenenter"",""0"",""3673""
","
","null","<p></p>","null","","","","","","","","","","","","","","","","","","","","","","",""
"","do_trial","164","691705","0.0-92.0-0.0","""event"",""trial"",""time""
""fullscreenenter"",""0"",""3673""
","
","
","""event"",""trial"",""time""
""fullscreenenter"",""0"",""3673""
","
","0.2999999998137355","","","","","","","","49","1,0,0","1","countryside","36","probe-23","0.8035704969834089","0.4094025363210442","0.163138870130906","1","","","","","","","",""
"","html-keyboard-response","165","692708","0.0-92.0-1.0","""event"",""trial"",""time""
""fullscreenenter"",""0"",""3673""
","
","
","""event"",""trial"",""time""
""fullscreenenter"",""0"",""3673""
","
","null","<p></p>","null","","","","","","","","","","","","","","","","","","","","","","",""
"","do_trial","166","697273","0.0-93.0-0.0","""event"",""trial"",""time""
""fullscreenenter"",""0"",""3673""
","
","
","""event"",""trial"",""time""
""fullscreenenter"",""0"",""3673""
","
","0.20000000018626451","","","","","","","","49","1,0,0","1","countryside","37","probe-49","0.618518072935231","0.3527542641244196","0.09841679770756677","1","","","","","","","",""
"","html-keyboard-response","167","698275","0.0-93.0-1.0","""event"",""trial"",""time""
""fullscreenenter"",""0"",""3673""
","
","
","""event"",""trial"",""time""
""fullscreenenter"",""0"",""3673""
","
","null","<p></p>","null","","","","","","","","","","","","","","","","","","","","","","",""
"","do_trial","168","702841","0.0-94.0-0.0","""event"",""trial"",""time""
""fullscreenenter"",""0"",""3673""
","
","
","""event"",""trial"",""time""
""fullscreenenter"",""0"",""3673""
","
","0.20000000018626451","","","","","","","","49","1,0,0","1","countryside","38","probe-129","0.7058439547553297","0.5150289695080603","0.08293430975499427","1","","","","","","","",""
"","html-keyboard-response","169","703844","0.0-94.0-1.0","""event"",""trial"",""time""
""fullscreenenter"",""0"",""3673""
","
","
","""event"",""trial"",""time""
""fullscreenenter"",""0"",""3673""
","
","null","<p></p>","null","","","","","","","","","","","","","","","","","","","","","","",""
"","do_trial","170","708446","0.0-95.0-0.0","""event"",""trial"",""time""
""fullscreenenter"",""0"",""3673""
","
","
","""event"",""trial"",""time""
""fullscreenenter"",""0"",""3673""
","
","38.299999999813735","","","","","","","","49","0,1,0","1","countryside","39","probe-174","0.6589881140623574","0.5268443589358375","0.2826987170914277","0","","","","","","","",""
"","html-keyboard-response","171","709449","0.0-95.0-1.0","""event"",""trial"",""time""
""fullscreenenter"",""0"",""3673""
","
","
","""event"",""trial"",""time""
""fullscreenenter"",""0"",""3673""
","
","null","<p></p>","null","","","","","","","","","","","","","","","","","","","","","","",""
"","do_trial","172","714024","0.0-96.0-0.0","""event"",""trial"",""time""
""fullscreenenter"",""0"",""3673""
","
","
","""event"",""trial"",""time""
""fullscreenenter"",""0"",""3673""
","
","0.39999999990686774","","","","","","","","49","1,0,0","1","countryside","40","probe-35","0.6886926523058693","0.6298440343737558","0.3744434145072474","1","","","","","","","",""
"","html-keyboard-response","173","715027","0.0-96.0-1.0","""event"",""trial"",""time""
""fullscreenenter"",""0"",""3673""
","
","
","""event"",""trial"",""time""
""fullscreenenter"",""0"",""3673""
","
","null","<p></p>","null","","","","","","","","","","","","","","","","","","","","","","",""
"","do_trial","174","719590","0.0-97.0-0.0","""event"",""trial"",""time""
""fullscreenenter"",""0"",""3673""
","
","
","""event"",""trial"",""time""
""fullscreenenter"",""0"",""3673""
","
","0.2999999998137355","","","","","","","","49","1,1,0","1","countryside","41","probe-119","0.7319356996639742","0.6117436971446153","0.3357845159025655","1","","","","","","","",""
"","html-keyboard-response","175","720594","0.0-97.0-1.0","""event"",""trial"",""time""
""fullscreenenter"",""0"",""3673""
","
","
","""event"",""trial"",""time""
""fullscreenenter"",""0"",""3673""
","
","null","<p></p>","null","","","","","","","","","","","","","","","","","","","","","","",""
"","do_trial","176","725317","0.0-98.0-0.0","""event"",""trial"",""time""
""fullscreenenter"",""0"",""3673""
","
","
","""event"",""trial"",""time""
""fullscreenenter"",""0"",""3673""
","
","158.29999999981374","","","","","","","","49","1,1,0","1","countryside","42","probe-176","0.4958425264425527","0.5923609492604913","0.2713403314127143","1","","","","","","","",""
"","html-keyboard-response","177","726320","0.0-98.0-1.0","""event"",""trial"",""time""
""fullscreenenter"",""0"",""3673""
","
","
","""event"",""trial"",""time""
""fullscreenenter"",""0"",""3673""
","
","null","<p></p>","null","","","","","","","","","","","","","","","","","","","","","","",""
"","do_trial","178","730937","0.0-99.0-0.0","""event"",""trial"",""time""
""fullscreenenter"",""0"",""3673""
","
","
","""event"",""trial"",""time""
""fullscreenenter"",""0"",""3673""
","
","52.60000000009313","","","","","","","","49","0,1,0","1","countryside","43","probe-93","0.319607633767896","0.6699614292757275","0.1050105146123067","0","","","","","","","",""
"","html-keyboard-response","179","731939","0.0-99.0-1.0","""event"",""trial"",""time""
""fullscreenenter"",""0"",""3673""
","
","
","""event"",""trial"",""time""
""fullscreenenter"",""0"",""3673""
","
","null","<p></p>","null","","","","","","","","","","","","","","","","","","","","","","",""
"","do_trial","180","736505","0.0-100.0-0.0","""event"",""trial"",""time""
""fullscreenenter"",""0"",""3673""
","
","
","""event"",""trial"",""time""
""fullscreenenter"",""0"",""3673""
","
","0.19999999972060323","","","","","","","","49","0,1,0","1","countryside","44","probe-218","0.3222001716657685","0.8513731792448599","0.14742063903486044","0","","","","","","","",""
"","html-keyboard-response","181","737508","0.0-100.0-1.0","""event"",""trial"",""time""
""fullscreenenter"",""0"",""3673""
","
","
","""event"",""trial"",""time""
""fullscreenenter"",""0"",""3673""
","
","null","<p></p>","null","","","","","","","","","","","","","","","","","","","","","","",""
"","do_trial","182","742646","0.0-101.0-0.0","""event"",""trial"",""time""
""fullscreenenter"",""0"",""3673""
","
","
","""event"",""trial"",""time""
""fullscreenenter"",""0"",""3673""
","
","574.5","","","","","","","","49","0,0,0","1","countryside","45","probe-116","0.2071456341517096","0.6435262941857053","0.13367829198326597","0","","","","","","","",""
"","html-keyboard-response","183","743649","0.0-101.0-1.0","""event"",""trial"",""time""
""fullscreenenter"",""0"",""3673""
","
","
","""event"",""trial"",""time""
""fullscreenenter"",""0"",""3673""
","
","null","<p></p>","null","","","","","","","","","","","","","","","","","","","","","","",""
"","do_trial","184","748215","0.0-102.0-0.0","""event"",""trial"",""time""
""fullscreenenter"",""0"",""3673""
","
","
","""event"",""trial"",""time""
""fullscreenenter"",""0"",""3673""
","
","0.20000000018626451","","","","","","","","51","0,0,0","1","countryside","46","probe-25","0.1955891673751507","0.7636493462672492","0.18742509264135307","0","","","","","","","",""
"","html-keyboard-response","185","749218","0.0-102.0-1.0","""event"",""trial"",""time""
""fullscreenenter"",""0"",""3673""
","
","
","""event"",""trial"",""time""
""fullscreenenter"",""0"",""3673""
","
","null","<p></p>","null","","","","","","","","","","","","","","","","","","","","","","",""
"","do_trial","186","754529","0.0-103.0-0.0","""event"",""trial"",""time""
""fullscreenenter"",""0"",""3673""
","
","
","""event"",""trial"",""time""
""fullscreenenter"",""0"",""3673""
","
","747.8999999999069","","","","","","","","50","1,1,0","1","countryside","47","probe-120","0.3893687408905979","0.7354669183535234","0.13075090017309335","1","","","","","","","",""
"","html-keyboard-response","187","755532","0.0-103.0-1.0","""event"",""trial"",""time""
""fullscreenenter"",""0"",""3673""
","
","
","""event"",""trial"",""time""
""fullscreenenter"",""0"",""3673""
","
","null","<p></p>","null","","","","","","","","","","","","","","","","","","","","","","",""
"","do_trial","188","760096","0.0-104.0-0.0","""event"",""trial"",""time""
""fullscreenenter"",""0"",""3673""
","
","
","""event"",""trial"",""time""
""fullscreenenter"",""0"",""3673""
","
","0.20000000018626451","","","","","","","","50","1,1,0","1","countryside","48","probe-90","0.603869820557106","0.6285249157688734","0.07927505038378295","1","","","","","","","",""
"","html-keyboard-response","189","761099","0.0-104.0-1.0","""event"",""trial"",""time""
""fullscreenenter"",""0"",""3673""
","
","
","""event"",""trial"",""time""
""fullscreenenter"",""0"",""3673""
","
","null","<p></p>","null","","","","","","","","","","","","","","","","","","","","","","",""
"","do_trial","190","765662","0.0-105.0-0.0","""event"",""trial"",""time""
""fullscreenenter"",""0"",""3673""
","
","
","""event"",""trial"",""time""
""fullscreenenter"",""0"",""3673""
","
","0.19999999972060323","","","","","","","","50","1,1,0","1","countryside","49","probe-197","0.5304067227121189","0.4075078772542497","0.08828198331943249","1","","","","","","","",""
"","html-keyboard-response","191","766665","0.0-105.0-1.0","""event"",""trial"",""time""
""fullscreenenter"",""0"",""3673""
","
","
","""event"",""trial"",""time""
""fullscreenenter"",""0"",""3673""
","
","null","<p></p>","null","","","","","","","","","","","","","","","","","","","","","","",""
"","do_trial","192","771292","0.0-106.0-0.0","""event"",""trial"",""time""
""fullscreenenter"",""0"",""3673""
","
","
","""event"",""trial"",""time""
""fullscreenenter"",""0"",""3673""
","
","63.10000000009313","","","","","","","","50","1,1,0","1","countryside","50","probe-149","0.5285966704976075","0.6001641938344418","0.1022929822425582","1","","","","","","","",""
"","html-keyboard-response","193","772295","0.0-106.0-1.0","""event"",""trial"",""time""
""fullscreenenter"",""0"",""3673""
","
","
","""event"",""trial"",""time""
""fullscreenenter"",""0"",""3673""
","
","null","<p></p>","null","","","","","","","","","","","","","","","","","","","","","","",""
"","do_trial","194","776860","0.0-107.0-0.0","""event"",""trial"",""time""
""fullscreenenter"",""0"",""3673""
","
","
","""event"",""trial"",""time""
""fullscreenenter"",""0"",""3673""
","
","0.2999999998137355","","","","","","","","50","1,0,0","1","countryside","51","probe-107","0.399768059094832","0.614208338170859","0.19050408031382574","0","","","","","","","",""
"","html-keyboard-response","195","777863","0.0-107.0-1.0","""event"",""trial"",""time""
""fullscreenenter"",""0"",""3673""
","
","
","""event"",""trial"",""time""
""fullscreenenter"",""0"",""3673""
","
","null","<p></p>","null","","","","","","","","","","","","","","","","","","","","","","",""
"","do_trial","196","782596","0.0-108.0-0.0","""event"",""trial"",""time""
""fullscreenenter"",""0"",""3673""
","
","
","""event"",""trial"",""time""
""fullscreenenter"",""0"",""3673""
","
","169.60000000009313","","","","","","","","50","1,1,0","1","countryside","52","probe-185","0.38517115071582164","0.7423245096893358","0.26302264155778327","1","","","","","","","",""
"","html-keyboard-response","197","783598","0.0-108.0-1.0","""event"",""trial"",""time""
""fullscreenenter"",""0"",""3673""
","
","
","""event"",""trial"",""time""
""fullscreenenter"",""0"",""3673""
","
","null","<p></p>","null","","","","","","","","","","","","","","","","","","","","","","",""
"","do_trial","198","788349","0.0-109.0-0.0","""event"",""trial"",""time""
""fullscreenenter"",""0"",""3673""
","
","
","""event"",""trial"",""time""
""fullscreenenter"",""0"",""3673""
","
","185.39999999990687","","","","","","","","50","1,0,0","1","countryside","53","probe-139","0.5078749887536698","0.6318185509250075","0.15765068517716171","0","","","","","","","",""
"","html-keyboard-response","199","789351","0.0-109.0-1.0","""event"",""trial"",""time""
""fullscreenenter"",""0"",""3673""
","
","
","""event"",""trial"",""time""
""fullscreenenter"",""0"",""3673""
","
","null","<p></p>","null","","","","","","","","","","","","","","","","","","","","","","",""
"","do_trial","200","794027","0.0-110.0-0.0","""event"",""trial"",""time""
""fullscreenenter"",""0"",""3673""
","
","
","""event"",""trial"",""time""
""fullscreenenter"",""0"",""3673""
","
","108.70000000018626","","","","","","","","50","1,0,0","1","countryside","54","probe-163","0.33802872567884806","0.5702524944957934","0.1336577566694191","0","","","","","","","",""
"","html-keyboard-response","201","795030","0.0-110.0-1.0","""event"",""trial"",""time""
""fullscreenenter"",""0"",""3673""
","
","
","""event"",""trial"",""time""
""fullscreenenter"",""0"",""3673""
","
","null","<p></p>","null","","","","","","","","","","","","","","","","","","","","","","",""
"","do_trial","202","799609","0.0-111.0-0.0","""event"",""trial"",""time""
""fullscreenenter"",""0"",""3673""
","
","
","""event"",""trial"",""time""
""fullscreenenter"",""0"",""3673""
","
","13.700000000186265","","","","","","","","51","1,0,0","1","countryside","55","probe-122","0.296874574041279","0.6023088809683761","0.25400181354342904","0","","","","","","","",""
"","html-keyboard-response","203","800611","0.0-111.0-1.0","""event"",""trial"",""time""
""fullscreenenter"",""0"",""3673""
","
","
","""event"",""trial"",""time""
""fullscreenenter"",""0"",""3673""
","
","null","<p></p>","null","","","","","","","","","","","","","","","","","","","","","","",""
"","do_trial","204","805205","0.0-112.0-0.0","""event"",""trial"",""time""
""fullscreenenter"",""0"",""3673""
","
","
","""event"",""trial"",""time""
""fullscreenenter"",""0"",""3673""
","
","29.600000000093132","","","","","","","","49","1,0,0","1","countryside","56","probe-208","0.3526749417036784","0.482981708072048","0.09117651411031409","1","","","","","","","",""
"","html-keyboard-response","205","806208","0.0-112.0-1.0","""event"",""trial"",""time""
""fullscreenenter"",""0"",""3673""
","
","
","""event"",""trial"",""time""
""fullscreenenter"",""0"",""3673""
","
","null","<p></p>","null","","","","","","","","","","","","","","","","","","","","","","",""
"","do_trial","206","810956","0.0-113.0-0.0","""event"",""trial"",""time""
""fullscreenenter"",""0"",""3673""
","
","
","""event"",""trial"",""time""
""fullscreenenter"",""0"",""3673""
","
","183.79999999981374","","","","","","","","49","0,0,0","1","countryside","57","probe-124","0.2141869817503063","0.6121701420942798","0.064146030814646","0","","","","","","","",""
"","html-keyboard-response","207","811959","0.0-113.0-1.0","""event"",""trial"",""time""
""fullscreenenter"",""0"",""3673""
","
","
","""event"",""trial"",""time""
""fullscreenenter"",""0"",""3673""
","
","null","<p></p>","null","","","","","","","","","","","","","","","","","","","","","","",""
"","do_trial","208","816546","0.0-114.0-0.0","""event"",""trial"",""time""
""fullscreenenter"",""0"",""3673""
","
","
","""event"",""trial"",""time""
""fullscreenenter"",""0"",""3673""
","
","21.199999999720603","","","","","","","","49","0,1,1","1","countryside","58","probe-79","0.2964442263400009","0.6475803872292106","0.16823240524017555","0","","","","","","","",""
"","html-keyboard-response","209","817549","0.0-114.0-1.0","""event"",""trial"",""time""
""fullscreenenter"",""0"",""3673""
","
","
","""event"",""trial"",""time""
""fullscreenenter"",""0"",""3673""
","
","null","<p></p>","null","","","","","","","","","","","","","","","","","","","","","","",""
"","do_trial","210","822113","0.0-115.0-0.0","""event"",""trial"",""time""
""fullscreenenter"",""0"",""3673""
","
","
","""event"",""trial"",""time""
""fullscreenenter"",""0"",""3673""
","
","0.3000000002793968","","","","","","","","50","1,1,0","1","countryside","59","probe-179","0.33873200003478693","0.675646122911104","0.19917787417707977","1","","","","","","","",""
"","html-keyboard-response","211","823116","0.0-115.0-1.0","""event"",""trial"",""time""
""fullscreenenter"",""0"",""3673""
","
","
","""event"",""trial"",""time""
""fullscreenenter"",""0"",""3673""
","
","null","<p></p>","null","","","","","","","","","","","","","","","","","","","","","","",""
"","do_trial","212","827680","0.0-116.0-0.0","""event"",""trial"",""time""
""fullscreenenter"",""0"",""3673""
","
","
","""event"",""trial"",""time""
""fullscreenenter"",""0"",""3673""
","
","0.40000000037252903","","","","","","","","50","0,1,1","1","countryside","60","probe-07","0.35182371918179217","0.8334337088835815","0.19018783281168564","1","","","","","","","",""
"","html-keyboard-response","213","828683","0.0-116.0-1.0","""event"",""trial"",""time""
""fullscreenenter"",""0"",""3673""
","
","
","""event"",""trial"",""time""
""fullscreenenter"",""0"",""3673""
","
","null","<p></p>","null","","","","","","","","","","","","","","","","","","","","","","",""
"","do_trial","214","833271","0.0-117.0-0.0","""event"",""trial"",""time""
""fullscreenenter"",""0"",""3673""
","
","
","""event"",""trial"",""time""
""fullscreenenter"",""0"",""3673""
","
","24.700000000186265","","","","","","","","50","1,0,0","1","countryside","61","probe-39","0.3388559482748595","0.8127579266310868","0.07084872875954248","0","","","","","","","",""
"","html-keyboard-response","215","834274","0.0-117.0-1.0","""event"",""trial"",""time""
""fullscreenenter"",""0"",""3673""
","
","
","""event"",""trial"",""time""
""fullscreenenter"",""0"",""3673""
","
","null","<p></p>","null","","","","","","","","","","","","","","","","","","","","","","",""
"","do_trial","216","838839","0.0-118.0-0.0","""event"",""trial"",""time""
""fullscreenenter"",""0"",""3673""
","
","
","""event"",""trial"",""time""
""fullscreenenter"",""0"",""3673""
","
","0.20000000018626451","","","","","","","","50","1,1,0","1","countryside","62","probe-187","0.23732159581544493","0.5739932630105596","0.07762651736960444","1","","","","","","","",""
"","html-keyboard-response","217","839841","0.0-118.0-1.0","""event"",""trial"",""time""
""fullscreenenter"",""0"",""3673""
","
","
","""event"",""trial"",""time""
""fullscreenenter"",""0"",""3673""
","
","null","<p></p>","null","","","","","","","","","","","","","","","","","","","","","","",""
"","do_trial","218","844416","0.0-119.0-0.0","""event"",""trial"",""time""
""fullscreenenter"",""0"",""3673""
","
","
","""event"",""trial"",""time""
""fullscreenenter"",""0"",""3673""
","
","0.900000000372529","","","","","","","","50","0,1,0","1","countryside","63","probe-171","0.1478670617685086","0.5569046519805025","0.11838448490588567","1","","","","","","","",""
"","html-keyboard-response","219","845419","0.0-119.0-1.0","""event"",""trial"",""time""
""fullscreenenter"",""0"",""3673""
","
","
","""event"",""trial"",""time""
""fullscreenenter"",""0"",""3673""
","
","null","<p></p>","null","","","","","","","","","","","","","","","","","","","","","","",""
"","do_trial","220","849982","0.0-120.0-0.0","""event"",""trial"",""time""
""fullscreenenter"",""0"",""3673""
","
","
","""event"",""trial"",""time""
""fullscreenenter"",""0"",""3673""
","
","0.3000000002793968","","","","","","","","50","0,0,0","1","countryside","64","probe-92","0.16609634532753653","0.41707824728140636","0.24045347715104584","0","","","","","","","",""
"","html-keyboard-response","221","850985","0.0-120.0-1.0","""event"",""trial"",""time""
""fullscreenenter"",""0"",""3673""
","
","
","""event"",""trial"",""time""
""fullscreenenter"",""0"",""3673""
","
","null","<p></p>","null","","","","","","","","","","","","","","","","","","","","","","",""
"","do_trial","222","855549","0.0-121.0-0.0","""event"",""trial"",""time""
""fullscreenenter"",""0"",""3673""
","
","
","""event"",""trial"",""time""
""fullscreenenter"",""0"",""3673""
","
","0.2999999998137355","","","","","","","","50","0,0,0","1","countryside","65","probe-46","0.21120439117253306","0.5179557114034034","0.06053265228062893","0","","","","","","","",""
"","html-keyboard-response","223","856552","0.0-121.0-1.0","""event"",""trial"",""time""
""fullscreenenter"",""0"",""3673""
","
","
","""event"",""trial"",""time""
""fullscreenenter"",""0"",""3673""
","
","null","<p></p>","null","","","","","","","","","","","","","","","","","","","","","","",""
"","do_trial","224","861116","0.0-122.0-0.0","""event"",""trial"",""time""
""fullscreenenter"",""0"",""3673""
","
","
","""event"",""trial"",""time""
""fullscreenenter"",""0"",""3673""
","
","0.40000000037252903","","","","","","","","51","0,0,0","1","countryside","66","probe-142","0.15174105334484866","0.6457665357964107","0.11062737713671923","0","","","","","","","",""
"","html-keyboard-response","225","862119","0.0-122.0-1.0","""event"",""trial"",""time""
""fullscreenenter"",""0"",""3673""
","
","
","""event"",""trial"",""time""
""fullscreenenter"",""0"",""3673""
","
","null","<p></p>","null","","","","","","","","","","","","","","","","","","","","","","",""
"","do_trial","226","866689","0.0-123.0-0.0","""event"",""trial"",""time""
""fullscreenenter"",""0"",""3673""
","
","
","""event"",""trial"",""time""
""fullscreenenter"",""0"",""3673""
","
","6.7000000001862645","","","","","","","","49","0,1,0","1","countryside","67","probe-10","0.14140450397366347","0.6862241668002264","0.19333628002349912","0","","","","","","","",""
"","html-keyboard-response","227","867692","0.0-123.0-1.0","""event"",""trial"",""time""
""fullscreenenter"",""0"",""3673""
","
","
","""event"",""trial"",""time""
""fullscreenenter"",""0"",""3673""
","
","null","<p></p>","null","","","","","","","","","","","","","","","","","","","","","","",""
"","do_trial","228","873243","0.0-124.0-0.0","""event"",""trial"",""time""
""fullscreenenter"",""0"",""3673""
","
","
","""event"",""trial"",""time""
""fullscreenenter"",""0"",""3673""
","
","986.5999999996275","","","","","","","","49","0,0,0","1","countryside","68","probe-227","0.16400452747349892","0.5022235483911468","0.12927184433199287","0","","","","","","","",""
"","html-keyboard-response","229","874246","0.0-124.0-1.0","""event"",""trial"",""time""
""fullscreenenter"",""0"",""3673""
","
","
","""event"",""trial"",""time""
""fullscreenenter"",""0"",""3673""
","
","null","<p></p>","null","","","","","","","","","","","","","","","","","","","","","","",""
"","do_trial","230","878815","0.0-125.0-0.0","""event"",""trial"",""time""
""fullscreenenter"",""0"",""3673""
","
","
","""event"",""trial"",""time""
""fullscreenenter"",""0"",""3673""
","
","4.199999999720603","","","","","","","","50","0,0,0","1","countryside","69","probe-180","0.17541482849210382","0.47591799971158005","0.1363310248425711","0","","","","","","","",""
"","html-keyboard-response","231","879818","0.0-125.0-1.0","""event"",""trial"",""time""
""fullscreenenter"",""0"",""3673""
","
","
","""event"",""trial"",""time""
""fullscreenenter"",""0"",""3673""
","
","null","<p></p>","null","","","","","","","","","","","","","","","","","","","","","","",""
"","do_bye","232","881325","0.0-126.0-0.0","""event"",""trial"",""time""
""fullscreenenter"",""0"",""3673""
","
","
","""event"",""trial"",""time""
""fullscreenenter"",""0"",""3673""
","
","null","","","","","","","","null","","","","","","","","","","","","","","","","",""
"","break","233","883633","0.0-126.0-1.0","""event"",""trial"",""time""
""fullscreenenter"",""0"",""3673""
","
","
","""event"",""trial"",""time""
""fullscreenenter"",""0"",""3673""
","
","2306.7000000001863","<div class='center'><p>Time to take a quick break! You have 2 minutes to rest, but you can move on sooner if you'd like.</p><p> Press the <b>space bar</b> to continue.</p></div>","32","","","","","","","","","","","","","","","","","","","","","","",""
"","do_travel","234","892640","0.0-127.0-0.0","""event"",""trial"",""time""
""fullscreenenter"",""0"",""3673""
","
","
","""event"",""trial"",""time""
""fullscreenenter"",""0"",""3673""
","
","null","","","","","","","","null","","","","","","","","","","","","","","","","",""
"","do_welcome","235","896646","0.0-127.0-1.0","""event"",""trial"",""time""
""fullscreenenter"",""0"",""3673""
","
","
","""event"",""trial"",""time""
""fullscreenenter"",""0"",""3673""
","
","null","","","","","","","","null","","","","","","","","","","","","","","","","",""
"","do_trial","236","902407","0.0-128.0-0.0","""event"",""trial"",""time""
""fullscreenenter"",""0"",""3673""
","
","
","""event"",""trial"",""time""
""fullscreenenter"",""0"",""3673""
","
","1196.7000000001863","","","","","","","","49","0,1,0","2","coast","70","probe-200","0.21913861870004922","1","0.18505242718943443","0","","","","","","","",""
"","html-keyboard-response","237","903410","0.0-128.0-1.0","""event"",""trial"",""time""
""fullscreenenter"",""0"",""3673""
","
","
","""event"",""trial"",""time""
""fullscreenenter"",""0"",""3673""
","
","null","<p></p>","null","","","","","","","","","","","","","","","","","","","","","","",""
"","do_trial","238","907977","0.0-129.0-0.0","""event"",""trial"",""time""
""fullscreenenter"",""0"",""3673""
","
","
","""event"",""trial"",""time""
""fullscreenenter"",""0"",""3673""
","
","0.2999999998137355","","","","","","","","50","0,1,0","2","coast","71","probe-97","0.3381346871701665","1","0.08051155484294036","1","","","","","","","",""
"","html-keyboard-response","239","908979","0.0-129.0-1.0","""event"",""trial"",""time""
""fullscreenenter"",""0"",""3673""
","
","
","""event"",""trial"",""time""
""fullscreenenter"",""0"",""3673""
","
","null","<p></p>","null","","","","","","","","","","","","","","","","","","","","","","",""
"","do_trial","240","913544","0.0-130.0-0.0","""event"",""trial"",""time""
""fullscreenenter"",""0"",""3673""
","
","
","""event"",""trial"",""time""
""fullscreenenter"",""0"",""3673""
","
","0.20000000018626451","","","","","","","","50","0,1,1","2","coast","72","probe-219","0.361867334327962","0.8810187985519966","0.0707796576555904","1","","","","","","","",""
"","html-keyboard-response","241","914546","0.0-130.0-1.0","""event"",""trial"",""time""
""fullscreenenter"",""0"",""3673""
","
","
","""event"",""trial"",""time""
""fullscreenenter"",""0"",""3673""
","
","null","<p></p>","null","","","","","","","","","","","","","","","","","","","","","","",""
"","do_trial","242","919112","0.0-131.0-0.0","""event"",""trial"",""time""
""fullscreenenter"",""0"",""3673""
","
","
","""event"",""trial"",""time""
""fullscreenenter"",""0"",""3673""
","
","1.1999999997206032","","","","","","","","50","0,1,0","2","coast","73","probe-118","0.2804014459426228","0.822438951514456","0.05305916156893122","1","","","","","","","",""
"","html-keyboard-response","243","920114","0.0-131.0-1.0","""event"",""trial"",""time""
""fullscreenenter"",""0"",""3673""
","
","
","""event"",""trial"",""time""
""fullscreenenter"",""0"",""3673""
","
","null","<p></p>","null","","","","","","","","","","","","","","","","","","","","","","",""
"","do_trial","244","924761","0.0-132.0-0.0","""event"",""trial"",""time""
""fullscreenenter"",""0"",""3673""
","
","
","""event"",""trial"",""time""
""fullscreenenter"",""0"",""3673""
","
","85.10000000009313","","","","","","","","50","1,0,0","2","coast","74","probe-198","0.2933183101078724","0.5884492577196686","0.09603085126851284","0","","","","","","","",""
"","html-keyboard-response","245","925764","0.0-132.0-1.0","""event"",""trial"",""time""
""fullscreenenter"",""0"",""3673""
","
","
","""event"",""trial"",""time""
""fullscreenenter"",""0"",""3673""
","
","null","<p></p>","null","","","","","","","","","","","","","","","","","","","","","","",""
"","do_trial","246","930328","0.0-133.0-0.0","""event"",""trial"",""time""
""fullscreenenter"",""0"",""3673""
","
","
","""event"",""trial"",""time""
""fullscreenenter"",""0"",""3673""
","
","0.39999999990686774","","","","","","","","50","0,1,0","2","coast","75","probe-81","0.26983433665307816","0.7304014920819434","0.05086768785156491","1","","","","","","","",""
"","html-keyboard-response","247","931330","0.0-133.0-1.0","""event"",""trial"",""time""
""fullscreenenter"",""0"",""3673""
","
","
","""event"",""trial"",""time""
""fullscreenenter"",""0"",""3673""
","
","null","<p></p>","null","","","","","","","","","","","","","","","","","","","","","","",""
"","do_trial","248","935894","0.0-134.0-0.0","""event"",""trial"",""time""
""fullscreenenter"",""0"",""3673""
","
","
","""event"",""trial"",""time""
""fullscreenenter"",""0"",""3673""
","
","0.3000000002793968","","","","","","","","50","0,1,0","2","coast","76","probe-111","0.25516141629210887","0.7354666995191204","0.15243369057984538","1","","","","","","","",""
"","html-keyboard-response","249","936897","0.0-134.0-1.0","""event"",""trial"",""time""
""fullscreenenter"",""0"",""3673""
","
","
","""event"",""trial"",""time""
""fullscreenenter"",""0"",""3673""
","
","null","<p></p>","null","","","","","","","","","","","","","","","","","","","","","","",""
"","do_trial","250","941460","0.0-135.0-0.0","""event"",""trial"",""time""
""fullscreenenter"",""0"",""3673""
","
","
","""event"",""trial"",""time""
""fullscreenenter"",""0"",""3673""
","
","0.19999999972060323","","","","","","","","50","0,1,0","2","coast","77","probe-02","0.203365762572011","0.7175892701820111","0.1458672106948735","1","","","","","","","",""
"","html-keyboard-response","251","942463","0.0-135.0-1.0","""event"",""trial"",""time""
""fullscreenenter"",""0"",""3673""
","
","
","""event"",""trial"",""time""
""fullscreenenter"",""0"",""3673""
","
","null","<p></p>","null","","","","","","","","","","","","","","","","","","","","","","",""
"","do_trial","252","947072","0.0-136.0-0.0","""event"",""trial"",""time""
""fullscreenenter"",""0"",""3673""
","
","
","""event"",""trial"",""time""
""fullscreenenter"",""0"",""3673""
","
","46.299999999813735","","","","","","","","50","0,1,0","2","coast","78","probe-109","0.180340271817402","0.7648887739666832","0.14602891085732883","1","","","","","","","",""
"","html-keyboard-response","253","948074","0.0-136.0-1.0","""event"",""trial"",""time""
""fullscreenenter"",""0"",""3673""
","
","
","""event"",""trial"",""time""
""fullscreenenter"",""0"",""3673""
","
","null","<p></p>","null","","","","","","","","","","","","","","","","","","","","","","",""
"","do_trial","254","953061","0.0-137.0-0.0","""event"",""trial"",""time""
""fullscreenenter"",""0"",""3673""
","
","
","""event"",""trial"",""time""
""fullscreenenter"",""0"",""3673""
","
","421.3000000002794","","","","","","","","50","0,0,0","2","coast","79","probe-95","0.2297169060820342","0.6624772258033843","0.11575842627796341","0","","","","","","","",""
"","html-keyboard-response","255","954063","0.0-137.0-1.0","""event"",""trial"",""time""
""fullscreenenter"",""0"",""3673""
","
","
","""event"",""trial"",""time""
""fullscreenenter"",""0"",""3673""
","
","null","<p></p>","null","","","","","","","","","","","","","","","","","","","","","","",""
"","do_trial","256","958685","0.0-138.0-0.0","""event"",""trial"",""time""
""fullscreenenter"",""0"",""3673""
","
","
","""event"",""trial"",""time""
""fullscreenenter"",""0"",""3673""
","
","57.39999999990687","","","","","","","","50","0,1,0","2","coast","80","probe-167","0.25151377808051417","0.4874710372659336","0.15774873478388343","1","","","","","","","",""
"","html-keyboard-response","257","959687","0.0-138.0-1.0","""event"",""trial"",""time""
""fullscreenenter"",""0"",""3673""
","
","
","""event"",""trial"",""time""
""fullscreenenter"",""0"",""3673""
","
","null","<p></p>","null","","","","","","","","","","","","","","","","","","","","","","",""
"","do_trial","258","964328","0.0-139.0-0.0","""event"",""trial"",""time""
""fullscreenenter"",""0"",""3673""
","
","
","""event"",""trial"",""time""
""fullscreenenter"",""0"",""3673""
","
","75.89999999990687","","","","","","","","50","0,0,0","2","coast","81","probe-170","0.3407791066910536","0.44845072392948","0.13652781009227344","0","","","","","","","",""
"","html-keyboard-response","259","965330","0.0-139.0-1.0","""event"",""trial"",""time""
""fullscreenenter"",""0"",""3673""
","
","
","""event"",""trial"",""time""
""fullscreenenter"",""0"",""3673""
","
","null","<p></p>","null","","","","","","","","","","","","","","","","","","","","","","",""
"","do_trial","260","969896","0.0-140.0-0.0","""event"",""trial"",""time""
""fullscreenenter"",""0"",""3673""
","
","
","""event"",""trial"",""time""
""fullscreenenter"",""0"",""3673""
","
